gyroscope_timestamp	gyroscope_x_data	gyroscope_y_data	gyroscope_z_data
7828495949000	-0.03023783	0.1441642	-0.03359759
7828503609000	0.022907447	0.1441642	-0.02565634
7828514474000	0.2751948	-0.12858713	-0.03176499
7828523354000	-0.20158553	-1.450805	-0.50793445
7828532662000	-0.30390546	0.73975784	-1.0852021
7828544259000	-0.109650314	0.93370754	-1.1640037
7828552682000	-0.13530666	-0.14294247	-1.1545353
7828565835000	-0.12980886	0.0018325958	-1.1545353
7828572579000	-0.12980886	0.0015271631	-1.1435398
7828584817000	-0.12736541	-0.012217305	-1.1291844
7828592599000	-0.12767084	-0.028710667	-1.0873401
7828605782000	-0.15088372	-0.06291912	-1.0351112
7828612588000	-0.19303341	-0.083383106	-0.98471475
7828623238000	-0.25809056	-0.076358154	-0.94806284
7828632607000	-0.35643986	-0.04795292	-0.8863655
7828643227000	-0.43188173	-0.011911872	-0.81245077
7828652657000	-0.4129449	0.01740966	-0.80848014
7828665719000	-0.3213151	-0.03481932	-0.8170323
7828672677000	-0.24770586	-0.27947086	-0.8426886
7828683358000	-0.21624629	-0.6035349	-0.98532563
7828692666000	-0.18509217	-0.8765916	-1.0961977
7828703347000	-0.086437434	-1.0998629	-1.1047498
7828712685000	0.11209377	-1.1863003	-1.0106765
7828724221000	0.38362336	-1.035722	-0.8533788
7828732705000	0.54061574	-0.6585127	-0.6533204
7828743355000	0.90408057	-0.40225476	-0.5348125
7828752724000	1.3652838	0.09865474	-0.2657264
7828765023000	1.8231273	0.09468412	0.03726278
7828772774000	2.0470095	-0.67164636	0.36774087
7828784371000	1.9538525	-1.6374242	0.65026605
7828792763000	1.5491543	-2.3671029	0.8032878
7828803414000	0.7867944	-2.9379563	0.84391034
7828812813000	-0.12767084	-3.2760704	0.81153446
7828824074000	-0.5864306	-3.0140092	0.68569624
7828832802000	-0.042760566	-2.3133466	0.464563
7828845925000	0.6621779	-1.6911805	0.3042109
7828853798000	0.5714644	-0.59528816	0.3494149
7828863534000	0.35185838	1.2492194	0.44715336
7828872841000	0.5314528	2.6401596	0.33108896
7828883523000	0.7296785	2.917187	0.07971791
7828892892000	0.729984	2.5723536	-0.03726278
7828904580000	0.63346726	2.334727	-0.23335053
7828912911000	0.60048056	1.7519615	-0.37384954
7828923623000	0.64812803	1.0983357	-0.42210788
7828932931000	0.6973027	0.67256266	-0.39767328
7828945138000	0.6899723	0.41996986	-0.37507126
7828952920000	0.61178154	0.13958271	-0.3848451
7828966195000	0.5299256	-0.124005646	-0.39614612
7828972970000	0.48441613	-0.24648413	-0.37843102
7828983620000	0.46914452	-0.17287487	-0.3659083
7828992989000	0.48349985	0.03023783	-0.3830125
7829003701000	0.5128214	0.22510384	-0.3930918
7829013070000	0.5299256	0.34147367	-0.3735441
7829027718000	0.5204572	0.39858958	-0.32559118
7829033028000	0.4804455	0.41233405	-0.25534168
7829043740000	0.44868052	0.419359	-0.21746802
7829053628000	0.38789943	0.4364632	-0.14080444
7829063698000	0.3494149	0.49846604	-0.07238753
7829073037000	0.32986724	0.57696223	-0.01985312
7829086281000	0.32803464	0.64568454	0.03359759
7829093087000	0.33567044	0.68325275	0.08277224
7829103768000	0.35796702	0.6933321	0.12095132
7829113076000	0.3848451	0.70005155	0.16279559
7829125435000	0.38912117	0.6963864	0.19822577
7829133095000	0.36102137	0.64843345	0.21991149
7829146371000	0.3313944	0.56169057	0.22937989
7829153298000	0.3368922	0.47219884	0.21777347
7829164589000	0.3717115	0.44501534	0.17623462
7829173134000	0.40286562	0.47128254	0.089186326
7829183785000	0.40317106	0.4636467	-0.028405234
7829193154000	0.39767328	0.38087448	-0.0870483
7829206215000	0.4025602	0.32375857	-0.17989981
7829213204000	0.42943826	0.23243423	-0.22815818
7829223794000	0.441961	0.22785273	-0.24404067
7829233193000	0.41325033	0.3304781	-0.24556783
7829243874000	0.36651915	0.52931476	-0.28924468
7829253213000	0.30298916	0.7742717	-0.4279111
7829264748000	0.15271631	0.99387777	-0.61850107
7829273232000	-0.05131268	1.1349876	-0.8035932
7829283913000	-0.2144137	1.1215485	-0.9825767
7829293252000	-0.3304781	0.91904676	-1.1578951
7829305489000	-0.42424592	0.6423248	-1.282817
7829313271000	-0.50243664	0.5164866	-1.3170254
7829325020000	-0.5467244	0.6169739	-1.3051136
7829333291000	-0.5390886	0.79259765	-1.3118331
7829343911000	-0.5155703	0.9080512	-1.3585643
7829353310000	-0.4474588	0.9285152	-1.3888022
7829363961000	-0.39920044	0.93309665	-1.4220943
7829373330000	-0.45631635	0.9550878	-1.3319917
7829386391000	-0.70463306	0.90224797	-1.0021244
7829393349000	-1.0726794	0.52290064	-0.44684792
7829404030000	-1.3988814	-0.17562376	0.1423316
7829413369000	-1.5861117	-0.7837401	0.59895337
7829424050000	-1.6358972	-0.8872818	0.9462303
7829433541000	-1.609019	-0.49418998	1.2635747
7829445229000	-1.5894713	0.062308256	1.4874569
7829454171000	-1.5748106	0.6084218	1.534799
7829464425000	-1.529912	1.033584	1.4004086
7829473946000	-1.4963144	1.2095132	1.1175779
7829486184000	-1.4596626	1.1960741	0.73426
7829493966000	-1.3579534	1.0433578	0.31215215
7829505593000	-1.2867876	0.7476991	-0.09896017
7829513833000	-1.1520919	0.37323865	-0.28863382
7829524697000	-1.078788	0.20769419	-0.6249151
7829534005000	-1.044885	0.037873644	-0.8857546
7829544686000	-0.958753	0.05467244	-1.056186
7829554024000	-0.840856	0.06047566	-1.1239921
7829569161000	-0.79168135	-0.025350908	-1.067487
7829574227000	-0.80848014	-0.16493362	-0.8903361
7829584908000	-0.83077675	-0.33322698	-0.6038403
7829594277000	-0.80909103	-0.49327368	-0.25045475
7829604989000	-0.7244862	-0.61117065	0.077579886
7829614449000	-0.61391956	-0.6728681	0.30298916
7829626076000	-0.47219884	-0.70707655	0.39370266
7829634469000	-0.3051272	-0.7244862	0.39461896
7829645119000	-0.15057829	-0.7333437	0.39950588
7829654091000	-0.0143553335	-0.75625116	0.44501534
7829665902000	0.050701816	-0.81122905	0.47616947
7829673623000	0.1777618	-0.86009824	0.54336464
7829687050000	0.29810223	-0.98654735	0.60994893
7829693673000	0.39920044	-1.0861185	0.68783426
7829704323000	0.4654793	-1.1169671	0.7809912
7829713662000	0.49754974	-1.102001	0.86254174
7829724312000	0.5119051	-1.0797043	0.8872818
7829733681000	0.51893	-1.0619892	0.8219192
7829746743000	0.54641896	-1.0189233	0.68844515
7829753792000	0.5870415	-0.945314	0.5354234
7829765572000	0.56596667	-0.8210029	0.41325033
7829773781000	0.48808134	-0.5876524	0.3323107
7829784432000	0.35308012	-0.25473082	0.22449298
7829793801000	0.13683382	0.07819075	0.0076358155
7829805611000	0.034208454	0.5479461	-0.15271631
7829813759000	-0.02687807	0.8604037	-0.5030475
7829824441000	-0.027794369	1.3924674	-0.81489426
7829833779000	-0.10842858	2.0195205	-1.033584
7829846017000	0.22510384	2.620612	-0.960891
7829853798000	0.8533788	2.2116377	-0.6151413
7829865395000	1.2134838	1.099252	-0.09712757
7829873818000	0.82924956	-0.16523905	0.47861293
7829884469000	-0.15577064	-0.6988298	0.6731735
7829893838000	-0.9981538	-0.4529566	0.42332962
7829904458000	-1.2281445	-0.2996294	0.08735373
7829913857000	-1.065349	-0.54458636	-0.19181168
7829926888000	-0.87109387	-0.8002335	-0.3885103
7829933877000	-0.7498371	-0.75961095	-0.51893
7829944558000	-0.68691796	-0.59895337	-0.59803706
7829953896000	-0.66614854	-0.59650993	-0.6215554
7829964608000	-0.6072	-0.68019843	-0.6356053
7829973916000	-0.45051312	-0.9663888	-0.59956425
7829985543000	-0.106901415	-1.2760975	-0.5448918
7829993935000	0.44440445	-1.4248432	-0.4914411
7830004555000	1.1221595	-1.2672399	-0.39064834
7830013955000	1.8038851	-0.69913524	-0.16920967
7830026223000	2.488665	0.29352075	0.13500121
7830033944000	3.29348	1.3381003	0.3484986
7830045601000	3.7879753	1.1667526	0.3231477
7830053994000	2.8915308	-0.8426886	0.08246681
7830064644000	0.68508536	-3.0036244	-0.17959438
7830073983000	-0.981355	-3.497509	-0.2012801
7830085396000	-0.6646214	-2.535396	0.03970624
7830094002000	0.6215554	-1.3704761	0.26206118
7830107186000	0.945314	-0.21197024	0.24251351
7830114022000	0.8045095	1.0622946	0.172264
7830124673000	0.36926803	1.5882497	0.02076942
7830134072000	0.13958271	2.2455406	-0.105068825
7830144692000	0.2855795	2.482251	-0.21013765
7830154091000	0.6973027	2.4058928	-0.29932398
7830165780000	0.97219205	2.0360138	-0.3866777
7830174111000	0.9440922	1.5039502	-0.45081854
7830184792000	0.8197812	0.9786061	-0.44226643
7830194131000	0.79381937	0.5290093	-0.344528
7830206368000	0.8402451	0.21899518	-0.21655174
7830214150000	0.8228355	0.10903945	-0.1160644
7830225808000	0.6936375	0.19242255	-0.046120327
7830234139000	0.5119051	0.37201694	0.0143553335
7830244851000	0.35155296	0.5662721	0.08124508
7830254189000	0.28955013	0.7519751	0.13683382
7830264809000	0.20922135	0.91324353	0.1518
7830274178000	0.18692477	0.9779953	0.15241088
7830288857000	0.20738874	1.0671816	0.13958271
7830294167000	0.22510384	1.0836749	0.15241088
7830304879000	0.21502456	1.0296134	0.18875736
7830314248000	0.19608775	0.8875872	0.19975294
7830328469000	0.19272798	0.65576386	0.1685988
7830334267000	0.19761491	0.44135013	0.10170906
7830345803000	0.18967366	0.33353242	0.0015271631
7830354287000	0.20341812	0.31978795	-0.116675265
7830364907000	0.27977628	0.34238997	-0.23976462
7830374306000	0.3491095	0.43371433	-0.35033122
7830386605000	0.29535335	0.68111473	-0.4456262
7830394326000	0.14752395	1.2076806	-0.63224554
7830405923000	0.0070249503	2.132225	-0.9642508
7830414315000	-0.07360926	3.0491338	-1.1450669
7830424965000	-0.29932398	3.2647693	-1.4379768
7830434304000	-0.5494733	3.0708196	-1.5787812
7830444954000	-0.72204274	2.4022276	-1.5506815
7830454384000	-0.7669413	1.7458528	-1.4040737
7830469246000	-0.71685034	1.3081679	-1.248914
7830474190000	-0.63621616	1.026559	-1.1572843
7830485085000	-0.57726765	0.8344419	-1.144456
7830494423000	-0.5491679	0.6960809	-1.1673635
7830505044000	-0.5143485	0.53969944	-1.1181889
7830514412000	-0.50854534	0.26175576	-0.88606006
7830525979000	-0.6719518	-0.29168814	-0.4251622
7830534463000	-0.95814216	-1.0864239	0.10629055
7830545113000	-1.2226468	-1.74738	0.5027421
7830554482000	-1.3952162	-1.9504927	0.7305948
7830566689000	-1.4422529	-1.5534303	0.7812967
7830574471000	-1.4660766	-1.1407908	0.7519751
7830586220000	-1.4483615	-0.0870483	0.6038403
7830594521000	-1.4541647	0.9257663	0.40744713
7830605202000	-1.4648548	1.6539177	0.19120082
7830614541000	-1.4156802	1.988061	-0.029321533
7830625313000	-1.2938126	1.8661933	-0.25870144
7830634560000	-1.162782	1.3393221	-0.50976706
7830647744000	-1.0751228	0.57696223	-0.82558435
7830654702000	-1.0106765	-0.20189096	-1.2046263
7830665352000	-0.9492846	-0.87017757	-1.5592335
7830674691000	-0.8906415	-1.3588698	-1.752267
7830685341000	-0.8081747	-1.5855007	-1.675298
7830694680000	-0.68752885	-1.5427402	-1.35551
7830707772000	-0.5561928	-1.3191634	-0.8912524
7830714638000	-0.49357912	-1.0577132	-0.643852
7830725319000	-0.37110063	-0.93523467	-0.20555615
7830734658000	-0.24648413	-0.70341134	0.07666359
7830746895000	-0.12034045	-0.49266282	0.2125811
7830754769000	0.0	-0.3381139	0.2687807
7830766366000	0.10323623	-0.28802297	0.29626966
7830774758000	0.20738874	-0.3735441	0.33353242
7830785439000	0.33933565	-0.5815437	0.41172317
7830794777000	0.47861293	-0.84940815	0.54275376
7830806008000	0.58368176	-1.1032226	0.6948592
7830814736000	0.65026605	-1.2901474	0.8338311
7830827859000	0.68600166	-1.3613132	0.93615097
7830834725000	0.6658431	-1.2751812	0.99082345
7830845376000	0.5821546	-1.0341948	0.9944886
7830854775000	0.4905248	-0.70005155	0.9370673
7830865456000	0.45081854	-0.3894266	0.80878556
7830874795000	0.3820962	-0.18906279	0.72326446
7830887551000	0.3295618	-0.14813483	0.54244834
7830894784000	0.27488935	-0.22449298	0.41783184
7830905465000	0.067500606	-0.42180246	0.3408628
7830914803000	-0.3023783	-0.46975538	0.15118915
7830927041000	-0.44837508	-0.22357668	-0.21227567
7830934823000	-0.1459968	0.20830505	-0.6017023
7830946572000	0.3622431	0.68386364	-0.8002335
7830954873000	0.70738196	1.0827587	-0.6536258
7830965462000	0.73548174	1.0906999	-0.29779682
7830974862000	0.679893	0.3839288	-0.080634214
7830985543000	0.5870415	-0.88789266	0.03573562
7830994881000	0.30757064	-1.844813	0.11636983
7831007973000	0.09682214	-1.9236146	0.038179077
7831014901000	0.06414085	-1.3704761	-0.04886922
7831025582000	0.06811147	-0.66675943	-0.05222898
7831034920000	-0.027794369	-0.4538729	-0.116675265
7831045632000	-0.31398472	-0.5119051	-0.3631594
7831054940000	-0.6105598	-0.9795224	-0.6398814
7831066537000	-0.79412484	-1.2996159	-0.8219192
7831074959000	-0.90041536	-1.2027937	-0.870483
7831085702000	-0.9419542	-0.8393288	-0.77091193
7831094979000	-0.8753699	-0.5235115	-0.5360342
7831107308000	-0.64568454	-0.41355577	-0.22204952
7831114998000	-0.112399206	-0.50426924	0.10262536
7831126565000	0.8008443	-0.8374963	0.42180246
7831135018000	1.7192802	-1.3414601	0.7290677
7831145730000	2.264172	-1.6297885	0.960891
7831155068000	2.4758368	-1.6242907	1.0189233
7831165688000	2.4492643	-1.8826867	0.8567385
7831175057000	2.32984	-2.810591	0.6933321
7831188241000	1.7464638	-3.426954	0.24984388
7831195077000	0.6542367	-4.4642034	-0.19792034
7831205727000	-0.10842858	-4.5732427	-0.37995818
7831215096000	0.17348573	-3.3600643	-0.22204952
7831225808000	0.5375614	-1.0360274	-0.05009095
7831235116000	0.33964106	1.3081679	-0.054061573
7831246865000	0.015882496	2.4917192	-0.13530666
7831255135000	-0.118507855	2.581822	-0.19028452
7831266732000	3.0543262E-4	2.1160371	-0.18081611
7831275155000	0.28619036	1.4789047	-0.11301007
7831287423000	0.5674938	0.9092729	-0.02443461
7831295174000	0.77304995	0.47678033	0.048563786
7831308358000	0.92485	0.10781772	0.079107046
7831315194000	1.0125091	-0.23609942	0.070249505
7831325905000	1.0177015	-0.47036624	0.058643065
7831335213000	0.94134337	-0.5045747	0.036651913
7831345925000	0.7867944	-0.35521814	0.034208454
7831355233000	0.6227771	0.050701816	0.05681047
7831369912000	0.49663344	0.5525276	0.08246681
7831375191000	0.4175264	0.945314	0.10140363
7831385872000	0.35308012	1.1071932	0.13652839
7831395272000	0.28588495	1.0842859	0.18967366
7831405923000	0.21746802	0.9972375	0.23457226
7831415291000	0.15088372	0.92087936	0.25595254
7831428475000	0.09987647	0.85918194	0.25137106
7831435311000	0.070249505	0.8008443	0.22571471
7831446633000	0.062308256	0.7483099	0.17806722
7831455330000	0.076052725	0.6588182	0.11301007
7831467537000	0.100792766	0.52870387	0.04153884
7831475350000	0.110872045	0.42424592	0.005497787
7831486947000	0.14110987	0.38912117	-0.08246681
7831495370000	0.22418754	0.34269542	-0.21991149
7831506020000	0.3472769	0.3200934	-0.41599923
7831515389000	0.42180246	0.29993483	-0.6407976
7831526070000	0.36377025	0.27458394	-0.8570439
7831535409000	0.21655174	0.28221974	-1.0128145
7831548440000	0.04917465	0.35918877	-1.1163563
7831555428000	-0.17684549	0.43371433	-1.2308935
7831566079000	-0.44623706	0.40530908	-1.3637567
7831575448000	-0.6621779	0.27947086	-1.4743233
7831586068000	-0.7874053	0.14782938	-1.5155567
7831595467000	-0.84299403	0.11759156	-1.4535538
7831607125000	-0.86101454	0.25350907	-1.3213016
7831615487000	-0.86590147	0.5589417	-1.1856894
7831626168000	-0.8546005	1.0085385	-1.0818423
7831635537000	-0.75686204	1.493871	-1.0354166
7831647774000	-0.52595496	1.6954565	-0.9111055
7831655587000	-0.36957347	1.892766	-0.63285637
7831667214000	-0.5338962	1.4682146	-0.06169739
7831675545000	-0.8228355	0.29138273	0.6814202
7831686287000	-1.0671816	-0.8170323	1.3084733
7831695595000	-1.2409728	-1.3130548	1.6459764
7831706307000	-1.3600914	-1.3616186	1.6609426
7831715615000	-1.4504995	-1.1808025	1.409877
7831728829000	-1.5265522	-0.82253003	1.035722
7831735604000	-1.5668694	-0.31887165	0.66767573
7831746285000	-1.5418239	0.16737708	0.33505958
7831755623000	-1.4453071	0.5207626	0.010079277
7831766335000	-1.276403	0.6881397	-0.33261612
7831775643000	-1.1746938	0.593761	-0.713796
7831787362000	-0.99112886	0.26175576	-0.93615097
7831795662000	-0.8668178	0.049480084	-1.4624114
7831806313000	-0.79320854	-0.3924809	-2.032654
7831815682000	-0.7852673	-0.81061816	-2.486527
7831827950000	-0.7800749	-1.1142182	-2.6203065
7831835702000	-0.70188415	-1.2116512	-2.4055874
7831848916000	-0.55924714	-1.1530081	-1.9703459
7831855721000	-0.3979787	-1.0680978	-1.426065
7831866341000	-0.23548855	-1.0152581	-0.86467975
7831875741000	-0.1020145	-0.9737192	-0.376293
7831886422000	0.021380283	-0.893085	-0.014966198
7831895760000	0.18600847	-0.7440339	0.226631
7831908822000	0.3930918	-0.57360244	0.3811799
7831915810000	0.59498274	-0.4792238	0.48441613
7831926430000	0.73364913	-0.5338962	0.591623
7831935799000	0.7675522	-0.6963864	0.6627888
7831946511000	0.77091193	-0.7861836	0.8323039
7831955788000	0.7189884	-0.9282097	0.9767735
7831967385000	0.66828656	-0.95905846	1.0296134
7831975838000	0.65118235	-0.8542951	0.9669997
7831986458000	0.6386596	-0.67011917	0.7855727
7831995858000	0.5897904	-0.5170974	0.51893
7832008156000	0.5381723	-0.49877146	0.25442538
7832015877000	0.49938235	-0.6160576	0.10170906
7832028756000	0.410196	-0.7828238	0.064446285
7832035866000	0.25320363	-0.947452	-0.0125227375
7832046517000	0.08857546	-1.0195341	-0.2657264
7832055886000	0.015271631	-0.9211848	-0.6084218
7832066567000	0.15577064	-0.7150178	-0.83108217
7832075905000	0.4801401	-0.5497787	-0.8341365
7832089120000	0.75625116	-0.50762904	-0.72112644
7832096108000	0.79076505	-0.6215554	-0.691194
7832106759000	0.7348709	-0.7156286	-0.7657196
7832116128000	0.8558222	-0.8078693	-0.89766645
7832126961000	1.0855075	-0.6918049	-0.65393126
7832136330000	0.94897914	-0.33505958	0.12889257
7832147896000	0.40958515	0.35918877	0.86742866
7832156350000	-0.17562376	0.8561276	1.0290025
7832166970000	-0.58551437	0.6062838	0.7644979
7832176552000	-0.86345804	-0.0852157	0.44104472
7832188820000	-1.074512	-0.6218608	0.21288654
7832196572000	-1.2247849	-0.76174897	0.08155051
7832208230000	-1.3069462	-0.6612616	0.012217305
7832216591000	-1.289842	-0.6267477	-0.02565634
7832228036000	-1.1472049	-0.8359691	-0.032986723
7832237374000	-0.85062987	-1.2018774	-0.034208454
7832247994000	-0.25320363	-1.5393804	-0.056199603
7832257393000	0.21013765	-1.8823812	-0.07391469
7832270180000	1.3240504	-2.087021	-0.06719518
7832277566000	2.2547035	-2.3612995	0.005497787
7832288277000	2.8127291	-2.0421226	0.14721853
7832297616000	3.211013	-1.2104294	0.2611449
7832308266000	3.4840698	-0.8338311	0.21410827
7832317635000	3.1624494	-1.8692477	-0.01863139
7832332131000	1.7864754	-3.7595701	-0.25534168
7832336800000	0.1255328	-4.9018884	-0.27397305
7832347420000	-0.4636467	-4.437325	-0.0421497
7832357094000	0.12583824	-2.8386908	0.25961772
7832368477000	0.6273586	-0.88789266	0.38820487
7832376198000	0.43279803	0.7641924	0.31215215
7832387887000	0.2302962	1.7754798	0.16615535
7832396218000	-0.070554934	2.2537873	0.099265605
7832406930000	-0.03145956	2.3371704	0.0070249503
7832416237000	0.3277292	2.2421808	-0.013439035
7832426919000	0.7141015	1.9190332	0.01863139
7832436287000	0.9104946	1.5958854	0.047647487
7832449502000	0.95233893	1.3735305	0.053450707
7832456307000	0.9193522	1.1108584	0.06291912
7832466988000	0.84299403	0.75808376	0.10903945
7832476296000	0.71929383	0.4596761	0.19150625
7832486977000	0.56107974	0.36010507	0.2864958
7832496316000	0.38362336	0.48563787	0.3567453
7832509469000	0.20586158	0.77304995	0.3643811
7832516335000	0.05375614	1.1322387	0.2941316
7832526986000	-0.054061573	1.4468343	0.18203785
7832536355000	-0.0983493	1.6297885	0.07819075
7832548592000	-0.09682214	1.6542231	0.03023783
7832556374000	-0.064751714	1.59558	-0.06383542
7832569863000	-0.007330383	1.3264939	-0.15363261
7832576394000	0.08460484	0.93523467	-0.24587326
7832587075000	0.21594086	0.6075055	-0.35460728
7832596383000	0.34513888	0.47342056	-0.5015204
7832610665000	0.43035457	0.5021312	-0.7128797
7832616494000	0.47250426	0.600786	-0.9691377
7832629525000	0.46395215	0.7330383	-1.2082914
7832636483000	0.355829	0.88117313	-1.3713925
7832647164000	0.17989981	1.0140363	-1.423316
7832656502000	-0.009162978	1.1191051	-1.402852
7832667122000	-0.2434298	1.1609493	-1.3793337
7832676522000	-0.5342017	1.0757337	-1.3817772
7832689705000	-0.78893244	0.9086621	-1.3909402
7832696541000	-0.8765916	0.77488256	-1.3909402
7832707223000	-0.9660834	0.7516697	-1.368949
7832716591000	-0.95417154	0.79809546	-1.3213016
7832728890000	-0.8723156	0.95233893	-1.2782356
7832736550000	-0.7357872	1.2034045	-1.2651019
7832748208000	-0.53878313	1.4840971	-1.2348641
7832756600000	-0.38637227	1.6710218	-1.0690142
7832767220000	-0.5684101	1.4291192	-0.5693264
7832776620000	-0.88422745	0.25870144	0.23426682
7832787331000	-1.0476339	-1.2275337	0.99173975
7832796639000	-1.1921035	-2.0054705	1.4306464
7832809792000	-1.3820826	-1.8683313	1.5097535
7832816659000	-1.5180001	-1.001819	1.3384057
7832827309000	-1.561677	0.34697145	1.097114
7832836678000	-1.557401	1.8078557	0.91629785
7832847329000	-1.543351	2.7962356	0.8549059
7832856698000	-1.4758505	3.0088167	0.7632761
7832868203000	-1.3371841	2.935513	0.6612616
7832876687000	-1.1566733	2.3606887	0.49388456
7832887398000	-1.0363328	1.4483615	0.19181168
7832896737000	-1.0852021	0.40194935	-0.33505958
7832909249000	-1.2275337	-0.5729916	-1.0531317
7832917000000	-1.3093897	-1.4101825	-1.7214183
7832928658000	-1.2183707	-1.9795089	-2.0534234
7832936989000	-0.9981538	-2.0909917	-2.0259347
7832947640000	-0.77671516	-1.7821994	-1.7363845
7832957009000	-0.5742133	-1.2425	-1.2177598
7832967690000	-0.3827071	-0.6209445	-0.5363397
7832977028000	-0.23457226	-9.162979E-4	0.10629055
7832990182000	-0.11484267	0.50854534	0.47616947
7832997048000	-0.051618114	0.83658	0.5552765
7833007729000	0.08032878	0.9324858	0.5934556
7833017068000	0.18081611	0.9837985	0.56199604
7833027779000	0.22479841	0.8344419	0.5363397
7833037087000	0.24465153	0.5143485	0.5867361
7833048745000	0.2751948	0.11362094	0.68294734
7833057107000	0.3173445	-0.30085114	0.73639804
7833067818000	0.38698313	-0.6536258	0.7415904
7833077126000	0.4642576	-0.79717916	0.72295904
7833089394000	0.50488013	-0.6273586	0.6649268
7833097146000	0.53786683	-0.1328632	0.5580254
7833112649000	0.5766568	0.5882632	0.43310347
7833117135000	0.52473325	1.271516	0.30604348
7833127816000	0.30482176	1.5286902	0.11759156
7833137185000	-0.008246681	1.1603385	-0.21594086
7833147866000	-0.14202617	0.34605515	-0.6310238
7833157082000	-0.21227567	-0.49266282	-0.81397796
7833170235000	0.028099801	-0.7892379	-1.0473285
7833177041000	0.34391713	-1.1566733	-1.1068878
7833187691000	0.6630942	-1.5839735	-1.0253373
7833197060000	1.0784826	-1.9920316	-0.7302894
7833207711000	1.5378532	-1.999362	-0.028405234
7833217049000	1.6652187	-1.6197093	1.144456
7833228615000	1.1154399	-0.8197812	2.4010057
7833237099000	0.13500121	0.12064589	3.057686
7833247750000	-0.73548174	0.61086524	2.9177978
7833257119000	-1.2223413	0.41416663	2.350915
7833269387000	-1.3768903	-0.19517145	1.7153096
7833277138000	-1.3845261	-0.6924158	1.1517864
7833288735000	-1.3445144	-0.75777835	0.64965516
7833297097000	-1.25319	-0.6017023	0.1826487
7833307747000	-1.1795808	-0.6737844	-0.034513887
7833317116000	-0.93126404	-0.8549059	-0.43188173
7833327828000	-0.41447207	-1.3955216	-0.77274454
7833337136000	0.48288897	-2.010663	-1.0861185
7833350197000	1.4401149	-2.5488353	-1.3881912
7833357155000	2.0534234	-2.690556	-1.6016886
7833367837000	2.4098635	-2.2137756	-1.6392568
7833377205000	2.7968466	-1.2394456	-1.4618006
7833387856000	3.0494392	-0.28496864	-1.0830641
7833397256000	2.2812762	0.051618114	-0.5137377
7833408913000	0.9111055	0.019242255	0.037873644
7833417245000	0.08399397	0.08307768	0.29138273
7833427926000	-0.15668693	0.17073683	0.33017266
7833437295000	-0.15332718	0.20647246	0.29932398
7833453225000	-0.06658431	0.2003638	0.2565634
7833457467000	0.005497787	0.21471913	0.23793201
7833469155000	0.22296582	0.24037547	0.21227567
7833477425000	0.52595496	0.34391713	0.21655174
7833488076000	0.8512407	0.50671273	0.25473082
7833497445000	1.1209377	0.70524395	0.29901853
7833507912000	1.2727377	0.9202685	0.32559118
7833517342000	1.2473868	1.0543534	0.34788775
7833530556000	1.0351112	1.0629056	0.3680463
7833537331000	0.7147123	1.0143417	0.38545597
7833548043000	0.40561453	0.97433007	0.40744713
7833557381000	0.20372356	0.93951076	0.42302418
7833568062000	0.12858713	0.84329945	0.41386122
7833577431000	0.115453534	0.68966687	0.36835176
7833589089000	0.09315695	0.550695	0.27916542
7833597420000	0.039095376	0.51251596	0.16218472
7833608101000	0.004886922	0.5839872	0.10048734
7833617379000	-0.05497787	0.636827	-0.019242255
7833629647000	-0.09010262	0.7147123	-0.124311075
7833637459000	-0.112399206	0.7171558	-0.2134974
7833651040000	-0.13164146	0.6957755	-0.3005457
7833657509000	-0.16157386	0.70554936	-0.39522982
7833668282000	-0.19394971	0.7247916	-0.5143485
7833677590000	-0.19028452	0.7312057	-0.68630713
7833688210000	-0.07544186	0.75228053	-0.9138544
7833697548000	0.14844026	0.8579602	-1.1646146
7833712350000	0.3399465	1.0506883	-1.3906348
7833717232000	0.3820962	1.2208142	-1.5448782
7833728127000	0.30085114	1.2681563	-1.6096299
7833737557000	0.12889257	1.1801916	-1.6203201
7833748238000	-0.121256754	0.96791595	-1.6212363
7833757546000	-0.25381452	0.67164636	-1.6261233
7833769234000	-0.45081854	0.5174029	-1.6285667
7833777596000	-0.47036624	0.27977628	-1.6267341
7833788277000	-0.33292156	0.23762658	-1.5909985
7833797616000	-0.16401732	0.43768495	-1.4975362
7833809853000	-0.10476339	0.79779	-1.3603969
7833817635000	-0.32345316	1.1255192	-1.1594223
7833829232000	-0.8127562	1.1212431	-0.8344419
7833837655000	-1.1661417	0.66737026	-0.419359
7833848305000	-1.1316279	0.09896017	-0.010079277
7833857674000	-0.8875872	-0.25442538	0.36132678
7833868355000	-0.70341134	-0.33658674	0.6432411
7833877663000	-0.7312057	-0.25228736	0.75716746
7833890816000	-0.9483683	-0.080634214	0.7263188
7833897683000	-1.2238685	0.15363261	0.6230826
7833908394000	-1.3374895	0.36865717	0.5027421
7833917733000	-1.461495	0.43035457	0.44959682
7833928353000	-1.4453071	0.39187005	0.3475823
7833937752000	-1.3274102	0.2098322	0.21838433
7833949502000	-1.1572843	-0.080634214	0.013744468
7833957802000	-1.003957	-0.44959682	-0.3115413
7833968453000	-0.91324353	-0.81061816	-0.75136423
7833977791000	-0.8717047	-1.0995574	-1.2452488
7833990121000	-0.8472701	-1.3384057	-1.7003434
7833997811000	-0.8173377	-1.5515977	-1.9709567
7834010995000	-0.74128497	-1.7098118	-1.9572122
7834017861000	-0.6059783	-1.8029687	-1.704314
7834028451000	-0.43768495	-1.8466456	-1.3115277
7834037819000	-0.26053402	-1.8258762	-0.86559606
7834048470000	-0.11026118	-1.666135	-0.4382958
7834057839000	-0.004581489	-1.2651019	-0.089491755
7834070931000	0.03634648	-0.6750061	0.049480084
7834077889000	0.1133155	-0.3827071	0.26267207
7834088540000	0.2125811	0.06841691	0.3930918
7834097909000	0.3484986	0.28527406	0.47128254
7834108529000	0.49266282	0.28710666	0.5513059
7834117898000	0.61208695	0.1328632	0.68019843
7834131081000	0.70005155	-0.115453534	0.8533788
7834137917000	0.7678576	-0.3848451	1.0125091
7834148598000	0.8188649	-0.5919284	1.0977248
7834157967000	0.8054258	-0.66737026	1.0720685
7834170205000	0.6969972	-0.5699373	0.91599244
7834177956000	0.5714644	-0.34147367	0.6588182
7834189553000	0.5180137	-0.06383542	0.3576616
7834197976000	0.4990769	0.20708331	0.06566802
7834213021000	0.3885103	0.3848451	-0.17684549
7834217843000	0.28252518	0.34972036	-0.28527406
7834228676000	0.04550946	0.25167647	-0.52534413
7834238045000	-0.099571034	0.0021380284	-0.8051204
7834251748000	-0.07849618	-0.1441642	-1.0180069
7834258462000	0.08735373	-0.13072516	-1.0571023
7834268746000	0.36193767	-0.17715092	-0.94225967
7834278084000	0.8622363	-0.49541172	-0.79717916
7834288766000	1.4501941	-0.79229224	-0.7483099
7834298134000	1.7577647	-0.8732319	-0.6994407
7834309579000	1.6508633	-1.0403035	-0.36651915
7834318093000	0.91446525	-1.1047498	0.42730024
7834328805000	-0.26053402	-0.61575216	1.3610078
7834338143000	-1.2400564	0.26206118	1.8286251
7834350381000	-1.7211128	0.729984	1.7785342
7834358162000	-1.9022343	0.535118	1.5476271
7834369759000	-1.9526308	0.18387043	1.4278975
7834378182000	-2.0091357	0.06414085	1.2134838
7834388802000	-1.9920316	-0.095294975	1.0296134
7834398202000	-1.8594738	-0.33200526	0.8491027
7834408883000	-1.5824465	-0.7996226	0.6414085
7834418221000	-1.0253373	-1.4828753	0.38637227
7834431374000	0.043982297	-2.2412646	0.083383106
7834438210000	1.3796391	-2.787989	-0.25320363
7834448891000	2.3145685	-2.8005116	-0.5821546
7834458230000	2.7015514	-2.3484714	-0.840856
7834468850000	2.7748554	-1.6282613	-0.97310835
7834478249000	2.856406	-0.7058548	-0.9477574
7834490517000	3.2305608	0.19058995	-0.79809546
7834498940000	3.5436292	0.2910773	-0.63346726
7834509652000	3.0482175	-0.9275989	-0.49877146
7834518960000	2.450486	-2.441323	-0.3378085
7834534676000	0.93951076	-2.817616	-0.23823744
7834539162000	-0.35521814	-2.4721715	-0.03390302
7834550728000	-1.0436633	-1.1395692	0.14294247
7834559273000	-1.1481212	0.24373524	0.28344148
7834569466000	-0.8546005	1.2220359	0.37323865
7834578347000	-0.4392121	1.8396207	0.3921755
7834588997000	-0.081855945	2.1691825	0.3304781
7834598366000	0.20677789	2.2595906	0.20219639
7834611580000	0.47067168	2.130698	0.062308256
7834618386000	0.6960809	1.7999145	-0.027794369
7834629098000	0.84757555	1.3949108	-0.028710667
7834638436000	0.88514376	1.099252	0.04642576
7834649087000	0.77854776	0.95478237	0.13805555
7834658455000	0.550695	0.8854492	0.20952678
7834670144000	0.25809056	0.84696466	0.2519819
7834678444000	0.11148291	0.86529064	0.25992316
7834689065000	-0.13836098	0.9080512	0.24648413
7834698464000	-0.2843578	1.0467176	0.20677789
7834710732000	-0.31215215	1.1994339	0.15821409
7834718484000	-0.26297748	1.2794572	0.10567969
7834731820000	-0.17654006	1.2238685	0.04184427
7834738503000	-0.086132	1.0586295	-0.02107485
7834749184000	-0.01740966	0.8530733	-0.08246681
7834758492000	0.03604105	0.68752885	-0.15332718
7834769265000	0.08368854	0.59986967	-0.25411993
7834778512000	0.16523905	0.5879578	-0.398895
7834791604000	0.2959642	0.64476824	-0.57818395
7834798531000	0.42302418	0.75716746	-0.7724391
7834809334000	0.4465425	0.86162543	-0.9440922
7834818734000	0.3399465	0.8903361	-1.0558805
7834829415000	0.25595254	0.8573494	-1.1093313
7834838753000	0.054367006	0.82741696	-1.1304061
7834850625000	-0.16157386	0.70524395	-1.1957687
7834858956000	-0.33108896	0.47403142	-1.2928963
7834869576000	-0.3811799	0.25137106	-1.3878858
7834878975000	-0.29443705	0.19333886	-1.4434745
7834891244000	-0.13652839	0.33841935	-1.428203
7834899148000	0.0030543262	0.6096435	-1.3631458
7834910744000	-0.056199603	0.89888823	-1.2705997
7834919167000	-0.52564955	1.040609	-1.070236
7834929848000	-1.0946705	0.7968737	-0.70402217
7834939187000	-1.212262	0.30268374	-0.25686884
7834950112000	-0.96944314	0.05467244	0.19700404
7834959389000	-0.8353582	0.16890424	0.5839872
7834972451000	-1.0170907	0.4447099	0.766025
7834979409000	-1.3451253	0.7654142	0.72173727
7834990090000	-1.5528195	1.128879	0.60903263
7834999611000	-1.5781704	1.5164729	0.5558874
7835010293000	-1.5167783	1.7318029	0.5494733
7835019631000	-1.3857478	1.7061466	0.5516113
7835031167000	-1.2177598	1.3875804	0.5366451
7835039651000	-1.0363328	0.83108217	0.45265114
7835049843000	-0.8863655	0.16829337	0.25992316
7835058785000	-0.8213083	-0.48258355	-0.096516706
7835071053000	-0.84665924	-1.0161743	-0.6404922
7835078805000	-0.88453287	-1.3854424	-1.2626585
7835090554000	-0.8481864	-1.6016886	-1.7101172
7835098824000	-0.7452556	-1.67316	-1.8188512
7835109871000	-0.62125	-1.6523905	-1.6502525
7835118966000	-0.46944994	-1.6126842	-1.2620476
7835129616000	-0.37598756	-1.5302174	-0.70371675
7835138955000	-0.17440203	-1.4343116	-0.4120286
7835152199000	-0.01160644	-1.0705414	0.06261369
7835158974000	0.083383106	-0.5360342	0.33567044
7835169503000	0.13897185	-0.03848451	0.46975538
7835178902000	0.20463985	0.2782491	0.53969944
7835189583000	0.30390546	0.40133846	0.5873469
7835198952000	0.41172317	0.35338554	0.64965516
7835212166000	0.49357912	0.1853976	0.75961095
7835218972000	0.54519725	-0.015271631	0.9129381
7835229592000	0.61911196	-0.19639318	1.0711522
7835238991000	0.743423	-0.3222314	1.1731668
7835251229000	0.8472701	-0.3707952	1.1545353
7835259011000	0.8393288	-0.36285394	0.9831876
7835270608000	0.75808376	-0.31581733	0.6918049
7835279030000	0.71929383	-0.16707164	0.36835176
7835293923000	0.61422503	-0.03940081	0.21991149
7835298836000	0.36774087	0.27488935	-0.02076942
7835309792000	0.01282817	0.53023106	-0.20952678
7835319069000	-0.28527406	0.59315014	-0.441961
7835332284000	-0.41905355	0.48899764	-0.7855727
7835339089000	-0.36102137	0.43096542	-1.1417072
7835349770000	-0.17012598	0.53786683	-1.3362677
7835359109000	0.13775012	0.5439755	-1.3048081
7835369759000	0.57940567	0.34238997	-1.181108
7835379159000	1.1499538	0.12217305	-1.0048733
7835390725000	1.7391334	-0.33261612	-0.5213735
7835399178000	1.8469511	-0.93126404	0.4373795
7835409859000	1.2556335	-1.1044444	1.5717562
7835419167000	0.13072516	-0.68569624	2.3405302
7835431435000	-1.0183123	-0.18448131	2.5757134
7835439187000	-1.4223998	-0.041233405	2.556471
7835450844000	-1.829236	-0.105374254	2.3994787
7835459237000	-1.9230038	-0.33261612	2.2091942
7835469857000	-1.9123137	-0.45540005	2.0384574
7835479226000	-1.8478674	-0.36987892	1.8579466
7835489907000	-1.702176	-0.19272798	1.6163495
7835499215000	-1.4242324	-0.08093964	1.3063353
7835512307000	-0.89675015	-0.06078109	0.97433007
7835519234000	0.044593163	-0.08857546	0.6395759
7835529885000	1.2406673	-0.26053402	0.2837469
7835539345000	2.2000313	-0.5271767	-0.005497787
7835549935000	2.7598891	-0.46609017	-0.116675265
7835559304000	3.1172454	0.11911872	-0.024129177
7835570870000	3.4953709	0.8197812	0.17348573
7835579323000	3.677714	0.5149594	0.25992316
7835590035000	3.5234706	-1.4172074	0.22113322
7835599343000	2.513405	-2.6279423	0.041233405
7835611642000	0.8136725	-4.3774605	-0.109650314
7835619301000	-0.56688297	-4.3346996	-0.054061573
7835634591000	-0.9502009	-2.5824327	0.19486602
7835639229000	-0.6960809	-0.3213151	0.43066
7835650094000	-0.43218717	1.4446963	0.5030475
7835659371000	-0.37018433	2.4944682	0.41141775
7835670296000	-0.38606682	2.9776626	0.19822577
7835679452000	-0.30268374	3.0744848	-0.07147124
7835692605000	-0.014049901	2.9159653	-0.3191771
7835699441000	0.4297437	2.5955665	-0.48166725
7835710122000	0.8341365	2.1688771	-0.52503866
7835719460000	1.035722	1.7131716	-0.47433686
7835730141000	1.0173961	1.2974777	-0.39064834
7835739480000	0.9459248	0.9450085	-0.3463606
7835750954000	0.7174612	0.7965683	-0.24801129
7835759530000	0.40408736	0.57757306	-0.12064589
7835770211000	0.050396383	0.49877146	0.043676864
7835779519000	-0.2687807	0.56046885	0.19242255
7835791756000	-0.45814893	0.7134906	0.23182335
7835799538000	-0.45723262	0.85918194	0.15790866
7835811257000	-0.29138273	0.91782504	0.014049901
7835819527000	-0.071776666	0.893085	-0.15577064
7835830239000	0.055588737	0.8151997	-0.32406402
7835839577000	0.031154128	0.7131852	-0.4841107
7835850381000	-0.052839845	0.5928447	-0.6453791
7835859597000	-0.06719518	0.47739118	-0.79717916
7835872750000	0.019242255	0.43310347	-0.9300423
7835879616000	0.14385876	0.49877146	-1.0797043
7835890267000	0.18661933	0.63224554	-1.2935071
7835899605000	0.15790866	0.6826419	-1.4364496
7835910317000	-0.014966198	0.61941737	-1.7666223
7835919655000	-0.17440203	0.31490102	-2.0616703
7835931313000	-0.17440203	-0.029932396	-2.2342396
7835939644000	-0.02107485	-0.18020524	-2.2715025
7835950326000	0.15485434	-0.13530666	-2.2208006
7835959664000	0.26542094	-0.0693332	-2.0952678
7835972085000	0.2134974	-0.009162978	-1.8738291
7835979683000	-0.1704314	0.0711658	-1.4953982
7835991311000	-0.79779	0.07452556	-0.89644474
7835999703000	-1.1603385	-0.028710667	-0.172264
7836010384000	-1.0943651	-0.015882496	0.47067168
7836019723000	-0.96883225	0.20677789	0.883922
7836030373000	-1.0503827	0.48624873	1.0604621
7836039742000	-1.1569787	0.73792523	1.0891727
7836052895000	-1.3732251	0.9779953	1.0748174
7836059762000	-1.4602734	1.094976	1.0296134
7836070412000	-1.3924674	1.2421945	0.9828822
7836079781000	-1.248914	1.1102476	0.90224797
7836090401000	-1.1221595	0.6291912	0.73823065
7836099801000	-1.0479393	-0.05955936	0.4465425
7836111489000	-1.0024298	-0.7806858	-0.015577064
7836119820000	-0.94959	-1.4095715	-0.6713409
7836130501000	-0.89980453	-1.8713857	-1.475545
7836139809000	-0.8313876	-2.1682663	-2.1994202
7836152077000	-0.72784597	-2.2748623	-2.5411994
7836159920000	-0.6386596	-2.1878138	-2.4825563
7836171914000	-0.56291234	-2.0454822	-2.1429152
7836179879000	-0.4343252	-1.9474384	-1.5873333
7836190529000	-0.23976462	-1.8289305	-0.91813046
7836199898000	-0.13775012	-1.5897768	-0.59528816
7836210610000	0.026572637	-1.4065173	-0.07727446
7836219948000	0.1255328	-0.9456194	0.24037547
7836233040000	0.2144137	-0.48533243	0.4297437
7836239937000	0.34422258	-0.13103059	0.5684101
7836250619000	0.5030475	0.07391469	0.689056
7836260079000	0.6239988	0.106901415	0.8142834
7836270669000	0.6786713	-0.008857546	0.95294976
7836280099000	0.6966918	-0.20433442	1.0827587
7836291726000	0.691194	-0.39064834	1.1398746
7836300118000	0.6423248	-0.5030475	1.0647382
7836310647000	0.5503896	-0.5543602	0.8390234
7836320046000	0.4914411	-0.57910025	0.50701815
7836332314000	0.49510628	-0.5458081	0.19608775
7836340096000	0.4529566	-0.39736784	0.013439035
7836355996000	0.37934732	-0.17867808	-0.018936822
7836360177000	0.1423316	-0.07849618	-0.019242255
7836370705000	-0.10445796	0.054367006	-0.059864793
7836380135000	-0.23640485	0.09162979	-0.21380283
7836390877000	-0.19425514	0.09040806	-0.4251622
7836400155000	0.004581489	0.11911872	-0.5934556
7836413277000	0.24556783	0.12889257	-0.68630713
7836420144000	0.47219884	-0.05100725	-0.7119634
7836430764000	0.77763146	-0.40500367	-0.7131852
7836440133000	1.0671816	-0.5717699	-0.79259765
7836450844000	1.2721269	-0.5717699	-0.81489426
7836460213000	1.2617421	-0.7348709	-0.42302418
7836471902000	0.67256266	-0.86345804	0.52931476
7836480172000	-0.3640757	-0.52687126	1.6374242
7836490853000	-1.2864822	0.18845193	2.2446244
7836500283000	-1.5796975	0.6310238	2.3090706
7836512490000	-1.8585575	0.6411031	2.1789563
7836520211000	-1.9327776	0.41050145	1.9538525
7836531838000	-1.9275852	0.14782938	1.7348573
7836540230000	-1.8460348	0.025350908	1.5225816
7836550912000	-1.6362026	0.016798794	1.2724323
7836560250000	-1.196685	-0.03726278	0.9502009
7836570931000	-0.44012842	-0.31490102	0.5858198
7836580269000	0.50671273	-0.8313876	0.24251351
7836593300000	1.3319917	-1.3429873	-0.060170226
7836600289000	1.8732183	-1.5552629	-0.29901853
7836610970000	2.2104158	-1.3417655	-0.39675698
7836620308000	2.5262332	-0.75411314	-0.29077184
7836630959000	3.0448577	-0.048258353	-0.010995574
7836640328000	3.671911	0.15485434	0.29229903
7836651894000	3.8362339	-0.77549344	0.42058071
7836660348000	3.4626896	-1.6053538	0.39920044
7836671029000	2.0018053	-3.2449162	0.25411993
7836680367000	0.19303341	-3.6572502	0.13225232
7836696236000	-0.8527679	-2.1423044	0.17959438
7836700387000	-1.0580186	0.41508293	0.312763
7836712105000	-0.9138544	2.5115724	0.37843102
7836720406000	-0.74464476	3.5570683	0.3484986
7836731026000	-0.5992588	3.794084	0.23854288
7836740456000	-0.40775254	3.5411859	0.06872234
7836751107000	-0.10598512	3.008206	-0.12308934
7836760445000	0.27458394	2.3445008	-0.2883284
7836773629000	0.63132924	1.6639969	-0.39706242
7836780465000	0.8750645	1.0748174	-0.44868052
7836791176000	0.97066486	0.66523224	-0.46211955
7836800515000	0.9611965	0.48808134	-0.44715336
7836811135000	0.8359691	0.5494733	-0.4297437
7836820504000	0.5983425	0.6597345	-0.3930918
7836832039000	0.29871312	0.98654735	-0.3747658
7836840523000	0.0	1.348485	-0.37232238
7836851174000	-0.21930063	1.6236799	-0.37659842
7836860543000	-0.3042109	1.7373008	-0.37048978
7836872811000	-0.26542094	1.6606371	-0.33841935
7836880562000	-0.17745635	1.4217888	-0.28099802
7836892281000	-0.13927728	1.0900891	-0.22724187
7836900582000	-0.16371189	0.73761976	-0.21288654
7836911294000	-0.17256944	0.45081854	-0.24648413
7836920601000	-0.07788532	0.30268374	-0.3210097
7836931435000	0.116980694	0.3213151	-0.43035457
7836940652000	0.30543262	0.44135013	-0.573297
7836953621000	0.4025602	0.5311473	-0.766025
7836960641000	0.4034765	0.47952923	-0.890947
7836972237000	0.29810223	0.37904188	-1.2012665
7836980660000	0.09865474	0.002443461	-1.5442673
7836991311000	-0.07941248	-0.54153204	-1.813048
7837000680000	-0.12705997	-1.0558805	-1.9242256
7837012337000	-0.014966198	-1.325883	-1.8781052
7837020699000	0.18448131	-1.2324207	-1.7211128
7837031380000	0.33261612	-0.85154617	-1.4975362
7837040780000	0.31764993	-0.33169982	-1.2388347
7837053017000	0.013133603	0.18234327	-0.91538155
7837060738000	-0.61819565	0.4361578	-0.4184427
7837072396000	-1.1093313	0.16707164	0.23335053
7837080788000	-1.0711522	-0.24801129	0.83016586
7837091469000	-0.84574294	-0.3481932	1.2333369
7837100808000	-0.8491027	-0.24373524	1.3988814
7837111458000	-0.95478237	-0.06505715	1.3976597
7837120827000	-1.2162327	0.05497787	1.2651019
7837133980000	-1.3319917	0.37873647	1.0164797
7837140847000	-1.2516629	0.7690793	0.7425067
7837151467000	-1.1087204	1.0451905	0.5305365
7837160836000	-1.0036516	0.9801333	0.37232238
7837171517000	-0.9306532	0.5543602	0.21074851
7837180855000	-0.86742866	-0.06872234	0.013744468
7837192574000	-0.7965683	-0.7360926	-0.25534168
7837200936000	-0.75136423	-1.3536774	-0.6536258
7837211556000	-0.7498371	-1.8142698	-1.2070698
7837221108000	-0.72204274	-2.0775528	-1.7739527
7837233834000	-0.6188065	-2.1319196	-2.0787745
7837241616000	-0.49174652	-1.9575176	-2.0631974
7837255440000	-0.3735441	-1.6884315	-1.822211
7837261544000	-0.3115413	-1.4746287	-1.6349808
7837272164000	-0.16493362	-1.3994923	-1.1517864
7837281563000	-0.0012217305	-1.2614367	-0.6020077
7837292245000	0.14569137	-1.0503827	-0.12461651
7837301552000	0.26175576	-0.75411314	0.21227567
7837314370000	0.364992	-0.4636467	0.4373795
7837321572000	0.47494772	-0.27122417	0.59315014
7837332253000	0.59589905	-0.20463985	0.71685034
7837341591000	0.6963864	-0.21319197	0.8304713
7837352212000	0.75686204	-0.24312437	0.9294315
7837361642000	0.75900006	-0.25289822	0.9978484
7837373147000	0.66798115	-0.1966986	1.0082331
7837381631000	0.46975538	-0.055283304	0.91904676
7837392312000	0.2443461	0.10873401	0.7165449
7837401650000	0.1554652	0.16401732	0.4288274
7837417916000	0.17165314	0.08582657	0.1151481
7837422005000	0.22449298	0.01985312	-0.029626964
7837433114000	0.19303341	-0.118507855	-0.2764165
7837441140000	0.11636983	-0.17440203	-0.52778757
7837451760000	0.05589417	-0.06352998	-0.8564331
7837461129000	0.017104227	0.105374254	-1.1814134
7837471840000	0.03970624	0.14477506	-1.3662001
7837481148000	0.160963	-0.047036625	-1.3582588
7837494179000	0.4352415	-0.49388456	-1.2366967
7837501351000	0.94714653	-0.95814216	-1.1087204
7837512002000	1.5906931	-1.1038336	-0.7819075
7837521371000	1.865277	-1.0180069	0.094989546
7837532082000	1.3756685	-0.7266242	1.4648548
7837541421000	0.40225476	-0.17592919	2.6896396
7837553139000	-0.44806966	0.3323107	3.195436
7837561623000	-0.92485	0.41386122	3.1175508
7837572243000	-1.0589349	0.10445796	2.8237245
7837581643000	-1.2425	-0.24984388	2.6645942
7837594063000	-1.3961325	-0.35979962	2.3600779
7837601784000	-1.5234979	-0.42058071	2.055867
7837613350000	-1.5839735	-0.35094208	1.7183639
7837621804000	-1.5351044	-0.31612277	1.3326025
7837632454000	-1.3179418	-0.4361578	0.92485
7837642006000	-0.75625116	-0.68691796	0.52534413
7837652627000	0.28771752	-1.0641272	0.092240654
7837662026000	1.4923438	-1.5479325	-0.36041048
7837675088000	2.3823745	-1.7846428	-0.6817256
7837682015000	2.9028316	-1.361924	-0.7324274
7837692879000	3.2919528	-0.31673363	-0.539394
7837702218000	3.628845	0.625526	-0.30451632
7837712929000	3.5030067	0.28985557	-0.22602014
7837722237000	2.4798074	-1.4239268	-0.26450464
7837737679000	0.89919364	-2.9098566	-0.23762658
7837742379000	0.18387043	-2.795014	-0.06505715
7837752450000	-0.74189585	-1.2718215	0.056505036
7837761422000	-1.0381655	-0.34422258	0.29810223
7837773629000	-0.9492846	1.2110404	0.45478916
7837781441000	-0.6933321	2.1636846	0.49663344
7837793160000	-0.40775254	2.6670377	0.44776422
7837801461000	-0.13805555	2.8570168	0.3454443
7837812111000	0.14294247	2.7947085	0.20922135
7837821450000	0.46639562	2.5195136	0.065973446
7837832223000	0.79717916	2.0775528	-0.03023783
7837841500000	1.0381655	1.5241088	-0.03848451
7837854653000	1.0977248	0.97066486	0.040927973
7837861519000	0.9486737	0.59315014	0.1704314
7837872140000	0.8020661	0.51007247	0.23365596
7837881508000	0.42394048	0.57971114	0.31642818
7837892190000	0.027183503	0.8717047	0.3036
7837901528000	-0.29168814	1.2351695	0.20280726
7837913186000	-0.48288897	1.500285	0.06994407
7837921548000	-0.50915617	1.5864171	-0.07422013
7837932229000	-0.3753767	1.50731	-0.23671028
7837941628000	-0.16554448	1.3035865	-0.41080686
7837953835000	-0.0018325958	1.0531317	-0.5705481
7837961648000	0.022907447	0.820392	-0.7049385
7837974984000	-0.04153884	0.6356053	-0.8170323
7837981637000	-0.07086037	0.5152648	-0.9117164
7837992379000	-0.0125227375	0.4859433	-0.98929626
7838001656000	0.07269296	0.5635232	-1.0537425
7838012307000	0.093462385	0.689056	-1.1230757
7838021645000	0.07086037	0.77854776	-1.1676689
7838036507000	-0.03023783	0.8002335	-1.2889256
7838041756000	-0.18081611	0.7672467	-1.4566082
7838052315000	-0.29901853	0.59589905	-1.6368134
7838061684000	-0.29840767	0.38423425	-1.7733418
7838072365000	-0.19730948	0.2706133	-1.8368717
7838081704000	-0.06414085	0.23915374	-1.8527542
7838093270000	0.06047566	0.19303341	-1.8616118
7838101723000	0.10995574	0.10598512	-1.8414533
7838112343000	-0.058337633	0.012217305	-1.7024814
7838121743000	-0.47067168	-0.17256944	-1.3643675
7838134011000	-0.7883216	-0.45662177	-0.9071349
7838141762000	-0.874759	-0.47891834	-0.52626044
7838153359000	-0.97097033	-0.058643065	-0.30573806
7838161782000	-1.1585059	0.58368176	-0.18020524
7838172463000	-1.2544118	1.1817188	-0.0421497
7838181801000	-1.3839152	1.4117095	0.04642576
7838192483000	-1.3997977	1.6982054	0.24770586
7838201821000	-1.2956452	1.7305813	0.44348818
7838214852000	-1.1047498	1.4596626	0.59406644
7838221840000	-0.90316427	0.8979719	0.6560693
7838232461000	-0.7519751	0.15088372	0.5830709
7838241860000	-0.700357	-0.6728681	0.31031954
7838252541000	-0.77488256	-1.4483615	-0.2574797
7838261880000	-0.90285885	-2.0360138	-1.0897835
7838273598000	-0.9440922	-2.3808472	-1.881465
7838281960000	-0.8200866	-2.4486532	-2.268448
7838292519000	-0.63591075	-2.2672265	-2.2079725
7838301949000	-0.48258355	-2.0583105	-1.8078557
7838314187000	-0.34483343	-1.9275852	-1.1630874
7838321938000	-0.26939157	-1.7330247	-0.47128254
7838333535000	-0.12644911	-1.317331	-0.18112154
7838341988000	-0.041233405	-1.0341948	0.22479841
7838352578000	0.004276057	-0.45112398	0.44165558
7838362008000	0.06994407	-0.034208454	0.55863625
7838372658000	0.20311269	0.15393804	0.6264423
7838381997000	0.3933972	0.18203785	0.67164636
7838395058000	0.5510005	0.09285152	0.7476991
7838402016000	0.62888575	-0.07391469	0.87109387
7838412636000	0.6597345	-0.25900686	0.99387777
7838422036000	0.6942484	-0.42730024	1.0283916
7838432656000	0.73884153	-0.56779927	0.91690874
7838442055000	0.7458665	-0.68203104	0.70341134
7838453652000	0.66614854	-0.7367035	0.47494772
7838462105000	0.46670106	-0.68477994	0.31642818
7838476967000	0.11942416	-0.5369505	0.2678644
7838481850000	-0.09865474	-0.29993483	0.2611449
7838494393000	-0.516792	-0.13836098	0.18967366
7838503304000	-0.7480045	0.2742785	-0.02443461
7838513802000	-0.7367035	0.7079928	-0.37965274
7838522194000	-0.5500842	0.9477574	-0.7791586
7838532876000	-0.2556471	0.80909103	-1.1175779
7838542214000	0.1282817	0.24373524	-1.3301591
7838553353000	0.69058317	-0.46883908	-1.382388
7838562173000	1.2971723	-0.6600399	-1.3808609
7838575265000	1.6285667	-0.36560285	-1.4437801
7838582223000	1.6255124	-0.40866885	-1.4004086
7838592873000	1.1960741	-0.906524	-0.9957104
7838602273000	0.4260785	-1.1643091	-0.25595254
7838612923000	-0.40591997	-0.65301496	0.505491
7838622231000	-1.1175779	0.13805555	1.0122037
7838633828000	-1.4129313	0.46975538	1.1578951
7838642251000	-1.8805487	0.4474588	1.3041973
7838652901000	-2.1734586	0.26389378	1.3420709
7838662270000	-2.2696698	0.08155051	1.3277156
7838674508000	-2.1569653	-0.11209377	1.2712106
7838682290000	-1.7907515	-0.41599923	1.1630874
7838693917000	-1.0195341	-0.88117313	0.9764681
7838702309000	0.12034045	-1.4749341	0.7486154
7838712929000	1.248914	-2.0179935	0.54244834
7838722329000	2.042428	-2.2693644	0.3652974
7838732949000	2.4947736	-2.1398609	0.2302962
7838742348000	2.7293458	-1.6621643	0.1695151
7838755440000	2.9382617	-0.93615097	0.1863139
7838762368000	3.338684	-0.22388211	0.21685717
7838773049000	3.7226129	-0.13683382	0.1740966
7838782387000	3.7113118	-1.1753048	0.11789699
7838793038000	3.0589077	-1.9556851	-9.162979E-4
7838802407000	1.7767016	-3.184746	-0.027794369
7838817635000	0.40500367	-3.1300735	0.059253927
7838822335000	-0.5821546	-1.6462818	0.20463985
7838833077000	-1.0812315	0.40194935	0.34880406
7838842446000	-1.2253957	1.8655825	0.4373795
7838854714000	-1.1184943	2.5247061	0.46273044
7838862465000	-0.8533788	2.6841419	0.43799037
7838874184000	-0.49754974	2.542421	0.37232238
7838882485000	-0.09865474	2.1997259	0.27122417
7838893105000	0.3023783	1.7287487	0.14630222
7838902505000	0.6426302	1.1911873	0.043676864
7838913216000	0.8744536	0.66523224	-3.0543262E-4
7838922555000	0.97035944	0.25778514	0.008857546
7838937234000	0.9584476	0.09560041	0.049480084
7838942483000	0.7996226	0.22999077	0.07086037
7838953194000	0.47158796	0.38148534	0.10476339
7838962563000	0.054367006	0.75900006	0.12675454
7838973244000	-0.3277292	1.1099422	0.129198
7838982552000	-0.5693264	1.3231341	0.09682214
7838995888000	-0.6469063	1.4010195	0.015577064
7839002633000	-0.6230826	1.3723087	-0.1020145
7839013253000	-0.5757405	1.2748758	-0.24556783
7839022622000	-0.54153204	1.1569787	-0.41325033
7839034859000	-0.48197266	1.0454959	-0.593761
7839042641000	-0.34147367	1.0021244	-0.7742717
7839056100000	-0.14569137	1.073901	-0.9624182
7839062661000	0.01160644	1.1746938	-1.1612549
7839073311000	0.054367006	1.1478158	-1.3655893
7839082680000	0.03268129	0.9288206	-1.5418239
7839093331000	-0.03481932	0.623388	-1.6059648
7839102700000	-0.052839845	0.49846604	-1.6698002
7839117562000	0.004276057	0.3680463	-1.6526959
7839122475000	0.13255776	0.33536503	-1.6102408
7839133401000	0.28252518	0.34391713	-1.6297885
7839142708000	0.3744604	0.28893927	-1.7284433
7839153390000	0.43096542	0.04886922	-1.8616118
7839162758000	0.4728097	-0.19700404	-2.0140228
7839174355000	0.30207285	-0.37812558	-2.0528126
7839182778000	0.003970624	-0.93767816	-1.8274034
7839193429000	-0.044898596	-1.6917913	-1.3888022
7839202798000	0.0015271631	-1.7898352	-0.8029824
7839215096000	-0.26328292	-1.2699889	-0.1591304
7839222817000	-0.8790351	-0.4642576	0.28588495
7839234566000	-1.502423	0.58184916	0.43004912
7839242837000	-1.7186694	1.7528778	0.4541783
7839253518000	-1.9004018	2.2858577	0.5332854
7839262856000	-1.8234328	3.058297	0.6826419
7839273507000	-1.6450601	3.306919	0.84116143
7839282876000	-1.4535538	2.994156	0.91507614
7839296059000	-1.2330315	2.1868975	0.77182823
7839302865000	-0.93523467	0.9575313	0.25717425
7839313607000	-0.5723807	-0.58093286	-0.6411031
7839322915000	-0.25717425	-2.1600194	-1.5790867
7839333596000	-0.11056661	-3.3826663	-2.1410828
7839342934000	-0.13072516	-3.9293907	-2.2883012
7839354561000	-0.19242255	-3.7980547	-2.1138992
7839362954000	-0.19333886	-3.2461379	-1.6484199
7839373604000	-0.11453723	-2.588236	-0.9578367
7839382973000	0.0106901415	-1.9431623	-0.22266038
7839395241000	0.0729984	-1.2922854	0.093767814
7839402962000	0.16829337	-0.9914343	0.56107974
7839414528000	0.2125811	-0.52503866	0.82711154
7839423012000	0.22357668	-0.24465153	0.93126404
7839433663000	0.2180789	-0.06352998	0.90224797
7839443032000	0.19730948	0.081855945	0.8002335
7839453683000	0.17745635	0.18173242	0.7049385
7839463051000	0.17592919	0.18661933	0.6780604
7839476204000	0.22204952	0.049785517	0.72601336
7839483071000	0.33383787	-0.18906279	0.79534656
7839493722000	0.5012149	-0.47678033	0.818254
7839503090000	0.70646566	-0.795652	0.7641924
7839513711000	0.88422745	-1.0818423	0.64843345
7839523110000	0.9138544	-1.183246	0.52106804
7839538918000	0.6817256	-0.99112886	0.43554693
7839543099000	0.47678033	-0.56230146	0.40958515
7839553750000	0.02107485	-0.30543262	0.35094208
7839563180000	-0.29901853	0.18570304	0.20952678
7839575387000	-0.3827071	0.5534439	-0.057421334
7839583169000	-0.28130344	0.7965683	-0.37415496
7839594765000	-0.064446285	0.94806284	-0.58276546
7839603188000	0.22540927	0.9831876	-0.59528816
7839613839000	0.5580254	0.7901542	-0.45570546
7839623208000	0.9334021	0.2321288	-0.31031954
7839633889000	1.2366967	-0.50732356	-0.31520647
7839643227000	1.4031575	-1.426065	-0.40286562
7839656258000	1.4816537	-2.482251	-0.41263947
7839663247000	1.2449434	-2.8863382	-0.19181168
7839673928000	0.6411031	-2.3851233	0.27214047
7839683236000	-0.10567969	-1.2486086	0.79320854
7839693917000	-0.48258355	0.007330383	1.2009611
7839703255000	-1.1927143	0.7984009	1.3451253
7839714852000	-1.7672331	0.98715824	1.5314392
7839723275000	-2.1514673	1.1294898	1.6227635
7839733986000	-2.3359487	1.1523973	1.6462818
7839743294000	-2.2879958	1.1206323	1.6041322
7839755623000	-1.920255	0.9257663	1.475545
7839763314000	-1.0867293	0.3640757	1.2620476
7839775033000	0.021685716	-0.6065892	0.98563105
7839783333000	0.9437868	-1.6936239	0.6808093
7839794015000	1.5060883	-2.441323	0.39645153
7839803383000	1.8356501	-2.6132815	0.22388211
7839814034000	2.0891593	-2.2061398	0.25595254
7839823403000	2.377182	-1.2452488	0.52931476
7839836464000	2.9578094	0.113926366	0.91996306
7839843392000	3.419929	1.0876455	1.1242975
7839854043000	4.332562	0.4373795	1.0931433
7839863412000	4.4318275	-0.58276546	0.80848014
7839874123000	3.4767396	-3.0891457	0.42821655
7839883431000	1.9220876	-4.6251664	0.183565
7839898720000	0.33169982	-4.2836924	0.15393804
7839903390000	-0.71959925	-2.2910502	0.27214047
7839914162000	-1.0830641	0.49693888	0.41905355
7839923501000	-1.0769554	2.8625145	0.5021312
7839935769000	-0.9761627	4.2277985	0.48380527
7839943520000	-0.8405506	4.8246136	0.3680463
7839955208000	-0.63804877	4.9128838	0.17745635
7839963540000	-0.35918877	4.641049	-0.03970624
7839974190000	-0.035430185	4.1105123	-0.23854288
7839983559000	0.28221974	3.4138205	-0.39095375
7839994210000	0.5332854	2.6923885	-0.48472157
7840003579000	0.61727935	2.0390682	-0.49357912
7840016732000	0.7031059	1.7290541	-0.41630468
7840023598000	0.7147123	1.1160508	-0.23304509
7840034279000	0.66981375	0.5687156	0.01740966
7840043618000	0.5714644	0.23793201	0.26083946
7840054268000	0.40194935	0.35185838	0.39370266
7840063607000	0.11728613	0.9233228	0.29626966
7840075204000	-0.29077184	1.4920384	-0.046120327
7840083626000	-0.634689	1.736079	-0.4728097
7840094277000	-0.7076874	1.8044959	-0.8014552
7840103646000	-0.5338962	1.790446	-0.9275989
7840116036000	-0.267559	1.7030923	-0.8509353
7840123665000	-0.029321533	1.5427402	-0.63407815
7840137032000	0.13622294	1.2834278	-0.37384954
7840143685000	0.2507602	0.9388999	-0.14446963
7840154397000	0.28802297	0.6444628	-0.0580322
7840163704000	0.31031954	0.5439755	0.03756821
7840174386000	0.24404067	0.43004912	0.017715093
7840183724000	0.08827003	0.3115413	-0.1441642
7840198617000	-0.09254608	0.112399206	-0.4447099
7840203499000	-0.24556783	-0.061391957	-0.7996226
7840214425000	-0.3286455	-0.2782491	-1.1490375
7840223763000	-0.2883284	-0.6087272	-1.4431691
7840234444000	-0.14721853	-0.9239337	-1.5842791
7840243783000	0.04428773	-1.102001	-1.5540411
7840255379000	0.22815818	-1.0549643	-1.4141531
7840263802000	0.31520647	-0.7498371	-1.1866057
7840274453000	0.19456059	-0.20799962	-0.84604836
7840283822000	-0.38698313	0.34513888	-0.2593123
7840296151000	-1.1505647	0.55955255	0.5696318
7840303841000	-1.3622295	0.8017606	0.9431759
7840315621000	-1.5790867	1.0885619	1.3081679
7840324044000	-1.8551978	2.1432207	1.1484267
7840334725000	-1.8246545	3.4718525	0.786489
7840344063000	-1.5409076	3.780645	0.48472157
7840354745000	-1.2892311	2.9541442	0.27550024
7840364266000	-1.0491611	1.7244726	0.07666359
7840377480000	-0.7984009	0.5235115	-0.1151481
7840384286000	-0.66675943	-0.2733622	-0.20891592
7840394997000	-0.7098254	-0.66645396	-0.17837265
7840404305000	-0.8228355	-0.9450085	-0.09712757
7840414956000	-0.9166033	-1.2278391	-0.015271631
7840424477000	-0.96486163	-1.4581354	0.026267206
7840436135000	-0.981355	-1.6551393	-0.022296581
7840444497000	-0.96577793	-1.8442022	-0.19853121
7840455208000	-0.8561276	-1.7779233	-0.45540005
7840464730000	-0.68325275	-1.350623	-0.6160576
7840476998000	-0.5946773	-1.031446	-0.58093286
7840484719000	-0.42455134	-0.8717047	-0.5152648
7840496346000	-0.2452624	-0.74464476	-0.3472769
7840504738000	-0.056199603	-0.3820962	-0.13561209
7840515603000	0.093462385	-0.074830994	0.09285152
7840524941000	0.18448131	0.015882496	0.258396
7840535561000	0.24312437	-0.03604105	0.35277468
7840544961000	0.3145956	-0.14477506	0.43127087
7840559945000	0.38881573	-0.32070425	0.54092115
7840565011000	0.43279803	-0.5323691	0.70066243
7840575142000	0.46639562	-0.7199047	0.89552844
7840584115000	0.50701815	-0.85154617	1.0699304
7840594765000	0.52748215	-0.9068295	1.1691961
7840604134000	0.5131268	-0.9068295	1.1475104
7840615670000	0.4343252	-0.8793405	1.0714576
7840624154000	0.3484986	-0.8622363	0.77579886
7840639046000	0.321926	-0.8081747	0.35705075
7840643960000	0.30176744	-0.59956425	-0.07086037
7840656411000	0.2012801	-0.06780604	-0.4569272
7840664193000	0.057421334	0.7629707	-0.8744536
7840677559000	-0.07360926	1.6099354	-1.3805555
7840684212000	-0.1423316	2.0744984	-1.8280143
7840694893000	-0.110872045	2.0482311	-2.0210476
7840704232000	0.043066	1.6584991	-1.9181169
7840714913000	0.46792278	0.70738196	-1.4700472
7840724282000	1.1887437	-0.9691377	-0.59895337
7840737343000	1.7953329	-2.1746802	0.46914452
7840744301000	1.7250835	-2.007914	1.3292428
7840754952000	0.9447031	-1.3154984	1.7971655
7840764290000	0.46211955	-1.1979067	1.8640553
7840774972000	-0.1881465	-1.4929546	1.541213
7840784310000	-0.3210097	-1.7559321	0.62949663
7840795937000	-0.3717115	-0.5867361	-0.18661933
7840804329000	-0.5002986	0.6786713	-0.44012842
7840815072000	-0.6637051	1.1499538	-0.35155296
7840824349000	-0.7779369	1.07665	-0.18478674
7840836648000	-0.82802784	0.6478226	-0.0076358155
7840844369000	-0.81214535	-0.21105394	0.1695151
7840855996000	-0.70432764	-1.3121386	0.35033122
7840864388000	-0.45662177	-2.3478606	0.50518554
7840875039000	0.0030543262	-3.1297681	0.6169739
7840884408000	0.6939429	-3.5863898	0.7296785
7840895058000	1.5112807	-3.648698	0.90469146
7840904488000	2.2464569	-3.1380148	1.1206323
7840917641000	2.5283713	-2.0604484	1.210124
7840924508000	2.8973339	-1.450805	1.2690725
7840935097000	2.950479	-0.48472157	1.110553
7840944497000	2.513405	-0.30909783	0.799928
7840955178000	1.557401	-0.86834496	0.4886922
7840964486000	0.45051312	-1.3008375	0.30451632
7840977700000	-0.37751472	-0.8875872	0.25320363
7840984536000	-0.78038037	0.267559	0.25809056
7840998849000	-0.8011498	1.5008959	0.25961772
7841004555000	-0.5403103	2.2531765	0.2406809
7841016823000	-0.14202617	2.5103507	0.20830505
7841024605000	0.22082779	2.4959953	0.15790866
7841037728000	0.4465425	2.3383923	0.07971791
7841044594000	0.54702985	2.0265455	-0.009468411
7841055184000	0.5876524	1.5283848	-0.08032878
7841064553000	0.59528816	0.89919364	-0.105374254
7841075295000	0.58062744	0.5815437	-0.13255776
7841084572000	0.5149594	0.070249505	-0.13347405
7841099404000	0.40042216	-0.13836098	-0.12950343
7841104622000	0.24862215	-0.035124753	-0.13897185
7841115304000	0.073303826	0.26053402	-0.16737708
7841124673000	-0.081855945	0.61850107	-0.20189096
7841135354000	-0.18661933	0.94134337	-0.20861048
7841144692000	-0.22082779	1.183246	-0.17623462
7841157845000	-0.20158553	1.3353515	-0.12675454
7841164712000	-0.1826487	1.3930782	-0.092240654
7841175362000	-0.20005837	1.3264939	-0.09865474
7841184701000	-0.24281894	1.1554517	-0.16126843
7841196969000	-0.25961772	0.9407325	-0.29535335
7841204720000	-0.19517145	0.7244862	-0.49388456
7841218087000	-0.1255328	0.5558874	-0.732122
7841224740000	0.06872234	0.48197266	-0.8570439
7841235451000	0.26725355	0.4801401	-1.106277
7841245370000	0.3830125	0.52290064	-1.3371841
7841256051000	0.355829	0.55955255	-1.5549575
7841265389000	0.20250183	0.48258355	-1.7650951
7841278390000	0.024740042	0.25442538	-1.9312505
7841285409000	-0.077579886	-0.028099801	-2.0161607
7841296059000	-0.02076942	-0.22571471	-2.0048597
7841305428000	0.1957823	-0.23640485	-1.92392
7841316109000	0.45753807	-0.06536258	-1.7907515
7841325448000	0.6209445	0.20219639	-1.5958854
7841337014000	0.53023106	0.50610185	-1.3142766
7841345467000	0.04062254	0.63407815	-0.88453287
7841356148000	-0.66828656	0.3032946	-0.27305678
7841365517000	-0.95203346	-0.28955013	0.38423425
7841377785000	-1.1869112	-0.5910121	0.6737844
7841385506000	-1.0372492	-0.56107974	1.1129965
7841397256000	-0.8026769	-0.25473082	1.3249667
7841405526000	-0.77763146	0.16157386	1.3023647
7841416176000	-0.9663888	0.5516113	1.1090258
7841425545000	-1.1856894	0.90041536	0.82802784
7841436196000	-1.3014483	1.1691961	0.5571091
7841444954000	-1.2858714	1.2406673	0.34666604
7841458169000	-1.1844677	1.0125091	0.16646078
7841464944000	-1.0644327	0.50579643	-0.022907447
7841475625000	-0.9627236	-0.16371189	-0.25350907
7841484994000	-0.89766645	-0.84665924	-0.5549711
7841495614000	-0.86742866	-1.4059063	-0.9251554
7841505013000	-0.8527679	-1.7479908	-1.344209
7841518319000	-0.8350528	-1.8759671	-1.6914859
7841525033000	-0.81214535	-1.858863	-1.784032
7841535683000	-0.7333437	-1.8145752	-1.7846428
7841545052000	-0.63499445	-1.6945401	-1.6032158
7841557259000	-0.52595496	-1.5824465	-1.2986995
7841565041000	-0.4202753	-1.4880677	-0.9101892
7841576638000	-0.3277292	-1.3570372	-0.50762904
7841585061000	-0.24404067	-1.1029172	-0.14844026
7841595742000	-0.16523905	-0.7293731	0.14263703
7841605080000	-0.058643065	-0.3371976	0.3659083
7841615761000	0.11148291	-0.03268129	0.5183192
7841625100000	0.31764993	0.10598512	0.6261369
7841638253000	0.48472157	0.058948494	0.74189585
7841645119000	0.56688297	-0.11453723	0.8765916
7841655800000	0.58062744	-0.3213151	0.99173975
7841665139000	0.56505036	-0.4886922	1.0213667
7841675820000	0.5543602	-0.59528816	0.99112886
7841685158000	0.516792	-0.6221663	0.8436049
7841696725000	0.4428773	-0.62949663	0.58032197
7841705178000	0.36041048	-0.59223384	0.21685717
7841720070000	0.28619036	-0.47494772	-0.18448131
7841725014000	0.19058995	-0.23701571	-0.516792
7841737527000	0.06566802	0.05589417	-0.72692966
7841745247000	-0.036957346	0.28008172	-0.8744536
7841756966000	-0.06627888	0.3539964	-1.0412198
7841765267000	-0.021991149	0.31764993	-1.1820242
7841775887000	0.10262536	0.30573806	-1.1878275
7841785287000	0.2950479	0.3659083	-1.0387764
7841795968000	0.57940567	0.33108896	-0.7852673
7841805276000	0.95447695	0.06688975	-0.5348125
7841818398000	1.2990049	-0.44532076	-0.2883284
7841825326000	1.4373659	-1.1624765	-0.112704635
7841835976000	1.5161675	-1.3979651	0.41080686
7841845345000	1.1866057	-1.2684617	1.0806206
7841855996000	0.49449542	-0.5497787	1.6190983
7841865334000	-0.32711834	0.2003638	1.8316795
7841876961000	-0.99021256	0.52778757	1.7959439
7841885354000	-1.4187346	0.43401974	1.6643023
7841896065000	-1.6807957	0.2284636	1.527774
7841905404000	-1.8099937	0.14294247	1.3982705
7841917672000	-1.817935	0.19242255	1.2373075
7841925393000	-1.7211128	0.20830505	1.0064005
7841937020000	-1.459357	-0.012217305	0.72082096
7841945412000	-0.8915578	-0.5170974	0.4269948
7841956063000	0.07086037	-1.1859949	0.11911872
7841965432000	1.1948525	-1.8445076	-0.19425514
7841976082000	1.6850718	-2.2898283	-0.42271876
7841985451000	2.3780985	-2.3044891	-0.47067168
7841998543000	2.7339275	-2.121535	-0.40378192
7842005501000	2.9596422	-1.4639386	-0.18325958
7842016152000	3.2162056	-0.7849618	0.031154128
7842025490000	3.3417382	-0.7693848	0.10842858
7842036172000	2.9837713	-1.7333301	0.06994407
7842045510000	2.058616	-2.9315424	0.05009095
7842060769000	0.8689558	-3.2995887	0.121256754
7842065438000	-0.15668693	-2.4367414	0.24801129
7842076150000	-0.7663304	-0.7458665	0.37018433
7842085549000	-0.9773844	0.86437434	0.44593164
7842097787000	-0.91690874	1.8924606	0.44165558
7842105599000	-0.6817256	2.4294112	0.36713
7842117348000	-0.364992	2.624888	0.23671028
7842125588000	-0.19975294	2.595261	0.080634214
7842136239000	0.12736541	2.417194	0.009773844
7842145608000	0.4334089	2.286163	-0.08399397
7842156319000	0.691194	1.9691241	-0.09315695
7842165688000	0.8735373	1.6276505	-0.02321288
7842178872000	0.93431836	1.2950343	0.098043874
7842185708000	0.8597928	0.98929626	0.23182335
7842196297000	0.66798115	0.7272351	0.33475417
7842205697000	0.3915646	0.5363397	0.37598756
7842216378000	0.086437434	0.4813618	0.3481932
7842225655000	-0.20097467	0.605062	0.26542094
7842237374000	-0.42730024	0.8918633	0.160963
7842245705000	-0.5564982	1.2449434	0.047647487
7842256386000	-0.57696223	1.502423	-0.099265605
7842265725000	-0.49693888	1.5909985	-0.29016098
7842277962000	-0.35185838	1.5528195	-0.50915617
7842285744000	-0.27305678	1.4453071	-0.6200282
7842299233000	-0.14110987	1.3701707	-0.8335256
7842305764000	-0.04917465	1.1716396	-1.0204504
7842316414000	0.053450707	0.93370754	-1.1685852
7842325783000	0.19333886	0.75136423	-1.2907583
7842336464000	0.31429017	0.6954701	-1.4013249
7842345803000	0.36071593	0.7171558	-1.5222762
7842358895000	0.2950479	0.70432764	-1.6584991
7842365822000	0.124311075	0.53023106	-1.7974709
7842376504000	-0.052839845	0.15515977	-1.88849
7842385842000	-0.12339478	-0.27091873	-1.8930714
7842396462000	-0.03970624	-0.54550266	-1.8115209
7842405861000	0.115453534	-0.57757306	-1.6740762
7842419045000	0.2415972	-0.44532076	-1.491733
7842425881000	0.2932153	-0.1826487	-1.2727377
7842436532000	0.27397305	0.2171626	-1.153619
7842445901000	0.053145275	0.43035457	-0.87017757
7842458169000	-0.47647488	0.6224717	-0.45020768
7842465920000	-0.95142263	0.18967366	0.09101892
7842477547000	-0.97524637	-0.46273044	0.58368176
7842485940000	-0.75441855	-0.6954701	0.926988
7842496621000	-0.7079928	-0.535118	1.0965031
7842505959000	-0.93645644	-0.21288654	1.0790935
7842516640000	-1.2425	0.22082779	0.89644474
7842525979000	-1.4031575	0.77274454	0.623388
7842539162000	-1.3805555	1.3277156	0.3848451
7842545998000	-1.2498302	1.6426166	0.2593123
7842556618000	-1.0864239	1.5158621	0.21135938
7842566018000	-0.9407325	0.9868528	0.16982053
7842576668000	-0.82894415	0.24129178	0.09437868
7842586037000	-0.79351395	-0.5519168	0.029626964
7842597695000	-0.7816021	-0.92271197	-0.17989981
7842606057000	-0.8384125	-1.5289958	-0.5140431
7842616738000	-0.89552844	-1.9089539	-0.9502009
7842626076000	-0.88025683	-2.0824397	-1.317331
7842638314000	-0.79809546	-2.0635028	-1.4727961
7842646096000	-0.68691796	-1.9208658	-1.4132367
7842657815000	-0.55863625	-1.7794504	-1.1407908
7842666115000	-0.4129449	-1.6276505	-0.72356987
7842676797000	-0.26908615	-1.357648	-0.30695978
7842686135000	-0.16798794	-0.91415983	0.0036651916
7842696786000	-0.11301007	-0.40469822	0.21013765
7842706154000	-0.04153884	0.0012217305	0.32986724
7842719369000	0.099265605	0.22174409	0.3915646
7842726174000	0.26725355	0.2510656	0.441961
7842736825000	0.33750305	0.14172074	0.5375614
7842746194000	0.42363504	-0.0143553335	0.6105598
7842756844000	0.43188173	-0.0842994	0.7693848
7842766213000	0.39767328	-0.1853976	0.8533788
7842777779000	0.3549127	-0.2452624	0.80664754
7842786233000	0.30573806	-0.26725355	0.62949663
7842801095000	0.26511553	-0.23671028	0.3494149
7842806008000	0.26328292	-0.14508049	0.014966198
7842818490000	0.2648101	0.008857546	-0.29626966
7842826272000	0.17654006	0.18448131	-0.4972443
7842838082000	0.02687807	0.3032946	-0.59681535
7842846322000	-0.08674286	0.35002577	-0.6963864
7842856942000	-0.12522738	0.35338554	-0.840856
7842866341000	-0.07544186	0.34300083	-0.9669997
7842876931000	0.06994407	0.33322698	-1.0073168
7842886330000	0.17898351	0.21655174	-0.93828905
7842899392000	0.4990769	-0.13439035	-0.86498517
7842906380000	0.91721416	-0.36193767	-0.68233645
7842917031000	1.25319	-0.86651236	-0.52687126
7842926400000	1.5012014	-1.5586227	-0.32711834
7842937050000	1.491122	-1.9868392	0.081855945
7842946389000	1.0409144	-1.5803084	0.70952
7842957955000	0.26816985	-0.5907067	1.314582
7842966408000	-0.5879578	0.3943135	1.649947
7842977120000	-1.2675453	0.8491027	1.7128662
7842986428000	-1.7159204	0.7492262	1.6438384
7842998696000	-1.9874501	0.46028697	1.5427402
7843006478000	-2.1087067	0.24984388	1.4312572
7843018075000	-2.074193	0.13927728	1.2727377
7843026467000	-1.8438967	-0.026572637	1.040609
7843037148000	-1.2947289	-0.41996986	0.74006325
7843046486000	-0.8527679	-1.042747	0.57604593
7843057107000	0.2846632	-1.391551	0.2443461
7843066506000	1.389413	-1.9963076	-0.082161374
7843079537000	2.1248949	-2.300213	-0.36468655
7843086526000	2.500577	-2.2327125	-0.5161811
7843097207000	2.6975808	-1.7993035	-0.48288897
7843106545000	2.9562824	-1.1203269	-0.2910773
7843117226000	3.3399057	-0.6068946	-0.06047566
7843126565000	3.438255	-0.8958339	0.07849618
7843138253000	2.8506026	-2.0457878	0.12797627
7843146584000	1.7116444	-3.0466905	0.16310102
7843161049000	0.47861293	-2.9336803	0.21166481
7843166756000	-0.43951756	-1.6820174	0.2489276
7843178994000	-0.89949906	-0.08857546	0.27152961
7843186837000	-0.9673051	1.0977248	0.2837469
7843198525000	-0.8949176	1.7880026	0.27580565
7843206978000	-0.61911196	2.0864103	0.26328292
7843217629000	-0.2657264	2.1096232	0.22632557
7843227028000	0.0852157	1.9691241	0.18020524
7843237679000	0.38820487	1.6710218	0.1414153
7843247048000	0.61850107	1.3161092	0.11789699
7843260171000	0.7476991	1.0305296	0.11026118
7843267220000	0.754724	0.8503244	0.11301007
7843277932000	0.6386596	0.7296785	0.124311075
7843287240000	0.43188173	0.6560693	0.13439035
7843297890000	0.1881465	0.63255095	0.13622294
7843307351000	-0.032070424	0.6731735	0.119729586
7843320473000	-0.18387043	0.763887	0.080634214
7843327553000	-0.26328292	0.87964594	0.028710667
7843338235000	-0.28496864	1.0277808	-0.020463986
7843347512000	-0.28710666	1.1795808	-0.063224554
7843359749000	-0.29993483	1.2620476	-0.11728613
7843367531000	-0.31429017	1.2336423	-0.15302174
7843381112000	-0.35643986	1.1780536	-0.2452624
7843387734000	-0.3998113	1.0033462	-0.37232238
7843399148000	-0.38820487	0.7877107	-0.5299256
7843408394000	-0.24862215	0.61178154	-0.6930266
7843419045000	0.010995574	0.56169057	-0.84665924
7843428017000	0.27305678	0.61544675	-0.9960158
7843440377000	0.4156938	0.6169739	-1.1530081
7843447548000	0.4352415	0.45631635	-1.3182472
7843458169000	0.36957347	0.21960606	-1.4932601
7843467507000	0.27091873	-0.040317107	-1.6643023
7843478158000	0.23609942	-0.33475417	-1.7782288
7843487588000	0.30298916	-0.59712076	-1.8035797
7843500863000	0.35918877	-0.77366084	-1.7547104
7843507546000	0.46700647	-0.883922	-1.7119498
7843518197000	0.5183192	-0.91996306	-1.5946637
7843527566000	0.49235737	-0.89919364	-1.4379768
7843539834000	0.37843102	-0.6597345	-1.2370021
7843547585000	0.041233405	-0.24556783	-0.91813046
7843559182000	-0.5384777	-0.037873644	-0.3817908
7843567605000	-0.97127575	-0.28619036	0.28955013
7843578286000	-0.99296147	-0.5271767	0.89949906
7843587624000	-0.77457714	-0.4092797	1.3264939
7843598275000	-0.6203337	-0.10720685	1.5082263
7843607644000	-0.6792821	0.1459968	1.4538593
7843620644000	-0.8866709	0.3268129	1.1972959
7843627694000	-1.0943651	0.50335294	0.8002335
7843638283000	-1.1914927	0.71776664	0.3921755
7843647683000	-1.1869112	0.8891144	0.09682214
7843658303000	-1.1059716	0.8393288	-0.0018325958
7843667733000	-0.9877691	0.70005155	-0.13958271
7843679391000	-0.86437434	0.23732115	-0.24220806
7843687722000	-0.7583892	-0.35796702	-0.34972036
7843698433000	-0.6914995	-0.9728029	-0.49235737
7843707741000	-0.67256266	-1.5076154	-0.6918049
7843720040000	-0.6942484	-1.9034561	-0.9669997
7843727761000	-0.72173727	-2.140472	-1.2403619
7843740944000	-0.7119634	-2.1768184	-1.3552046
7843747170000	-0.65057147	-1.9911152	-1.2867876
7843757821000	-0.54428095	-1.6927075	-1.0861185
7843767159000	-0.408058	-1.3817772	-0.8008443
7843777810000	-0.28008172	-1.0601566	-0.47983465
7843787179000	-0.18997909	-0.7079928	-0.17684549
7843800271000	-0.14446963	-0.3662137	0.06536258
7843807290000	-0.12980886	-0.13041973	0.15057829
7843818062000	-0.07574729	-0.076052725	0.24801129
7843827309000	0.057421334	-0.07788532	0.2910773
7843837990000	0.25350907	-0.1731803	0.34788775
7843847298000	0.42424592	-0.27947086	0.4886922
7843860634000	0.51007247	-0.31887165	0.6740898
7843867287000	0.51923543	-0.28771752	0.8029824
7843877907000	0.48747048	-0.22602014	0.8323039
7843887307000	0.43004912	-0.13622294	0.7556403
7843899544000	0.37110063	-0.024740042	0.5589417
7843907357000	0.34269542	0.050396383	0.2312125
7843918923000	0.3436117	0.035124753	-0.19272798
7843927346000	0.33567044	-0.06811147	-0.61208695
7843942299000	0.23823744	-0.19456059	-0.88025683
7843947213000	0.14782938	-0.30390546	-0.9407325
7843958077000	-0.051923547	-0.41813725	-0.9300423
7843967415000	-0.17806722	-0.45906523	-0.93492925
7843980569000	-0.19120082	-0.43066	-1.0112875
7843987465000	-0.08032878	-0.20738874	-1.0842859
7843998086000	0.17745635	0.13988814	-1.0635164
7844007424000	0.52595496	0.3631594	-0.89736104
7844018105000	0.9251554	0.19425514	-0.6236934
7844027474000	1.3005321	-0.28191432	-0.37843102
7844039010000	1.5726726	-1.0412198	-0.16584991
7844047463000	1.7082846	-2.0796907	0.12461651
7844058144000	1.4709635	-2.529593	0.5561928
7844067513000	0.77946407	-1.9297233	1.0616838
7844079751000	-0.27000242	-0.7825184	1.4428637
7844087502000	-1.3087788	0.14446963	1.5778649
7844099129000	-1.9773707	0.5122105	1.5387696
7844107522000	-2.189341	0.5525276	1.493871
7844118203000	-2.4581218	0.5458081	1.3912456
7844127541000	-2.565634	0.5458081	1.2791518
7844138253000	-2.5213463	0.52748215	1.1215485
7844147561000	-2.2934935	0.36102137	0.88453287
7844160653000	-1.738828	-0.094989546	0.58093286
7844167580000	-0.6209445	-0.82894415	0.23426682
7844178200000	0.85154617	-1.6823229	-0.16310102
7844187600000	2.0405953	-2.411696	-0.6035349
7844198250000	2.6487117	-2.8561006	-0.99265605
7844207619000	2.8032606	-2.978579	-1.2321151
7844219185000	2.7690523	-2.7968466	-1.2632693
7844227639000	2.8533516	-2.3530529	-1.0775663
7844238289000	3.1905491	-1.7128662	-0.7305948
7844247658000	3.4052682	-1.1545353	-0.3390302
7844259926000	3.2830954	-1.104139	-0.0070249503
7844267678000	2.475226	-1.5332718	0.12186762
7844283059000	1.2217305	-1.7272215	0.3036
7844287697000	0.0720821	-1.6679676	0.3857614
7844298318000	-0.6435465	-0.9599747	0.37598756
7844307747000	-0.89461213	0.06658431	0.34025195
7844318398000	-0.7974846	1.0097603	0.3036
7844327767000	-0.49938235	1.5696182	0.25320363
7844340920000	-0.14813483	1.7513506	0.19914207
7844347756000	0.17012598	1.6563611	0.16340645
7844358407000	0.45051312	1.3933836	0.15699236
7844367776000	0.68844515	1.070236	0.17654006
7844378396000	0.86376345	0.7696902	0.20647246
7844387826000	0.91690874	0.5873469	0.22235495
7844401162000	0.80573124	0.56138515	0.23945917
7844407845000	0.691194	0.6630942	0.2706133
7844418496000	0.37568212	0.85062987	0.2846632
7844427865000	0.035124753	0.94806284	0.28955013
7844440163000	-0.22296582	1.0803152	0.25167647
7844447945000	-0.33841935	1.0897835	0.19272798
7844461220000	-0.31978795	0.9764681	0.13958271
7844467904000	-0.2312125	0.77732605	0.10048734
7844478554000	-0.124311075	0.5467244	0.08093964
7844487923000	-0.043066	0.36132678	0.08674286
7844498574000	-0.02443461	0.3042109	0.11362094
7844507973000	-0.06811147	0.36651915	0.14538592
7844522835000	-0.15424347	0.49388456	0.16584991
7844527718000	-0.24770586	0.65179324	0.15577064
7844538674000	-0.3200934	0.8008443	0.12217305
7844548012000	-0.35918877	0.9062186	0.089491755
7844558602000	-0.35796702	0.9578367	0.06261369
7844567971000	-0.34330627	0.98929626	0.04337143
7844581368000	-0.2968805	1.0118983	-0.021380283
7844587990000	-0.23732115	1.0687088	-0.12583824
7844598610000	-0.18112154	1.0952814	-0.2666427
7844608010000	-0.13713925	1.0622946	-0.42302418
7844620308000	-0.093462385	0.9737192	-0.5662721
7844627999000	-0.06963864	0.8356637	-0.68752885
7844641427000	-0.081855945	0.6230826	-0.8081747
7844648049000	-0.056505036	0.34300083	-0.9596693
7844658700000	0.08155051	0.07971791	-1.1774428
7844668069000	0.37201694	-0.13561209	-1.4743233
7844682534000	0.7696902	-0.33078352	-1.8005253
7844688058000	1.1472049	-0.56596667	-2.0494528
7844701119000	1.3982705	-0.904386	-2.111761
7844708108000	1.493871	-1.2907583	-1.951409
7844718789000	1.4804319	-1.5421293	-1.8020525
7844728127000	1.3090842	-1.5567901	-1.4001031
7844738778000	0.88117313	-1.4251486	-0.8350528
7844748147000	0.22785273	-1.4526376	-0.06169739
7844759743000	-0.35796702	-1.8093829	0.83108217
7844768197000	-0.6582073	-2.005776	1.6557503
7844778817000	-0.7693848	-1.7602082	2.257147
7844788155000	-0.84971356	-1.3075571	2.568383
7844800393000	-0.9437868	-0.86132	2.5702155
7844808205000	-1.0213667	-0.47036624	2.3099868
7844819924000	-1.0522153	-0.14569137	1.8664987
7844828225000	-1.0396926	0.098043874	1.3106114
7844838906000	-0.9987647	0.26389378	0.729984
7844848244000	-0.93859446	0.35002577	0.24220806
7844858895000	-0.8848383	0.30634892	-0.10293079
7844868264000	-0.86467975	0.07147124	-0.22724187
7844881447000	-0.8249735	-0.10598512	-0.4092797
7844888283000	-0.7715228	-0.50915617	-0.535118
7844898934000	-0.6994407	-0.8927795	-0.62796944
7844908272000	-0.6239988	-1.2153164	-0.72509706
7844918954000	-0.56505036	-1.4618006	-0.8717047
7844928322000	-0.54000485	-1.6175711	-1.1087204
7844941659000	-0.5687156	-1.7171422	-1.3854424
7844948311000	-0.59315014	-1.7278323	-1.5375478
7844958932000	-0.5540548	-1.577254	-1.5134187
7844968361000	-0.45020768	-1.3326025	-1.3402383
7844980599000	-0.2959642	-1.0528263	-1.0021244
7844988350000	-0.14019357	-0.68203104	-0.57910025
7844999947000	-0.048563786	-0.24648413	-0.22510384
7845008401000	-0.018020526	0.07238753	9.162979E-4
7845019021000	-0.005497787	0.11575896	0.121256754
7845028390000	0.05131268	-0.12797627	0.16279559
7845039101000	0.13775012	-0.312763	0.25717425
7845048409000	0.21135938	-0.6579019	0.38789943
7845061593000	0.24709499	-0.85154617	0.52564955
7845068429000	0.24617869	-0.8762862	0.643852
7845079049000	0.22113322	-0.75747293	0.73639804
7845088448000	0.19792034	-0.5687156	0.7892379
7845099099000	0.18845193	-0.4343252	0.77274454
7845108468000	0.15515977	-0.46639562	0.66645396
7845120064000	0.08124508	-0.66553766	0.46395215
7845128487000	0.012217305	-0.9074403	0.19181168
7845139199000	0.0036651916	-1.0146471	-0.10476339
7845148507000	0.08674286	-0.88239485	-0.376293
7845164742000	0.25686884	-0.52320606	-0.6365216
7845168740000	0.44837508	-0.07086037	-0.9275989
7845180489000	0.52931476	0.21746802	-1.0855075
7845188668000	0.6569856	0.24404067	-1.387275
7845199319000	0.7724391	0.10567969	-1.6001616
7845208596000	0.95294976	-0.0870483	-1.6548339
7845219216000	1.1905763	-0.17501289	-1.5393804
7845228615000	1.3481796	-0.3200934	-1.3420709
7845241646000	1.4605788	-0.80756384	-1.104139
7845248574000	1.5436565	-1.3961325	-0.72021013
7845259377000	1.400714	-1.4932601	-0.14019357
7845268746000	0.93279123	-0.904386	0.4783075
7845279427000	0.23609942	0.07880162	0.9401216
7845288766000	-0.49632803	0.9080512	1.1835514
7845300362000	-1.1065824	1.2302825	1.2684617
7845308694000	-1.5464053	1.1563679	1.2696834
7845319314000	-1.8115209	0.9651671	1.2366967
7845328652000	-1.8793269	0.7996226	1.2125676
7845340951000	-1.8930714	0.7275405	1.1417072
7845348733000	-1.7568485	0.53969944	1.0173961
7845360451000	-1.4694363	0.18081611	0.8405506
7845368752000	-0.97127575	-0.3378085	0.6582073
7845379372000	-0.070554934	-0.8573494	0.48441613
7845388772000	1.2186762	-1.3414601	0.31490102
7845399422000	2.4196372	-1.7785342	0.23518312
7845408791000	3.150843	-1.9685133	0.30665436
7845421883000	3.4461963	-1.808772	0.4868596
7845428811000	3.488957	-1.5421293	0.64965516
7845439431000	3.2980614	-1.7592919	0.68325275
7845448830000	2.7571404	-2.8744264	0.5699373
7845459481000	1.8976529	-4.188703	0.42302418
7845468850000	0.9272934	-4.448321	0.35185838
7845484078000	0.47678033	-3.1893275	0.3417791
7845488747000	-0.25411993	-2.1407773	0.30940324
7845499520000	-0.70707655	0.054367006	0.23609942
7845508889000	-0.89461213	1.5482379	0.14874569
7845521157000	-0.87872964	2.2467623	0.056505036
7845528969000	-0.6945538	2.4663684	-0.028405234
7845540627000	-0.38545597	2.384207	-0.10170906
7845548928000	-0.015577064	2.1300871	-0.15760323
7845559487000	0.34391713	1.8075503	-0.17073683
7845568947000	0.62796944	1.4785993	-0.13652839
7845579659000	0.8011498	1.2260065	-0.08368854
7845588936000	0.84391034	1.0833695	-0.035430185
7845602181000	0.75808376	1.0082331	-0.004886922
7845608986000	0.559858	0.9850202	0.017715093
7845619668000	0.27947086	1.0094548	0.035124753
7845629006000	0.11911872	1.0839803	0.039095376
7845639626000	-0.20586158	1.1417072	0.036957346
7845648995000	-0.46303585	1.2675453	0.020463986
7845660653000	-0.6001751	1.3536774	-0.011911872
7845668984000	-0.63194007	1.3814718	-0.048563786
7845679665000	-0.6078109	1.3564262	-0.07941248
7845689065000	-0.5534439	1.2996159	-0.10262536
7845701363000	-0.47616947	1.2504412	-0.11209377
7845709054000	-0.39278635	1.2443326	-0.10415252
7845722420000	-0.32436943	1.2834278	-0.093767814
7845729073000	-0.29077184	1.3417655	-0.09682214
7845739724000	-0.28038713	1.393689	-0.110872045
7845749093000	-0.25870144	1.4364496	-0.1441642
7845759804000	-0.20799962	1.4532484	-0.19822577
7845769112000	-0.13713925	1.4535538	-0.25442538
7845783974000	-0.09896017	1.4651603	-0.28955013
7845788888000	-0.033292156	1.5027285	-0.2947425
7845799782000	-0.015882496	1.529912	-0.29718593
7845809151000	-0.04795292	1.568702	-0.33567044
7845819893000	-0.09896017	1.543351	-0.47433686
7845829171000	-0.15057829	1.4526376	-0.713796
7845842385000	-0.20280726	1.3390167	-0.95478237
7845849190000	-0.25503623	1.2681563	-1.1120802
7845859871000	-0.3100141	1.273654	-1.1615603
7845869210000	-0.34116822	1.3515394	-1.1050552
7845881508000	-0.30970868	1.4990633	-0.9642508
7845889229000	-0.20861048	1.6740762	-0.766025
7845904580000	-0.16554448	1.7171422	-0.5174029
7845909157000	-0.31673363	1.4413365	-0.21166481
7845919930000	-0.5864306	0.9673051	0.14385876
7845929238000	-0.711658	0.6988298	0.4972443
7845939919000	-0.87995136	0.8362745	0.6441574
7845949257000	-0.95203346	1.0290025	0.82619524
7845962533000	-0.93951076	1.559539	0.8405506
7845969338000	-0.86101454	2.1536055	0.7458665
7845979958000	-0.7858781	2.6190848	0.6377433
7845989358000	-0.74067414	2.747061	0.57818395
7845999947000	-0.70371675	2.5167649	0.5519168
7846009347000	-0.65148777	2.0705278	0.49938235
7846020974000	-0.5928447	1.5653422	0.3200934
7846029336000	-0.55924714	1.1655309	-0.10781772
7846040047000	-0.58276546	0.9550878	-0.7797695
7846049386000	-0.65118235	0.8564331	-1.5586227
7846061654000	-0.6942484	0.68966687	-2.1902573
7846069405000	-0.70157874	0.3378085	-2.3768766
7846082802000	-0.71776664	-0.1459968	-2.1438315
7846089608000	-0.7309003	-0.65576386	-1.7348573
7846100319000	-0.72326446	-0.90469146	-1.5146403
7846109627000	-0.602924	-1.3313808	-1.0732902
7846120308000	-0.36743546	-1.518611	-0.6569856
7846129799000	-0.122783914	-1.3637567	-0.28710666
7846142830000	0.022296581	-0.8793405	0.03726278
7846149850000	0.051923547	-0.18478674	0.31673363
7846160531000	0.009162978	0.49205196	0.5390886
7846170052000	-0.028405234	0.9315695	0.68203104
7846180733000	-0.0143553335	1.0684034	0.72784597
7846190102000	0.043982297	0.9550878	0.7287622
7846203835000	0.10415252	0.64568454	0.7690793
7846210702000	0.1441642	0.2312125	0.86406887
7846221474000	0.17562376	-0.13439035	0.9636399
7846230843000	0.204029	-0.35338554	1.024421
7846243111000	0.22113322	-0.4392121	1.01312
7846250893000	0.23457226	-0.43982297	0.9211848
7846264229000	0.24465153	-0.36468655	0.8472701
7846271065000	0.2874121	-0.27122417	0.6337727
7846281716000	0.3549127	0.0720821	0.31795537
7846291085000	0.39675698	0.53878313	-0.093767814
7846305306000	0.36774087	0.87995136	-0.573297
7846310738000	0.2929099	0.8912524	-1.0415252
7846324746000	0.24770586	0.61208695	-1.3768903
7846329537000	0.28130344	0.33322698	-1.5109752
7846340340000	0.36987892	0.38423425	-1.4770721
7846349679000	0.43066	0.7706065	-1.3494014
7846360329000	0.40439278	1.1346822	-1.1710287
7846369698000	0.3998113	1.0867293	-0.92057395
7846381203000	0.64812803	0.6261369	-0.61269784
7846389718000	0.8713993	-0.03726278	-0.46883908
7846400429000	1.2797627	-0.43676865	-0.21074851
7846409798000	1.2428054	-1.1447614	0.052839845
7846422066000	0.6301075	-1.382999	0.310625
7846429757000	-0.2666427	-1.1502593	0.5354234
7846441475000	-1.1355985	-0.6591236	0.72418076
7846449776000	-1.8154916	-0.25381452	0.9059132
7846460427000	-2.2174408	-0.029932396	1.0995574
7846469826000	-2.3133466	0.17440203	1.278541
7846480477000	-2.0916026	0.42638394	1.398576
7846489815000	-1.4944818	0.66798115	1.4110987
7846504281000	-0.54061574	0.7849618	1.276403
7846510201000	0.50946164	0.6786713	1.0235047
7846520485000	1.3118331	0.3295618	0.7180721
7846529854000	1.7403551	-0.14752395	0.39522982
7846540505000	1.8377881	-0.68019843	0.08827003
7846549874000	1.8781052	-1.3048081	-0.042455133
7846561440000	1.8044959	-1.6496416	-0.21991149
7846569893000	1.6954565	-2.3246477	-0.26206118
7846580514000	1.6132951	-2.7635543	-0.1563815
7846589913000	1.5457945	-2.658791	0.05467244
7846602181000	1.3707817	-1.8512272	0.25167647
7846609933000	0.9795224	-0.54092115	0.321926
7846621590000	0.42485678	0.698219	0.25809056
7846629952000	-0.110872045	1.4056009	0.14996742
7846640633000	-0.46517387	1.6096299	0.08124508
7846649972000	-0.5766568	1.5286902	0.07971791
7846660653000	-0.4831944	1.3185526	0.119729586
7846669991000	-0.27000242	1.0586295	0.1572978
7846687020000	-0.0125227375	0.7837401	0.15485434
7846690255000	0.22113322	0.51923543	0.10598512
7846700661000	0.31673363	0.30482176	0.06963864
7846710091000	0.45875978	0.23335053	-0.019242255
7846720711000	0.54825157	0.17928895	-0.11575896
7846730111000	0.5897904	0.23884831	-0.18753563
7846743355000	0.5726862	0.35888332	-0.22693644
7846750100000	0.50762904	0.4978552	-0.25320363
7846760689000	0.42455134	0.6563747	-0.28099802
7846770119000	0.34025195	0.7852673	-0.301462
7846782326000	0.2565634	0.85154617	-0.28924468
7846790139000	0.18020524	0.85062987	-0.21868975
7846803322000	0.095294975	0.7819075	-0.105068825
7846810128000	-0.021991149	0.64873886	0.002443461
7846820778000	-0.16249016	0.49388456	0.0571159
7846830117000	-0.2864958	0.37720928	0.064751714
7846840737000	-0.35918877	0.29718593	0.036957346
7846850136000	-0.37293324	0.29810223	0.003970624
7846864937000	-0.35979962	0.35979962	-0.09743301
7846870156000	-0.3136793	0.59712076	-0.22204952
7846880868000	-0.25350907	0.8680395	-0.35246924
7846890145000	-0.1853976	1.0461067	-0.46303585
7846900857000	-0.09987647	1.1102476	-0.528093
7846910348000	0.01740966	1.0906999	-0.54367006
7846923531000	0.12858713	0.9914343	-0.5384777
7846930184000	0.2003638	0.8008443	-0.54336464
7846941048000	0.2947425	0.58032197	-0.589485
7846950356000	0.42943826	0.48258355	-0.72204274
7846962624000	0.4560109	0.44532076	-0.93615097
7846970345000	0.29168814	0.1328632	-1.1215485
7846984444000	0.022296581	-0.44868052	-1.2220359
7846990395000	-0.23762658	-0.93828905	-1.2641857
7847000985000	-0.3359759	-1.1206323	-1.2657127
7847010384000	-0.4297437	-1.0732902	-1.2385293
7847021004000	-0.32528573	-0.70829827	-1.171945
7847030312000	-0.005192355	-0.01985312	-1.0503827
7847043435000	0.41722095	0.9025534	-0.81336707
7847050362000	0.5027421	1.7427986	-0.2611449
7847061074000	-0.03634648	1.3994923	0.7272351
7847070351000	-0.59895337	-0.3042109	1.700038
7847081032000	-0.9440922	-1.3946054	2.19209
7847090401000	-1.2568552	-1.1893547	2.248595
7847101937000	-1.4874569	-0.1432479	2.078469
7847110390000	-1.5421293	1.284955	1.7776178
7847121102000	-1.4187346	2.5937338	1.3567317
7847130440000	-1.1863003	3.2950072	0.89644474
7847142708000	-0.9795224	3.1490104	0.5112942
7847150429000	-0.93126404	2.3893993	0.3359759
7847162148000	-0.98715824	1.9095647	-0.06872234
7847170449000	-1.1921035	0.9263771	-0.59895337
7847181161000	-1.4178182	0.025350908	-1.1661417
7847190468000	-1.5234979	-0.6960809	-1.4978416
7847201150000	-1.4816537	-1.1410962	-1.4401149
7847210488000	-1.3796391	-1.2504412	-1.1252137
7847223641000	-1.2696834	-1.0958922	-0.71593404
7847230538000	-1.1612549	-0.79168135	-0.31673363
7847241158000	-1.0329732	-0.45173484	0.02076942
7847250558000	-0.8790351	-0.12705997	0.2968805
7847261208000	-0.7113526	0.21655174	0.53023106
7847270547000	-0.54336464	0.61850107	0.70524395
7847282113000	-0.40133846	1.0604621	0.79443026
7847290566000	-0.30482176	1.4569136	0.7812967
7847301247000	-0.27000242	1.7119498	0.7351763
7847310586000	-0.20861048	1.7989981	0.7315111
7847322854000	-0.16310102	1.7968601	0.7516697
7847330605000	-0.1777618	1.740966	0.75136423
7847342324000	-0.18875736	1.6096299	0.74281216
7847350625000	-0.022602014	1.3252722	0.7800749
7847361245000	0.33536503	0.88300574	0.83199847
7847370644000	0.6789767	0.42271876	0.7984009
7847381264000	0.8179486	0.10170906	0.61911196
7847390664000	0.7519751	0.007941248	0.2950479
7847403695000	0.62980205	0.16523905	-0.11942416
7847410683000	0.5128214	0.5833763	-0.5540548
7847425606000	0.35155296	1.1771374	-0.9398162
7847430520000	0.18478674	1.7278323	-1.2299771
7847441384000	0.058643065	2.0280726	-1.432479
7847450722000	0.010995574	2.005165	-1.577254
7847462288000	-0.027183503	1.6969837	-1.6197093
7847470772000	0.05375614	1.4581354	-1.5619824
7847481392000	0.27855456	0.8405506	-1.1771374
7847490761000	0.6001751	0.08002335	-0.50610185
7847503731000	0.81306165	-0.58001655	0.20555615
7847510811000	0.7648033	-0.80878556	0.7849618
7847522469000	0.48166725	-0.59620446	1.183246
7847530861000	0.10140363	-0.2180789	1.3930782
7847541512000	-0.22632557	0.13072516	1.4443909
7847550881000	-0.46822822	0.4016439	1.3952162
7847561471000	-0.6569856	0.59773165	1.2651019
7847570809000	-0.8240572	0.72082096	1.0421361
7847583932000	-0.96761054	0.7107417	0.73945236
7847590859000	-1.0421361	0.50976706	0.42485678
7847601479000	-0.93737274	0.14752395	0.17134771
7847610879000	-0.7684685	-0.22143865	0.07238753
7847621499000	-0.16035213	-0.35094208	-0.07422013
7847630898000	0.6426302	-0.45723262	-0.14874569
7847642586000	1.2837334	-0.35124752	-0.14508049
7847650918000	1.582141	-0.07880162	-0.080634214
7847661568000	1.6514742	0.25503623	-0.00580322
7847670937000	1.6261233	0.5045747	0.044898596
7847683144000	1.50731	0.5030475	0.089491755
7847690957000	1.2507466	0.19364429	0.16310102
7847702675000	0.87872964	-0.23365596	0.28802297
7847710976000	0.48166725	-0.41080686	0.43249258
7847721596000	0.16065755	-0.14294247	0.51159966
7847730996000	-0.037873644	0.45020768	0.44776422
7847745247000	-0.14172074	1.0824533	0.2846632
7847751015000	-0.18967366	1.4908166	0.14172074
7847765633000	-0.19822577	1.645671	0.090713486
7847771004000	-0.18661933	1.6694947	0.030543262
7847781838000	-0.13836098	1.6569719	0.01740966
7847791054000	-0.06536258	1.570229	0.019242255
7847801888000	0.02687807	1.4327844	0.020463986
7847811104000	0.105374254	1.3002267	0.017104227
7847824410000	0.13836098	1.2394456	0.010079277
7847831093000	0.115453534	1.2751812	-0.018020526
7847841805000	0.06261369	1.3567317	-0.082161374
7847851143000	0.029321533	1.4214834	-0.17073683
7847863350000	0.03573562	1.4575244	-0.2452624
7847871102000	0.06963864	1.4776831	-0.2782491
7847884316000	0.10873401	1.4758505	-0.27488935
7847891152000	0.12308934	1.4358387	-0.23701571
7847901772000	0.09254608	1.3616186	-0.16890424
7847911172000	0.06169739	1.2644911	-0.12492194
7847921944000	-0.021685716	1.2144	-0.021685716
7847931191000	-0.1301143	1.135293	0.08735373
7847945901000	-0.24678956	1.1111639	0.17012598
7847951150000	-0.35277468	1.1502593	0.2144137
7847961922000	-0.4297437	1.1939361	0.22815818
7847971261000	-0.47647488	1.1716396	0.22388211
7847982216000	-0.47586402	1.1154399	0.20250183
7847991311000	-0.41141775	1.1233811	0.16218472
7848004799000	-0.29749137	1.2412782	0.10720685
7848011391000	-0.17470746	1.4355333	0.046120327
7848022133000	-0.08093964	1.6303993	-0.0106901415
7848031411000	-0.025961773	1.7718146	-0.06352998
7848043679000	0.0012217305	1.8472565	-0.108123146
7848051400000	0.009773844	1.8551978	-0.121256754
7848064736000	0.005497787	1.8127426	-0.11056661
7848071389000	-0.0030543262	1.7293595	-0.10995574
7848082406000	0.021685716	1.6710218	-0.15974127
7848091408000	0.035430185	1.5076154	-0.32986724
7848102089000	0.0061086523	1.2009611	-0.6227771
7848111397000	0.0061086523	0.7339546	-0.9673051
7848124489000	0.074830994	0.30818152	-1.2733486
7848131417000	0.2452624	0.1328632	-1.4657712
7848145760000	0.410196	0.18661933	-1.4892895
7848151375000	0.46792278	0.31856623	-1.3393221
7848161996000	0.3436117	0.40775254	-1.0464121
7848171425000	0.0018325958	0.26297748	-0.636827
7848183022000	-0.44898596	-0.28191432	-0.09468412
7848191445000	-0.7965683	-0.96883225	0.57451874
7848202706000	-0.9486737	-1.2831224	1.2892311
7848211495000	-1.003957	-1.0323622	1.8802432
7848223733000	-1.1899655	-0.32498032	2.0717494
7848231515000	-1.4217888	0.17440203	2.2327125
7848243203000	-1.5757269	1.3976597	2.1566598
7848251656000	-1.5534303	2.6917777	1.9040669
7848262215000	-1.3274102	3.712839	1.525636
7848271615000	-0.9978484	4.170988	1.1157454
7848282143000	-0.70280045	3.9956696	0.7806858
7848291604000	-0.5513059	3.3765576	0.473726
7848304635000	-0.59742624	2.5256224	0.043982297
7848311623000	-0.8268061	1.5286902	-0.6560693
7848322274000	-1.0983357	0.42821655	-1.5980235
7848331612000	-1.235475	-0.5723807	-2.3026567
7848342232000	-1.2095132	-1.0885619	-2.4248295
7848351937000	-1.1160508	-0.92149025	-2.221717
7848363320000	-1.0149527	-0.37140608	-1.9645426
7848371651000	-0.9593639	0.14569137	-1.8225164
7848382302000	-0.8384125	0.30970868	-1.4963144
7848391671000	-0.70005155	0.41050145	-1.0980303
7848403939000	-0.5311473	0.3036	-0.6215554
7848411629000	-0.35002577	0.16920967	-0.16646078
7848423287000	-0.19242255	0.13897185	0.14782938
7848431679000	-0.074830994	0.25167647	0.3210097
7848442330000	0.009162978	0.43249258	0.43188173
7848451851000	0.063224554	0.5390886	0.54367006
7848462350000	0.089491755	0.5299256	0.68600166
7848471718000	0.09896017	0.46975538	0.8567385
7848486611000	0.10903945	0.3903429	1.0464121
7848491524000	0.13561209	0.2941316	1.2434162
7848502358000	0.19486602	0.17134771	1.4107933
7848511757000	0.2864958	0.014049901	1.4926492
7848522439000	0.3295618	-0.16920967	1.4853189
7848531777000	0.34574974	-0.2706133	1.361924
7848545296000	0.2519819	-0.48197266	1.1191051
7848551797000	0.24587326	-0.65301496	0.8216137
7848562478000	0.54458636	-0.6774496	0.5348125
7848571816000	0.9764681	-0.40561453	0.26542094
7848587899000	1.1282681	0.098043874	-0.055283304
7848591897000	0.93554014	0.50701815	-0.44868052
7848605172000	0.6918049	0.62858033	-0.8179486
7848611855000	0.6600399	0.5589417	-1.0439687
7848622506000	0.8906415	0.47739118	-1.0891727
7848631844000	1.2287555	0.4297437	-1.0396926
7848642556000	1.3396275	0.26450464	-1.0311406
7848652108000	1.2837334	-0.1518	-1.065349
7848664925000	1.2690725	-0.59864795	-0.8518516
7848671883000	1.2006557	-0.7144069	-0.535118
7848682625000	0.7779369	-0.5992588	0.49357912
7848691903000	-0.010995574	-0.036957346	1.5112807
7848702614000	-0.94989544	0.713796	1.9666806
7848711953000	-1.7424932	1.2055426	1.9529362
7848723488000	-2.2736404	1.38025	1.7489072
7848731972000	-2.5824327	1.4648548	1.5225816
7848742806000	-2.7101038	1.5662584	1.3460416
7848752144000	-2.6655104	1.6539177	1.2144
7848764290000	-2.4736989	1.6508633	1.0876455
7848771981000	-2.0766363	1.5216653	0.93554014
7848783700000	-1.1612549	1.2864822	0.768163
7848792000000	0.3848451	0.8698721	0.59620446
7848802682000	1.9000963	0.38606682	0.4279111
7848812050000	2.8273897	0.32742378	0.2773328
7848822671000	3.0692923	0.8155051	0.13439035
7848832039000	3.2491922	1.4624114	0.059864793
7848845131000	3.3310483	1.6646078	-0.096516706
7848852212000	3.517973	1.3069462	-0.226631
7848862740000	3.4443636	-0.51343226	-0.2950479
7848872079000	2.8112018	-2.8973339	-0.28893927
7848886269000	1.7644843	-4.3612723	-0.16279559
7848892098000	0.59803706	-4.3322563	0.12736541
7848903725000	-0.312763	-2.744312	0.49357912
7848912118000	-0.79473567	-0.23518312	0.72387534
7848922829000	-0.97158116	1.9544634	0.72784597
7848932137000	-0.93431836	3.2162056	0.5864306
7848944405000	-0.66767573	3.7207801	0.3827071
7848952187000	-0.19456059	3.7436876	0.16615535
7848963875000	0.33200526	3.4336736	-0.016187929
7848972207000	0.5519168	2.8533516	-0.1328632
7848982888000	0.82527894	2.0708332	-0.1563815
7848992409000	0.8368854	1.6371188	-0.12889257
7849003121000	0.6221663	0.8002335	-0.044898596
7849012429000	0.2678644	0.19517145	0.032986723
7849025551000	-0.10873401	-0.03634648	0.05681047
7849032418000	-0.39370266	0.08246681	-0.005497787
7849043282000	-0.52839845	0.4120286	-0.14874569
7849052621000	-0.5183192	0.8008443	-0.35430184
7849063454000	-0.4016439	1.1759156	-0.5674938
7849072640000	-0.24312437	1.4651603	-0.7351763
7849085946000	-0.11575896	1.5766432	-0.840856
7849092812000	-0.027794369	1.4978416	-0.8723156
7849103554000	0.015271631	1.2721269	-0.8353582
7849112893000	-0.004581489	0.98440933	-0.7476991
7849125161000	-0.06566802	0.7244862	-0.627664
7849132912000	-0.10995574	0.550695	-0.49113566
7849144814000	-0.079107046	0.5009095	-0.35430184
7849153115000	-0.03604105	0.58123827	-0.29229903
7849163827000	0.06169739	0.6597345	-0.1881465
7849173134000	0.11301007	0.8454375	-0.1386664
7849183785000	0.124311075	0.9960158	-0.18906279
7849193154000	0.12522738	1.044885	-0.3491095
7849206643000	0.096516706	0.9584476	-0.5897904
7849213357000	0.028099801	0.732122	-0.8530733
7849224038000	-0.051923547	0.44623706	-1.0836749
7849233346000	-0.11881329	0.19883664	-1.248914
7849244057000	-0.1459968	0.046731193	-1.3426818
7849252999000	-0.094989546	0.046120327	-1.385137
7849264046000	0.016187929	0.24953845	-1.3949108
7849272500000	0.1020145	0.6200282	-1.3377949
7849283150000	0.09437868	0.977079	-1.2605205
7849292519000	-0.115453534	1.0845913	-0.97127575
7849308541000	-0.6081163	1.0412198	-0.5216789
7849312630000	-1.103528	0.6783658	-0.013744468
7849324196000	-1.3051136	0.32498032	0.44868052
7849332589000	-1.2819008	0.26847526	0.7657196
7849343209000	-1.2815952	0.53023106	0.883922
7849352578000	-1.395827	1.0155635	0.84299403
7849363259000	-1.5015068	1.5522085	0.72387534
7849372597000	-1.5057828	1.9263636	0.600786
7849385750000	-1.4049901	2.0216584	0.50976706
7849392617000	-1.2596041	1.8524488	0.4260785
7849403237000	-1.1261301	1.5036448	0.27977628
7849412636000	-1.0363328	1.1242975	0.032986723
7849423287000	-0.97494096	0.8210029	-0.321926
7849432686000	-0.95264435	0.6200282	-0.5513059
7849444314000	-0.9440922	0.5510005	-1.1453724
7849452981000	-1.0057896	0.419359	-1.8154916
7849463357000	-1.0995574	0.20341812	-2.310598
7849472695000	-1.144456	-0.1142318	-2.4874432
7849484902000	-1.0925325	-0.5357288	-2.3429737
7849492684000	-0.93951076	-1.0079277	-1.9156734
7849504494000	-0.7086037	-1.3185526	-1.2617421
7849512734000	-0.4896085	-1.2428054	-0.5164866
7849523354000	-0.37232238	-0.7351763	0.09621128
7849532754000	-0.33536503	-0.038789943	0.45906523
7849543374000	-0.27275133	0.5235115	0.65668017
7849553475000	-0.15088372	0.8167268	0.7651087
7849566414000	-0.01038471	0.8597928	0.838718
7849573433000	0.086132	0.68416905	0.9111055
7849584145000	0.108123146	0.3640757	0.9831876
7849593453000	0.12461651	0.015882496	1.0146471
7849604104000	0.1441642	-0.13713925	1.0592403
7849615426000	0.19608775	-0.35705075	1.0677924
7849625283000	0.25961772	-0.43585235	1.0228939
7849633584000	0.25992316	-0.39614612	0.90408057
7849644234000	0.1731803	-0.28527406	0.70066243
7849653603000	0.07941248	-0.122783914	0.42271876
7849665841000	0.059253927	0.08857546	0.09162979
7849673592000	0.10842858	0.30848694	-0.25442538
7849685250000	0.13347405	0.47586402	-0.5717699
7849693642000	0.09896017	0.5180137	-0.8341365
7849707711000	0.05467244	0.40622538	-1.0070114
7849713570000	0.063224554	0.25961772	-1.0302242
7849723549000	0.21624629	0.23060162	-0.88239485
7849732949000	0.3576616	0.29138273	-0.6056729
7849745980000	0.72326446	0.24587326	-0.43463063
7849753670000	1.071763	0.13897185	-0.087964594
7849763650000	1.2754866	-0.24984388	0.1826487
7849772988000	1.3503176	-0.8167268	0.3662137
7849783700000	1.3319917	-1.3356569	0.4859433
7849793038000	1.1038336	-1.4840971	0.5684101
7849804696000	0.593761	-1.1682798	0.63346726
7849813027000	-0.102319926	-0.54000485	0.68600166
7849823708000	-0.7809912	0.06841691	0.7122689
7849833047000	-1.287093	0.36468655	0.72784597
7849845315000	-1.564426	0.4098906	0.7486154
7849853005000	-1.6166549	0.38759398	0.7461719
7849864693000	-1.4785993	0.35735616	0.6817256
7849873055000	-1.1615603	0.33200526	0.5555819
7849883736000	-0.6337727	0.2947425	0.40958515
7849893044000	-0.28038713	0.1863139	0.3417791
7849903695000	0.56107974	0.08582657	0.23273966
7849913094000	1.389413	-0.21074851	0.15882497
7849926125000	1.9520199	-0.57787853	0.119729586
7849933114000	2.1838431	-0.9300423	0.13133603
7849943734000	2.165212	-1.2864822	0.20738874
7849953133000	1.9630154	-1.7235563	0.3387248
7849963814000	1.6032158	-2.172237	0.44959682
7849973153000	1.1264355	-2.3096814	0.45631635
7849984810000	0.63163465	-1.7821994	0.3549127
7849993172000	0.2144137	-0.61391956	0.18417588
7850003853000	-0.07666359	0.65057147	0.020463986
7850013192000	-0.25809056	1.4498887	-0.084910266
7850025490000	-0.33475417	1.704925	-0.12308934
7850033181000	-0.29260445	1.6013832	-0.089186326
7850048592000	-0.22815818	1.3029755	-0.046731193
7850053139000	-0.030543262	1.1273518	0.06811147
7850063912000	0.2098322	0.79504114	0.1695151
7850073220000	0.4129449	0.5320636	0.19425514
7850083932000	0.52534413	0.4166101	0.12797627
7850093270000	0.5412266	0.4654793	0.015271631
7850107918000	0.48349985	0.6084218	-0.08246681
7850113228000	0.40317106	0.7867944	-0.13225232
7850123910000	0.3378085	0.9392053	-0.1337795
7850133278000	0.29871312	1.0125091	-0.10567969
7850143990000	0.27152961	0.9859365	-0.077579886
7850153329000	0.24129178	0.8872818	-0.07452556
7850166482000	0.19364429	0.79137594	-0.1020145
7850173348000	0.124311075	0.743423	-0.1337795
7850183968000	0.05131268	0.7476991	-0.15027285
7850193337000	0.021685716	0.7877107	-0.15118915
7850205453000	-0.007330383	0.8060367	-0.14172074
7850213357000	0.0070249503	0.8017606	-0.129198
7850226571000	0.050396383	0.7357872	-0.11942416
7850233407000	0.10262536	0.64599	-0.11056661
7850244057000	0.13713925	0.5693264	-0.09896017
7850253426000	0.15454891	0.5626069	-0.07941248
7850264107000	0.14905111	0.6383542	-0.05467244
7850273446000	0.11575896	0.74128497	-0.015577064
7850286507000	0.07422013	0.7959574	0.04795292
7850293465000	0.03940081	0.7779369	0.13439035
7850304757000	-0.0061086523	0.72173727	0.24678956
7850313485000	-0.0870483	0.64873886	0.36651915
7850324105000	-0.15149458	0.55833083	0.47158796
7850333474000	-0.1459968	0.47708577	0.5369505
7850345040000	-0.115453534	0.4474588	0.5348125
7850353524000	-0.018936822	0.49877146	0.5027421
7850364113000	0.08002335	0.5555819	0.37232238
7850373513000	0.1386664	0.713796	0.16218472
7850385781000	0.1386664	0.88331115	-0.101098195
7850393532000	0.10567969	1.0097603	-0.37232238
7850406899000	0.07269296	1.0998629	-0.59742624
7850413552000	0.03848451	1.1905763	-0.7101309
7850424233000	-3.0543262E-4	1.3072516	-0.675617
7850433571000	-0.039095376	1.4385877	-0.50854534
7850444253000	-0.092240654	1.5045611	-0.27366763
7850453591000	-0.14446963	1.462106	-0.12675454
7850468453000	-0.17134771	1.427592	-0.23396139
7850473702000	-0.18997909	1.5018122	-0.5983425
7850484292000	-0.18417588	1.5473217	-1.0873401
7850493630000	-0.16065755	1.41904	-1.525636
7850504311000	-0.070249505	1.10139	-1.6862935
7850513650000	0.06719518	0.88331115	-1.88849
7850526772000	0.29993483	0.37140608	-2.0015
7850533700000	0.6768387	-0.1518	-2.091908
7850544350000	1.1065824	-0.59406644	-2.1453588
7850553719000	1.4492778	-0.9388999	-2.0622811
7850565957000	1.4520267	-1.1539245	-1.7040086
7850573739000	0.7486154	-1.4361442	-1.0641272
7850588875000	-0.15057829	-2.0173824	-0.453262
7850593667000	-0.52473325	-2.0909917	-0.098043874
7850604378000	-0.65118235	-1.1096367	0.105374254
7850613778000	-0.90316427	0.23732115	0.30176744
7850624398000	-1.1869112	1.2797627	0.52198434
7850633797000	-1.3582588	1.8952094	0.71929383
7850646859000	-1.4199562	2.129171	0.84788096
7850653786000	-1.41904	2.0146337	0.8784242
7850664467000	-1.3420709	1.840537	0.86590147
7850673836000	-1.1194105	1.2986995	0.77213365
7850684456000	-0.7293731	0.52442783	0.6230826
7850693856000	-0.3472769	-0.4633413	0.3839288
7850705453000	-0.46975538	-1.5485435	-0.08032878
7850713875000	-1.0864239	-2.3432791	-0.7119634
7850724496000	-1.5384641	-2.3921483	-1.2168436
7850733864000	-1.5641204	-1.8093829	-1.4034629
7850746132000	-1.3836098	-1.0931433	-1.3017539
7850753884000	-1.215011	-0.5308419	-1.0574077
7850765572000	-1.102001	-0.13103059	-0.77457714
7850773903000	-1.0085385	0.21013765	-0.50243664
7850784585000	-0.91415983	0.5720753	-0.2919936
7850793923000	-0.80848014	0.8558222	-0.16584991
7850804543000	-0.75136423	0.9254609	-0.12980886
7850813943000	-0.643852	0.8689558	-0.093462385
7850827126000	-0.5549711	0.6197228	-0.08093964
7850833962000	-0.48258355	0.28099802	-0.05222898
7850844582000	-0.42485678	-0.028710667	0.012217305
7850853982000	-0.37965274	-0.23182335	0.09407325
7850864663000	-0.37232238	-0.3323107	0.16126843
7850874001000	-0.43310347	-0.37904188	0.183565
7850885628000	-0.5161811	-0.3817908	0.16890424
7850894021000	-0.55680364	-0.30451632	0.14446963
7850904641000	-0.52626044	-0.09743301	0.11301007
7850914040000	-0.4569272	0.23335053	0.028099801
7850926308000	-0.4092797	0.50518554	-0.0983493
7850934060000	-0.36835176	0.4605924	-0.17440203
7850945687000	-0.27214047	0.0030543262	-0.1563815
7850954079000	-0.20616703	-0.75441855	-0.115453534
7850968423000	-0.0693332	-1.1655309	-0.00580322
7850974099000	0.04062254	-1.8952094	0.036651913
7850984749000	0.12705997	-2.298075	-0.1160644
7850994118000	0.27091873	-2.1670444	-0.3182608
7851007210000	0.50426924	-1.5940529	-0.3549127
7851014168000	0.7870999	-0.8503244	-0.24251351
7851024819000	1.069625	-0.14080444	-0.059864793
7851034157000	1.2727377	0.42241332	0.1591304
7851044839000	1.2308935	0.82894415	0.410196
7851054177000	0.73975784	0.9868528	0.6627888
7851065774000	-0.20922135	0.6282749	0.8338311
7851074227000	-0.91813046	-0.5164866	0.8875872
7851084847000	-0.64965516	-1.7864754	0.7690793
7851094216000	-0.21288654	-2.1902573	0.68600166
7851106515000	-0.18295415	-1.7568485	0.66523224
7851114235000	-0.3820962	-0.5366451	0.59131753
7851125802000	-0.56779927	0.21074851	0.3173445
7851134255000	-0.6044512	1.3445144	0.0421497
7851144875000	-0.5910121	1.7391334	-0.14721853
7851154275000	-0.59589905	1.6307048	-0.27152961
7851164956000	-0.6420194	1.2425	-0.34391713
7851174294000	-0.67103547	0.679893	-0.37384954
7851187356000	-0.60231316	-0.047036625	-0.37873647
7851194283000	-0.33322698	-0.9804387	-0.3866777
7851204964000	0.30757064	-2.0253236	-0.43585235
7851214333000	1.248914	-2.778826	-0.56688297
7851225533000	2.0576997	-3.0836477	-0.8304713
7851234933000	2.4712553	-3.4177911	-1.1441506
7851246499000	2.605951	-3.9150352	-1.2751812
7851254983000	2.6209173	-3.9287798	-1.0418307
7851265633000	2.5418103	-3.0231721	-0.8173377
7851274972000	2.2730296	-2.3081543	-0.35979962
7851287209000	1.8979583	-0.7113526	-0.06811147
7851294961000	1.6010778	0.7666359	0.100792766
7851310189000	1.4248432	1.9437732	0.30085114
7851315102000	1.2232577	2.557082	0.65179324
7851325844000	0.8381071	2.0402899	1.176221
7851335213000	0.3436117	0.52564955	1.7660115
7851345131000	-0.07422013	-0.7641924	2.2617285
7851355599000	-0.33108896	-1.2247849	2.5552492
7851367684000	-0.40408736	-1.2522738	2.62275
7851374489000	-0.25717425	-1.2644911	2.4853053
7851385201000	0.07788532	-1.3518448	2.1801782
7851394509000	0.48472157	-1.3805555	1.7327193
7851405251000	0.80939645	-1.144456	1.1884383
7851414559000	0.8940013	-0.5390886	0.9071349
7851426156000	0.8570439	-0.13194689	0.4071417
7851434579000	0.5684101	0.65148777	0.089186326
7851445260000	0.14172074	1.0916162	-0.020158553
7851454568000	-0.26297748	1.1276573	0.02076942
7851466836000	-0.5128214	0.92149025	0.111177474
7851474587000	-0.5626069	0.64568454	0.16279559
7851486275000	-0.45020768	0.48380527	0.14813483
7851494607000	-0.26511553	0.63438356	0.06994407
7851505288000	-0.106901415	1.1203269	-0.03604105
7851514626000	-0.056199603	1.8041905	-0.11484267
7851525277000	-0.16920967	2.4807239	-0.14660765
7851534646000	-0.44226643	2.9275718	-0.15851954
7851547860000	-0.77304995	3.0338624	-0.2098322
7851555276000	-1.0241156	2.8420506	-0.34483343
7851565957000	-1.0888673	2.4669793	-0.45081854
7851575295000	-1.0589349	2.2540927	-0.7486154
7851589242000	-0.82924956	1.8848248	-1.1563679
7851595315000	-0.45906523	1.7088956	-1.6221527
7851606972000	-0.0012217305	1.6190983	-2.0732768
7851615670000	0.50946164	1.2626585	-2.4465153
7851625405000	1.0571023	0.6178902	-2.6392434
7851634774000	1.6939293	0.08307768	-2.6056457
7851647072000	2.44621	-0.073303826	-2.515543
7851654793000	3.0326405	-0.13133603	-2.5244007
7851666421000	3.041498	-0.6786713	-2.4889705
7851674813000	2.6230555	-2.0222695	-2.3130412
7851685464000	2.1542163	-3.3939674	-2.0409007
7851694893000	1.7574593	-3.8191295	-1.6166549
7851705544000	1.400714	-3.093727	-0.8713993
7851714882000	1.1487321	-1.8402315	-0.33841935
7851727975000	0.49632803	-1.4315627	0.904386
7851734871000	0.101098195	-1.3686435	2.0289888
7851745522000	0.1563815	-1.5961909	2.823419
7851754830000	0.24801129	-1.5268577	3.288593
7851765511000	0.083383106	-1.2336423	3.4874296
7851774911000	-0.28099802	-0.78893244	3.4788775
7851786446000	-0.6918049	-0.21319197	3.297756
7851794930000	-1.0616838	0.35735616	2.992018
7851805611000	-1.2913691	0.7489208	2.6126707
7851814889000	-1.1878275	0.77549344	2.1817052
7851827279000	-0.72692966	0.08307768	1.6178766
7851835549000	-0.42363504	-1.3539828	0.7538077
7851847237000	-0.68539083	-2.5085182	-0.4569272
7851855599000	-1.2751812	-2.5983152	-1.926669
7851866280000	-1.5457945	-1.9401081	-3.1670308
7851875588000	-1.8677205	-1.543351	-3.490484
7851886239000	-1.9416351	-0.9575313	-3.4642167
7851895577000	-1.9401081	-0.84238315	-2.844494
7851908669000	-1.9663752	-1.20371	-2.0277672
7851915688000	-2.0124955	-1.8509218	-1.241889
7851926339000	-1.8506162	-2.3506095	-0.56779927
7851935708000	-1.2803736	-2.2482896	0.036957346
7851946389000	-0.6282749	-1.3448198	0.57543504
7851955727000	-0.2751948	0.102319926	0.92149025
7851967415000	-0.16584991	1.4443909	1.056186
7851975747000	-0.10720685	2.212554	1.0760391
7851986397000	-0.07452556	2.310598	1.0491611
7851995797000	-0.11056661	1.8689423	1.028697
7852008156000	-0.15882497	1.1484267	1.0317514
7852015816000	-0.14752395	0.43860126	0.98868537
7852027444000	-0.023823744	-0.04795292	0.92179567
7852035805000	0.19028452	-0.18906279	0.6591236
7852050179000	0.4175264	-0.3200934	0.22082779
7852055764000	0.5503896	-0.34880406	-0.3213151
7852066506000	0.50640726	-0.34330627	-0.8359691
7852075722000	0.31337386	-0.26297748	-1.2024882
7852090188000	0.14172074	-0.03634648	-1.3826935
7852095376000	0.17898351	0.36041048	-1.423316
7852106026000	0.46700647	0.75686204	-1.3680327
7852115365000	0.91965765	0.81336707	-1.2217305
7852126076000	1.3112222	0.44715336	-0.98746365
7852135445000	1.1459832	-0.017104227	-0.65118235
7852146981000	0.18234327	-0.23823744	-0.2565634
7852155404000	-0.5885687	-0.56505036	-0.10293079
7852166268000	-0.17195857	-1.5460999	-0.3155119
7852175606000	0.68569624	-2.437047	-0.31948254
7852187935000	0.9828822	-2.4019222	-0.31948254
7852195656000	1.251052	-1.9877555	1.0793989
7852207253000	1.1362094	-0.50426924	2.3240368
7852215829000	0.70616025	1.1664472	3.0992248
7852226510000	0.25259277	2.261423	3.2959235
7852235848000	0.13500121	2.5421157	3.094338
7852246560000	0.3539964	1.5418239	2.7360654
7852255898000	0.52748215	-0.3371976	2.4251351
7852269173000	0.43371433	-1.6679676	2.2036965
7852276070000	0.1695151	-1.9501873	2.0204368
7852287423000	-0.13775012	-1.5738943	1.8640553
7852296761000	-0.43768495	-0.97585726	1.7397442
7852307442000	-0.6377433	-0.31215215	1.6581937
7852316964000	-0.42546764	0.2742785	1.6197093
7852328591000	0.40622538	0.122783914	1.5867225
7852336983000	1.4437801	-0.99204516	1.5005904
7852347664000	1.8619173	-1.8490891	1.284955
7852357003000	2.3964243	-1.8246545	1.1081096
7852369332000	2.2030854	-1.7201965	0.6441574
7852376626000	1.0622946	-1.378112	0.20830505
7852387856000	0.18081611	-0.31520647	0.01985312
7852396157000	0.1020145	0.7858781	0.042455133
7852406808000	0.26725355	1.3109168	0.10842858
7852416176000	0.33444872	1.6346754	0.116675265
7852426888000	0.34330627	1.9819523	0.044898596
7852436196000	0.41630468	2.291661	-0.083383106
7852453042000	0.61727935	2.4831672	-0.22815818
7852456643000	0.9068295	2.543643	-0.35185838
7852466897000	1.1453724	2.5170703	-0.44776422
7852476266000	1.2006557	2.4901922	-0.49021935
7852487221000	1.1508701	2.4932466	-0.5687156
7852495614000	0.93584555	2.5121834	-0.6310238
7852507241000	0.6621779	2.4929411	-0.6795876
7852515633000	0.41080686	2.393981	-0.7128797
7852526345000	0.23457226	2.1820107	-0.70463306
7852535653000	0.16493362	1.897042	-0.63499445
7852547890000	0.17806722	1.6172657	-0.48838675
7852555611000	0.22082779	1.4013249	-0.26389378
7852567391000	0.22693644	1.2797627	-0.043676864
7852575631000	0.17287487	1.2318097	0.08155051
7852586312000	0.08002335	1.221425	0.13683382
7852595711000	-0.016187929	1.2373075	0.19181168
7852606423000	-0.08552113	1.2586879	0.23671028
7852615731000	-0.11148291	1.2922854	0.22632557
7852630593000	-0.10476339	1.3698653	0.15363261
7852635506000	-0.05955936	1.4227052	0.09682214
7852646401000	-6.1086525E-4	1.5396858	-0.05955936
7852655739000	0.022602014	1.6554449	-0.28069258
7852666451000	0.021685716	1.74738	-0.57757306
7852675789000	0.05100725	1.7968601	-0.93584555
7852687447000	0.15118915	1.7996091	-1.328021
7852695809000	0.29260445	1.7831156	-1.7165314
7852707039000	0.39584067	1.7427986	-2.0909917
7852715798000	0.42119157	1.636508	-2.4611762
7852728127000	0.31856623	1.4107933	-2.8512135
7852735818000	0.10934488	0.9691377	-3.2510247
7852747475000	-0.08674286	0.3295618	-3.5741725
7852755868000	-0.16249016	-0.3100141	-3.7131443
7852766488000	-0.06994407	-0.7287622	-3.5995235
7852775979000	0.023823744	-0.7987063	-3.2494977
7852786568000	0.2443461	-0.5360342	-2.997821
7852795998000	0.44806966	-0.30451632	-2.375655
7852809029000	0.59864795	0.31764993	-1.6175711
7852815896000	0.5876524	1.0928379	-0.689056
7852826638000	0.0125227375	1.4361442	0.41630468
7852835915000	-0.87964594	0.5308419	1.4202617
7852846596000	-1.4556919	-0.5671884	2.0561724
7852855935000	-1.7944167	-0.64721173	2.3918428
7852867653000	-1.9785925	0.1151481	2.5421157
7852875924000	-1.9538525	1.2623531	2.550057
7852886666000	-1.750129	2.3133466	2.4120014
7852895974000	-1.4660766	2.9061913	2.1068742
7852908272000	-1.2492194	2.9324586	1.6734654
7852915993000	-1.2174544	2.5259278	1.1166617
7852927621000	-1.3552046	1.847562	0.34483343
7852936013000	-1.4489723	0.9129381	-0.13316862
7852946725000	-1.6426166	0.35643986	-1.2611313
7852956032000	-1.8112154	-0.74372846	-2.3283129
7852966652000	-1.8512272	-1.4153748	-2.8151724
7852976052000	-1.733941	-1.4853189	-2.7311785
7852989266000	-1.4975362	-1.1872166	-2.4184155
7852996071000	-1.1994339	-0.7883216	-2.0775528
7853006753000	-0.9108001	-0.47739118	-1.7033978
7853016091000	-0.6609562	-0.25961772	-1.2247849
7853026772000	-0.46486846	-0.06291912	-0.6881397
7853036110000	-0.33658674	0.09132435	-0.24556783
7853047616000	-0.23060162	0.09865474	0.032375857
7853056130000	-0.100792766	-0.03023783	0.19364429
7853066811000	0.003970624	-0.14874569	0.2874121
7853076150000	0.056199603	-0.17654006	0.36651915
7853088418000	0.086132	-0.14966199	0.42149702
7853096169000	0.18784106	-0.13561209	0.5879578
7853107735000	0.32559118	-0.14966199	0.82741696
7853116189000	0.4700608	-0.25534168	1.1026118
7853126778000	0.6065892	-0.43035457	1.3390167
7853136208000	0.713796	-0.5552765	1.4419475
7853146828000	0.7819075	-0.5235115	1.3542882
7853156197000	0.82741696	-0.3231477	1.0748174
7853169259000	0.86498517	-0.06291912	0.7086037
7853176247000	0.8671232	0.092240654	0.3747658
7853191201000	0.78984874	0.07788532	0.10995574
7853196084000	0.6206391	-0.03970624	-0.11942416
7853206978000	0.36560285	-0.14660765	-0.33169982
7853216347000	0.10048734	-0.21991149	-0.48166725
7853227883000	-0.005192355	-0.27916542	-0.5479461
7853236367000	0.026572637	-0.39706242	-0.56321776
7853247079000	0.29901853	-0.5525276	-0.65118235
7853256356000	0.84757555	-1.0005972	-0.8753699
7853268532000	1.3539828	-1.2162327	-1.0980303
7853276314000	1.5830573	-1.1301007	-1.0729848
7853287942000	1.5607607	-0.90285885	-0.48838675
7853296364000	1.2623531	-0.39003745	0.88117313
7853307015000	0.3585779	0.3368922	2.7079656
7853316414000	-0.94989544	0.47739118	3.9358048
7853327065000	-1.7846428	-0.057726767	4.04179
7853336434000	-2.1270328	-0.36132678	3.5589008
7853349465000	-2.3057108	-0.23457226	2.8955014
7853356423000	-2.4153612	0.09193522	2.1383338
7853367104000	-2.389705	0.36774087	1.3518448
7853376443000	-2.0967948	0.35124752	0.6221663
7853387124000	-1.7983873	0.037873644	0.005497787
7853396432000	-0.8750645	-0.17134771	-0.25717425
7853408089000	0.2049453	-0.5870415	-0.72295904
7853416543000	1.0180069	-0.9114109	-1.138042
7853427193000	1.5161675	-1.0500773	-1.4532484
7853436562000	1.8713857	-0.8564331	-1.6264287
7853448830000	2.1862867	-0.27183503	-1.6646078
7853456551000	2.463314	0.6114761	-1.5717562
7853468209000	2.7015514	1.6401732	-1.3460416
7853476601000	3.093727	2.5085182	-0.97310835
7853487221000	3.67466	2.6358836	-0.44348818
7853496621000	3.8789942	1.3029755	0.19456059
7853507271000	3.3282993	-1.0995574	0.77671516
7853516610000	2.1468859	-3.0140092	1.1774428
7853529732000	0.6933321	-3.413515	1.3888022
7853536568000	0.065973446	-2.1389446	1.4153748
7853550942000	-0.6948592	0.11911872	1.3625349
7853556649000	-0.86559606	1.20371	1.169807
7853567299000	-0.73823065	2.713769	0.9266826
7853576638000	-0.5170974	3.3072245	0.66950834
7853588326000	-0.29565877	3.2336152	0.41141775
7853596657000	-0.08368854	2.718045	0.16554448
7853607369000	0.14294247	1.9654589	-0.041233405
7853616707000	0.3744604	1.1985176	-0.16493362
7853628975000	0.5537493	0.6072	-0.20311269
7853636727000	0.6258314	0.28130344	-0.18936823
7853650155000	0.5644395	0.19547687	-0.16065755
7853656746000	0.3885103	0.30482176	-0.14844026
7853667367000	0.16615535	0.5503896	-0.16401732
7853676735000	-0.026267206	0.8350528	-0.19792034
7853687325000	-0.13805555	1.0577132	-0.23457226
7853696725000	-0.16615535	1.1395692	-0.24740042
7853711434000	-0.19364429	1.1191051	-0.2611449
7853716714000	-0.20586158	0.9602802	-0.26633725
7853727425000	-0.2144137	0.70066243	-0.27275133
7853736794000	-0.22602014	0.4529566	-0.27947086
7853747445000	-0.2660318	0.30818152	-0.30085114
7853756814000	-0.32070425	0.27947086	-0.36865717
7853768532000	-0.33658674	0.3268129	-0.49663344
7853776833000	-0.32620203	0.35338554	-0.6939429
7853787545000	-0.3313944	0.23182335	-0.95569867
7853796853000	-0.3576616	-0.063224554	-1.2388347
7853809212000	-0.35613444	-0.45753807	-1.4779885
7853816903000	-0.312763	-0.83199847	-1.6197093
7853828652000	-0.21319197	-1.087951	-1.641395
7853836922000	-0.037873644	-1.0781772	-1.5457945
7853847664000	0.07849618	-0.66981375	-1.4648548
7853856881000	0.31490102	-0.33261612	-1.2479976
7853867592000	0.18142697	0.45631635	-0.9550878
7853876931000	-0.6243043	1.1539245	-0.6600399
7853893807000	-1.4138476	1.4770721	-0.42760566
7853897225000	-1.6019942	1.3707817	-0.2275473
7853907631000	-1.4001031	0.96669424	-0.05009095
7853917031000	-1.1835514	0.40439278	0.106595986
7853927621000	-1.0946705	-0.14569137	0.26542094
7853936989000	-1.0769554	-0.6270532	0.4156938
7853948617000	-1.074512	-1.0500773	0.49602258
7853957039000	-1.069625	-1.4367551	0.4728097
7853967690000	-1.0506883	-1.7696766	0.3472769
7853976998000	-1.0247264	-1.9871446	0.13347405
7853989358000	-0.9673051	-2.0112739	-0.14813483
7853997079000	-0.9101892	-1.8240436	-0.31429017
7854008858000	-0.74281216	-1.6584991	-0.6976081
7854017098000	-0.56688297	-1.205848	-1.1417072
7854027779000	-0.4578435	-0.6560693	-1.604743
7854037087000	-0.4382958	-0.17531833	-1.9630154
7854047707000	-0.4654793	0.031154128	-2.0949624
7854057137000	-0.4868596	-0.13836098	-1.983174
7854071786000	-0.47219884	-0.68386364	-1.6737708
7854077035000	-0.38545597	-1.4563028	-1.271516
7854087777000	-0.23701571	-2.141999	-0.9285152
7854097146000	-0.09560041	-2.454762	-0.72601336
7854107888000	-0.007330383	-2.2925773	-0.623388
7854117226000	0.023823744	-1.8005253	-0.52931476
