accelerometer_timestamp	accelerometer_x_data	accelerometer_y_data	accelerometer_z_data
7828487862000	1.055843	-9.709685	-4.1814733
7828495888000	1.5987282	-9.643246	-3.6655228
7828503579000	1.8058267	-9.589975	-3.306991
7828514443000	1.5113398	-9.672575	-3.4249055
7828523324000	0.84096336	-9.982025	-3.5571852
7828532631000	-0.11312603	-10.632649	-3.41892
7828544228000	-1.4167689	-11.872847	-3.0160956
7828552620000	-2.9951463	-14.100053	-3.4925418
7828565804000	-4.4436383	-16.916231	-4.505289
7828572548000	-5.5162406	-19.10154	-4.470573
7828584786000	-5.3444567	-18.672977	-3.2603042
7828592568000	-3.696049	-15.094245	-2.1972785
7828605782000	-1.6980876	-11.086351	-1.6484078
7828612557000	-0.12808979	-8.025963	-1.0785879
7828623208000	1.2012907	-6.0303955	0.027533319
7828632577000	2.0027497	-5.213374	1.1540052
7828643197000	2.12246	-5.1523223	1.6023195
7828652627000	1.8698715	-5.145139	1.5640123
7828665719000	1.4508862	-5.071518	1.328782
7828672646000	1.0001777	-5.0122614	1.1821371
7828683327000	0.33279404	-5.261258	1.7124528
7828692635000	-0.6051345	-6.0303955	2.7485435
7828703316000	-1.4772224	-7.199963	3.681085
7828712685000	-2.3678656	-8.887876	4.466982
7828724190000	-3.4991257	-10.872668	4.5160627
7828732674000	-4.9542017	-12.77546	2.2092497
7828743325000	-6.5283895	-14.105439	0.12928689
7828752694000	-7.477092	-14.297574	-0.33758244
7828764992000	-7.418434	-13.200431	-0.7751228
7828772744000	-6.7690067	-11.323377	-2.2906525
7828784340000	-5.911284	-9.379884	-4.3634324
7828792733000	-4.8745947	-8.13849	-3.2267854
7828803383000	-3.8666358	-7.5483193	-1.3162124
7828812783000	-2.460641	-7.5848308	-0.15023616
7828824044000	-0.9923966	-8.823232	1.2312182
7828832802000	-0.0053869537	-10.2657385	2.178125
7828845925000	0.6194997	-10.609905	1.7447745
7828853768000	1.2653356	-10.029311	0.59256494
7828863503000	1.5376761	-9.739014	-0.3429694
7828872811000	1.4197617	-9.671976	-0.84216046
7828883492000	1.1450269	-9.448118	-1.377863
7828892861000	0.37828386	-9.35235	-0.6733692
7828904549000	-0.50757074	-9.417592	0.28550854
7828912881000	-0.9504981	-9.378687	0.005985504
7828923562000	-1.1282675	-9.251195	-0.8451532
7828932900000	-1.2126632	-9.0237465	-1.2695254
7828945107000	-1.2449849	-8.933964	-1.091756
7828952889000	-1.2306197	-8.992621	-0.6278794
7828966164000	-0.9163807	-8.966884	-0.40641573
7828972939000	-0.66738373	-9.011775	-0.3752911
7828983590000	-0.66259533	-9.27394	-0.4770447
7828992959000	-0.8242039	-9.539098	-0.6051345
7829003670000	-0.98940384	-9.741408	-0.94690675
7829013039000	-1.1851299	-9.936536	-1.2497733
7829027688000	-1.2802993	-9.973047	-1.34195
7829032998000	-1.3132197	-10.070611	-1.2557588
7829043709000	-1.2348095	-10.107721	-1.1174936
7829053597000	-1.2030864	-10.193314	-1.1204864
7829063668000	-1.1372458	-10.281301	-1.1563994
7829073006000	-0.90261406	-10.159196	-1.0654198
7829086251000	-0.5674258	-10.004171	-0.86131406
7829093056000	-0.059855044	-9.840169	-0.84455466
7829103737000	0.57041854	-9.6767645	-1.0582372
7829113045000	1.2437878	-9.731832	-1.1959038
7829125405000	1.7495629	-10.030508	-1.074398
7829133065000	2.0219033	-10.323798	-0.64942724
7829146340000	2.1428106	-10.675147	-0.4309563
7829153267000	2.19668	-11.051037	-0.7158663
7829164559000	2.1416135	-11.382633	-1.0767922
7829173104000	1.9093759	-11.701062	-1.1294646
7829183755000	1.5131354	-11.918935	-0.973243
7829193123000	0.89782566	-11.899182	-0.79128367
7829206185000	0.22924481	-11.805809	-0.866701
7829213173000	-0.272939	-11.532271	-0.7954735
7829223763000	-0.2885013	-11.419145	-0.29688102
7829233162000	-0.062249243	-11.829152	0.350152
7829243844000	0.15981296	-12.640188	0.75956047
7829253182000	0.27353755	-13.185468	1.1510124
7829264718000	0.24540567	-13.317747	1.5616181
7829273202000	-0.1933318	-13.008895	1.9422961
7829283883000	-1.0773908	-12.353482	2.5875335
7829293221000	-1.845331	-11.65677	2.8508956
7829305459000	-2.3199813	-10.894217	2.6360161
7829313241000	-2.521693	-9.886856	2.148796
7829324990000	-2.6264393	-8.902241	1.6537948
7829333260000	-2.9317	-8.269572	1.3904326
7829343880000	-3.5242648	-8.054693	1.0444705
7829353280000	-5.029021	-8.603564	-1.0857705
7829363930000	-6.9360023	-10.030508	-3.8642416
7829373299000	-7.8158712	-11.486781	-4.917092
7829386361000	-7.1341224	-11.868656	-3.7882257
7829393319000	-5.807136	-11.2928505	-1.690905
7829404000000	-4.0479965	-10.526108	-0.81881696
7829413338000	-2.059612	-9.766547	-1.0354922
7829424019000	-0.40641573	-9.31524	-1.1486182
7829433510000	0.6326678	-9.436148	-1.3634979
7829445199000	1.1994951	-9.912594	-1.4544775
7829454079000	1.5328877	-10.222044	-1.2126632
7829464394000	1.6639702	-10.342353	-0.87328506
7829473885000	1.685518	-10.387244	-0.6697779
7829486153000	1.6226702	-10.439318	-0.57640404
7829493905000	1.3988123	-10.474034	-0.62847793
7829505562000	1.1049241	-10.550649	-1.0534488
7829513802000	0.7835025	-10.468048	-1.9045875
7829524666000	0.46567222	-10.236409	-2.6485856
7829533974000	0.050876785	-9.941922	-3.3584664
7829544655000	-0.49440265	-9.4774475	-3.642778
7829553994000	-1.1288661	-8.902839	-3.2722752
7829569131000	-1.6555905	-8.201937	-2.5390508
7829574196000	-1.839944	-7.2502413	-1.8064252
7829584878000	-1.6089035	-6.1746464	-1.4161704
7829594246000	-1.1803415	-5.374983	-1.371279
7829604958000	-0.7787141	-5.245696	-1.4610616
7829614419000	-0.79607207	-6.0082493	-1.6238673
7829626046000	-0.9463082	-6.821679	-1.8357542
7829634438000	-1.1180922	-7.1867948	-1.9997569
7829645089000	-1.1707647	-7.217321	-2.1906946
7829665871000	-1.1641805	-7.20116	-2.308609
7829673592000	-1.1857284	-7.280169	-2.291251
7829687020000	-1.1965023	-7.436989	-2.4947581
7829693642000	-1.0791864	-7.741651	-2.8820202
7829704293000	-0.729633	-8.316259	-3.4045548
7829713631000	-0.18854338	-9.121908	-3.8283286
7829724282000	0.3537433	-9.959281	-4.1222167
7829733651000	0.58538234	-10.87626	-4.232949
7829746712000	0.3597288	-11.9057665	-4.5118732
7829753762000	-0.45968673	-13.059772	-5.059547
7829765511000	-1.6837224	-14.000094	-5.9956794
7829773751000	-2.349909	-14.066533	-7.2340803
7829784402000	-1.2539631	-12.464812	-6.3458314
7829793770000	0.9451111	-10.659584	-5.8681884
7829805581000	2.5809495	-9.58818	-4.31076
7829813729000	2.7210102	-10.509348	-0.45190558
7829824410000	-0.480636	-14.054563	-0.5033809
7829833748000	-5.000889	-18.121712	1.074398
7829845986000	-8.367136	-19.594147	-0.4165911
7829853768000	-10.677541	-19.608511	-1.9931729
7829865365000	-9.8515415	-19.412786	-3.822343
7829873787000	-4.357447	-13.771448	-4.683657
7829884438000	-1.7340006	-8.74542	-2.295441
7829893807000	-0.5255273	-5.799355	0.55126494
7829904427000	0.15203181	-3.7098155	2.3241713
7829913827000	0.59855044	-2.256535	2.956839
7829926858000	0.98341835	-1.3634979	2.5773582
7829933846000	1.3096284	-0.9708488	1.91596
7829944527000	1.4263457	-1.1019313	1.5807717
7829953835000	1.2186487	-1.6867151	1.8902222
7829964577000	0.7870938	-2.7048495	2.7970262
7829973885000	0.15322891	-4.1581297	4.1545386
7829985512000	-0.81761986	-6.579865	5.5910597
7829993905000	-2.304419	-10.078392	7.1353197
7830004525000	-3.7948096	-13.637972	7.921815
7830013924000	-4.7189717	-16.189592	6.0202203
7830026192000	-5.3821654	-16.90067	-1.7172412
7830033913000	-4.9745526	-15.0661125	-8.04392
7830045571000	-3.301604	-11.697471	-14.855423
7830053963000	-2.8574798	-10.129868	-9.460688
7830064614000	-3.0250738	-10.014347	-2.2008698
7830073952000	-2.0165164	-9.741408	2.7503393
7830085366000	-0.34356794	-9.428367	3.3255463
7830093972000	0.59376204	-9.229648	1.8255788
7830107155000	0.931943	-8.9279785	1.1282675
7830113991000	1.0372878	-8.500014	0.9864111
7830124642000	1.2737153	-7.978079	0.91458505
7830134041000	1.5741876	-7.60578	0.5566519
7830144662000	1.7477672	-7.541735	-0.2885013
7830154061000	1.6023195	-7.840412	-1.0726024
7830165749000	1.1659763	-8.44016	-1.4143747
7830174080000	0.54527944	-9.227253	-1.2126632
7830184762000	0.10115502	-9.895236	-0.8798691
7830194100000	-0.19931729	-10.313024	-0.8265981
7830206338000	-0.4285621	-10.576386	-1.264737
7830214120000	-0.6823475	-10.779893	-1.8818425
7830225777000	-0.8912416	-10.9343195	-2.1625626
7830234109000	-1.0013748	-10.906187	-1.9662381
7830244820000	-1.0043676	-10.754155	-1.5400703
7830254159000	-0.9564836	-10.495582	-1.2916719
7830264779000	-1.0456676	-10.244789	-1.3443443
7830274148000	-1.1438298	-10.02153	-1.5873557
7830288827000	-0.8924387	-9.880272	-2.018312
7830294137000	-0.077811554	-9.846154	-2.5582044
7830304848000	0.91817635	-10.184934	-2.4959552
7830314217000	1.7956513	-10.746374	-1.9422961
7830328438000	2.508525	-10.99178	-1.0642227
7830334237000	3.064578	-11.106702	-0.38726214
7830345772000	3.5093012	-11.287464	0.11731588
7830354256000	3.8923733	-11.5633955	0.51714754
7830364876000	3.900753	-11.920132	0.6679823
7830374276000	3.0172927	-11.829751	1.4520833
7830386574000	2.2589293	-11.416751	2.2888567
7830394295000	1.543063	-11.739369	0.7493851
7830405892000	0.635062	-12.282255	-1.0636241
7830414284000	-0.30585927	-12.196063	-1.316811
7830424965000	-1.2198458	-11.912351	-0.25737667
7830434273000	-1.9117701	-11.573571	0.97623575
7830444954000	-2.3157916	-10.8624935	1.4945804
7830454354000	-2.6126726	-10.068216	1.584363
7830469216000	-2.758719	-9.360131	1.4688427
7830474129000	-2.991555	-9.080608	1.2210429
7830485055000	-3.7110126	-9.631873	0.9888053
7830494393000	-4.9757495	-10.9582615	0.25258827
7830505013000	-6.493075	-12.945449	-2.4426842
7830514382000	-7.012018	-14.247894	-3.7002387
7830525948000	-5.977723	-13.965977	-3.7283707
7830534432000	-4.3676224	-12.992734	-2.8987796
7830545083000	-2.7742813	-11.899182	-1.9488802
7830554452000	-1.0899603	-10.521319	-1.4514848
7830566659000	0.3453636	-9.5385	-1.3988123
7830574441000	1.1121067	-8.711902	-1.1055226
7830586190000	1.5526398	-7.908048	-0.79367787
7830594491000	1.8273745	-7.359776	-0.6721721
7830605172000	2.1338322	-7.131728	-0.6512229
7830614510000	2.4839842	-7.2831616	-0.8511387
7830625283000	3.1842883	-7.6650367	-1.2970588
7830634499000	3.9995139	-8.182783	-2.0171149
7830647713000	4.5100775	-8.968679	-2.6527755
7830654671000	4.144363	-9.99639	-3.0903158
7830665291000	2.8538885	-10.901998	-2.6856956
7830674630000	1.4311341	-11.186309	-1.9045875
7830685311000	0.49799395	-10.845135	-1.3688848
7830694649000	-0.12509704	-10.05864	-0.93254155
7830707741000	-0.3728969	-8.768764	-0.46567222
7830714608000	-0.3764882	-7.32506	-0.3489549
7830725289000	-0.41838676	-6.3087215	-0.5243302
7830734627000	-0.5446809	-5.5551467	-1.0301052
7830746865000	-0.8158242	-5.3462524	-1.441908
7830754738000	-1.0570401	-5.673061	-1.6244658
7830766305000	-1.2318168	-6.379949	-1.4466964
7830774727000	-1.168969	-7.129334	-1.3563153
7830785409000	-0.6961141	-7.714118	-1.6256629
7830794747000	-0.048482586	-8.316259	-1.9057846
7830805977000	0.57161564	-9.10455	-2.1936872
7830814705000	1.1324574	-9.985018	-2.742558
7830827828000	1.5400703	-10.851719	-3.5715504
7830834694000	1.8435353	-11.632828	-4.07553
7830845345000	2.1152773	-12.154165	-4.1892543
7830854745000	2.1242554	-12.4151325	-4.2742486
7830865426000	1.5837644	-12.625823	-5.265448
7830874764000	0.25977087	-13.026852	-6.818088
7830887520000	-0.5374983	-13.017873	-7.301717
7830894753000	0.6769605	-11.971607	-6.187216
7830905434000	2.7922378	-10.07121	-4.3664255
7830914773000	4.1252093	-8.294113	-2.1613655
7830927010000	4.2754455	-7.4256167	-0.31304187
7830934792000	3.2531216	-7.645883	0.12569559
7830946541000	1.8501194	-8.701127	-1.0875661
7830954812000	1.3724761	-10.43034	-3.1022868
7830965432000	-0.40821138	-14.5346	-3.7247794
7830974831000	-1.8872294	-18.846558	-3.6553473
7830985512000	-1.8602947	-19.608511	-2.160767
7830994851000	-1.9680338	-19.608511	1.0881647
7831007943000	-2.8562827	-19.14284	1.3485341
7831014870000	-1.6891093	-13.406332	-1.4437037
7831025551000	-0.5327099	-7.8248496	-2.5198972
7831034890000	-0.10295067	-4.1683054	-0.39863458
7831045601000	0.06464344	-1.965041	2.070386
7831054909000	0.037708677	-0.98102415	3.3153708
7831066506000	-0.18076223	-1.1941081	3.6224272
7831074929000	-0.5327099	-2.2637177	3.6002808
7831085671000	-0.91458505	-3.691859	3.5553896
7831094948000	-1.42455	-5.539584	3.3943794
7831107277000	-2.256535	-7.901464	3.6421793
7831114968000	-3.0969	-10.427945	4.4795513
7831126534000	-3.3985693	-12.413338	4.525041
7831134987000	-3.2998085	-13.484144	2.4145525
7831145699000	-3.2184057	-13.68825	-1.2593501
7831155037000	-2.4426842	-12.601282	-4.2299557
7831165658000	-1.2569559	-10.818799	-6.203975
7831175027000	-0.50757074	-9.138668	-7.252037
7831188210000	-1.8567034	-8.8364	-2.132635
7831195046000	-2.7629087	-8.7053175	3.888782
7831205697000	-1.1270704	-8.552687	3.0178912
7831215066000	0.3890578	-8.638878	0.3465607
7831225777000	0.9307459	-8.787319	-0.90021986
7831235085000	0.89662856	-9.016563	-1.18094
7831246834000	0.75596917	-9.337985	-0.4950012
7831255105000	0.6242881	-9.594165	0.5315128
7831266701000	0.6194997	-9.664195	1.0319009
7831275124000	0.76554596	-9.521142	0.736217
7831287392000	0.90740246	-9.143456	0.06943185
7831295144000	0.91099375	-8.696339	-0.5482722
7831308327000	0.830788	-8.48146	-0.94211835
7831315163000	0.6877344	-8.51857	-0.9475053
7831325875000	0.53091425	-8.740033	-0.700304
7831335183000	0.3764882	-9.081207	-0.50158525
7831345894000	0.17178397	-9.375694	-0.7015011
7831355202000	-0.1340753	-9.730036	-1.0869676
7831369881000	-0.47285482	-10.250176	-1.423353
7831375161000	-0.7104794	-10.739192	-1.536479
7831385842000	-0.74758947	-11.084556	-1.532289
7831395241000	-0.5351041	-11.326369	-1.6765398
7831405892000	0.032920275	-11.302427	-1.7866731
7831415261000	0.7398083	-11.145607	-1.7465701
7831428444000	1.5388732	-11.003751	-1.8477252
7831435280000	2.172738	-10.916363	-1.8357542
7831446602000	2.6354175	-10.869077	-1.5412674
7831455300000	3.0412347	-10.794857	-1.1210849
7831467507000	3.4913447	-10.749966	-0.65421563
7831475319000	3.965995	-10.86369	-0.44592008
7831486916000	4.3718123	-11.164762	-0.6290765
7831495339000	4.5136685	-11.534665	-1.0833763
7831505990000	4.1539397	-11.836334	-1.2623428
7831515359000	3.383007	-12.1044855	-0.6380547
7831526040000	2.7694929	-12.525865	-0.020350715
7831535378000	2.463035	-13.077728	0.3681085
7831548409000	2.1829133	-13.2513075	0.8062474
7831555398000	1.6879122	-12.805986	1.2449849
7831566048000	0.94690675	-12.213422	1.751957
7831575417000	0.05267244	-11.563994	2.1721394
7831586037000	-0.6937199	-10.799645	2.4708161
7831595437000	-1.2060791	-9.862315	2.670732
7831607094000	-1.5394717	-8.905831	2.5731683
7831615456000	-1.9327193	-8.198944	2.2619221
7831626137000	-2.7647045	-8.2995	1.4131776
7831635506000	-4.845266	-10.019135	-3.7732618
7831647744000	-6.923433	-12.450447	-6.218939
7831655556000	-6.8767457	-13.42788	-4.1641154
7831667153000	-5.6305637	-13.132795	-2.2762873
7831675515000	-4.0892963	-12.228984	-1.5143325
7831686257000	-2.5222914	-11.24377	-1.5873557
7831695565000	-1.146224	-10.54586	-1.6567876
7831706277000	0.08439561	-10.111911	-1.673547
7831715584000	0.8714894	-9.662399	-1.6208745
7831728798000	1.3096284	-9.124303	-1.1318588
7831735573000	1.7016789	-8.491036	-0.6817489
7831746255000	2.1140802	-7.994838	-0.4782418
7831755593000	2.717419	-7.7703815	-0.51235914
7831766305000	3.6984432	-7.668628	-0.93613285
7831775612000	4.7698483	-7.702147	-1.3826514
7831787331000	5.3516393	-8.215703	-2.3642743
7831795632000	4.537611	-9.26556	-2.915539
7831806283000	2.7988217	-10.324995	-2.5725696
7831815652000	1.5352819	-10.699089	-2.166154
7831827920000	0.7074866	-10.501567	-1.6639702
7831835671000	0.30166942	-9.906608	-1.0648212
7831848885000	0.22924481	-8.96449	-0.45789108
7831855691000	0.3321955	-7.689577	-0.07182605
7831866311000	0.2088941	-6.5391636	0.073023155
7831875710000	-0.05566519	-5.868787	-0.11611878
7831886391000	-0.18674773	-5.515642	-0.7128736
7831895730000	-0.2861071	-5.4863133	-1.4610616
7831908791000	-0.47884035	-5.876568	-2.1499932
7831915780000	-0.26874915	-6.5152216	-2.6090813
7831926400000	0.44831428	-7.065289	-2.7856536
7831935769000	1.3760674	-7.6680293	-2.6042929
7831946480000	2.3104045	-8.607754	-2.2541409
7831955758000	3.2040405	-9.792884	-2.106299
7831967354000	3.9893386	-10.887033	-2.5007436
7831975808000	4.3783965	-11.868058	-3.354875
7831986428000	4.2395325	-12.696451	-4.5801077
7831995827000	3.643975	-13.240534	-6.23091
7832008126000	3.2668881	-13.198037	-7.3466077
7832015847000	3.857059	-12.17272	-6.8324533
7832028725000	4.976947	-10.514136	-5.161899
7832035866000	5.2768207	-9.160215	-3.3279405
7832046486000	4.705205	-8.57184	-1.7735049
7832055886000	3.7732618	-8.505402	-0.48602295
7832066537000	2.949058	-9.396045	0.30765492
7832075905000	2.0691888	-11.744757	0.31064767
7832089089000	1.5652094	-16.068686	0.4890157
7832096078000	-0.24121583	-19.558233	0.20051439
7832106759000	-4.4633904	-19.608511	0.32621
7832116097000	-7.3166804	-19.608511	-1.0869676
7832126931000	-4.691438	-18.322826	-3.1783028
7832136300000	-1.4137762	-10.66138	-3.1184478
7832147896000	-0.15263036	-4.7506948	-1.8590976
7832156319000	0.046088383	-1.3311762	-0.046686932
7832166939000	0.04129998	0.25318682	1.5292963
7832176522000	0.30885202	0.79128367	2.2720973
7832188790000	0.66379243	0.74399817	2.2038627
7832196541000	0.97743285	0.15382746	1.9746178
7832208199000	0.9056068	-1.0875661	2.180519
7832216561000	0.49799395	-2.5731683	2.9933507
7832228005000	0.045489833	-4.6034513	3.4745853
7832237343000	-0.79966336	-7.864354	4.32333
7832247964000	-1.804031	-11.601703	5.8759694
7832257363000	-2.7832594	-14.705187	7.257424
7832270150000	-3.53863	-16.690578	6.4062853
7832277566000	-4.095282	-16.946758	1.620276
7832288247000	-3.90614	-14.794371	-5.1930237
7832297585000	-2.8724434	-11.582549	-9.520543
7832308236000	-2.0685902	-9.068638	-11.199477
7832317605000	-2.1080947	-8.6095495	-4.5926776
7832336800000	-1.9237411	-8.6095495	1.5897499
7832347390000	-0.6865373	-8.428787	4.3688197
7832357064000	0.6194997	-8.379706	2.5755625
7832368447000	1.2539631	-8.489241	1.1150994
7832376168000	1.4371196	-8.495226	0.6631939
7832387856000	1.4107834	-8.554482	0.51235914
7832396187000	1.1701661	-8.95611	0.6739678
7832406899000	0.6607997	-9.495404	1.0426749
7832416207000	0.19931729	-9.754577	1.2216414
7832426888000	0.020350715	-9.680955	0.59974754
7832436257000	-0.076015905	-9.505579	-0.57161564
7832449471000	-0.25977087	-9.4295635	-1.2449849
7832456277000	-0.43035775	-9.512762	-1.3389573
7832466958000	-0.4189853	-9.712678	-1.2449849
7832476266000	-0.17776948	-10.053253	-1.234211
7832486947000	0.23582886	-10.406996	-1.2318168
7832496316000	0.7356185	-10.654796	-1.2826935
7832509469000	1.2360066	-10.818799	-1.3814543
7832516305000	1.5358804	-10.916363	-1.4197617
7832526955000	1.8309658	-10.83077	-1.5933412
7832536324000	2.2732944	-10.568604	-1.8626889
7832548562000	2.8766334	-10.420763	-2.1655555
7832556344000	3.4231098	-10.33936	-1.9219455
7832569863000	3.8911762	-10.329783	-1.1384429
7832576363000	4.392163	-10.381259	-0.4854244
7832587075000	4.917092	-10.526108	-0.25139117
7832596352000	5.3115363	-10.749966	-0.26874915
7832610634000	5.4282537	-11.130045	-0.44651863
7832616463000	5.0547585	-11.495759	-0.801459
7832629494000	4.1162314	-11.69807	-0.8996213
7832636452000	3.0172927	-11.721413	-0.62368953
7832647133000	2.1571758	-11.716026	-0.41599256
7832656472000	1.8118122	-11.872248	-0.03232172
7832667092000	1.6035166	-11.799225	0.60453594
7832676491000	1.2737153	-11.320983	1.2324153
7832689675000	0.7918822	-10.5291	1.608305
7832696511000	0.2100912	-9.846753	1.9003977
7832707192000	-0.29388827	-9.263765	2.1080947
7832716561000	-0.6973112	-9.109339	2.2242134
7832728829000	-1.2018893	-9.739014	2.0284874
7832736519000	-2.0446482	-11.28926	1.3724761
7832748147000	-4.2042184	-14.363415	-4.3598413
7832756569000	-6.9647326	-17.96968	-8.010999
7832767190000	-7.138911	-18.83279	-5.294777
7832776589000	-5.5982423	-17.393875	-2.7629087
7832787301000	-3.6475663	-14.793773	-1.5263035
7832796609000	-2.1811178	-12.079346	-0.7505822
7832809762000	-1.1468226	-9.69951	0.15502456
7832816628000	-0.17657238	-8.180388	0.30047232
7832827279000	0.4369418	-7.443573	-0.3693056
7832836648000	0.6452374	-6.8240733	-0.6572084
7832847268000	0.8858546	-6.3566055	-0.724246
7832856667000	1.2743138	-6.1507044	-0.878672
7832868172000	2.0123265	-6.145317	-1.316811
7832876656000	3.53863	-6.269217	-2.15957
7832887368000	5.273229	-6.5984197	-3.1531637
7832896706000	6.0597243	-7.392098	-3.6613328
7832909188000	4.6351743	-8.847174	-2.5420437
7832916939000	3.1376014	-9.96766	-1.1623849
7832928628000	1.977012	-10.481216	-0.31483752
7832936928000	0.8475474	-10.668563	0.39085343
7832947579000	-0.3250129	-10.708666	1.1013328
7832956948000	-0.9552865	-10.09156	1.1204864
7832967660000	-0.65062433	-8.528745	0.16160862
7832976967000	-0.1352724	-7.1754227	-1.0480618
7832990121000	0.05267244	-6.4739213	-2.1296425
7832996987000	-0.055066638	-6.393716	-3.0119057
7833007668000	0.038905777	-6.679823	-3.513491
7833017006000	0.20470424	-7.314286	-3.3237505
7833027718000	0.7978677	-7.6847887	-3.193865
7833037026000	1.7753005	-7.9409685	-3.2070332
7833048684000	2.7712884	-8.446744	-3.1214404
7833057046000	3.5745432	-9.19972	-3.0220811
7833067757000	4.3119574	-10.160394	-3.1914709
7833077065000	5.0146556	-11.41735	-3.7433343
7833089333000	5.443816	-12.823943	-5.3247046
7833097085000	5.517438	-13.869012	-7.771579
7833112588000	5.7149596	-13.791799	-9.5570545
7833117074000	6.7468605	-12.361862	-9.221867
7833127785000	7.752425	-10.348937	-7.189788
7833137124000	7.6847887	-8.522161	-4.156933
7833147805000	6.4900823	-7.2568254	-0.78410107
7833157021000	4.6920366	-7.169437	0.19393034
7833170205000	2.3744495	-9.405023	0.74639237
7833177010000	-0.44891283	-13.667899	2.6156654
7833187661000	-3.357868	-18.805857	4.1437645
7833197030000	-6.415862	-19.608511	5.234922
7833207680000	-8.433576	-19.608511	2.319383
7833217019000	-6.563704	-18.979435	-2.3062148
7833228585000	-2.7012582	-11.6442	-4.803367
7833237069000	-0.57041854	-5.2486887	-4.385579
7833247719000	0.14425065	-2.011728	-1.7238252
7833257088000	0.38367084	-0.7715315	1.2372037
7833269356000	0.7086837	-0.46267948	3.0639796
7833277108000	1.3970166	-0.6751649	3.165733
7833288704000	1.863886	-1.4885949	2.3888147
7833297066000	1.9949685	-2.618658	1.9979613
7833307747000	1.7687165	-4.111443	2.1667526
7833317086000	1.4508862	-5.7179523	2.9047651
7833327798000	1.174356	-7.3112936	3.9833531
7833337105000	0.49440265	-9.267356	5.1223946
7833350167000	-0.5105635	-11.574768	6.160281
7833357125000	-1.7591397	-13.970765	5.9118824
7833367806000	-3.1124623	-15.643115	2.3145945
7833377175000	-4.836886	-15.23251	-8.157045
7833387826000	-5.0613422	-13.049597	-10.457274
7833397225000	-2.5390508	-11.171345	-5.456984
7833408883000	-0.59256494	-10.408792	-1.122282
7833417214000	0.37588966	-9.945514	0.52492875
7833427895000	0.79607207	-9.403826	1.1917139
7833437264000	1.0085574	-8.929175	1.7076644
7833453164000	1.0486604	-8.534132	2.2284033
7833457406000	0.97982705	-8.301296	2.4450784
7833469094000	0.6781576	-8.399458	2.2894554
7833477395000	0.1933318	-8.744822	1.7363948
7833488045000	-0.14963761	-9.068039	0.3489549
7833497384000	-0.4225766	-9.257779	-1.1665748
7833507882000	-0.5614403	-9.331401	-2.0979192
7833517312000	-0.46148238	-9.375095	-2.2188265
7833530526000	-0.14425065	-9.53012	-1.8046296
7833537301000	0.26515785	-9.877877	-1.4730326
7833548012000	0.6171055	-10.257957	-1.2437878
7833557351000	0.9367314	-10.540473	-1.2054806
7833568032000	1.2192472	-10.614095	-1.1402385
7833577401000	1.400608	-10.552444	-0.8936358
7833589058000	1.6178818	-10.396222	-0.8762778
7833597390000	1.7369933	-10.147824	-1.2545617
7833608071000	1.9913772	-10.1939125	-2.0266917
7833617379000	2.2942438	-10.427945	-2.569577
7833629616000	2.8072014	-10.689512	-2.7940333
7833637429000	3.3889925	-10.705673	-2.4432828
7833651009000	3.8959646	-10.49199	-1.5167267
7833657479000	4.3382936	-10.205285	-0.4297592
7833668252000	4.707599	-10.015544	0.53450555
7833677529000	5.017648	-10.002377	1.2090719
7833688180000	4.969764	-10.150817	1.1330559
7833697518000	4.4795513	-10.405799	0.50876784
7833712319000	3.7672763	-10.781689	-0.007182605
7833717232000	3.1070752	-11.281479	-0.31543607
7833728097000	2.6629508	-11.88362	-0.28431144
7833737527000	2.4450784	-12.182896	0.044891283
7833748208000	2.2188265	-11.996746	0.6464345
7833757516000	1.7082629	-11.505935	1.4664485
7833769234000	0.9139865	-10.939108	2.107496
7833777566000	0.078410104	-10.481216	2.1410148
7833788247000	-0.6775591	-10.143634	1.1641805
7833797585000	-1.6837224	-10.257957	-1.9440918
7833809853000	-3.071761	-11.304223	-5.4504004
7833817605000	-3.7062242	-12.339117	-4.3760023
7833829201000	-3.655946	-12.922704	-1.7657237
7833837624000	-3.4859576	-13.289615	0.065242
7833848275000	-2.926313	-13.153146	0.3549404
7833857644000	-1.8620903	-12.446258	-0.3657143
7833868325000	-0.7763199	-11.6430025	-1.2593501
7833877633000	0.11252748	-10.812814	-1.7932571
7833890786000	0.9696517	-10.226234	-2.1110873
7833897652000	1.3724761	-9.945514	-1.9033904
7833908364000	1.7375919	-9.594764	-1.46585
7833917702000	2.2092497	-9.156026	-1.1121067
7833928322000	2.9370868	-8.7125	-1.0642227
7833937722000	4.010288	-8.341997	-1.3892355
7833949471000	4.95899	-8.152855	-1.8986019
7833957772000	5.627571	-8.15525	-2.3229742
7833968423000	5.7478795	-8.318654	-2.5821466
7833977761000	4.9146976	-8.72507	-2.4624364
7833990090000	3.4105403	-9.130887	-1.8866309
7833997780000	2.2703018	-9.1512375	-1.2946646
7834010964000	1.5664065	-8.795698	-0.81402856
7834017830000	1.0594343	-8.286931	-0.16400282
7834028420000	0.59376204	-7.6345105	0.664391
7834037789000	0.24899697	-6.9425864	1.158195
7834048440000	0.05327099	-6.4601545	0.9403227
7834057808000	0.15143326	-6.232107	0.16819267
7834070931000	0.33039984	-6.308123	-0.6194997
7834077859000	0.4237737	-6.585252	-1.3329718
7834088509000	0.22685061	-6.987478	-1.9818004
7834097848000	-0.033518825	-7.4268136	-2.4067712
7834108498000	0.22744916	-7.817667	-2.5743654
7834117867000	0.9744401	-8.173206	-2.5528176
7834131051000	1.9668367	-8.65863	-2.3612814
7834137887000	3.0747535	-9.264962	-2.4223335
7834148568000	4.2371383	-9.884461	-2.6617537
7834157937000	5.1505265	-10.503363	-2.6192567
7834170174000	5.66947	-11.287464	-2.8820202
7834177926000	5.8903346	-12.266094	-4.280833
7834189522000	5.866991	-13.102269	-6.3470287
7834197945000	6.05733	-12.957419	-7.138911
7834212990000	6.6415157	-11.325172	-6.0651116
7834217843000	6.70975	-9.100361	-4.143166
7834228646000	5.8681884	-7.4974427	-2.1865046
7834238015000	4.449624	-6.752846	-0.35434186
7834251717000	3.3572693	-6.7145386	1.0761937
7834258431000	2.7383683	-8.381501	2.4193408
7834268715000	2.4013844	-11.716026	1.2629414
7834278054000	1.5460558	-17.290327	-1.3862427
7834288704000	-0.2741361	-19.608511	-1.4664485
7834298104000	-3.3500867	-19.608511	-1.8644845
7834309548000	-4.794389	-19.608511	-2.333748
7834318062000	-2.2272062	-17.30948	-2.8748376
7834328774000	-0.30885202	-9.750386	-2.2948422
7834338112000	0.25079262	-4.657321	-0.9020155
7834350350000	0.362123	-1.9554642	0.8822633
7834358132000	0.46686932	-0.74758947	1.9237411
7834369729000	0.7685388	-0.24181437	2.1218612
7834378152000	1.2228385	-0.20350714	1.8177977
7834388772000	1.7016789	-0.44113165	1.7220296
7834398171000	1.9955671	-1.2372037	2.1230583
7834408852000	1.6867151	-2.8628666	4.155137
7834418160000	1.4676456	-4.5807066	6.003461
7834431344000	1.3198037	-6.8665705	6.1345434
7834438180000	0.98820674	-9.723452	5.9663506
7834448861000	0.32561144	-12.944251	5.929839
7834458199000	-0.80804306	-15.978902	5.342661
7834468819000	-2.3139958	-17.580025	0.84216046
7834478219000	-3.2549171	-16.282967	-6.8887167
7834490487000	-3.1238346	-13.433866	-10.425551
7834498910000	-2.5366566	-11.15698	-8.405443
7834509621000	-1.8118122	-9.870695	-3.9881415
7834518929000	-0.6003461	-9.226056	-0.55126494
7834534646000	0.47764325	-9.098565	0.80445176
7834539101000	0.9259575	-9.129091	1.8142064
7834550698000	1.1306617	-9.088389	2.4001873
7834559243000	1.4347254	-8.895058	2.429516
7834569436000	1.7591397	-8.600571	2.018312
7834578316000	1.965041	-8.353969	1.3491327
7834588967000	2.022502	-8.19236	0.46148238
7834598336000	1.7669208	-8.308478	-0.110133275
7834611550000	1.4263457	-8.656835	-0.4770447
7834618355000	1.353921	-9.0476885	-1.0648212
7834629067000	1.5628152	-9.511565	-1.8561049
7834638405000	1.7830818	-10.144233	-2.4797945
7834649056000	1.9536686	-10.660782	-2.552219
7834658425000	2.0775685	-10.770915	-2.1206641
7834670113000	2.2188265	-10.598533	-1.4969746
7834678383000	2.3624785	-10.358514	-1.0169371
7834689034000	2.5438392	-10.113707	-0.97503865
7834698433000	2.825158	-9.922171	-1.2749124
7834710702000	3.1651347	-9.731832	-1.6466122
7834718453000	3.550601	-9.654019	-1.8489223
7834731789000	3.90614	-9.607931	-1.6579847
7834738473000	4.2317514	-9.505579	-1.1683705
7834749154000	4.6112323	-9.432556	-0.57041854
7834758492000	4.984728	-9.508572	0.049081136
7834769234000	5.300164	-9.799467	0.4369418
7834778481000	5.4258595	-10.201095	0.3345897
7834791573000	5.1355624	-10.5841675	-0.049081136
7834798531000	4.4657845	-10.970232	-0.39624038
7834809304000	3.767875	-11.327567	-0.48602295
7834818703000	3.4183214	-11.647193	-0.38486794
7834829384000	3.2662897	-11.492168	0.01616086
7834838723000	2.9616275	-10.921151	0.81402856
7834850594000	2.4899697	-10.336966	1.6861166
7834858925000	1.8171991	-9.84795	2.1230583
7834869546000	1.1605892	-9.592968	2.0123265
7834878945000	0.56982	-9.515156	1.1629834
7834891244000	-0.3333926	-10.044873	-1.9195513
7834899117000	-1.8650831	-11.901577	-6.5391636
7834910714000	-2.9370868	-13.821727	-5.281609
7834919137000	-3.1747115	-15.175049	-1.7537527
7834929848000	-3.17531	-16.36796	0.076015905
7834939187000	-2.3774424	-16.56608	-0.31603462
7834950081000	-0.9840169	-15.330073	-1.365892
7834959359000	0.15263036	-13.453618	-1.8405426
7834972420000	0.64942724	-11.717223	-1.3611037
7834979378000	0.99898064	-10.359112	-0.99179804
7834990090000	1.2641385	-9.244612	-1.0175357
7834999581000	1.4957775	-8.352771	-1.0420763
7835010293000	1.9369092	-7.5824366	-1.1270704
7835019631000	2.6617537	-6.9545574	-1.477821
7835031167000	3.709217	-6.5044475	-2.0518308
7835039651000	5.221155	-6.223727	-2.741361
7835058755000	6.5762734	-6.1770406	-3.289633
7835071023000	6.8528037	-6.661866	-3.015497
7835078774000	5.2486887	-7.824251	-2.0733786
7835090523000	3.650559	-8.775947	-1.441908
7835098794000	2.4223335	-9.346365	-0.91458505
7835109810000	1.2330139	-9.633669	-0.1340753
7835118905000	0.2633622	-9.497798	0.9032126
7835129555000	0.034715924	-8.574235	1.453879
7835138894000	0.40821138	-7.441777	1.0079589
7835152138000	0.6302736	-6.7163343	0.108337626
7835158944000	0.65421563	-6.4338183	-0.7398083
7835169503000	0.6955156	-6.459556	-1.411382
7835178872000	0.6979098	-6.689998	-1.7932571
7835189553000	0.6404489	-6.993463	-1.8686744
7835198922000	0.6356605	-7.328053	-1.9147629
7835212136000	0.9983821	-7.6111674	-2.0177135
7835218941000	1.6849195	-7.934983	-2.03567
7835229561000	2.6288335	-8.411429	-2.2900538
7835238961000	3.8325183	-9.070433	-2.8473043
7835251198000	5.0362034	-9.892242	-3.4650085
7835258980000	5.891532	-10.881048	-3.7912183
7835270577000	6.191406	-11.980585	-4.3861775
7835279000000	6.0184245	-12.8688345	-5.638345
7835293892000	5.6946087	-13.2273655	-6.4230447
7835298806000	5.8586116	-12.367847	-5.6569
7835309762000	6.6804214	-10.177752	-4.293402
7835319039000	7.120356	-7.961918	-2.9095535
7835332223000	6.42903	-6.881534	-1.3976152
7835339058000	4.7135844	-7.1748238	-0.3477578
7835349740000	3.0585926	-9.615114	0.80924016
7835359078000	2.224812	-13.36623	-0.37588966
7835369729000	0.79966336	-18.561049	-1.0295067
7835379128000	-1.3305776	-19.608511	0.29328972
7835390694000	-3.5302503	-19.608511	1.6807296
7835399148000	-3.7660792	-19.608511	0.521936
7835409829000	-2.179322	-17.328634	-2.9442697
7835419137000	-0.943914	-9.577405	-3.8780081
7835431405000	-0.42916065	-4.3981485	-2.5767596
7835439156000	-0.36870706	-1.5879543	-0.7074866
7835450814000	-0.37349546	-0.36272156	1.3090298
7835459206000	-0.19512744	0.022146367	2.818574
7835469826000	0.29688102	0.12689269	3.5075054
7835479195000	0.7188591	-0.15083471	3.6792896
7835489876000	0.6943185	-0.95468795	4.07553
7835499184000	0.30166942	-2.5312698	4.473566
7835512276000	0.077811554	-4.5005007	4.7656584
7835519204000	-0.40940848	-7.0970125	5.439028
7835529854000	-1.5149311	-10.333973	6.543952
7835539284000	-2.8395233	-13.622409	7.1466923
7835549904000	-4.2012253	-16.394297	5.3486466
7835559273000	-5.1529207	-17.277159	-1.6286557
7835570839000	-4.3664255	-15.164275	-8.470087
7835579293000	-2.243367	-12.273276	-10.375273
7835589944000	-0.30107087	-10.2735195	-10.197504
7835599282000	-0.031124622	-9.855731	-4.080917
7835611611000	0.08738836	-9.930551	0.85293436
7835619301000	1.086369	-9.687539	2.2182279
7835634560000	2.0171149	-9.202713	2.1877017
7835639199000	2.534861	-8.779537	1.9602526
7835650063000	2.8209682	-8.243237	1.6112977
7835659340000	2.9909565	-7.6692266	1.1587936
7835670266000	3.0621839	-7.231686	0.74998367
7835679421000	2.9203274	-7.165247	0.32680854
7835692574000	2.5941176	-7.5572977	-0.076614454
7835699410000	2.2589293	-8.267179	-0.5770026
7835710091000	2.2122424	-9.075222	-1.3455414
7835719430000	2.3020248	-9.9712515	-2.4019828
7835730111000	2.4061728	-11.010335	-3.3267434
7835739449000	2.2948422	-12.011111	-3.8055837
7835750954000	2.071583	-12.619239	-3.5140896
7835759499000	1.9524715	-12.372037	-2.5396495
7835770211000	2.1140802	-11.228806	-1.340753
7835779488000	2.385822	-9.992201	-0.6440403
7835791726000	2.6743233	-9.305663	-0.66139823
7835799508000	3.0502129	-9.165603	-1.22224
7835811226000	3.4344823	-9.396045	-1.757344
7835819527000	3.7924154	-9.593566	-1.8130093
7835830208000	3.9576154	-9.623494	-1.3227965
7835839547000	3.940856	-9.636064	-0.5847838
7835850350000	3.9234982	-9.716867	0.20410569
7835859566000	3.977966	-9.993398	0.74639237
7835872719000	4.1641154	-10.414179	0.90261406
7835879586000	4.3999443	-10.930728	0.45250413
7835890236000	4.5418005	-11.317391	0.14724341
7835899575000	4.2880154	-11.173141	0.43634325
7835910287000	3.630807	-10.681731	1.3605051
7835919625000	2.9628246	-10.366295	1.9548657
7835931283000	2.3558946	-10.589554	1.7447745
7835939614000	1.6699557	-11.224017	1.3347675
7835950295000	0.64703304	-12.12304	0.4914099
7835959633000	-0.8343793	-13.603255	-1.536479
7835972054000	-2.8341362	-15.464747	-4.358644
7835979653000	-4.2263646	-16.828245	-3.757101
7835991280000	-4.3622355	-17.1772	-1.7064673
7835999673000	-3.3620577	-16.301521	-1.0444705
7836010354000	-1.9979613	-14.411897	-1.0480618
7836019692000	-1.1204864	-12.418724	-1.0588357
7836030343000	-0.6895301	-10.625467	-0.5566519
7836039712000	-0.24241292	-9.130887	-0.006584055
7836052865000	0.45310268	-8.185177	-0.18555063
7836059731000	1.1701661	-7.5447283	-0.8367735
7836070412000	2.03567	-7.062895	-1.5233108
7836079751000	3.0561984	-6.779781	-2.1350293
7836090371000	4.3281183	-6.7163343	-2.5540147
7836099770000	6.084265	-6.7893577	-2.831742
7836111489000	7.515399	-6.895301	-3.145981
7836119790000	7.8930845	-7.4208283	-2.7928362
7836130501000	5.740697	-8.583812	-1.6555905
7836139779000	3.6978445	-9.386468	-1.0977415
7836152047000	2.1523874	-9.7402115	-0.6398504
7836159859000	0.8607155	-9.784504	0.16579847
7836171883000	-0.092176765	-9.475053	1.1887212
7836179848000	-0.5410896	-8.754398	2.0763714
7836190499000	-0.24001873	-7.7201033	2.0572178
7836199868000	0.18136078	-6.892308	1.3084313
7836210579000	0.31064767	-6.489484	0.46028528
7836219918000	0.26156655	-6.4763155	-0.36152446
7836233010000	0.1921347	-6.766014	-1.2066777
7836239907000	0.22385786	-7.177218	-1.9656396
7836250588000	0.3824737	-7.677606	-2.4498668
7836259987000	0.8475474	-8.170812	-2.5923219
7836270638000	1.7794905	-8.535329	-2.5923219
7836280068000	2.996942	-9.021951	-2.7395654
7836291665000	4.259285	-9.774328	-2.9765913
7836300088000	5.2564697	-10.7116585	-2.992752
7836310616000	5.5324016	-11.820772	-3.1789012
7836319985000	5.1487308	-13.089699	-4.322731
7836332284000	4.3538556	-14.162302	-6.0381765
7836340066000	3.9917328	-14.191032	-6.627749
7836355965000	4.3646297	-12.800599	-5.695207
7836360146000	5.0332108	-10.623672	-4.2664676
7836370675000	5.2421045	-8.611345	-2.7257986
7836380105000	4.9320555	-7.0964136	-1.3377602
7836390847000	4.4633904	-6.033388	-0.29628247
7836400124000	3.7720647	-5.6239796	0.39803603
7836413247000	3.1334114	-7.093421	1.4646529
7836420113000	3.0232782	-10.382456	0.4237737
7836430733000	2.3732524	-15.8065195	-1.8130093
7836440102000	0.3776853	-19.591154	-0.94331545
7836450814000	-2.7623103	-19.608511	-0.40462008
7836460183000	-4.8524485	-19.608511	-0.51116204
7836471871000	-3.0556	-18.747797	-1.1569979
7836480141000	-0.8265981	-11.829751	-0.9600749
7836490822000	-0.18555063	-6.133346	-0.43754035
7836500222000	-0.19512744	-2.854487	0.51595044
7836512459000	-0.24301147	-1.2150574	1.6400281
7836520180000	-0.19033903	-0.41060558	2.4941597
7836531808000	0.095768064	-0.12808979	2.7623103
7836540200000	0.43514615	-0.31064767	2.4498668
7836550881000	0.4830302	-1.323395	2.397793
7836560219000	0.2765303	-3.05141	3.1561563
7836570901000	0.11791443	-4.8548427	4.233547
7836580239000	-0.2813187	-7.129933	5.237316
7836593270000	-1.1713632	-10.049063	6.1423244
7836600258000	-2.4486697	-13.156138	6.50744
7836610940000	-3.8738184	-15.871163	4.8536453
7836620278000	-4.9625816	-16.93778	-0.14544775
7836630929000	-4.5394063	-15.182232	-6.181829
7836640298000	-2.7670987	-12.091317	-9.826403
7836651864000	-0.6434417	-9.623494	-10.995371
7836660317000	-0.05865794	-9.083601	-4.5567646
7836670998000	0.034117375	-9.345766	1.2294226
7836680337000	1.1498153	-9.394249	2.095525
7836696206000	1.9758149	-9.279925	1.5562311
7836700356000	2.4157495	-9.089587	1.0851719
7836712075000	2.7138276	-8.774151	0.62967503
7836720376000	2.9753942	-8.383896	0.24600422
7836730996000	3.128623	-8.005013	-0.047884032
7836740395000	3.132813	-7.7452426	-0.15981296
7836751076000	3.0418332	-7.575853	-0.23642741
7836760415000	3.1064768	-7.41604	-0.439336
7836773598000	3.2411506	-7.410054	-0.8218097
7836780434000	3.3931823	-7.642292	-1.2605472
7836791146000	3.5236664	-8.265982	-1.6502035
7836800454000	3.550601	-9.302073	-1.9393034
7836811104000	3.4614172	-10.462063	-2.0536265
7836820473000	3.309984	-11.51192	-1.9955671
7836832009000	3.1016884	-12.3115835	-1.9782091
7836840493000	2.9239187	-12.789825	-2.043451
7836851143000	2.8311436	-12.905944	-2.1601684
7836860512000	2.984971	-12.524668	-2.3493104
7836872780000	3.46022	-11.646594	-2.3786395
7836880532000	3.9594111	-10.732009	-1.91596
7836892251000	4.3754034	-10.011354	-1.1180922
7836900551000	4.6980224	-9.545682	-0.21428105
7836911263000	4.923077	-9.416395	0.38606504
7836920571000	5.0691237	-9.582193	0.4321534
7836931405000	5.182848	-10.015544	0.06703765
7836940621000	5.333084	-10.642825	-0.39504328
7836953591000	5.391144	-11.248558	-0.61650693
7836960610000	5.1666875	-11.475409	-0.36391866
7836972207000	4.5262384	-11.440693	0.30885202
7836980660000	3.5996823	-11.296442	1.3694834
7836991280000	2.6288335	-11.12406	2.321777
7837000649000	1.7609353	-10.923545	2.6426
7837012307000	0.9672575	-10.632649	2.4289176
7837020669000	0.27473465	-10.307637	1.6424223
7837031350000	-0.7392098	-10.524911	-1.0893618
7837040749000	-2.5121162	-12.100295	-5.5707088
7837052987000	-3.5350387	-13.747506	-4.349666
7837060708000	-3.245939	-14.593258	-1.6502035
7837072335000	-2.384625	-14.834474	-0.7290344
7837080758000	-1.2557588	-14.22934	-1.0169371
7837091439000	-0.3561375	-13.086108	-1.1976994
7837100777000	0.12270284	-11.650186	-0.664391
7837111428000	0.44831428	-10.027515	-0.046088383
7837120797000	0.94930094	-8.699332	-0.21667525
7837133950000	1.4586674	-7.9529395	-1.1097125
7837140816000	1.8561049	-7.375937	-1.7902644
7837151436000	2.271499	-6.96174	-2.005144
7837160805000	2.7335799	-6.7773867	-1.9907787
7837171486000	3.5865142	-6.657078	-1.9800048
7837180825000	4.7907977	-6.6229606	-2.1374235
7837192544000	6.196194	-6.7091517	-2.3343468
7837200905000	6.308123	-7.389105	-1.9548657
7837211526000	4.6339774	-8.6017685	-1.0947487
7837221078000	3.2962172	-9.321226	-0.88645315
7837233803000	2.272696	-9.648034	-0.6865373
7837241585000	1.3682863	-9.648633	-0.21906945
7837255410000	0.57879823	-9.336788	0.45789108
7837261513000	0.1448492	-8.474277	1.0540473
7837272133000	0.1388637	-7.4806833	0.9840169
7837281533000	0.20410569	-6.7773867	0.43873745
7837292214000	0.19153613	-6.4936733	-0.16639702
7837301522000	0.18136078	-6.530185	-0.6997054
7837314339000	0.02633622	-6.8240733	-1.1402385
7837321541000	0.05865794	-7.1927805	-1.5705963
7837332223000	0.44352585	-7.6704235	-1.9548657
7837341561000	1.2078748	-8.273164	-2.3774424
7837352181000	2.292448	-9.0476885	-2.919729
7837361611000	3.4805708	-9.964069	-3.6373909
7837373116000	4.6232033	-11.115082	-3.8965633
7837381600000	5.531803	-12.445061	-3.7576995
7837392281000	6.2009826	-13.702016	-4.312556
7837401620000	6.4924765	-14.438233	-5.7029886
7837417885000	6.7624226	-14.00608	-5.7843914
7837421975000	7.550115	-11.944673	-4.4436383
7837433083000	7.8547773	-9.317036	-3.1064768
7837441109000	7.1466923	-7.4028716	-2.0159178
7837451729000	5.795764	-6.489484	-0.65780693
7837461098000	4.5406036	-6.630143	0.219668
7837471779000	3.8031895	-8.971074	1.186327
7837481118000	3.0065188	-13.969568	1.7034745
7837494149000	0.79966336	-19.400814	1.8357542
7837501320000	-2.4384944	-19.608511	1.7316064
7837511971000	-5.4976854	-19.608511	-0.7194576
7837521340000	-4.679467	-19.477428	-2.7491422
7837532052000	-1.8489223	-13.096283	-3.2968156
7837541390000	-0.47405192	-5.879561	-3.208829
7837553109000	-0.05327099	-1.8357542	-2.1404164
7837561593000	0.0077811554	-0.11851298	-0.49799395
7837572213000	0.077213004	0.41359833	1.0031705
7837581612000	0.40043023	0.4345476	1.9728222
7837594033000	0.8738836	0.1921347	2.207454
7837601754000	1.2120646	-0.48722005	2.3834279
7837613320000	1.0947487	-2.099715	2.7461493
7837621773000	0.8924387	-4.207211	3.2303767
7837632424000	0.6655881	-6.682217	4.3221326
7837641976000	0.035913024	-9.60015	5.9304376
7837652596000	-1.2934675	-12.543222	7.611766
7837661996000	-2.9269116	-15.260642	8.186374
7837675057000	-4.291008	-16.816874	5.478532
7837681985000	-4.7297454	-15.896302	-2.6048915
7837692849000	-4.068946	-12.808979	-10.008362
7837702187000	-2.9011738	-9.982624	-11.447875
7837712899000	-2.1535845	-8.937555	-6.95336
7837722207000	-1.780089	-8.963891	-1.0313023
7837737649000	-0.88944596	-9.091981	1.2898762
7837742348000	0.14844051	-9.130288	1.4496891
7837761391000	0.92535895	-9.134478	1.6621746
7837773598000	1.4742297	-9.181764	1.9698294
7837781411000	1.8662802	-9.240421	1.8926164
7837793130000	2.1787236	-9.250597	1.5304934
7837801430000	2.3894134	-9.15842	1.0187328
7837812081000	2.4480712	-9.082404	0.32680854
7837821419000	2.31639	-9.050681	-0.5315128
7837832192000	2.087744	-9.120711	-1.4616601
7837841469000	1.822586	-9.385271	-2.195483
7837854622000	1.685518	-9.843162	-2.7527335
7837861489000	1.6980876	-10.374675	-2.9550436
7837872109000	1.8321629	-10.552444	-2.855684
7837881478000	2.0727801	-10.327988	-2.4301147
7837892159000	2.2948422	-10.055647	-1.6663644
7837901497000	2.4720132	-9.801263	-0.86969376
7837913155000	2.690484	-9.532514	-0.724246
7837921517000	2.9789855	-9.462483	-1.2252327
7837932198000	3.2369606	-9.755774	-1.7543513
7837941598000	3.3806129	-10.180744	-1.9548657
7837953805000	3.4171243	-10.326791	-1.6328455
7837961617000	3.4009635	-10.25257	-1.073201
7837974953000	3.3925838	-10.175357	-0.47285482
7837981606000	3.3740287	-10.268731	0.06823475
7837992348000	3.3345244	-10.422559	0.374094
7838001626000	3.2273839	-10.777499	0.415394
7838012276000	3.1441853	-11.127052	0.31543607
7838021615000	3.2112231	-11.122863	0.18854338
7838036477000	3.1783028	-10.583569	0.3309984
7838041726000	2.8951883	-9.713276	0.8714894
7838052285000	2.5797524	-8.957906	1.2743138
7838061654000	2.260725	-8.65025	1.1755531
7838072335000	2.0207062	-8.88608	0.8888474
7838081673000	1.6980876	-9.920375	0.44951138
7838093239000	1.13964	-11.700463	-0.58119243
7838101693000	0.011372458	-14.557344	-3.305794
7838112313000	-1.1881226	-17.552492	-4.068946
7838121712000	-1.5161282	-18.702307	-2.231396
7838133980000	-1.067814	-17.879898	-1.240795
7838141732000	-0.23104046	-15.721525	-1.0857705
7838153329000	0.15622166	-13.442844	-0.95229375
7838161751000	0.093972415	-11.64839	-0.6775591
7838172433000	0.11252748	-10.132261	-0.3369839
7838181771000	0.32441434	-8.893861	-0.29747957
7838192452000	0.7140707	-7.900267	-0.4309563
7838201790000	1.2270284	-7.107786	-0.6715736
7838214821000	1.9476831	-6.5140243	-1.0283096
7838221810000	3.063381	-6.166865	-1.6095021
7838232430000	5.01705	-5.953781	-2.529474
7838241829000	7.3849154	-5.9687448	-3.3213563
7838252511000	8.567651	-6.609194	-3.6236243
7838261849000	6.8605847	-8.206725	-2.190096
7838273568000	4.5244427	-9.730036	-1.2467805
7838281930000	2.5617957	-10.678739	-0.8403648
7838292489000	0.86251116	-11.145009	-0.16938977
7838301919000	-0.38187516	-10.988189	1.1306617
7838314156000	-0.6422446	-9.904813	2.2218192
7838321908000	-0.11372458	-8.285733	2.219425
7838333504000	0.3800795	-6.854001	1.388637
7838341958000	0.50158525	-5.973533	0.4177882
7838352547000	0.50158525	-5.5030727	-0.36750996
7838361977000	0.4985925	-5.4144874	-1.0223241
7838372628000	0.38067806	-5.7658362	-1.6478093
7838381966000	0.39504328	-6.4266357	-2.0907366
7838395028000	0.90500826	-7.216124	-2.3451207
7838401986000	1.9656396	-7.860164	-2.570774
7838412606000	3.2064347	-8.702325	-2.6485856
7838422005000	4.297592	-9.830592	-2.96881
7838432625000	4.8985367	-11.262324	-3.7116113
7838442025000	4.9984946	-13.082517	-5.063138
7838453621000	4.548983	-15.051747	-6.6361284
7838462075000	4.073136	-16.110582	-7.599196
7838476937000	4.1838675	-15.140931	-6.579865
7838481820000	4.712986	-12.748526	-4.396951
7838494362000	5.7999535	-9.821015	-2.4732103
7838503274000	6.467936	-7.1329255	-1.168969
7838513772000	6.187216	-5.2486887	-0.07182605
7838522133000	5.459977	-4.031237	0.8984242
7838532845000	4.7387238	-3.6936548	1.9722236
7838542183000	4.933253	-5.2409077	2.5462334
7838553322000	5.535394	-9.351153	-1.074398
7838562142000	5.6910176	-16.211739	-3.8720226
7838575234000	4.36044	-19.608511	-2.4905684
7838582192000	1.927931	-19.608511	0.35913026
7838592843000	-0.6997054	-19.608511	0.6973112
7838602242000	-1.661576	-18.349161	-1.9189527
7838612893000	-1.4203602	-11.425131	-3.2196028
7838622201000	-0.92655605	-6.0800753	-2.4061728
7838633797000	-0.52492875	-3.1735144	-0.5470751
7838642220000	-0.18674773	-1.7381904	1.1204864
7838652871000	0.079008654	-1.0145429	1.9315223
7838662240000	0.44592008	-0.7170634	1.9752164
7838674477000	0.8218097	-0.80325466	2.0709844
7838682259000	0.8948329	-1.9494787	2.801216
7838693886000	0.7326257	-3.9318779	4.016872
7838702279000	0.7038953	-6.0704985	5.1235914
7838712899000	0.6194997	-8.598177	6.031593
7838722298000	0.22565351	-11.253346	6.4499793
7838732918000	-0.3321955	-13.455414	6.0405707
7838742318000	-1.0755951	-14.964958	3.7942111
7838755410000	-1.8148049	-14.935629	-2.0500352
7838762337000	-1.9967642	-13.212402	-8.118139
7838773018000	-1.5400703	-11.1414175	-9.497798
7838782357000	-0.81343	-9.8042555	-6.742072
7838793007000	-0.11671733	-9.291298	-2.2637177
7838802376000	0.6655881	-9.120711	1.043872
7838817605000	1.567005	-9.137471	0.8499416
7838822304000	2.0811598	-9.100361	0.5758055
7838833047000	2.373851	-9.111135	0.8086416
7838842415000	2.5803509	-9.101558	0.97743285
7838854683000	2.8113914	-9.097966	0.91578215
7838862435000	3.0544028	-8.954913	0.7104794
7838874154000	3.2507274	-8.655638	0.40940848
7838882454000	3.3087866	-8.3312235	-0.007182605
7838893075000	3.2680852	-8.152855	-0.5662287
7838902474000	3.157952	-8.356362	-1.0755951
7838913186000	3.1016884	-9.0554695	-1.3964181
7838922524000	2.9724014	-10.070012	-1.6124948
7838937203000	2.8353333	-10.995371	-1.7345991
7838942452000	2.658761	-11.55741	-1.7513585
7838953164000	2.4438813	-11.711238	-1.7860745
7838962533000	2.3421278	-11.368867	-1.650802
7838973214000	2.5791538	-10.793061	-1.6609775
7838982522000	3.1830912	-10.074203	-1.6232687
7838995858000	4.03004	-9.461287	-1.4059949
7839002602000	4.620809	-8.921992	-0.973243
7839013222000	4.8853683	-8.392874	-0.41299978
7839022591000	5.1223946	-7.972093	0.11492168
7839034829000	5.409699	-7.756615	0.34596214
7839042611000	5.6868277	-7.8248496	0.090979666
7839056069000	5.795764	-8.0127945	-0.42437226
7839062630000	5.6569	-8.294712	-0.7350199
7839073281000	5.2486887	-8.834005	-0.48961425
7839082650000	4.68246	-9.428367	0.2172738
7839093300000	4.2161894	-9.704897	0.6913257
7839102669000	3.8426938	-9.321824	1.0199299
7839117531000	3.697246	-8.562862	0.75357497
7839122445000	3.5613751	-8.317456	0.16280572
7839133370000	3.352481	-8.770559	0.20590134
7839142708000	3.3051953	-10.028113	0.19692309
7839153359000	2.5671828	-12.695853	-3.6284127
7839162728000	0.8643068	-16.503233	-6.279991
7839174294000	0.035314474	-18.995596	-2.5941176
7839182747000	-0.6793547	-19.608511	-0.45729253
7839193368000	-1.3808558	-19.608511	-0.9175778
7839202767000	-0.5374983	-19.311033	-1.851915
7839215066000	0.9600749	-15.848418	-1.7298107
7839222787000	1.2006922	-12.208633	-1.0313023
7839234536000	0.82899237	-9.828198	-0.24241292
7839242806000	0.7332243	-8.303091	-0.038905777
7839253487000	1.1073183	-7.2113357	-0.5518635
7839262826000	1.8770541	-6.278794	-1.4933833
7839273476000	3.6421793	-5.2995653	-2.7162218
7839282845000	6.6391215	-4.396951	-3.8295257
7839296029000	9.829993	-3.7307649	-4.2640734
7839302834000	10.423157	-4.285621	-4.0384197
7839313576000	8.403648	-6.0704985	-3.4009635
7839322884000	6.8647747	-7.4567413	-2.9119477
7839333565000	5.5150437	-8.619126	-1.8860323
7839342904000	3.8977604	-9.710283	-0.6871359
7839354531000	2.235586	-10.410587	0.6721721
7839362923000	0.98102415	-10.225636	1.8590976
7839373574000	0.5446809	-9.201516	2.132635
7839382943000	0.7170634	-7.752425	1.4311341
7839395211000	0.9576807	-6.4122705	0.65660983
7839402932000	1.1713632	-5.3713913	-0.05746084
7839414498000	1.4197617	-4.699818	-0.94570965
7839422982000	1.4951789	-4.5274353	-1.9812019
7839433632000	1.365892	-4.9536033	-2.8987796
7839443001000	1.3293805	-5.787384	-3.3566709
7839453652000	1.6579847	-6.803124	-2.9622262
7839463021000	2.469619	-7.8116817	-2.2720973
7839476174000	3.5978866	-8.874108	-1.769315
7839483040000	4.817134	-10.12448	-2.142212
7839493691000	5.9861026	-11.699266	-3.164536
7839503060000	6.7372837	-13.41112	-4.4837413
7839513680000	6.6965823	-14.647726	-5.792771
7839523049000	6.241085	-14.513651	-6.199187
7839538888000	5.9843073	-12.851476	-5.412093
7839543069000	6.245275	-10.374675	-4.019266
7839553719000	6.8581905	-7.9248075	-2.8455088
7839563149000	6.9707184	-6.2524576	-2.2661119
7839575356000	6.307524	-5.6203885	-2.0087352
7839583138000	5.4527946	-5.6096144	-1.6047137
7839594704000	4.960786	-5.8598084	-1.4101849
7839603158000	4.867412	-7.1981673	-2.1284454
7839613808000	4.994903	-10.337564	-6.0890536
7839623177000	4.6525326	-14.423269	-6.4110737
7839633858000	4.0617633	-17.707516	-1.2731167
7839643197000	2.570774	-19.608511	2.255338
7839656228000	0.7104794	-19.608511	3.520075
7839663216000	-0.825401	-19.608511	2.5300727
7839673897000	-1.6166847	-15.967529	-0.10654198
7839683205000	-1.7202339	-9.8515415	-1.2192472
7839693886000	-1.5616181	-5.7640405	-0.7170634
7839703225000	-1.4012065	-3.447052	0.3669114
7839714821000	-1.1426327	-2.268506	1.2605472
7839723244000	-0.65421563	-1.714847	1.3581109
7839733956000	0.08619126	-1.6142905	0.7212533
7839743264000	0.78410107	-2.333748	0.52612585
7839755562000	1.0516531	-3.918111	1.4173675
7839763283000	1.0265139	-5.6096144	2.8125885
7839775002000	0.7224504	-7.404069	4.410718
7839783303000	-0.11492168	-9.547478	6.0890536
7839793984000	-1.435324	-11.911752	7.792528
7839803353000	-2.9700072	-14.05995	9.147048
7839814004000	-4.023456	-15.33965	7.553706
7839823372000	-3.7241807	-14.69561	0.58897364
7839836434000	-2.6342204	-12.703634	-7.7548194
7839843361000	-1.1707647	-10.380061	-10.774507
7839854012000	-0.37588966	-8.99741	-8.245032
7839863381000	-0.1604115	-8.535928	-4.911705
7839874093000	-0.1604115	-8.720282	-1.3724761
7839883401000	-0.01436521	-9.0554695	1.9997569
7839898690000	0.9271546	-9.350554	2.1679497
7839903359000	1.6035166	-9.5798	1.763928
7839914132000	2.1679497	-9.507974	1.532289
7839923470000	2.645593	-9.155427	1.3204023
7839935708000	2.96881	-8.759187	0.98222125
7839943490000	3.031658	-8.437765	0.48961425
7839955178000	2.9149406	-8.202535	0.022146367
7839963509000	2.8550856	-8.176797	-0.14604631
7839974160000	2.7886465	-8.2169	-0.14784196
7839983529000	2.1841104	-8.582615	-0.7170634
7839994179000	1.7878702	-9.455899	-1.6017209
7840003548000	1.6681601	-10.450092	-2.272696
7840016701000	1.7860745	-11.2844715	-2.4690206
7840023568000	2.3870192	-11.939884	-1.6849195
7840034249000	3.1920695	-11.64839	-1.5831659
7840043587000	5.096657	-11.085154	-2.939481
7840054238000	6.8228765	-10.754155	-3.0484173
7840063576000	7.385514	-10.320207	-1.9099745
7840075173000	6.4146647	-10.326192	-0.9295488
7840083596000	5.218761	-10.286089	-0.3669114
7840094246000	4.1539397	-10.295666	-0.28491
7840103615000	3.6002808	-10.224439	-0.6919243
7840116006000	3.4835634	-10.104729	-0.98581254
7840123635000	3.615843	-9.96766	-0.74639237
7840137002000	3.7948096	-9.933543	-0.2160767
7840143654000	3.7726634	-10.025121	-0.037708677
7840154336000	3.7720647	-10.357317	-0.7146692
7840163674000	4.237737	-10.970831	-0.095768064
7840174355000	4.626795	-11.597513	1.0510546
7840183694000	4.50888	-11.385028	0.9828198
7840198586000	4.021062	-10.429741	0.89184016
7840203469000	3.1675289	-9.907207	1.1234791
7840214394000	1.9692309	-10.228628	1.4718355
7840223733000	1.0253168	-10.58716	2.0278888
7840234414000	0.36631286	-10.727819	2.356493
7840243752000	-0.10594343	-11.36348	2.6443958
7840255349000	-0.7410054	-12.486361	1.216853
7840263772000	-2.5761611	-15.139734	-4.611831
7840274422000	-4.578911	-17.809269	-4.0946836
7840283791000	-3.8235402	-17.134104	-2.2056582
7840296120000	-1.4694413	-13.44045	0.42197806
7840303811000	0.0053869537	-10.36031	-0.9127894
7840315590000	0.5770026	-8.620323	-2.878429
7840324013000	2.1853075	-7.788338	-2.2122424
7840334694000	3.0789435	-6.9928646	-1.4730326
7840344033000	3.365649	-6.9006877	-0.5434838
7840354714000	2.9520507	-7.9631147	-0.49559975
7840364235000	1.9776106	-9.164406	-1.9931729
7840377450000	1.5753847	-9.486425	-3.071761
7840384255000	1.7322049	-9.226056	-3.0508115
7840394967000	1.87047	-9.04709	-2.4265234
7840404275000	2.235586	-8.951322	-2.1691468
7840414925000	2.7647045	-8.635287	-2.1188686
7840424447000	3.642778	-8.353969	-0.6865373
7840436104000	4.0252514	-8.373122	0.60693014
7840444466000	2.7299886	-9.147646	-0.85293436
7840455178000	1.5616181	-9.182362	-0.7140707
7840464699000	0.842759	-8.399458	0.3788824
7840476967000	0.048482586	-7.356185	0.66738373
7840484688000	-0.6332663	-6.628946	-0.29029694
7840496316000	-0.4297592	-6.043564	-1.3132197
7840504708000	0.40282443	-5.868787	-1.6136919
7840515572000	1.1294646	-6.477513	-1.7992426
7840524911000	1.5239093	-7.2083426	-1.9734207
7840535531000	1.3030443	-7.8452005	-2.2254105
7840544930000	0.86251116	-8.150461	-2.4235306
7840559914000	0.75836337	-8.513183	-2.4372973
7840564980000	1.1150994	-8.978256	-2.4115596
7840584084000	1.5879543	-9.642049	-2.7419596
7840594735000	2.1086931	-10.26095	-3.0753522
7840604104000	2.9658175	-10.727221	-3.289633
7840615639000	3.684078	-11.2210245	-3.1663318
7840624123000	3.9839516	-11.864467	-2.861071
7840639016000	4.325724	-12.306197	-3.0753522
7840643960000	5.2780175	-11.992557	-2.7724855
7840656380000	6.637326	-10.708067	-2.8018146
7840664162000	7.045537	-9.210494	-2.984971
7840677529000	5.9681463	-8.281544	-2.544438
7840684182000	4.3287168	-7.8972745	-1.3796587
7840694863000	3.1543608	-8.5700445	-3.6044707
7840704201000	1.9405005	-13.036428	-5.5341973
7840714882000	-0.82480246	-18.983027	1.3269863
7840724251000	-1.5352819	-19.608511	3.9151182
7840737313000	-0.6171055	-19.608511	0.82360536
7840744271000	-0.0077811554	-19.608511	-4.5286326
7840754922000	0.5093664	-16.932991	-5.480926
7840764260000	4.4220905	-7.855376	3.9653966
7840774941000	2.967613	-3.447052	1.8710686
7840784279000	0.11731588	-2.6761189	0.58657944
7840795907000	-1.1611878	-2.5079262	-0.5422867
7840804299000	-0.98940384	-2.1721394	0.8882488
7840815041000	-0.60693014	-2.9753942	0.7673417
7840824319000	-0.093972415	-4.234744	0.5482722
7840836617000	-0.15981296	-5.513248	0.4165911
7840844338000	-0.3369839	-6.491279	0.7661445
7840855965000	-0.50397944	-7.4812818	1.3210008
7840864358000	-0.83617496	-8.843582	2.6288335
7840874978000	-1.5239093	-10.383054	4.1299977
7840884377000	-2.5384524	-12.041637	6.7684083
7840895028000	-2.96881	-12.630611	7.60578
7840904458000	-2.7383683	-12.072164	5.9962783
7840917611000	-2.0991163	-10.524911	1.2006922
7840924477000	-1.6938977	-8.806473	-4.836886
7840935067000	-1.6621746	-7.7649946	-7.4202294
7840944466000	-1.9153614	-7.740454	-5.143344
7840955147000	-1.9554642	-8.384495	-0.8523358
7840964455000	-1.4736311	-9.100361	1.7956513
7840977669000	-0.46028528	-9.575011	1.8327614
7840984505000	0.31423897	-9.830592	1.3108255
7840998818000	0.78170687	-9.831191	1.2306197
7841004525000	1.1252748	-9.669582	1.3251907
7841016793000	1.5143325	-9.481039	0.9427169
7841024575000	1.8962077	-9.25359	0.02873042
7841037697000	2.1942859	-9.015367	-1.0779893
7841044564000	2.4271219	-8.829816	-1.9620483
7841055153000	2.6330233	-8.781333	-2.260725
7841064522000	2.777274	-8.949526	-1.8926164
7841075265000	2.9376855	-9.481637	-1.3928268
7841084542000	3.139397	-10.225636	-1.0761937
7841099373000	3.2674868	-10.982801	-0.9343372
7841104622000	3.233968	-11.621455	-0.92535895
7841115273000	2.9215245	-11.999739	-0.90261406
7841124642000	2.3014264	-11.900978	-0.8475474
7841135323000	1.7441759	-11.274895	-1.0684125
7841144662000	1.6801311	-10.548853	-1.6244658
7841157815000	2.1284454	-10.080188	-2.0871453
7841164681000	2.8652608	-9.871892	-2.0290859
7841175332000	3.5685577	-9.683349	-1.4389153
7841184670000	4.0761285	-9.406818	-0.7134721
7841196938000	4.4394484	-9.196728	-0.05865794
7841204690000	4.684854	-9.196129	0.43155485
7841218056000	4.7500963	-9.452907	0.6931214
7841224740000	4.681263	-9.955689	0.6572084
7841235421000	4.5124717	-10.675147	0.4165911
7841245339000	4.345476	-11.366472	0.3597288
7841256020000	4.0617633	-11.596316	0.6326678
7841265359000	3.6062663	-11.3551	1.1288661
7841278359000	3.0538042	-10.978013	1.7549498
7841285378000	2.456451	-10.730812	2.2900538
7841296029000	1.845331	-10.66976	2.3002293
7841305428000	1.0348936	-10.78528	1.8483237
7841316109000	-0.08798691	-11.081563	0.11731588
7841325417000	-1.5592239	-11.791444	-3.6858735
7841336983000	-3.1531637	-13.240534	-6.815694
7841345437000	-3.8283286	-14.550162	-4.9661727
7841356118000	-3.4985273	-14.862007	-1.4173675
7841365487000	-2.8377275	-14.539987	0.8678981
7841377755000	-1.9063832	-13.620015	1.2156559
7841385476000	-0.88765025	-12.391789	0.30466217
7841397225000	-0.050278235	-11.066599	-0.51954174
7841405495000	0.533907	-9.7863	-0.7356185
7841416146000	1.0444705	-8.958505	-0.8206126
7841425515000	1.3617022	-8.592192	-1.01574
7841436165000	1.5885528	-8.43178	-1.1959038
7841444924000	1.963844	-8.370728	-1.3910311
7841458138000	2.4821887	-8.461109	-1.6585833
7841464913000	3.2273839	-8.671799	-1.8650831
7841475594000	4.11264	-8.834604	-2.1703439
7841484963000	4.9176903	-8.986037	-2.204461
7841495614000	5.2720323	-9.154829	-2.2481554
7841504983000	4.341286	-9.439739	-1.869273
7841518288000	3.064578	-9.5732155	-1.2952632
7841525002000	2.1739352	-9.327211	-0.94211835
7841535653000	1.3934253	-8.973468	-0.52852005
7841545052000	0.7260417	-8.574833	0.011372458
7841557259000	0.19692309	-8.03554	0.6619968
7841565041000	-0.14425065	-7.5692687	1.0348936
7841576607000	-0.24301147	-7.2352777	0.89064306
7841585061000	-0.2208651	-7.0730705	0.39444473
7841595742000	-0.17417817	-7.101801	-0.31423897
7841605080000	-0.047285482	-7.282563	-1.1587936
7841615731000	-0.06464344	-7.6524673	-1.9267339
7841625100000	0.12509704	-8.01459	-2.3864205
7841638253000	0.7978677	-8.241441	-2.5755625
7841645119000	1.7776948	-8.408437	-2.574964
7841655800000	2.859874	-8.829816	-2.473809
7841665139000	3.918111	-9.48882	-2.5378537
7841675789000	4.932654	-10.178948	-2.777274
7841685158000	5.825093	-10.820595	-2.973
7841696694000	6.4427967	-11.428721	-3.3213563
7841705178000	6.4086795	-11.939884	-4.171298
7841720070000	6.041768	-12.075755	-4.8865657
7841724984000	5.9801173	-11.510124	-4.691438
7841737496000	6.3703723	-10.216658	-3.9366663
7841745217000	6.202778	-8.905831	-3.0825348
7841756936000	5.3103395	-8.07265	-2.172738
7841765236000	4.329315	-7.6015906	-1.1408371
7841775857000	3.4985273	-7.85777	-0.545878
7841785256000	3.1950622	-9.980229	-0.5470751
7841795937000	2.9532478	-14.177265	-3.1124623
7841805276000	1.8195933	-18.84955	-1.2916719
7841818368000	0.26755205	-19.608511	1.204882
7841825326000	-1.0313023	-19.608511	1.4682442
7841835946000	-1.1300632	-19.283499	-0.5057751
7841845345000	-0.41479546	-13.379397	-2.5791538
7841855965000	-0.06584055	-7.2568254	-3.1669302
7841865334000	-0.05327099	-3.5098996	-2.4420857
7841876931000	-0.19093758	-1.6514006	-0.8655039
7841885354000	-0.24839842	-0.94331545	0.84096336
7841896035000	0.023942016	-0.7308301	1.8303672
7841905373000	0.5883751	-0.9223662	2.0021513
7841917672000	1.0672154	-1.7190368	1.822586
7841925393000	1.1001357	-3.5488055	2.086547
7841936989000	0.96785605	-5.8508306	2.818574
7841945412000	0.7966706	-8.275558	3.8750155
7841956032000	0.23942018	-10.813412	4.935048
7841965432000	-0.7835025	-13.104663	5.7802014
7841976052000	-1.9428947	-14.774619	6.051345
7841985451000	-2.9287071	-15.318701	4.799177
7841998513000	-3.3093853	-14.078505	0.62967503
7842005471000	-3.0430303	-11.622053	-5.09546
7842016121000	-2.5049336	-9.415198	-7.7183075
7842025490000	-1.922544	-8.14687	-6.7085533
7842036141000	-1.3976152	-7.8505874	-3.70802
7842045479000	-0.635062	-8.186973	-0.4381389
7842060738000	0.42796355	-8.811261	0.87567925
7842065407000	1.0534488	-9.500193	1.2521675
7842076150000	1.407192	-9.949704	1.6059108
7842085549000	1.5957354	-10.143036	1.8740613
7842097756000	1.8034325	-10.094553	1.9045875
7842105569000	1.8782512	-9.837775	1.7256209
7842117318000	1.7495629	-9.48463	1.4640543
7842125558000	1.4460979	-9.229648	1.0755951
7842136208000	1.0576386	-9.045893	0.56563014
7842145577000	0.8912416	-8.93935	-0.20350714
7842156289000	0.9283517	-9.051279	-1.1174936
7842165658000	1.1324574	-9.534309	-1.9327193
7842178841000	1.4664485	-10.23222	-2.5773582
7842185677000	1.9309237	-10.856507	-2.7611132
7842196267000	2.4528596	-11.321581	-2.706645
7842205697000	2.9460652	-11.612476	-2.2224178
7842216378000	3.354875	-11.454459	-1.377863
7842225655000	3.6481647	-10.771513	-0.6943185
7842237343000	3.8726213	-9.8994255	-0.46866497
7842245705000	4.2102036	-9.180567	-0.6206968
7842256356000	4.602853	-8.780735	-0.9068039
7842265725000	4.8799815	-8.671799	-1.0414777
7842277932000	4.947618	-8.754398	-0.93014735
7842285714000	4.8745947	-8.919	-0.700304
7842299203000	4.905121	-9.115923	-0.40342298
7842305733000	5.0236335	-9.387066	-0.15322891
7842316414000	5.120599	-9.789292	-0.088585466
7842325783000	5.203199	-10.359711	-0.14544775
7842336434000	5.1798553	-10.989386	-0.3477578
7842345772000	4.9494133	-11.396998	-0.3716998
7842358864000	4.4681787	-11.294048	-0.0035913025
7842365792000	3.8373067	-10.88823	0.74639237
7842376473000	3.1429882	-10.438121	1.5490485
7842385811000	2.532467	-10.192716	1.7483658
7842396462000	1.858499	-10.218452	1.7513585
7842405861000	1.1749545	-10.442909	1.7615339
7842419015000	0.54049104	-10.936713	1.0384849
7842425850000	-0.48482585	-12.20145	-2.6461914
7842436501000	-1.9075803	-14.400525	-6.4924765
7842445870000	-2.4349031	-15.824476	-4.583699
7842458138000	-2.1523874	-16.02499	-1.3946224
7842465890000	-1.6059108	-15.641319	0.06823475
7842477547000	-0.7326257	-14.690822	-0.074220255
7842485909000	0.12509704	-13.35785	-0.581791
7842496590000	0.7236475	-11.921927	-0.70509243
7842505929000	1.0953473	-10.302849	-0.5129577
7842516610000	1.4460979	-8.985439	-0.60693014
7842525948000	1.5251064	-8.288128	-0.9331401
7842539162000	1.5298948	-7.6788034	-1.158195
7842545968000	1.7076644	-7.1622543	-1.3317747
7842556618000	2.1015105	-6.791153	-1.5221137
7842565987000	2.8042088	-6.5241995	-1.8375498
7842576638000	3.7894228	-6.439804	-2.2816741
7842586007000	4.923676	-6.5505357	-2.5941176
7842597664000	5.591658	-7.00304	-2.393603
7842606026000	4.663306	-7.93618	-1.6166847
7842616707000	3.6595373	-8.785523	-1.0773908
7842626046000	2.4540567	-9.463082	-0.635062
7842638283000	1.2617443	-9.904813	0.08140286
7842646065000	0.3573346	-9.907207	0.9935937
7842657815000	-0.029927522	-9.249998	1.6011224
7842666085000	-0.046686932	-8.292916	1.3401544
7842676766000	-0.031124622	-7.454347	0.45908818
7842686104000	0.017357962	-7.017405	-0.4758476
7842696786000	0.031124622	-6.993463	-1.2174516
7842706124000	0.025139118	-7.2963295	-1.8549078
7842719369000	-0.08020575	-7.89907	-2.180519
7842726143000	0.16879122	-8.511387	-2.2996306
7842736825000	1.0582372	-8.8777	-2.4660277
7842746163000	2.315193	-9.232041	-2.7341783
7842756814000	3.594894	-9.772532	-3.1124623
7842766183000	4.8159366	-10.429143	-3.514688
7842777749000	5.7825956	-11.149199	-3.5727475
7842786202000	6.4601545	-11.873445	-4.0037036
7842801064000	6.554127	-12.603078	-5.058948
7842806008000	6.245275	-12.93647	-5.979519
7842818459000	6.0621185	-12.373833	-5.614403
7842826241000	6.417658	-10.825981	-4.4783545
7842838051000	6.621165	-9.015965	-3.4464533
7842846291000	6.271013	-7.5602903	-2.4666264
7842856942000	5.5826797	-6.602011	-1.435324
7842866311000	4.7602715	-6.041768	-0.55006784
7842876900000	4.147356	-6.5241995	-0.2112883
7842886300000	3.7576995	-9.536704	-2.5079262
7842899361000	3.2172086	-14.329896	-3.103484
7842906350000	2.3535004	-18.850746	0.89662856
7842917031000	1.0193313	-19.608511	3.0232782
7842926369000	-0.3238158	-19.608511	2.6617537
7842937020000	-0.84335756	-19.182344	-0.22565351
7842946358000	-0.5009867	-13.054385	-2.6402059
7842957924000	-0.24720132	-7.0102224	-3.0759506
7842966378000	-0.24779987	-3.4715924	-2.0518308
7842977089000	-0.30226797	-1.8219875	-0.2801216
7842986397000	-0.17118542	-1.0755951	1.2348095
7842998696000	0.2681506	-0.79846627	1.9542671
7843006447000	0.8194155	-0.9223662	1.9572599
7843018044000	1.2449849	-1.6711528	1.9129672
7843026436000	1.2054806	-3.5553896	2.5731683
7843037118000	1.1905168	-5.519832	3.6966474
7843046456000	1.1378443	-7.4806833	4.5040917
7843057076000	0.6697779	-9.7563715	5.133168
7843066475000	-0.18016368	-12.196662	5.6898203
7843079537000	-1.2174516	-14.386758	5.429451
7843086495000	-2.1978772	-15.576077	2.8736405
7843097176000	-2.6378117	-14.851831	-3.0244753
7843106515000	-2.1583729	-12.692262	-7.961319
7843117196000	-1.2802993	-10.750565	-8.215703
7843126534000	-0.4914099	-9.496002	-5.1601033
7843138253000	0.25438392	-8.807071	-1.5047557
7843146554000	1.1360487	-8.5473	0.15143326
7843161019000	1.614889	-8.555679	0.7553706
7843166756000	1.7501614	-8.724471	1.3748703
7843178963000	1.8058267	-8.969278	1.5352819
7843186806000	1.9027919	-9.150639	1.3976152
7843198525000	1.9590555	-9.287108	1.228824
7843206978000	1.9315223	-9.457695	0.9564836
7843217629000	1.7992426	-9.46009	0.7020996
7843226998000	1.7579426	-9.226655	0.30226797
7843237649000	1.8668787	-8.899846	-0.45729253
7843247048000	2.0260932	-8.653243	-1.2826935
7843260171000	2.191293	-8.594585	-1.8261774
7843267190000	2.3415294	-8.844181	-2.0015526
7843277901000	2.4277205	-9.38168	-1.8489223
7843287209000	2.5025394	-9.92636	-1.5275006
7843297890000	2.5701754	-10.354922	-1.1761516
7843307320000	2.653374	-10.637438	-0.760159
7843320443000	2.8419175	-10.721834	-0.6607997
7843327492000	3.2321723	-10.582372	-1.1162965
7843338173000	3.721188	-10.35193	-1.7603368
7843347481000	4.1701007	-10.148422	-2.0979192
7843359719000	4.56694	-9.876082	-1.9357121
7843367501000	4.9063177	-9.558251	-1.3096284
7843381081000	5.16549	-9.381081	-0.5770026
7843387704000	5.4043117	-9.366715	0.1352724
7843399117000	5.6126075	-9.552266	0.4381389
7843408364000	5.743091	-9.884461	0.16160862
7843419015000	5.770026	-10.283695	-0.23044191
7843440346000	5.7574563	-10.706271	-0.39504328
7843447518000	5.7179523	-11.136629	-0.35913026
7843458138000	5.507861	-11.318588	0.032920275
7843467476000	5.0278234	-11.137826	0.7116765
7843478158000	4.3993454	-10.82658	1.2437878
7843487557000	3.6834793	-10.58716	1.3335704
7843500832000	2.9173348	-10.436325	1.2868834
7843507516000	2.0745757	-10.329783	1.4359225
7843518166000	1.2395979	-10.123882	1.3587095
7843527535000	0.06404489	-10.2657385	-0.5686229
7843539834000	-1.7238252	-11.792042	-5.039196
7843547555000	-3.0113072	-13.8402815	-5.209783
7843559182000	-3.007716	-15.045762	-2.0805612
7843567574000	-2.4540567	-15.430032	0.5117606
7843578255000	-1.4772224	-14.877569	1.1917139
7843587594000	-0.4177882	-13.737929	0.6871359
7843598275000	0.4902128	-12.45763	-0.25019407
7843607613000	1.1851299	-11.109096	-0.8888474
7843620614000	1.6801311	-9.721058	-1.2198458
7843627663000	2.059612	-8.652046	-1.3742718
7843638253000	2.1883004	-8.173206	-1.5460558
7843647652000	2.1697452	-7.8715367	-1.6214731
7843658272000	2.2469583	-7.683592	-1.5610195
7843667702000	2.4019828	-7.6680293	-1.4969746
7843679391000	2.8443117	-7.7691846	-1.5286977
7843687691000	3.5093012	-7.9529395	-1.7753005
7843698433000	4.267066	-8.226477	-2.0350714
7843707711000	4.981137	-8.561666	-2.15538
7843719979000	4.317344	-9.206305	-1.6687586
7843727730000	3.3566709	-9.697116	-1.0342951
7843740914000	2.5731683	-9.755175	-0.5805939
7843747140000	1.7735049	-9.448717	-0.061052144
7843757790000	1.0696096	-8.92319	0.55485624
7843767129000	0.4902128	-8.172607	0.89184016
7843777779000	0.14844051	-7.4549456	0.6410475
7843787179000	0.18614918	-6.905476	-0.10354923
7843800271000	0.427365	-6.651691	-0.79966336
7843807259000	0.52073884	-6.7606273	-1.1168951
7843818032000	0.46746787	-7.150882	-1.234211
7843827279000	0.18555063	-7.711125	-1.376666
7843837960000	0.3196259	-8.069656	-1.6849195
7843847268000	1.0959458	-8.115746	-2.0506337
7843860604000	2.0428526	-8.214506	-2.3385365
7843867257000	3.003526	-8.552687	-2.6964695
7843877877000	4.0659533	-9.019556	-3.193865
7843887276000	5.221754	-9.633669	-3.4751837
7843899514000	6.2123547	-10.220847	-3.8007953
7843907326000	6.8785415	-10.750565	-4.1222167
7843918892000	6.893505	-11.302427	-4.7189717
7843927315000	6.3087215	-11.985972	-5.542577
7843942269000	6.0519433	-12.303204	-5.8478374
7843947182000	6.8324533	-11.620258	-4.8626237
7843958047000	7.589619	-10.09994	-3.46022
7843967385000	7.504027	-8.496424	-2.1158757
7843980538000	6.573281	-7.307702	-0.6721721
7843987435000	5.125387	-6.693589	0.24001873
7843998055000	3.6487634	-6.992266	-0.023942016
7844007393000	2.8921957	-9.149442	-1.7872716
7844018075000	2.5210943	-13.06875	-5.020641
7844027444000	2.4426842	-17.747618	-2.6318262
7844038979000	1.9596541	-19.608511	1.3910311
7844047433000	1.067814	-19.608511	2.8886044
7844058114000	0.27593175	-19.608511	0.97025025
7844067483000	-0.017956512	-16.455349	-3.0131028
7844079720000	0.1921347	-9.833585	-2.6378117
7844087472000	0.109534726	-5.430648	-1.3916297
7844099099000	0.015562311	-2.8682537	0.23523031
7844107491000	0.016759412	-1.6519991	1.6843209
7844118172000	0.3705027	-1.0809821	2.384625
7844127511000	0.99898064	-1.0067618	2.367267
7844138222000	1.7435774	-1.436521	2.207454
7844147530000	2.4091654	-2.712032	2.5737667
7844160622000	2.7389667	-4.6459484	3.5003228
7844167550000	2.8341362	-6.3524156	4.0683475
7844178170000	2.7407625	-7.961319	4.134786
7844187569000	2.349909	-9.825205	4.1958385
7844198220000	1.4987702	-11.739968	4.253299
7844207589000	0.46627077	-13.612234	4.345476
7844219155000	-0.7404069	-15.184027	3.3572693
7844227608000	-1.8010383	-15.526997	-0.25498247
7844238259000	-2.256535	-14.444219	-5.422867
7844247628000	-2.135628	-12.656349	-7.811083
7844259896000	-1.6986861	-10.884041	-6.06571
7844267647000	-1.0259154	-9.561244	-2.533664
7844283028000	-0.40880993	-8.81964	0.26515785
7844287667000	-0.2184709	-8.607155	1.5215151
7844298287000	0.12689269	-8.536526	1.4664485
7844307717000	0.48123455	-8.558673	1.4251486
7844318368000	0.8559271	-8.610746	1.3796587
7844327736000	1.0749966	-8.823232	1.3413515
7844340890000	1.1941081	-9.138668	1.1779473
7844347725000	1.4395138	-9.376891	0.7380127
7844358376000	1.8525136	-9.511565	0.20111294
7844367745000	2.2744915	-9.674371	-0.4405331
7844378365000	2.6042929	-9.925761	-1.1827357
7844387795000	2.8018146	-10.250774	-1.6478093
7844401131000	3.004723	-10.511743	-1.8806454
7844407815000	3.245939	-10.47164	-1.9321208
7844418465000	3.5392287	-10.26933	-1.6903064
7844427834000	3.638588	-10.157999	-1.1498153
7844440133000	3.5895069	-10.175956	-0.6793547
7844447915000	3.5488055	-10.075998	-0.5686229
7844461190000	3.3800142	-9.834782	-0.5674258
7844467873000	3.1136594	-9.530719	-0.59017074
7844478524000	2.8173769	-9.264363	-0.670975
7844487893000	2.5803509	-9.025542	-0.7428011
7844498543000	2.428319	-8.854955	-0.7577648
7844507943000	2.4768016	-8.724471	-0.8038532
7844522805000	2.7497406	-8.678981	-0.86011696
7844527688000	3.1441853	-8.663419	-0.866701
7844538613000	3.5410242	-8.602965	-0.84335756
7844547982000	4.052785	-8.497022	-0.866701
7844558571000	4.6166196	-8.470686	-0.80086046
7844567940000	5.109825	-8.495226	-0.82599956
7844581338000	5.436035	-8.549694	-0.7493851
7844587960000	5.583877	-8.623316	-0.59017074
7844598580000	5.543774	-8.596381	-0.3585317
7844607979000	5.3863554	-8.503007	-0.1340753
7844620278000	5.2462945	-8.430583	0.24361002
7844627968000	5.3636103	-8.582615	0.7398083
7844641396000	5.831078	-9.062054	1.353921
7844648018000	6.5349736	-9.811439	2.1272483
7844658669000	7.1448965	-10.747571	2.5629928
7844668038000	7.1275387	-11.877635	2.3361423
7844682503000	6.1740475	-13.190256	1.7495629
7844688027000	4.4322658	-14.11322	1.3084313
7844701089000	2.4019828	-14.31972	1.3096284
7844708077000	0.6428431	-13.92767	0.6871359
7844718758000	-1.4311341	-13.372215	-2.4666264
7844728097000	-3.489549	-13.2513075	-5.207389
7844738747000	-4.3783965	-13.589489	-3.4715924
7844748116000	-4.1222167	-14.022241	-0.97862995
7844759713000	-3.2249897	-13.910911	-0.034715924
7844768166000	-2.0500352	-13.387178	-0.19572599
7844778786000	-0.8571242	-12.567763	-0.6877344
7844788125000	0.08080431	-11.620258	-1.0630256
7844800362000	0.61530983	-10.703279	-1.0989386
7844808175000	0.98820674	-9.913791	-0.97862995
7844819893000	1.340753	-9.345168	-0.83018947
7844828194000	1.7196354	-9.196728	-0.8050503
7844838875000	1.8273745	-9.247005	-1.0761937
7844848214000	1.8100165	-9.291298	-1.3802572
7844858864000	1.8297687	-9.173983	-1.489792
7844868233000	1.9033904	-8.920795	-1.429937
7844881417000	2.0572178	-8.619724	-1.4341269
7844888253000	2.397793	-8.259995	-1.5753847
7844898903000	2.9939492	-7.9343843	-1.6226702
7844908272000	3.876811	-7.904457	-1.8207904
7844918923000	4.3221326	-8.277354	-1.9961656
7844928292000	3.5535939	-9.239823	-1.4215573
7844941628000	2.8880057	-10.060435	-0.9552865
7844948311000	2.2559366	-10.647614	-0.37708676
7844958932000	1.1647792	-11.043256	0.56682724
7844968331000	0.094570965	-10.594941	1.1641805
7844980569000	-0.10235212	-9.194333	0.50876784
7844988320000	0.047884032	-7.697957	-0.7745243
7844999947000	0.21188685	-6.616975	-1.9135658
7845008370000	0.055066638	-6.2315083	-2.574964
7845019021000	-0.22924481	-6.547543	-2.7623103
7845028390000	0.091578215	-7.0156097	-2.7084408
7845039071000	0.79846627	-7.219715	-2.5450363
7845048379000	1.3874398	-7.4735007	-2.2176294
7845061593000	1.9057846	-7.9607205	-1.8561049
7845068398000	2.4073699	-8.774749	-1.5622166
7845079049000	3.032855	-9.657611	-1.6334441
7845088418000	3.816956	-10.414179	-2.1212628
7845099099000	4.6261964	-10.882844	-2.7042508
7845108437000	5.3516393	-10.924144	-3.0903158
7845120064000	5.8023477	-10.487202	-3.2453403
7845128457000	5.910087	-9.736021	-3.0723593
7845139168000	6.045359	-8.817246	-2.4390929
7845148476000	6.341043	-7.8344264	-1.8363527
7845164712000	6.4828997	-7.001843	-1.5119383
7845168709000	6.273407	-6.518214	-1.1875241
7845180459000	5.769428	-6.509236	-0.80205756
7845188637000	5.2642508	-7.153276	-0.29747957
7845199288000	4.9745526	-8.727464	-1.0223241
7845208565000	5.2462945	-12.120048	-3.7660792
7845219216000	4.876989	-17.32983	-3.6619315
7845228585000	3.2160115	-19.608511	-1.3617022
7845241616000	1.0366893	-19.608511	-0.24720132
7845248574000	-0.623091	-19.608511	-0.777517
7845259347000	-1.2515689	-18.16361	-2.7898436
7845268715000	-1.3096284	-11.754931	-4.140772
7845279397000	-1.2204443	-6.781576	-3.6254199
7845288704000	-0.973243	-3.8367083	-1.7830818
7845300332000	-0.7290344	-2.3259668	0.19752164
7845308663000	-0.492607	-1.7124528	1.6160861
7845319283000	-0.0664391	-1.4460979	2.1284454
7845328652000	0.4333505	-1.5598224	2.2296004
7845340920000	0.64583594	-2.4756045	2.6898856
7845348702000	0.44532153	-4.4753613	3.5356374
7845360421000	0.20949265	-7.0503254	4.256891
7845368722000	-0.39624038	-9.9928	4.9302597
7845379342000	-1.3150153	-12.724584	5.313332
7845388741000	-2.2230163	-14.326304	5.0182467
7845399392000	-2.8778305	-14.916475	3.8025908
7845408761000	-3.3153708	-14.531009	0.2100912
7845421853000	-3.2387564	-12.768876	-5.6922145
7845428780000	-2.4408886	-10.401609	-8.461707
7845439400000	-1.5478514	-8.8088665	-6.3727665
7845448800000	-1.0061632	-8.39886	-2.6623523
7845459450000	-0.4782418	-8.680777	0.5758055
7845468819000	0.7080852	-9.087791	0.9020155
7845484048000	1.3293805	-9.61691	0.52612585
7845488717000	1.4389153	-10.064027	0.9576807
7845499489000	1.3868413	-10.305841	1.3790601
7845508858000	1.3257892	-10.327988	1.5676036
7845521126000	1.2060791	-10.199299	1.6543933
7845528939000	1.0366893	-9.966463	1.6118963
7845540597000	0.79128367	-9.764751	1.417966
7845548897000	0.55964464	-9.615114	1.2042835
7845559487000	0.57999533	-9.485827	0.6931214
7845568917000	0.75357497	-9.545682	-0.15143326
7845579629000	0.9528923	-9.85633	-1.0414777
7845588906000	1.158195	-10.371083	-1.7675194
7845602151000	1.3730747	-10.893019	-2.1499932
7845608956000	1.6771383	-11.234193	-2.183512
7845619637000	2.070386	-11.344326	-1.9931729
7845628975000	2.4049757	-11.077971	-1.4335283
7845639626000	2.6001031	-10.660183	-0.78170687
7845648965000	2.681506	-10.068815	-0.32621
7845660653000	2.6378117	-9.483433	-0.005985504
7845668954000	2.544438	-9.074623	0.25737667
7845679635000	2.5151088	-8.957307	0.33399114
7845689034000	2.617461	-9.083601	0.22864626
7845701333000	2.8616695	-9.375694	0.12210429
7845709023000	3.1112652	-9.663596	0.1352724
7845722390000	3.365649	-9.835979	0.23523031
7845729043000	3.596091	-9.903615	0.30705637
7845739693000	3.8115692	-9.904214	0.34356794
7845749062000	3.9612067	-9.915586	0.3537433
7845759774000	3.9641995	-10.02153	0.24600422
7845769112000	3.7630866	-10.272921	0.13826515
7845783974000	3.5482068	-10.585364	-0.10654198
7845788888000	3.3075895	-10.819996	-0.37828386
7845799752000	3.008913	-10.818799	-0.2861071
7845809121000	2.681506	-10.637438	0.17357962
7845819863000	2.1134815	-10.407595	0.7882909
7845829140000	1.459266	-10.542269	1.2425907
7845842354000	0.7679402	-10.9582615	1.5280992
7845849160000	-0.08559271	-11.278485	1.389834
7845859841000	-1.0923545	-11.101315	0.32680854
7845869179000	-2.2272062	-10.65719	-2.0895395
7845881478000	-3.2758665	-10.472239	-4.92607
7845889199000	-3.9653966	-10.776301	-6.073491
7845904549000	-4.293402	-11.494562	-4.5783124
7845909127000	-4.1371803	-12.077551	-2.5486276
7845919900000	-3.3680432	-12.138004	-1.4838065
7845929238000	-2.2373815	-11.748347	-0.9223662
7845939919000	-1.1019313	-11.200674	-0.36032736
7845949257000	-0.02633622	-10.728417	-0.3321955
7845962502000	0.4309563	-10.6117	-0.65660983
7845969308000	0.66139823	-10.597335	-0.943914
7845979928000	1.079785	-10.407595	-1.2144588
7845989327000	1.8579005	-10.019135	-1.5221137
7845999917000	3.300407	-9.354146	-1.7860745
7846009316000	5.3845596	-8.532935	-2.1146786
7846020943000	6.903082	-8.040926	-3.072958
7846029305000	7.7332716	-7.8039002	-3.7481227
7846039986000	6.7085533	-8.347982	-3.9851487
7846049386000	4.012682	-9.417592	-3.7253778
7846061623000	2.360683	-9.873089	-3.5649664
7846069405000	1.8950106	-9.745598	-3.104681
7846082772000	1.8471266	-9.43914	-1.9003977
7846089577000	1.9243397	-9.082404	-0.39324763
7846100289000	1.9123687	-8.623316	0.75836337
7846109597000	1.7992426	-8.033145	1.0402806
7846120278000	1.1641805	-7.6363063	0.6991069
7846129769000	0.76315176	-7.422025	-0.25558102
7846142800000	0.7422025	-7.2747817	-1.3581109
7846149819000	1.0097545	-7.157466	-2.1535845
7846160500000	1.3814543	-7.1993647	-2.8149827
7846169991000	1.4383167	-7.590218	-3.4213142
7846180703000	1.3215994	-8.050503	-3.5140896
7846190072000	1.5741876	-8.255207	-2.8963854
7846203805000	1.982399	-8.336611	-2.0548236
7846210671000	2.4498668	-8.4347725	-1.4317327
7846221444000	2.9712043	-8.585009	-1.2395979
7846230813000	3.5368345	-8.806473	-1.34195
7846243081000	4.2700586	-8.972271	-1.4323312
7846250863000	5.1613	-9.025542	-1.5729905
7846264199000	6.0477533	-9.065046	-2.107496
7846271035000	6.8121023	-9.109938	-2.8886044
7846281685000	7.187992	-9.150041	-3.3093853
7846291054000	6.9078703	-9.205706	-2.9388826
7846305276000	6.1123967	-9.223662	-1.9590555
7846324715000	5.3037553	-9.126697	-0.82779527
7846329506000	4.7925935	-8.911219	-0.45250413
7846340310000	4.4322658	-8.603564	-1.0055647
7846349648000	3.9312792	-8.406641	-1.8058267
7846360299000	3.271078	-8.919599	-3.3973722
7846369668000	2.9221232	-11.492168	-6.5726824
7846381173000	2.5360582	-15.881338	-7.291541
7846389687000	2.110489	-19.344551	-3.8594532
7846400399000	1.5688007	-19.608511	-1.352724
7846409768000	0.95109665	-19.608511	0.14604631
7846422036000	0.3393781	-17.612946	0.17238252
7846429726000	-0.36391866	-13.252505	-0.31364042
7846441445000	-0.9792285	-9.672575	0.2645593
7846449746000	-1.3503298	-7.1167645	1.555034
7846460396000	-1.5939398	-5.403115	2.6563668
7846469796000	-1.6663644	-4.345476	3.2435448
7846480446000	-1.3946224	-3.8019924	3.4434607
7846489785000	-0.9139865	-3.8726213	3.2357635
7846504220000	-0.47524905	-4.6962266	2.7790697
7846510171000	-0.16579847	-5.8639984	2.1733365
7846520455000	-0.06404489	-6.9808936	1.2210429
7846529824000	-0.25737667	-8.1402855	0.089782566
7846540475000	-0.60333884	-9.5253315	-0.88286185
7846549843000	-1.055843	-11.052234	-1.2012907
7846561410000	-1.5598224	-12.546814	-0.29388827
7846569863000	-2.0254946	-13.500903	1.2042835
7846580483000	-1.8273745	-13.20941	1.9578584
7846589882000	-0.61650693	-11.691485	0.84934306
7846602151000	0.8655039	-10.043077	-1.4185646
7846609902000	1.6921021	-9.029732	-2.4768016
7846621560000	2.0015526	-8.793304	-2.0338743
7846629891000	2.0548236	-8.974665	-1.0301052
7846640603000	2.1033063	-9.227852	-0.24121583
7846649941000	2.3612814	-9.302073	0.08379706
7846660622000	2.7736826	-9.211691	0.15682021
7846669961000	3.221997	-8.969876	0.25318682
7846686989000	3.5673606	-8.672397	0.3878607
7846690194000	3.8373067	-8.376713	0.45549688
7846700631000	3.958214	-8.173206	0.40521863
7846710061000	3.9510314	-8.130709	0.12569559
7846720681000	3.7942111	-8.352771	-0.29448682
7846730080000	3.5344403	-8.722675	-0.5686229
7846743325000	3.1992521	-9.221268	-0.842759
7846750069000	2.735974	-9.801263	-1.1534066
7846760659000	2.2637177	-10.381259	-1.472434
7846770089000	1.821389	-10.997167	-1.822586
7846782296000	1.5286977	-11.503541	-2.2122424
7846790108000	1.5233108	-11.713034	-2.4648306
7846803292000	1.8291701	-11.340137	-2.3181858
7846810097000	2.3774424	-10.626065	-1.9686323
7846820748000	2.9149406	-9.976639	-1.4915876
7846830117000	3.4237084	-9.36492	-0.82001406
7846840737000	3.9240966	-8.98903	-0.19812019
7846850106000	4.4047327	-8.891466	0.1376666
7846864937000	4.7644615	-8.945934	0.219668
7846870156000	4.8799815	-9.085996	0.25617957
7846880837000	4.768651	-9.2308445	0.21547815
7846890145000	4.64535	-9.377489	0.15083471
7846900826000	4.569334	-9.503185	-0.035314474
7846910348000	4.4837413	-9.643246	-0.10055647
7846923501000	4.4382515	-9.922769	-0.04249708
7846930184000	4.5633483	-10.322002	-0.06284779
7846941048000	4.671686	-10.696096	-0.717662
7846950326000	4.3041763	-10.840945	-1.2641385
7846962563000	3.5966895	-10.822391	-0.6278794
7846970284000	2.9101522	-10.729016	0.36152446
7846984383000	2.2619221	-10.486005	1.270124
7846990365000	1.5352819	-10.02572	2.1218612
7847000924000	0.7811083	-9.560646	2.9580362
7847010323000	0.047884032	-9.784504	3.74094
7847020974000	-0.8265981	-11.398794	3.5835214
7847030282000	-2.5019407	-14.86081	-0.9247604
7847043404000	-6.321291	-19.303251	-13.071144
7847050332000	-6.8557963	-19.608511	-9.364322
7847061043000	-4.586692	-18.681356	-4.4155064
7847070321000	-2.6060886	-14.800955	-0.9995792
7847081002000	-1.602918	-11.422138	1.9141643
7847090371000	-0.93732995	-8.811261	3.4009635
7847101906000	-0.20171149	-7.0305734	3.098097
7847110360000	0.7380127	-6.283582	1.2904748
7847121071000	1.3628993	-6.7091517	-0.6051345
7847130379000	1.8459295	-7.418434	-1.9835961
7847142678000	2.8868086	-7.9116397	-3.12982
7847150399000	4.1922474	-8.400655	-4.1820717
7847162118000	5.0182467	-9.076419	-4.71957
7847170418000	3.879804	-10.207081	-3.9294837
7847181130000	1.9201498	-11.063606	-2.566584
7847190438000	0.79367787	-11.047445	-1.5891514
7847201119000	0.19871874	-10.481216	-0.7757214
7847210457000	0.10474633	-9.595362	-0.22266077
7847223610000	0.19393034	-8.730456	0.17118542
7847230507000	0.11791443	-8.114548	0.52732295
7847241128000	-0.17417817	-7.792528	0.6410475
7847250527000	-0.41000703	-7.5201874	0.4285621
7847261178000	-0.350152	-7.0712748	-0.27234045
7847270516000	-0.0053869537	-6.5152216	-1.471237
7847282082000	0.49919105	-6.3727665	-2.598906
7847290536000	0.7098808	-6.95755	-3.0490158
7847301217000	1.168969	-7.5046253	-2.8933928
7847310555000	1.7459716	-7.7051396	-2.6629508
7847322823000	1.8968062	-7.9427643	-2.6402059
7847330575000	1.8788497	-8.328829	-2.7485435
7847342293000	2.2050598	-8.678981	-2.7982233
7847350594000	2.9777884	-8.833407	-2.907758
7847361214000	3.9695864	-8.966286	-3.2154129
7847370614000	4.961983	-9.215282	-3.4572272
7847381234000	5.7885814	-9.698313	-3.3255463
7847390633000	6.445191	-10.366295	-3.478775
7847403664000	6.7522473	-11.007941	-4.1305966
7847410653000	6.545149	-11.550227	-4.602853
7847425576000	6.3883286	-11.6507845	-4.832696
7847430489000	6.4978633	-11.246762	-4.9081135
7847441353000	6.2530565	-11.229404	-4.817134
7847450692000	5.1062336	-12.654553	-4.344279
7847462258000	2.544438	-15.482105	-3.7654808
7847470742000	0.090979666	-18.007988	-2.4594438
7847481362000	-1.2455834	-18.811842	-0.66379243
7847490731000	-1.7723078	-17.249025	0.44711718
7847503701000	-1.4885949	-14.076709	0.33758244
7847510781000	-1.0348936	-10.514735	-0.15322891
7847522439000	-0.6715736	-7.4058642	-0.54647654
7847530831000	-0.44891283	-5.080496	-0.78888947
7847541451000	-0.16160862	-3.5613751	-0.7529764
7847550850000	0.29328972	-2.8407204	-0.56682724
7847561471000	0.9648633	-2.879626	-0.338181
7847570809000	1.5005659	-3.9695864	0.053869538
7847583901000	1.590947	-5.9783216	0.80445176
7847590829000	1.5664065	-8.220491	2.0219033
7847601479000	1.407192	-10.314819	3.3865983
7847610848000	1.0181342	-11.954847	4.2419267
7847621468000	0.47046062	-12.6778965	4.088698
7847630868000	-0.08319851	-12.474988	3.1962593
7847642556000	-0.47285482	-11.5155115	1.863886
7847650887000	-0.9816227	-10.443508	-0.06584055
7847661568000	-1.6567876	-9.639654	-2.1853075
7847670907000	-2.2655134	-9.15423	-3.3051953
7847683114000	-2.6282349	-8.95611	-2.6420016
7847690926000	-2.6779146	-8.941146	-1.0103531
7847702675000	-2.2493525	-8.99741	0.3513491
7847710946000	-1.1390414	-8.954913	0.78410107
7847721566000	0.43155485	-9.14585	0.36750996
7847730965000	1.340753	-9.703699	0.11492168
7847745217000	1.7543513	-10.156802	0.33399114
7847750985000	2.010531	-10.514735	0.45010993
7847765603000	2.2122424	-10.627263	0.33279404
7847771004000	2.4648306	-10.38066	0.094570965
7847781808000	2.681506	-9.860519	-0.051475335
7847791024000	2.7234044	-9.178771	0.005985504
7847801858000	2.7252002	-8.488642	0.005985504
7847811074000	2.7700913	-7.915829	-0.0688333
7847824380000	2.8748376	-7.5411367	-0.15682021
7847831063000	2.9358897	-7.474099	-0.23104046
7847841775000	2.8275523	-7.9104424	-0.20590134
7847851113000	2.6581624	-8.579023	-0.29269117
7847863320000	2.4570496	-9.197925	-0.480636
7847871071000	2.2541409	-9.798869	-0.9020155
7847884286000	2.0919337	-10.295067	-1.4239515
7847891121000	1.9033904	-10.727819	-1.8788497
7847901742000	1.7471687	-10.977415	-1.9841946
7847911141000	1.678934	-10.928333	-1.7256209
7847921914000	1.726818	-10.561422	-1.3652935
7847931161000	1.9369092	-10.072407	-1.1127052
7847945870000	2.2756886	-9.670779	-1.0067618
7847951119000	2.6270378	-9.420585	-0.8535329
7847961892000	2.9364884	-9.257181	-0.44651863
7847971230000	3.2160115	-9.264962	0.011372458
7847982186000	3.484162	-9.369708	0.21428105
7847991280000	3.7906199	-9.535507	0.25917232
7848004738000	4.1018662	-9.65821	0.034715924
7848011330000	4.4059296	-9.725247	-0.28431144
7848022103000	4.597466	-9.794081	-0.53570265
7848031350000	4.6680946	-9.924564	-0.7140707
7848043648000	4.5537715	-10.084377	-0.7493851
7848051369000	4.4801497	-10.171766	-0.74399817
7848064675000	4.5322237	-10.373477	-0.8535329
7848071358000	4.5196543	-10.747571	-0.86729956
7848082345000	4.3568487	-10.991181	-0.51714754
7848091378000	3.9456444	-10.9343195	0.38067806
7848102059000	3.232771	-10.884041	1.3694834
7848111367000	2.291251	-11.090541	1.822586
7848124459000	1.1988965	-11.622652	1.5975311
7848131386000	-0.06703765	-12.396578	0.664391
7848145730000	-1.4437037	-12.943054	-1.4993688
7848151345000	-2.8514943	-12.990938	-4.4382515
7848161965000	-4.135385	-13.199234	-5.3923407
7848171425000	-5.0625396	-13.848661	-3.502717
7848182992000	-5.6305637	-14.656704	-1.2533646
7848191414000	-5.2642508	-14.762648	-0.7978677
7848202675000	-4.0162735	-14.05995	-1.1402385
7848211465000	-3.0813377	-12.865841	-0.50996494
7848223702000	-2.2655134	-11.379042	0.52373165
7848231484000	-1.4694413	-9.780912	1.086369
7848243172000	-0.6344634	-8.500613	0.85173726
7848251626000	0.03232172	-7.831434	0.054468088
7848262185000	0.52732295	-7.750031	-0.83258367
7848271584000	1.2982559	-7.542334	-2.011728
7848282113000	3.13401	-7.2969284	-3.74513
7848291573000	5.7143607	-7.253833	-5.5976434
7848304604000	8.010401	-7.518392	-6.356007
7848311593000	6.3787518	-9.272743	-4.695628
7848322243000	3.4422636	-10.677541	-2.677316
7848331582000	2.5635915	-10.614694	-1.7836803
7848342202000	2.693477	-9.949105	-1.6418238
7848351906000	2.3768437	-9.398438	-1.5688007
7848363289000	2.0009542	-8.871116	-1.6585833
7848371621000	1.4143747	-8.479664	-1.3760674
7848382271000	0.8295909	-8.028955	-0.9271546
7848391640000	0.8331822	-7.234679	-0.80086046
7848403908000	0.9756372	-6.6564794	-1.0474633
7848411599000	0.9600749	-6.4978633	-1.5855601
7848423256000	0.8798691	-6.657676	-2.2421699
7848431679000	0.89902276	-6.899491	-2.7371712
7848442299000	1.0869676	-7.055114	-3.0107086
7848451821000	1.2204443	-7.1592617	-3.1346085
7848462319000	1.3772645	-7.3178773	-3.1830912
7848471718000	1.572392	-7.647679	-3.1627405
7848486580000	1.8860323	-8.16363	-3.0322564
7848491494000	2.4636335	-8.727464	-2.8748376
7848502328000	3.241749	-9.226655	-2.9245174
7848511727000	3.9935284	-9.484032	-3.4781766
7848522408000	4.549582	-9.487024	-4.0019083
7848531746000	4.84766	-9.31524	-3.821146
7848545296000	5.00867	-8.996213	-3.0998926
7848551797000	5.2606597	-8.543709	-3.0340521
7848562447000	5.6281695	-8.02297	-3.716998
7848571786000	5.7658362	-7.603386	-3.7720647
7848587868000	5.3384714	-7.5363483	-3.0011318
7848591866000	4.3478703	-7.837419	-1.8501194
7848605141000	3.4620156	-8.424597	-0.6596026
7848611825000	2.8329391	-9.611523	-0.38367084
7848622506000	2.0027497	-12.155362	-3.252523
7848631814000	1.3215994	-16.345215	-3.140594
7848642525000	-0.7990648	-19.607914	-1.5837644
7848652077000	-4.525041	-19.608511	-0.7332243
7848664895000	-6.8342485	-19.608511	-0.55605334
7848671883000	-5.0266266	-19.522919	-1.7950528
7848682595000	-2.497751	-13.779229	-2.3439236
7848691903000	-1.1563994	-7.267599	-1.1204864
7848702584000	-0.7104794	-3.5182793	0.55605334
7848711922000	-0.6757634	-1.6687586	1.7040731
7848723458000	-0.6464345	-0.74998367	2.3181858
7848731942000	-0.4842273	-0.3812766	2.5833437
7848742806000	-0.18914193	-0.5303157	2.8491
7848752114000	-0.10474633	-1.2312182	3.5661635
7848764260000	-0.545878	-3.0400376	4.4819455
7848771950000	-1.1414356	-5.422867	6.18123
7848783669000	-1.6639702	-8.057087	7.840412
7848791970000	-2.0458453	-10.762535	8.173206
7848802651000	-2.2948422	-13.099276	7.069479
7848812020000	-2.3648727	-14.845846	4.321534
7848822640000	-2.7419596	-15.931018	-1.0779893
7848832039000	-2.8856115	-15.420455	-7.1502833
7848845101000	-2.417545	-13.368025	-7.8930845
7848852181000	-1.9859903	-11.66515	-6.5948286
7848862710000	-1.6633717	-10.581175	-4.689044
7848872048000	-1.4263457	-10.109517	-1.5113398
7848886269000	-0.20051439	-9.710283	1.2958617
7848892098000	1.2665327	-9.448118	2.11827
7848903725000	1.9716251	-9.639654	1.9859903
7848912118000	2.2008698	-9.973047	1.9033904
7848922799000	2.2996306	-10.306439	1.8309658
7848932137000	2.328361	-10.56681	1.4616601
7848944375000	2.2373815	-10.7433815	0.49679685
7848952157000	2.0632033	-10.852318	-0.9103952
7848963845000	1.87047	-10.803237	-2.4109612
7848972176000	1.894412	-10.488997	-3.6858735
7848982888000	2.1888988	-10.010756	-4.1503487
7848992409000	2.7252002	-9.522339	-3.751714
7849003090000	3.2561142	-9.129689	-2.8191724
7849012398000	3.6260185	-8.9842415	-1.6956934
7849025521000	3.8474822	-8.97287	-0.64942724
7849032387000	3.810372	-9.083601	0.18674773
7849043252000	3.6176388	-9.300277	0.17417817
7849052590000	3.3614593	-9.503783	-0.5650316
7849063424000	3.0897174	-9.735423	-1.6256629
7849072610000	2.8658595	-10.055647	-2.56419
7849085915000	2.7461493	-10.436325	-2.980781
7849092782000	2.700061	-10.685921	-2.6964695
7849103524000	2.6222494	-10.753557	-1.8255788
7849112862000	2.4887726	-10.65719	-0.8583213
7849125130000	2.2643163	-10.459669	-0.025737667
7849132882000	1.9865888	-10.248979	0.599149
7849144784000	1.7723078	-10.031107	0.9708488
7849153084000	1.8369513	-9.867104	0.9672575
7849163796000	2.0721815	-9.812037	0.6374562
7849173104000	2.349909	-9.861717	0.3812766
7849183755000	2.540248	-9.788095	0.3764882
7849193123000	2.4211364	-9.621698	0.623091
7849206612000	2.023699	-9.537901	0.8631097
7849213326000	1.4826094	-9.694122	1.06123
7849224007000	0.85891986	-10.06283	1.3455414
7849233315000	0.16699557	-10.619482	1.6095021
7849244027000	-0.61890113	-11.388618	1.2707225
7849264016000	-1.6059108	-12.366651	-0.08678981
7849272469000	-2.8921957	-13.628395	-2.4570496
7849283120000	-4.162918	-14.921862	-5.246893
7849292489000	-4.7429137	-15.565903	-5.7682304
7849308510000	-4.815338	-15.186421	-3.447052
7849312600000	-4.280833	-13.897742	-1.2707225
7849324166000	-3.2052376	-12.2080345	0.07182605
7849332558000	-1.9057846	-10.495582	0.45489833
7849343178000	-0.7332243	-9.178771	0.45010993
7849352547000	0.10474633	-8.403049	0.28790274
7849363228000	0.52852005	-8.075044	0.11971009
7849372567000	0.7918822	-8.019978	-0.20649989
7849385720000	1.2395979	-8.051102	-0.50038815
7849392586000	1.9273324	-8.078635	-0.7320272
7849403206000	2.7527335	-8.148665	-1.0265139
7849412636000	3.645172	-8.150461	-1.4036007
7849423256000	5.1918263	-7.9786773	-1.9440918
7849432656000	6.2943563	-7.9595237	-3.0041246
7849444283000	5.9388175	-8.453327	-3.6589386
7849452950000	4.561553	-9.252991	-3.4901476
7849463326000	3.1974564	-9.898827	-3.0454245
7849472664000	1.9656396	-10.452486	-1.8920178
7849484871000	0.7284359	-10.869676	-0.19512744
7849492653000	-0.1933318	-10.91756	1.4083891
7849504464000	-0.35434186	-10.245388	1.79206
7849512704000	0.18974048	-8.954913	0.6596026
7849523324000	0.41958386	-8.162432	-0.6631939
7849532723000	0.41838676	-7.9194207	-1.5370775
7849543343000	0.43873745	-7.916428	-2.1703439
7849553444000	0.46746787	-8.070854	-2.5773582
7849566384000	0.8026561	-8.219893	-2.8712463
7849573403000	1.4999673	-8.300098	-2.896984
7849584115000	2.204461	-8.38629	-2.5312698
7849593423000	2.8688521	-8.57184	-2.066196
7849604073000	3.5314474	-8.792706	-1.762731
7849615395000	4.192846	-8.995016	-2.0536265
7849625252000	4.8602295	-9.197326	-2.7700913
7849633523000	5.4761376	-9.495404	-3.3686419
7849644204000	6.031593	-9.829993	-3.7421372
7849653573000	6.471527	-10.143036	-4.11264
7849665810000	6.664859	-10.335769	-4.685453
7849673562000	6.6852098	-10.207679	-5.2780175
7849685219000	6.467337	-9.665991	-5.019444
7849693612000	5.501277	-9.144054	-4.425682
7849707680000	3.927688	-9.164406	-3.364452
7849713540000	2.4498668	-9.569026	-1.8872294
7849723519000	1.5927427	-9.816227	-0.75836337
7849732888000	1.2336124	-10.368689	-0.6805518
7849745949000	1.3108255	-11.803414	-2.098518
7849753609000	1.436521	-13.936049	-3.0603883
7849763619000	1.4939818	-16.16924	-2.391209
7849772957000	1.2000936	-17.703924	-1.4407109
7849783669000	0.66259533	-17.682377	-0.87089086
7849793007000	0.1604115	-15.236101	-0.98581254
7849804665000	-0.0011971008	-11.370663	-1.7190368
7849812996000	-0.2717419	-7.926005	-1.8668787
7849823647000	-0.5734113	-5.4019175	-1.0085574
7849833016000	-0.6967127	-3.7594953	0.49919105
7849845284000	-0.46806642	-3.0214825	2.0649989
7849852975000	-0.1364695	-3.1465795	3.3399115
7849864663000	0.02932897	-4.1461587	4.1341877
7849873025000	-0.021547815	-5.811326	4.204817
7849883736000	-0.3716998	-7.5974007	3.7499185
7849893014000	-0.81522566	-9.150639	3.141791
7849903664000	-1.1994951	-10.393828	2.420538
7849913064000	-1.602918	-11.441292	1.3365631
7849926095000	-2.1051018	-12.365453	-0.26994625
7849933083000	-2.6042929	-13.003508	-2.0410569
7849943703000	-2.5504234	-12.787432	-2.9412768
7849953103000	-1.5442601	-11.516708	-2.48578
7849963784000	-0.27593175	-10.220847	-1.0827777
7849973122000	1.0019734	-9.257181	-0.023942016
7849984780000	1.9381063	-8.819042	0.015562311
7849993142000	2.2301989	-8.76996	-0.35673606
7850003823000	2.2296004	-8.792108	-0.46088383
7850013161000	2.1481974	-8.871116	-0.62608373
7850025460000	2.0967221	-8.977059	-0.53570265
7850033181000	2.047641	-9.0842	-0.2124854
7850048562000	2.094328	-9.066842	-0.019153614
7850053109000	2.243367	-8.845378	0.22565351
7850063881000	2.396596	-8.594585	0.25438392
7850073220000	2.4528596	-8.546701	-0.007182605
7850083901000	2.35769	-8.681973	-0.35553896
7850093239000	2.1643584	-8.919	-0.5805939
7850107888000	1.9632454	-9.205706	-0.6853402
7850113228000	1.8327614	-9.493608	-0.7703344
7850123879000	1.7776948	-9.618706	-0.9235633
7850133248000	1.8076223	-9.520543	-1.0271125
7850143990000	1.9135658	-9.292496	-1.0606314
7850153298000	1.9698294	-9.021352	-1.0833763
7850166482000	1.9925743	-8.860941	-0.91937345
7850173318000	2.0254946	-8.763975	-0.7182605
7850183938000	2.0973208	-8.708909	-0.5590461
7850193337000	2.1996727	-8.656237	-0.46926352
7850205422000	2.2894554	-8.698733	-0.3705027
7850213357000	2.385822	-8.850166	-0.31304187
7850226540000	2.3223755	-9.138069	-0.09816227
7850233376000	2.1763294	-9.486425	0.12808979
7850244027000	2.0219033	-9.880272	0.15203181
7850253396000	1.9512744	-10.374076	-0.05207389
7850264107000	1.8507179	-10.88464	-0.16819267
7850273415000	1.8124107	-11.324574	-0.24361002
7850286477000	1.7896658	-11.766304	-0.19931729
7850293435000	1.9590555	-11.975797	0.020949265
7850304726000	2.356493	-11.902774	0.33638534
7850313454000	3.0071173	-11.555614	0.5482722
7850324074000	3.8480806	-11.100118	0.56084174
7850333443000	4.755483	-10.668563	0.39564183
7850345040000	5.653309	-10.326192	0.08499416
7850353493000	6.4206505	-10.023924	-0.20590134
7850364113000	6.997653	-9.698313	-0.33758244
7850373513000	7.2580223	-9.412804	-0.30765492
7850385781000	7.1209545	-9.210494	-0.21547815
7850393502000	6.546346	-9.135675	-0.17896658
7850406869000	5.5617304	-9.188348	-0.2088941
7850413552000	4.336498	-9.233239	-0.439336
7850424203000	3.1130607	-9.134478	-0.83737206
7850433571000	2.4103625	-8.931569	-0.6985083
7850444222000	2.5552118	-8.674791	-0.27473465
7850453560000	3.117849	-8.625112	-0.04369418
7850468423000	3.590704	-8.501212	0.30645782
7850473702000	3.626617	-8.020576	0.7212533
7850484292000	3.2022448	-7.641693	1.1055226
7850493600000	2.8377275	-7.7105265	1.3042414
7850504281000	2.7569232	-8.223484	1.3443443
7850513650000	2.8113914	-9.416395	1.5622166
7850526772000	2.6623523	-11.348516	1.4377182
7850533669000	1.9015948	-14.052767	1.0767922
7850544320000	0.062249243	-17.553688	-1.0540473
7850553689000	-2.143409	-19.608511	-8.632295
7850565926000	-2.2373815	-19.608511	-9.020155
7850573708000	-1.6765398	-19.224243	-4.654927
7850588845000	-1.608305	-16.420631	-1.9183542
7850593636000	-1.5729905	-13.424289	-0.59735334
7850604348000	-1.5005659	-10.8182	0.8415619
7850613747000	-1.115698	-8.57184	1.650802
7850624367000	-0.51235914	-6.819285	1.4329298
7850633767000	0.074818805	-5.6138043	0.7302315
7850646828000	0.6943185	-4.9883194	0.008379706
7850653756000	1.3204023	-5.039196	-0.56323594
7850664437000	1.9201498	-5.727529	-0.98102415
7850673806000	2.677316	-6.688801	-1.6208745
7850684426000	4.609437	-7.6345105	-5.1026425
7850693825000	5.7921724	-8.965687	-6.0501475
7850705422000	5.073912	-10.392631	-4.098873
7850713845000	3.5482068	-11.680113	-2.0338743
7850724465000	2.1146786	-12.1523695	-0.7930793
7850733834000	1.3904326	-11.958439	-0.12210429
7850746102000	0.9780314	-11.253346	0.28550854
7850753853000	0.635062	-10.144233	0.7290344
7850765542000	0.74998367	-8.643068	0.4285621
7850773873000	1.0672154	-7.2113357	-0.45549688
7850784554000	1.4490906	-6.1489086	-1.6089035
7850793892000	1.8507179	-5.7119665	-2.6072857
7850804513000	2.147599	-5.9346275	-3.1040826
7850813912000	2.2541409	-6.5044475	-3.1609447
7850827126000	2.3116016	-7.091027	-2.9520507
7850833932000	2.5659857	-7.5171947	-2.712032
7850844552000	2.9861681	-7.7350674	-2.72939
7850853951000	3.4823663	-7.7063365	-2.9658175
7850864632000	3.8869865	-7.5848308	-3.198055
7850873971000	4.1659107	-7.4615297	-3.4332852
7850885628000	4.506486	-7.2723875	-3.4997244
7850893990000	5.155315	-7.1113777	-3.9576154
7850904610000	5.7945666	-7.211934	-5.2379146
7850914010000	6.0130377	-7.7171106	-6.5750766
7850926278000	5.9687448	-8.2833395	-7.2873516
7850934029000	5.977723	-8.726865	-7.4070616
7850945656000	6.373365	-9.022549	-7.2221093
7850954049000	6.688801	-8.814254	-6.0926447
7850968423000	5.786187	-8.520964	-3.651756
7850974099000	3.6008794	-8.957906	-1.073201
7850984749000	1.6484078	-9.3583355	0.6757634
7850994118000	0.5315128	-8.901043	1.299453
7851007180000	-0.06464344	-7.639299	0.9947908
7851014138000	-0.31184477	-6.007651	-0.3597288
7851024788000	-0.10654198	-4.5699325	-2.441487
7851034127000	-0.04070143	-3.6457705	-7.459734
7851044808000	0.0688333	-4.932654	-11.954847
7851054146000	0.47465047	-11.197681	-9.949105
7851065743000	4.2413282	-17.60217	3.6032736
7851074196000	6.3781533	-19.608511	7.49445
7851084817000	6.7719994	-19.608511	8.040926
7851094216000	6.539762	-19.608511	7.309498
7851106484000	5.194819	-18.188152	4.382586
7851114205000	3.41473	-10.90918	1.8579005
7851125771000	2.160767	-5.5647235	-0.035314474
7851134225000	1.5125369	-2.295441	-0.97982705
7851144845000	1.1659763	-0.64942724	-1.1971009
7851154244000	1.1791444	-0.089184016	-0.7356185
7851164925000	1.4951789	-0.35793316	-0.3309984
7851174264000	2.2104468	-1.352724	-0.10055647
7851187325000	3.245939	-3.1759086	1.1546037
7851194283000	4.9218802	-6.0268044	2.7605145
7851204964000	6.8444242	-9.671976	2.8981812
7851214303000	8.242638	-13.274053	2.4600422
7851225503000	8.704121	-16.606182	3.341707
7851234902000	7.8954787	-18.599356	5.046977
7851246468000	5.6910176	-17.635689	5.559935
7851254952000	3.9749734	-14.449007	4.9542017
7851265603000	2.7299886	-11.444284	3.8510735
7851274941000	1.2294226	-9.70789	2.5019407
7851287179000	-0.9223662	-9.28232	-0.9295488
7851294961000	-3.445855	-9.651027	-6.9090676
7851310158000	-5.1235914	-9.767744	-8.623915
7851315072000	-5.1038394	-9.223662	-3.9294837
7851325814000	-3.9749734	-8.295909	0.16998832
7851335152000	-2.5809495	-7.4669166	1.3760674
7851345101000	-1.2934675	-7.129334	1.0959458
7851355569000	-0.17417817	-7.4124484	0.7457938
7851367653000	0.7092823	-8.09719	0.7918822
7851374459000	1.520318	-8.622718	1.3617022
7851385171000	2.2577322	-8.549694	1.857302
7851394478000	2.7886465	-7.7877398	1.3754689
7851405221000	2.870648	-6.8468184	-0.7314286
7851414528000	2.5773582	-6.2704144	-2.7521348
7851426125000	2.1110873	-6.109404	-3.1998506
7851434548000	1.8914193	-6.25964	-2.2930467
7851445229000	2.010531	-6.695385	-0.9504981
7851454537000	2.2918496	-7.3340383	0.6619968
7851466805000	2.6276364	-8.1163435	1.9847932
7851474587000	3.0244753	-9.066243	2.558803
7851486245000	3.3500867	-10.128671	2.4199393
7851494576000	3.7074213	-11.11987	1.5406688
7851505257000	4.381389	-11.465832	-0.0023942017
7851514596000	5.3037553	-10.772711	-1.3096284
7851525277000	6.0800753	-9.415796	-1.5376761
7851534615000	6.652888	-7.9906483	-0.9283517
7851547829000	7.363966	-6.7468605	-0.017956512
7851555245000	8.385692	-5.777209	0.79367787
7851565926000	9.361927	-5.127183	1.5873557
7851575265000	10.140641	-4.781221	2.0572178
7851589211000	11.150994	-4.739322	1.678934
7851595284000	11.823765	-5.3540335	1.4526819
7851606942000	11.376049	-6.4858923	1.9069817
7851615639000	10.416573	-7.375937	2.5965118
7851625374000	8.79091	-8.548497	2.2397757
7851634743000	6.875549	-10.54167	-0.5805939
7851647011000	4.506486	-13.5218525	-6.1046157
7851654763000	3.769072	-17.773355	-4.683657
7851666390000	3.2998085	-19.608511	-1.2868834
7851674782000	1.6262615	-19.608511	1.7112557
7851685433000	-1.6525977	-19.608511	2.0416555
7851694863000	-5.433641	-19.608511	-4.6902413
7851705514000	-6.4565635	-19.608511	-7.3699512
7851714852000	-5.981913	-19.608511	-4.9362454
7851727944000	-4.996699	-19.22125	-2.309806
7851734841000	-3.6816838	-15.298949	-0.85652566
7851745492000	-2.292448	-11.341333	0.39324763
7851754830000	-1.0761937	-8.338406	1.3575124
7851765511000	-0.16519992	-6.0106435	1.6089035
7851774880000	0.39863458	-4.1611223	1.0085574
7851786416000	0.729633	-2.6527755	-0.35314476
7851794900000	1.2312182	-1.5454572	-2.9334955
7851805581000	2.7072437	-1.0043676	-5.4432178
7851814889000	5.4641666	-1.6502035	-5.4647655
7851827248000	7.431602	-2.658761	-3.4111388
7851835518000	9.250597	-3.7936125	-1.2808979
7851847207000	7.6363063	-6.1399302	0.37708676
7851855599000	2.6282349	-9.308656	0.7589619
7851866250000	-1.0109516	-11.298238	0.10055647
7851875558000	-2.4079683	-11.774085	-0.931943
7851886239000	-2.284667	-11.079168	-1.834557
7851895577000	-1.5436616	-9.782109	-1.3210008
7851908639000	-0.91578215	-8.0684595	0.55844754
7851915658000	-0.96067345	-6.419453	2.1571758
7851926308000	-1.0708067	-5.2439003	1.9560628
7851935677000	-0.7086837	-4.72376	0.7751228
7851946358000	-0.20410569	-4.9254713	-0.46387658
7851955697000	0.030526072	-5.8041434	-2.005144
7851967385000	0.0047884034	-7.337031	-3.6990416
7851975716000	-0.1316811	-9.17099	-5.018845
7851986367000	0.15203181	-10.721834	-5.281609
7851995766000	0.96306765	-11.543644	-4.687248
7852008126000	2.2864625	-11.71842	-3.9851487
7852015786000	3.7870286	-11.430517	-3.503914
7852027413000	5.0822916	-10.758944	-3.3033998
7852035775000	5.711368	-10.043077	-3.5302503
7852050149000	5.5497594	-9.625888	-4.1180267
7852055733000	5.0745106	-9.55885	-4.635773
7852066475000	4.830302	-9.619903	-4.4843397
7852075692000	4.8506527	-9.531317	-4.0916905
7852090157000	4.7602715	-9.216479	-3.8085763
7852095345000	4.3077674	-8.617929	-3.157952
7852105996000	3.5332432	-7.963713	-3.072958
7852115334000	2.5923219	-7.52737	-6.4188547
7852126046000	1.2916719	-9.136872	-11.696873
7852135415000	2.3110032	-12.893973	-8.522161
7852146950000	4.2066126	-16.172234	2.4079683
7852155373000	2.1242554	-19.598337	6.819285
7852166237000	-2.5755625	-19.608511	9.016563
7852175576000	-5.0038815	-19.608511	9.318831
7852187905000	-4.5142674	-19.602526	5.952584
7852195626000	-2.6617537	-14.589666	2.7114334
7852207223000	-1.2635399	-6.8707604	-0.7206547
7852215798000	-0.8619126	-1.4143747	-5.966949
7852226510000	-0.9504981	0.5231331	-5.085883
7852235818000	-1.0803835	0.4321534	-1.8531121
7852246529000	-1.0857705	-0.18974048	0.7697359
7852255868000	-1.2264298	-1.2467805	1.9764135
7852269143000	-1.638831	-2.779668	2.3942018
7852276070000	-2.2798786	-4.853047	2.8874073
7852287392000	-3.2543187	-7.389105	3.3028011
7852296731000	-4.7656584	-9.991602	1.4718355
7852307412000	-5.9130797	-11.733982	0.82360536
7852316933000	-5.8544216	-11.999141	3.506907
7852328560000	-4.494515	-10.951078	4.5046906
7852336953000	-2.6821043	-9.314642	1.1587936
7852347634000	-1.1713632	-7.7027454	-6.479308
7852356972000	-1.1719618	-8.024766	-5.8574142
7852369301000	-1.584363	-9.64145	-2.0733786
7852387795000	-1.4221559	-10.392033	0.4225766
7852396126000	-0.7392098	-10.233417	1.2677298
7852406777000	0.011971008	-9.703699	1.4137762
7852416146000	0.59017074	-9.136273	1.4155718
7852426858000	0.99179804	-8.665813	1.2988545
7852436165000	1.2749124	-8.351574	1.0301052
7852453011000	1.4748282	-8.269572	0.6428431
7852456612000	1.6514006	-8.374918	0.16220717
7852466866000	1.8321629	-8.616134	-0.5674258
7852476235000	1.9189527	-8.941745	-1.4999673
7852487191000	1.9835961	-9.2547865	-2.3894134
7852495583000	1.9369092	-9.562442	-2.983774
7852507210000	1.714847	-9.951499	-3.0142999
7852515603000	1.2030864	-10.453683	-2.533664
7852526314000	0.51116204	-10.951078	-1.9015948
7852535622000	-0.18854338	-11.377845	-1.4425066
7852547890000	-0.7577648	-11.502942	-1.4149733
7852555611000	-0.8283938	-10.943896	-1.7447745
7852567391000	-0.6667852	-10.222044	-2.006341
7852575631000	-0.46627077	-9.852738	-2.0548236
7852586281000	-0.12629414	-9.6528225	-2.0458453
7852595711000	0.54168814	-9.387665	-1.8291701
7852606392000	1.4101849	-9.314043	-1.7058687
7852615700000	2.1649568	-9.426571	-1.6555905
7852630562000	2.669535	-9.566631	-1.4449008
7852635476000	3.103484	-9.655217	-0.99179804
7852646371000	3.5116954	-9.654618	-0.3172317
7852655739000	3.927688	-9.497798	0.4417302
7852666451000	4.276643	-9.218275	1.0061632
7852675759000	4.4981065	-8.979453	1.2629414
7852687447000	4.6166196	-9.0476885	1.0881647
7852695778000	4.6603136	-9.5570545	0.6943185
7852707039000	4.698621	-10.2406	0.20171149
7852715767000	4.7189717	-10.821792	-0.24899697
7852728097000	4.5543704	-11.135432	-0.35314476
7852735787000	4.032434	-11.324574	0.07062895
7852747445000	3.144784	-12.058995	0.9600749
7852755837000	2.0189106	-13.700819	2.0296845
7852766457000	0.83378077	-15.838243	2.9029696
7852775948000	-0.5315128	-17.550695	3.436278
7852786538000	-1.917157	-18.425179	3.6361938
7852795968000	-3.6176388	-19.03151	2.2559366
7852808999000	-6.4685345	-19.57619	-8.020576
7852815865000	-7.4136457	-18.73343	-12.66413
7852826607000	-5.53719	-16.212934	-6.867768
7852835915000	-4.100669	-13.613431	-2.5037365
7852846566000	-3.1585505	-11.319786	0.91697925
7852855935000	-2.4785974	-9.27394	2.6737247
7852867623000	-1.8746599	-7.5800424	2.5959132
7852875924000	-0.99299514	-6.3589997	1.5173253
7852886635000	0.23044191	-5.741296	-0.061650693
7852895974000	1.4143747	-5.97892	-1.673547
7852908242000	3.2381577	-6.299743	-3.4105403
7852915993000	5.412093	-6.746262	-5.16549
7852927590000	7.700351	-7.2604165	-5.932832
7852935982000	8.548497	-8.608353	-5.1642933
7852946694000	5.3205147	-10.693702	-3.2489316
7852956002000	2.486977	-11.52449	-1.7537527
7852966652000	1.4850036	-10.9343195	-0.7254431
7852976052000	1.555034	-9.81922	-0.2705448
7852989235000	1.5101427	-8.909423	-0.088585466
7852996041000	0.7344214	-8.418014	0.21308395
7853006722000	-0.0017956513	-8.002021	0.20051439
7853016060000	0.09756372	-7.201759	-0.75237787
7853026742000	0.8762778	-6.0806737	-1.963844
7853036080000	1.4155718	-5.2917843	-2.4612393
7853047585000	1.7896658	-4.932654	-2.4187422
7853056100000	2.1296425	-4.975151	-2.1547816
7853066781000	2.079364	-5.3642087	-1.7741034
7853076119000	1.7310078	-5.7640405	-1.5711949
7853088387000	1.3958195	-6.105813	-1.8680758
7853096139000	1.311424	-6.475717	-2.3636756
7853107735000	1.7232267	-7.0850415	-2.6485856
7853116158000	2.6312277	-8.002619	-2.8299465
7853126778000	3.9306808	-9.1751795	-3.104681
7853136178000	5.2941785	-10.508151	-3.8426938
7853146828000	6.2087636	-11.944074	-5.473145
7853156167000	6.613384	-12.971187	-7.247847
7853169259000	6.4643445	-13.158532	-7.7548194
7853176217000	6.178836	-12.245743	-6.6480994
7853191170000	5.93343	-10.505757	-5.180454
7853196053000	5.2079873	-8.764574	-4.134786
7853206948000	4.1222167	-7.2490444	-2.7694929
7853216317000	3.0340521	-6.031593	-1.3192052
7853227852000	2.4313118	-5.005677	-0.03172317
7853236336000	1.869273	-5.3265004	2.0679917
7853247017000	1.335366	-7.937976	2.6072857
7853256325000	0.23642741	-12.914324	2.8006175
7853268502000	-2.3175871	-18.9944	3.572149
7853276284000	-6.4392056	-19.608511	4.2413282
7853287911000	-10.704475	-19.608511	-1.210269
7853296334000	-9.818622	-19.608511	-10.159795
7853307015000	-3.7523127	-16.262016	-5.597045
7853316384000	-0.8403648	-9.796474	-0.7930793
7853327035000	0.45010993	-6.359598	1.7872716
7853336403000	1.3742718	-4.787805	2.6922798
7853349434000	2.3493104	-4.035427	2.6641479
7853356392000	3.0615854	-3.6816838	2.3133974
7853367074000	3.3854012	-3.3991678	2.3397336
7853376443000	3.406949	-3.1106665	2.8892028
7853387093000	3.2902317	-2.8886044	3.4290953
7853396432000	3.0454245	-3.0053217	3.6733038
7853408059000	2.1883004	-3.5625722	4.5298295
7853416512000	1.2575544	-4.3999443	5.728726
7853427163000	0.4961983	-5.7143607	6.7486563
7853436532000	-0.19812019	-7.597999	7.249643
7853448800000	-0.75716627	-9.833585	6.555324
7853456521000	-1.5424645	-12.50731	4.35625
7853468148000	-3.0891187	-15.6317425	-0.99538934
7853476571000	-5.2636523	-17.748816	-7.6919713
7853487191000	-6.215946	-17.219099	-9.131485
7853496590000	-5.4887075	-14.89792	-7.1341224
7853507241000	-3.970185	-12.466608	-4.747702
7853516579000	-2.2786815	-10.759542	-0.6428431
7853529702000	-0.2861071	-9.547478	1.6621746
7853536538000	1.5496471	-9.191938	1.06123
7853550912000	2.5276785	-9.375694	0.48602295
7853556618000	3.0298622	-9.583989	0.28311434
7853567269000	3.3201592	-9.710283	0.08678981
7853576607000	3.3812113	-9.730036	-0.19692309
7853588296000	3.3225534	-9.683349	-0.36631286
7853596627000	3.2052376	-9.759963	-0.49200845
7853607339000	3.13401	-9.920375	-0.61112
7853616677000	3.321955	-10.016742	-0.825401
7853628945000	3.445855	-10.107721	-0.99658644
7853636696000	3.6044707	-10.1065235	-1.2078748
7853650124000	3.6290112	-10.203489	-1.395221
7853656716000	3.4171243	-10.560823	-1.4879963
7853667336000	3.0951042	-11.118672	-1.6298528
7853676705000	2.8634653	-11.620258	-1.733402
7853687295000	2.858677	-11.787253	-1.9057846
7853696694000	2.9269116	-11.540052	-1.905186
7853711403000	2.9251158	-11.100717	-1.5071499
7853716683000	2.7126305	-10.609905	-0.670975
7853727395000	2.5390508	-10.13705	0.3752911
7853736764000	2.6048915	-9.770139	1.2755109
7853747414000	2.8245595	-9.751583	1.7663223
7853756783000	2.9903579	-10.090961	1.7818847
7853768502000	3.1064768	-10.449493	1.7172412
7853776803000	3.1358056	-10.784681	1.6777369
7853787514000	2.9472623	-11.158775	1.7483658
7853796822000	2.4516625	-11.299435	1.7908629
7853809151000	1.5556326	-10.968436	2.1493945
7853816872000	0.45908818	-10.543466	3.0322564
7853828621000	-0.4997896	-10.274716	3.8247373
7853836892000	-1.3329718	-10.484209	3.590704
7853847634000	-2.1110873	-11.366472	-0.12030864
7853856850000	-2.1230583	-12.859856	-6.099229
7853867562000	-1.9818004	-14.001291	-6.2991447
7853876900000	-2.1823149	-14.602236	-5.0960584
7853893807000	-2.142212	-14.67885	-4.0384197
7853897194000	-1.7381904	-14.05995	-2.765303
7853907601000	-1.1210849	-13.115437	-1.6962919
7853917000000	-0.5374983	-12.008718	-0.76195467
7853927559000	0.21547815	-10.858303	-0.15981296
7853936959000	1.0289081	-9.901221	0.095768064
7853948586000	1.7962499	-9.196728	0.1436521
7853956978000	2.4504654	-8.6574335	0.15023616
7853967660000	3.072958	-8.223484	0.091578215
7853976967000	3.7217865	-7.892486	0.19632454
7853989327000	4.3993454	-7.574057	0.2813187
7853997048000	4.8662148	-7.3645644	0.030526072
7854008828000	5.243302	-7.323863	-0.6087258
7854017068000	4.674679	-7.7506294	-1.745373
7854027749000	3.3752258	-8.457518	-2.5019407
7854037057000	2.2984335	-8.951322	-3.0142999
7854047677000	1.4425066	-9.141062	-2.8419175
7854057107000	0.89303726	-8.793304	-1.661576
7854071755000	1.1234791	-7.805696	-0.05566519
7854077004000	1.4143747	-6.854001	1.1294646
7854087746000	1.4149733	-6.3889275	1.5454572
7854097115000	0.9780314	-6.5026517	1.1569979
7854107857000	0.52373165	-6.991069	0.28909984
7854117196000	0.22266077	-7.5207863	-0.4961983
7854130318000	0.1604115	-7.9343843	-1.0223241
7854137185000	0.23762453	-8.221688	-1.3317747
7854147866000	0.29807812	-8.480263	-1.4873978
7854157174000	0.415394	-8.773552	-1.536479
7854169411000	0.6787562	-8.97646	-1.5759833
7854177163000	1.1599907	-9.061455	-1.7711107
7854190346000	1.733402	-9.100361	-2.1416135
7854197213000	2.319383	-9.194932	-2.5222914
7854207833000	2.9370868	-9.361329	-2.885013
7854217232000	3.6218286	-9.646238	-2.813187
7854227913000	4.38498	-10.156802	-3.0609868
7854237221000	5.171476	-10.837953	-3.6379895
7854254189000	5.8801594	-11.451467	-4.1102457
7854257516000	6.439804	-11.574169	-3.752911
7854267922000	6.933608	-11.16117	-2.6497827
7854277291000	7.0263834	-10.445304	-1.733402
7854287942000	6.2422824	-9.7958765	-1.3347675
7854297280000	4.9158945	-9.329605	-1.5358804
7854310647000	3.8391025	-9.752781	-2.179322
7854317330000	3.3626564	-12.268488	-2.271499
7854327981000	2.417545	-16.652271	-1.0055647
7854337319000	0.7392098	-19.571402	0.5602432
7854349587000	-0.31124622	-19.608511	1.1498153
7854357369000	0.2112883	-17.952322	0.3633201
7854368966000	0.81163436	-12.034455	-1.2557588
7854377389000	1.0510546	-6.7803793	-2.8006175
7854387978000	0.99898064	-3.1783028	-3.567959
7854397408000	0.9032126	-1.1971009	-3.083732
7854408089000	0.78529817	-0.55725044	-1.899799
7854417397000	0.86011696	-0.9175778	-1.0510546
7854430550000	1.1234791	-2.1571758	-0.84216046
7854437417000	1.4939818	-3.8055837	-0.62608373
7854448098000	2.1643584	-6.011242	0.11611878
7854457467000	2.9628246	-8.996213	1.7938557
7854468056000	3.472191	-12.067974	3.7696705
7854477486000	3.4913447	-14.253282	4.667496
7854488991000	2.802413	-15.288774	4.976947
7854497445000	1.7896658	-15.324088	5.1475334
7854508187000	1.0833763	-13.7923975	4.657321
7854517525000	1.0899603	-11.352706	2.9921536
7854529732000	1.0013748	-9.31524	-0.1436521
7854537545000	0.45370123	-8.086416	-4.596867
7854549233000	-0.24720132	-7.66384	-7.550115
7854557564000	-0.62249243	-7.7745714	-6.284181
7854571877000	-0.58897364	-8.191761	-2.9604304
7854577523000	-0.3429694	-8.521563	-0.10295067
7854588173000	-0.11133038	-8.742428	2.0003555
7854597573000	-0.045489833	-8.884883	3.2854433
7854610695000	-0.01436521	-9.082404	3.4727895
7854617592000	-0.008379706	-9.361329	2.594716
7854628274000	-0.048482586	-9.521142	1.0702082
7854637642000	-0.08678981	-9.523536	-0.21667525
7854648293000	0.06464344	-9.448118	-0.88166475
7854657784000	0.57161564	-9.291298	-0.94331545
7854669442000	1.3102269	-9.0476885	-0.6757634
7854677773000	2.006341	-8.797494	-0.35553896
7854688454000	2.4546554	-8.589797	-0.08259996
7854697793000	2.5929205	-8.541314	0.02813187
7854710122000	2.445677	-8.72088	-0.16280572
7854717690000	2.1655555	-9.083003	-0.62249243
7854729378000	1.8387469	-9.651626	-1.1127052
7854737710000	1.6106992	-10.26933	-1.3826514
7854748330000	1.471237	-10.770915	-1.377863
7854757821000	1.572392	-11.011532	-1.328782
7854768410000	1.8788497	-11.019912	-1.2443863
7854777749000	2.3834279	-10.712855	-1.0893618
7854792641000	3.1681273	-10.314819	-0.87208796
7854797555000	3.8456864	-9.962274	-0.7649474
7854808449000	4.3526587	-9.64983	-0.60214174
7854817788000	4.771644	-9.4217825	-0.29149407
7854828469000	5.181651	-9.299678	0.1436521
7854837807000	5.486912	-9.294889	0.59974754
7854852181000	5.6856303	-9.3978405	0.8762778
7854857888000	5.707777	-9.7084875	0.78649527
7854868538000	5.5976434	-10.210073	0.8475474
7854877877000	5.524022	-10.911574	0.97503865
7854890145000	5.5084596	-11.606491	0.70509243
7854897896000	5.239112	-11.938088	0.52492875
7854909463000	4.706402	-11.75553	0.66379243
7854917855000	4.088698	-11.233594	0.9516952
7854928597000	3.4129345	-10.629657	1.1414356
7854937874000	2.6443958	-9.782109	1.520318
7854948556000	1.827973	-8.885481	1.9069817
7854957924000	0.97384155	-8.503606	1.9482816
7854973061000	0.02633622	-9.188946	1.4107834
7854977791000	-2.211644	-12.102091	-3.454833
7854988595000	-5.08708	-16.144701	-5.4324436
7854997994000	-5.2289367	-17.724874	-2.7970262
