gyroscope_timestamp	gyroscope_x_data	gyroscope_y_data	gyroscope_z_data
8574337309000	0.06658431	0.03604105	-0.105374254
8574348723000	-0.59406644	0.03604105	0.7473936
8574359160000	-0.111177474	-0.3399465	0.32711834
8574365111000	0.84513205	-0.105068825	-1.4059063
8574375273000	-0.08093964	0.45204028	-1.2296717
8574384611000	-0.13652839	0.032375857	-1.1560625
8574406248000	-0.1301143	0.0012217305	-1.1582005
8574416624000	-0.12034045	0.0061086523	-1.1670581
8574426512000	-0.105374254	0.029321533	-1.1640037
8574434965000	-0.1133155	0.041233405	-1.1539245
8574444334000	-0.13194689	0.07391469	-1.1472049
8574454954000	-0.17898351	0.13072516	-1.1362094
8574464323000	-0.3213151	0.18692477	-1.1355985
8574475371000	-0.64873886	0.26236662	-1.1230757
8574486693000	-1.1798862	0.41996986	-1.0522153
8574494994000	-1.7956384	0.5164866	-0.9764681
8574504820000	-2.3328943	0.28527406	-0.97219205
8574517241000	-2.6151142	-0.31642818	-1.1533136
8574523772000	-2.7571404	-1.0332786	-1.4648548
8574534849000	-2.9413161	-1.4511104	-1.6349808
8574544401000	-2.984993	-1.1856894	-1.6444492
8574554503000	-2.7656925	-0.3268129	-1.5714508
8574563872000	-2.638327	0.4569272	-1.4761559
8574574583000	-2.532342	0.66950834	-1.4208726
8574583830000	-2.4895813	0.58276546	-1.2620476
8574596403000	-2.3087652	0.52534413	-1.0958922
8574604460000	-2.1520782	0.96669424	-1.0381655
8574614500000	-2.0387628	1.5974126	-0.9810496
8574623869000	-1.8197676	2.0033326	-0.7965683
8574634550000	-1.4608842	1.6551393	-0.5705481
8574643919000	-1.2018774	0.7244862	-0.50854534
8574654967000	-1.3662001	-0.15607607	-0.6921103
8574664610000	-1.6630806	-0.20219639	-0.9859365
8574674559000	-1.6517797	0.48441613	-1.2495248
8574683958000	-1.4611896	0.6203337	-1.3423764
8574696196000	-1.3451253	0.04795292	-1.2669345
8574704008000	-1.4043792	-0.7678576	-1.1334605
8574715025000	-1.50731	-1.4969252	-1.0073168
8574724608000	-1.5112807	-1.9263636	-0.9450085
8574734770000	-1.4141531	-2.0314324	-0.7993172
8574745238000	-1.2409728	-2.1398609	-0.6227771
8574755369000	-1.0348058	-2.1520782	-0.43066
8574764677000	-0.8338311	-2.03693	-0.2275473
8574777037000	-0.63621616	-1.8307631	-0.026267206
8574785338000	-0.37323865	-1.5971072	0.1908954
8574795378000	-0.11484267	-1.2993103	0.40653083
8574804747000	0.076358154	-1.0842859	0.5705481
8574815367000	0.2932153	-0.97066486	0.67164636
8574824766000	0.5204572	-0.8249735	0.7067711
8574835753000	0.71929383	-0.6178902	0.70616025
8574845305000	0.895223	-0.31581733	0.70249504
8574855437000	1.0528263	9.162979E-4	0.72265357
8574864775000	1.1899655	0.2611449	0.77640975
8574877104000	1.2528846	0.43310347	0.8151997
8574884825000	1.387275	0.46181414	0.9059132
8574895811000	1.5558738	0.3735441	1.0033462
8574905394000	1.6905695	0.12858713	1.0913107
8574915465000	1.6594155	-0.23304509	1.1093313
8574924864000	1.42973	-0.6441574	0.9682214
8574939268000	1.078788	-0.9447031	0.66798115
8574944731000	0.63804877	-0.97035944	0.31031954
8574957701000	0.17623462	-0.73273283	-0.012217305
8574965697000	-0.13713925	-0.37140608	-0.31337386
8574974852000	-0.22113322	-0.08093964	-0.6065892
8574984251000	-0.11148291	-0.060170226	-0.78954333
8574994902000	0.13622294	-0.26358834	-0.8359691
8575004240000	0.37812558	-0.48349985	-0.8020661
8575015196000	0.4642576	-0.66950834	-0.70707655
8575024931000	0.48747048	-0.799928	-0.6563747
8575034880000	0.68539083	-0.82986045	-0.60903263
8575044310000	1.1679744	-0.8200866	-0.68477994
8575056578000	1.711339	-0.7370089	-0.80848014
8575064329000	1.856114	-0.5332854	-0.77457714
8575075407000	1.0616838	-0.122478485	-0.52687126
8575084898000	-0.20189096	0.3390302	-0.19242255
8575095000000	-0.75441855	0.4615087	0.089186326
8575104369000	-0.7257079	0.7440339	0.441961
8575115019000	-0.50732356	1.3112222	0.874759
8575124388000	-0.08979719	1.260215	1.1899655
8575136931000	0.40622538	0.7443393	1.2709051
8575145048000	0.82986045	0.30970868	1.1554517
8575155058000	1.1878275	0.29565877	0.9624182
8575164397000	1.4871514	0.70952	0.7113526
8575175108000	1.5421293	1.063211	0.57451874
8575184447000	1.4187346	1.1181889	0.3640757
8575195402000	1.3191634	1.1863003	0.22632557
8575205138000	1.4856243	1.5271631	0.11484267
8575215086000	1.5735888	1.9074267	0.013439035
8575224486000	1.2345587	2.0002782	-0.014660766
8575236723000	0.77763146	1.9422461	0.089491755
8575244475000	0.5540548	1.5598444	0.2406809
8575255522000	0.51343226	0.8014552	0.34697145
8575265166000	0.53969944	0.015271631	0.35002577
8575275206000	0.61544675	-0.5222898	0.29749137
8575284514000	0.71776664	-0.6612616	0.25778514
8575295195000	0.84757555	-0.45173484	0.23518312
8575304533000	0.99296147	-0.15057829	0.22602014
8575317046000	1.0937542	0.015271631	0.26358834
8575325224000	1.1166617	0.099265605	0.36468655
8575335234000	1.1239921	0.13500121	0.42149702
8575344572000	1.1447614	0.15363261	0.50976706
8575355254000	1.1746938	0.05009095	0.54458636
8575364592000	1.1722504	-0.048258353	0.52748215
8575375609000	1.1988231	-0.08155051	0.4981606
8575385283000	1.273654	-0.16676621	0.48472157
8575395232000	1.31672	-0.3399465	0.49877146
8575404631000	1.3063353	-0.50579643	0.52473325
8575416930000	1.3616186	-0.64965516	0.5488624
8575424651000	1.4935656	-0.6759224	0.5870415
8575435667000	1.5732834	-0.50701815	0.6395759
8575446837000	1.5873333	-0.37507126	0.70554936
8575455351000	1.5106697	-0.30665436	0.7504479
8575464690000	1.4059063	-0.24251351	0.79443026
8575475371000	1.3503176	-0.17195857	0.8323039
8575484709000	1.1921035	-0.12156218	0.82833326
8575497252000	0.9437868	-0.09162979	0.763887
8575506895000	0.6435465	0.0580322	0.6444628
8575515440000	0.39828414	0.37232238	0.4908302
8575524779000	0.29718593	0.7861836	0.3371976
8575539458000	0.2846632	1.1276573	0.23335053
8575544737000	0.24923302	1.2284501	0.20372356
8575555785000	0.16646078	1.097114	0.21135938
8575565337000	0.095294975	0.84635377	0.19486602
8575575468000	0.09193522	0.49938235	0.12095132
8575584837000	0.16523905	0.070554934	-0.03390302
8575597075000	0.27091873	-0.2751948	-0.28038713
8575604826000	0.30207285	-0.3866777	-0.56779927
8575615874000	0.16707164	-0.1966986	-0.7330383
8575625395000	0.034513887	0.15393804	-0.7110472
8575635527000	-0.3567453	0.3304781	-0.6606508
8575644896000	-0.93309665	0.32375857	-0.5531385
8575655485000	-1.6190983	0.27885997	-0.4804455
8575664854000	-2.2275202	0.30543262	-0.4654793
8575677397000	-2.6410758	0.23243423	-0.59773165
8575685545000	-2.9162707	-0.12217305	-0.9297369
8575695555000	-3.150843	-0.7724391	-1.3304645
8575704954000	-3.317609	-1.5402967	-1.6633861
8575715575000	-3.2818735	-2.0204368	-1.8356501
8575724974000	-3.035084	-1.5738943	-1.8139644
8575735991000	-2.737287	-0.17684549	-1.751656
8575745512000	-2.5631905	0.96669424	-1.6597209
8575755675000	-2.4654522	1.1438452	-1.4651603
8575764983000	-2.3667974	0.8744536	-1.2483032
8575777373000	-2.3490822	0.9407325	-1.0473285
8575785185000	-2.3787093	1.53205	-0.9407325
8575796233000	-2.3866506	1.8533652	-0.68203104
8575805785000	-2.1673498	2.1594086	-0.4266894
8575815886000	-1.7715092	1.7290541	-0.3735441
8575825224000	-1.5354098	0.75900006	-0.59650993
8575835905000	-1.707063	0.4382958	-0.9957104
8575845244000	-1.8487836	1.0885619	-1.3274102
8575857756000	-1.7644843	1.2907583	-1.3671165
8575865935000	-1.6939293	0.5326745	-1.2284501
8575875914000	-1.7754798	-0.5729916	-1.0009027
8575885283000	-1.8781052	-1.4923438	-0.70066243
8575895933000	-1.8674151	-1.9801197	-0.4016439
8575905302000	-1.7617353	-2.117259	-0.1301143
8575916319000	-1.6163495	-2.0888536	0.118507855
8575925871000	-1.4410311	-2.019826	0.32803464
8575936003000	-1.3384057	-1.7996091	0.4908302
8575945525000	-1.0867293	-1.4648548	0.5656612
8575957732000	-0.77121735	-1.3335189	0.7021896
8575965544000	-0.4364632	-1.1820242	0.7984009
8575976561000	-0.12644911	-1.0268645	0.83658
8575986113000	0.15454891	-0.754724	0.83260936
8575996214000	0.41172317	-0.4437936	0.8060367
8576005583000	0.62949663	-0.17959438	0.7458665
8576016203000	0.8194757	0.071776666	0.6640105
8576025603000	1.0100657	0.30176744	0.5907067
8576038084000	1.2046263	0.47739118	0.52931476
8576046294000	1.3854424	0.593761	0.47983465
8576056242000	1.5302174	0.6224717	0.46395215
8576065642000	1.5632042	0.50426924	0.48197266
8576076262000	1.4236214	0.18875736	0.48838675
8576085661000	1.1026118	-0.28130344	0.41813725
8576100645000	0.88300574	-0.7825184	0.3399465
8576106352000	0.4071417	-0.9810496	0.11881329
8576116362000	0.04917465	-1.1670581	-0.098043874
8576125914000	-0.109650314	-1.142318	-0.24404067
8576138121000	-0.1554652	-1.0622946	-0.364992
8576145933000	-0.111177474	-0.97433007	-0.48472157
8576156859000	0.053450707	-0.9071349	-0.54550266
8576166441000	0.27275133	-0.83108217	-0.5137377
8576176573000	0.42271876	-0.7651087	-0.45020768
8576185911000	0.4746423	-0.7699956	-0.4428773
8576196562000	0.54305923	-0.79473567	-0.5180137
8576205962000	0.71868294	-0.78954333	-0.68630713
8576218474000	0.9593639	-0.70096785	-0.93767816
8576226530000	1.0525209	-0.38545597	-1.1688906
8576236632000	0.552833	0.13347405	-1.2547172
8576245970000	-0.5546656	0.6771441	-1.1429288
8576256651000	-0.94989544	1.0073168	-1.0158689
8576265990000	-0.8014552	1.0555751	-0.4999932
8576277037000	-0.10476339	1.0858129	0.40408736
8576286589000	0.17806722	0.7128797	1.2751812
8576296843000	0.2855795	-0.043982297	1.6872098
8576306212000	0.6001751	-0.5519168	1.536937
8576318480000	1.0213667	-0.49418998	0.9624182
8576326201000	1.3875804	0.21594086	0.30298916
8576337309000	1.8102992	1.0677924	-0.1469131
8576347502000	2.2617285	1.5415184	-0.23273966
8576357512000	2.4810293	1.8732183	-0.052839845
8576366850000	2.1789563	2.346639	0.13072516
8576377562000	1.4947872	3.051272	0.26511553
8576386870000	1.063211	3.2898147	0.462425
8576399138000	0.94042706	2.2009475	0.691194
8576407561000	0.84879726	0.623388	0.8356637
8576417540000	0.5580254	0.0711658	0.8781188
8576426909000	0.3930918	-0.3735441	0.9254609
8576437590000	0.50762904	-0.3915646	0.9095783
8576446928000	0.7348709	-0.4089743	0.8145888
8576458006000	0.9300423	-0.36987892	0.6462954
8576469267000	1.07665	-0.15607607	0.4709771
8576477629000	1.1560625	0.12308934	0.31856623
8576487151000	1.1954633	0.2968805	0.20066923
8576498839000	1.2238685	0.3484986	0.13072516
8576506590000	1.2165382	0.26816985	0.100792766
8576517668000	1.1685852	0.11789699	0.10140363
8576528776000	1.1047498	0.031154128	0.10445796
8576537291000	1.0338894	0.007330383	0.121256754
8576546599000	0.9966267	-0.040927973	0.17256944
8576557280000	1.0073168	-0.103847094	0.24220806
8576566618000	1.0170907	-0.13255776	0.27214047
8576579161000	1.0219775	-0.11301007	0.30970868
8576588835000	1.026559	-0.032375857	0.33322698
8576597349000	1.0803152	0.059253927	0.3827071
8576607512000	1.2073752	0.14935656	0.46486846
8576617338000	1.3475688	0.204029	0.5549711
8576626738000	1.4538593	0.19700404	0.63071835
8576637785000	1.5293012	0.16310102	0.6948592
8576648894000	1.5778649	0.12889257	0.73639804
8576657408000	1.5992452	0.105068825	0.7443393
8576666350000	1.5467108	0.12186762	0.7110472
8576682097000	1.319469	0.26511553	0.63255095
8576686003000	0.9211848	0.5867361	0.559858
8576696959000	0.69913524	0.93309665	0.528093
8576708037000	0.3231477	1.071763	0.453262
8576716521000	0.14446963	1.2486086	0.3491095
8576725920000	0.14721853	1.2305881	0.23609942
8576736601000	0.20433442	0.9783007	0.15882497
8576745970000	0.19211712	0.6010914	0.1337795
8576758452000	0.09712757	0.2669481	0.12797627
8576766508000	0.03604105	0.005192355	0.027794369
8576776671000	0.105068825	-0.17348573	-0.24373524
8576786009000	0.14782938	-0.17470746	-0.57726765
8576796660000	-0.004276057	0.014660766	-0.74281216
8576805998000	-0.32070425	0.23396139	-0.7012733
8576817046000	-0.7669413	0.1572978	-0.6215554
8576828184000	-1.3136657	-0.15027285	-0.61178154
8576836638000	-1.8344283	-0.31398472	-0.7067711
8576846007000	-2.0415115	-0.29993483	-0.8038987
8576858305000	-2.346028	-0.2968805	-1.0729848
8576866057000	-2.5751023	-0.44684792	-1.3356569
8576877074000	-2.7437012	-0.8536842	-1.4993688
8576886626000	-2.8072312	-1.2782356	-1.4920384
8576896757000	-2.8414397	-1.1187997	-1.3600914
8576906096000	-2.780353	-0.27916542	-1.2599095
8576916746000	-2.6502388	0.3998113	-1.2070698
8576926115000	-2.559831	0.48472157	-1.097114
8576938628000	-2.4645357	0.39767328	-0.93187493
8576946684000	-2.3591616	0.5439755	-0.8179486
8576956755000	-2.3716843	0.8240572	-0.7330383
8576966154000	-2.4596488	1.0012082	-0.57604593
8576976805000	-2.4251351	1.0622946	-0.30482176
8576986174000	-2.262034	0.9483683	-0.06352998
8576997130000	-2.1704042	0.54305923	-0.01740966
8577006865000	-1.9874501	0.2855795	-0.118507855
8577016844000	-1.9058995	-0.1695151	-0.40408736
8577026182000	-1.9352211	-0.06719518	-0.70921457
8577038481000	-1.8637499	0.5519168	-0.8961393
8577046233000	-1.7299703	0.6792821	-0.9202685
8577057310000	-1.6410894	0.13591751	-0.88697636
8577066801000	-1.5894713	-0.7290677	-0.8781188
8577076933000	-1.5131133	-1.5225816	-0.82558435
8577086272000	-1.3426818	-1.829236	-0.6945538
8577096922000	-1.1169671	-1.9459113	-0.5207626
8577106291000	-0.88147855	-2.0607538	-0.32834008
8577118773000	-0.6291912	-2.0024164	-0.17867808
8577126860000	-0.3631594	-1.7363845	-0.11484267
8577136992000	-0.10048734	-1.3448198	-0.093462385
8577146361000	0.008246681	-1.0491611	-0.08460484
8577157011000	0.18600847	-0.97035944	-0.06352998
8577166350000	0.36010507	-0.90010995	-0.040011674
8577177367000	0.5458081	-0.86162543	-0.011301007
8577186919000	0.7486154	-0.77396625	0.025961773
8577197020000	0.9755518	-0.61391956	0.076052725
8577206389000	1.2177598	-0.40133846	0.1441642
8577218657000	1.4269812	-0.19242255	0.24495697
8577226408000	1.5662584	-0.015882496	0.37293324
8577237425000	1.6771306	0.11759156	0.5131268
8577247069000	1.7968601	0.11301007	0.65209866
8577257017000	1.8350391	-0.0720821	0.766025
8577266447000	1.6639969	-0.38606682	0.7779369
8577281065000	1.29198	-0.63285637	0.6084218
8577286436000	0.8399397	-0.6032294	0.33658674
8577298949000	0.6243043	-0.38912117	0.21655174
8577307036000	0.26511553	-0.30390546	0.058643065
8577317137000	0.033292156	-0.2519819	-0.07360926
8577326475000	-0.03756821	-0.18387043	-0.28893927
8577337096000	0.10293079	0.07147124	-0.5170974
8577346526000	0.31703907	0.36835176	-0.65393126
8577357542000	0.44135013	0.4700608	-0.66675943
8577367094000	0.50854534	0.38331795	-0.57726765
8577377196000	0.60048056	0.16126843	-0.49602258
8577386565000	0.8381071	-0.07880162	-0.5589417
8577398802000	1.382999	-0.06352998	-0.7987063
8577406554000	2.134974	0.26633725	-1.0445796
8577417631000	2.6847527	0.73364913	-1.0876455
8577427153000	2.576935	1.3662001	-0.86315256
8577437254000	1.1203269	2.2492058	-0.27550024
8577446593000	0.109650314	2.2821925	0.11362094
8577457274000	-0.8732319	1.8625281	0.75655663
8577466643000	-0.7959574	1.5873333	1.2006557
8577479094000	-0.76052725	2.3582454	1.6468927
8577487303000	-0.41691554	2.5983152	1.887879
8577497313000	0.018936822	2.1792617	1.7806722
8577506651000	0.52412236	1.7571539	1.4776831
8577517302000	1.2599095	1.3646729	1.2195925
8577526701000	1.8802432	1.0195341	0.9599747
8577537718000	2.0442605	0.6985244	0.5897904
8577547270000	1.9028453	0.37293324	0.28008172
8577557341000	1.8383989	0.38423425	0.14019357
8577566710000	1.8606955	1.003957	0.14752395
8577578917000	1.772731	1.751656	0.19394971
8577586729000	1.4770721	2.0412061	0.24953845
8577597807000	1.2791518	1.6566665	0.33750305
8577607451000	0.9431759	0.732122	0.38789943
8577617430000	0.7788532	0.26511553	0.43463063
8577626768000	0.7162395	-0.3005457	0.35033122
8577637450000	0.6719518	-0.26083946	0.18448131
8577646788000	0.6835582	0.17073683	0.0027488936
8577659300000	0.77824235	0.61758476	-0.15882497
8577667479000	0.82253003	0.89919364	-0.27580565
8577677489000	0.763887	1.0577132	-0.34697145
8577686827000	0.6844745	1.1533136	-0.35918877
8577697508000	0.6560693	1.1749994	-0.29077184
8577706847000	0.7067711	1.054048	-0.1872302
8577717863000	0.8002335	0.77182823	-0.10781772
8577727537000	0.86345804	0.47769663	-0.0693332
8577737517000	0.8695667	0.3408628	-0.065973446
8577746886000	0.86132	0.38728857	-0.064751714
8577759154000	0.8344419	0.552833	-0.05497787
8577766905000	0.81031275	0.63713247	0.008857546
8577777953000	0.7870999	0.7339546	0.14080444
8577789091000	0.79076505	0.7504479	0.29779682
8577797575000	0.8604037	0.7287622	0.45173484
8577806944000	0.9465357	0.7150178	0.5821546
8577817564000	0.97005403	0.67256266	0.6805039
8577826964000	0.87781334	0.54641896	0.7611381
8577839506000	0.6814202	0.44104472	0.8078693
8577849181000	0.46975538	0.46395215	0.806953
8577857634000	0.32711834	0.559858	0.7657196
8577867003000	0.2593123	0.59650993	0.6783658
8577877714000	0.204029	0.57910025	0.5662721
8577887022000	0.13836098	0.52198434	0.46486846
8577898039000	0.12644911	0.3744604	0.2932153
8577909392000	0.15607607	0.11942416	0.15057829
8577917906000	0.24465153	0.0076358155	-0.18936823
8577927092000	0.30757064	-0.029321533	-0.44929138
8577939360000	0.20433442	0.05131268	-0.5513059
8577947081000	-0.19028452	0.32253686	-0.50488013
8577963133000	-0.6921103	1.0005972	-0.35094208
8577967894000	-1.2455542	1.3350459	-0.19608775
8577977782000	-1.919644	1.1456778	-0.13316862
8577987120000	-2.5158484	0.9034697	-0.29749137
8577997801000	-2.8328876	0.46883908	-0.75655663
8578007170000	-3.0243938	-0.06261369	-1.3087788
8578019652000	-3.1923819	-0.44929138	-1.7363845
8578027739000	-3.254079	-0.754724	-1.8851302
8578037840000	-3.18047	-0.7877107	-1.7189748
8578047179000	-2.9620855	-0.321926	-1.466382
8578057890000	-2.8411343	0.4550946	-1.3585643
8578067259000	-2.6777277	0.7296785	-1.1795808
8578078276000	-2.579073	0.5919284	-1.0635164
8578087767000	-2.495079	-0.020158553	-1.0091494
8578097868000	-2.3762658	-0.20586158	-0.97524637
8578107237000	-2.1343632	0.04337143	-0.92485
8578119536000	-1.8188512	0.29993483	-0.8344419
8578127257000	-1.5231925	0.37934732	-0.8038987
8578138304000	-1.4379768	0.09682214	-0.945314
8578147948000	-1.5995506	-0.086437434	-1.1133019
8578157988000	-1.781894	0.4859433	-1.2324207
8578167296000	-1.856114	0.9282097	-1.2608259
8578178007000	-1.7782288	0.7272351	-1.17897
8578187315000	-1.632232	0.03756821	-1.0519099
8578199858000	-1.565953	-0.86620694	-0.99296147
8578208037000	-1.5485435	-1.461495	-0.990518
8578218016000	-1.4624114	-1.6423112	-0.9645562
8578227965000	-1.3054191	-1.9822577	-0.8585711
8578238585000	-1.1264355	-2.2815816	-0.70157874
8578247954000	-0.9636399	-2.4263568	-0.5137377
8578258971000	-0.7968737	-2.3582454	-0.3213151
8578268553000	-0.5897904	-2.1007655	-0.14385876
8578278654000	-0.3707952	-1.779145	0.046120327
8578287993000	-0.18325958	-1.536937	0.2415972
8578300291000	-0.015577064	-1.4013249	0.39553526
8578308043000	0.1554652	-1.2660183	0.49205196
8578319090000	0.33353242	-1.0903945	0.56382865
8578328612000	0.50915617	-0.91415983	0.63407815
8578338713000	0.68630713	-0.7150178	0.70066243
8578348051000	0.86376345	-0.50640726	0.75686204
8578358733000	0.9502009	-0.2855795	0.782213
8578368071000	1.105666	-0.17837265	0.829555
8578380278000	1.260215	-0.012217305	0.88331115
8578388762000	1.4398094	0.04428773	0.94897914
8578398711000	1.5558738	-0.096516706	1.0433578
8578408110000	1.4737124	-0.45937067	1.119716
8578422331000	1.1884383	-0.8921687	1.0369438
8578428160000	0.784351	-1.1533136	0.788627
8578439177000	0.4297437	-1.1108584	0.5299256
8578448973000	0.24373524	-0.9630291	0.3368922
8578458250000	0.16279559	-0.96577793	0.13408493
8578467589000	0.13500121	-1.1472049	-0.12095132
8578479857000	0.17379116	-1.2858714	-0.38453966
8578487608000	0.23640485	-1.1276573	-0.58551437
8578498686000	0.23732115	-0.69974613	-0.70341134
8578508177000	0.22632557	-0.22968534	-0.75961095
8578518278000	0.27885997	-0.0061086523	-0.9053023
8578527678000	0.52564955	0.40133846	-1.0461067
8578538328000	0.9147707	0.6420194	-1.1154399
8578547667000	1.0855075	0.6383542	-1.047023
8578560210000	0.7089091	0.72265357	-0.7724391
8578568236000	0.05100725	1.039998	-0.2919936
8578578368000	-0.1872302	1.1899655	0.25870144
8578587706000	-0.06078109	1.2027937	0.7318166
8578598387000	0.11575896	1.3817772	1.0164797
8578607725000	0.2968805	1.4856243	1.0906999
8578618773000	0.4364632	1.3301591	1.0525209
8578628416000	0.6927212	1.1023064	0.96486163
8578638396000	1.031446	0.86620694	0.7703011
8578647765000	1.2217305	0.74189585	0.408058
8578660063000	1.219287	0.9129381	-0.13225232
8578668364000	1.0659598	1.2483032	-0.43188173
8578679411000	0.96761054	1.4150693	-0.9233228
8578689055000	1.1362094	1.7400496	-1.146594
8578699065000	1.459357	1.9764545	-1.1233811
8578708433000	1.7617353	2.0054705	-0.8793405
8578719054000	1.7938058	1.7418822	-0.46273044
8578728422000	1.4083499	1.0943651	0.05467244
8578740721000	0.99296147	0.41447207	0.50671273
8578748991000	0.9089675	0.13622294	0.6933321
8578759123000	1.1029172	0.087964594	0.6337727
8578768462000	1.3756685	0.1695151	0.4728097
8578779143000	1.6071864	0.39950588	0.35063666
8578788481000	1.7553213	0.55741453	0.3368922
8578799498000	1.7085901	0.7486154	0.4251622
8578809203000	1.6022996	1.1246029	0.552833
8578819182000	1.2993103	1.4187346	0.61208695
8578828520000	1.0027353	1.427592	0.711658
8578844389000	0.84940815	1.1685852	0.745561
8578848692000	0.8772025	0.73975784	0.6814202
8578859618000	1.0558805	0.52442783	0.5839872
8578869566000	1.2977833	0.73792523	0.49174652
8578878630000	1.4666874	0.7870999	0.43554693
8578887999000	1.4825699	0.38973203	0.43066
8578898650000	1.4080443	0.0061086523	0.43279803
8578908018000	1.3414601	-0.07574729	0.41141775
8578920531000	1.2599095	0.13255776	0.36743546
8578928709000	1.1191051	0.38362336	0.3371976
8578938719000	0.89675015	0.5467244	0.33475417
8578948057000	0.6188065	0.66706485	0.34330627
8578958739000	0.3894266	0.8210029	0.3200934
8578968077000	0.31887165	0.95294976	0.2910773
8578979094000	0.24862215	0.9728029	0.23823744
8578988646000	0.18692477	0.84635377	0.24617869
8578998778000	0.08368854	0.43096542	0.2864958
8579008116000	0.013439035	-0.09010262	0.26939157
8579020384000	0.0125227375	-0.44806966	0.12767084
8579028136000	0.08246681	-0.6258314	-0.21013765
8579039213000	0.13683382	-0.5421429	-0.6554584
8579048704000	0.0	-0.086132	-0.9443977
8579058806000	-0.34972036	0.54641896	-0.98807454
8579068175000	-0.86529064	1.0067059	-0.8857546
8579078856000	-1.4602734	1.1502593	-0.8078693
8579088774000	-1.9938642	1.2327261	-0.8491027
8579100981000	-2.3753495	1.3881912	-1.0122037
8579109495000	-2.598926	1.3594806	-1.2208142
8579119505000	-2.6685648	1.0192287	-1.2913691
8579128813000	-2.8081474	0.7464773	-1.2892311
8579139494000	-3.044247	0.106595986	-1.1407908
8579148833000	-3.2678237	-0.3943135	-0.96761054
8579159819000	-3.2073479	-0.49449542	-0.8353582
8579169401000	-2.8545732	-0.12461651	-0.7626653
8579179533000	-2.5265386	0.5366451	-0.7351763
8579188872000	-2.40742	1.1468995	-0.68233645
8579201140000	-2.3848178	1.4425583	-0.55924714
8579208891000	-2.3487768	1.4834863	-0.4120286
8579219939000	-2.2843306	1.4046847	-0.26939157
8579229582000	-2.0964894	1.2290609	-0.1518
8579239531000	-1.7889189	0.9221011	-0.19303341
8579248930000	-1.7033978	0.54641896	-0.42363504
8579259611000	-1.8176296	0.7339546	-0.7147123
8579268950000	-1.8493946	1.2516629	-0.8396343
8579281187000	-1.842675	1.3118331	-0.9621128
8579289641000	-1.7806722	1.1209377	-0.8958339
8579299681000	-1.7293595	0.7147123	-0.73792523
8579308989000	-1.7116444	-0.009162978	-0.5821546
8579319670000	-1.6771306	-0.6420194	-0.4822781
8579329008000	-1.5992452	-1.061073	-0.41050145
8579340086000	-1.464244	-1.3371841	-0.31887165
8579349608000	-1.2968669	-1.5409076	-0.22571471
8579359709000	-1.0974194	-1.5833627	-0.11056661
8579369047000	-0.87995136	-1.3976597	0.065973446
8579381316000	-0.66737026	-1.353372	0.22815818
8579389098000	-0.44806966	-1.4327844	0.33108896
8579400145000	-0.25411993	-1.3417655	0.4007276
8579409727000	-0.05375614	-1.2605205	0.43401974
8579419859000	0.053145275	-1.2547172	0.44073927
8579429198000	0.26725355	-1.2577715	0.4560109
8579439879000	0.48258355	-1.2415836	0.46578476
8579449187000	0.68203104	-1.1090258	0.43493605
8579461546000	0.8735373	-0.86620694	0.37201694
8579469786000	1.0729848	-0.6078109	0.32498032
8579479887000	1.2867876	-0.42394048	0.3023783
8579489317000	1.4932601	-0.3368922	0.29993483
8579499876000	1.6957619	-0.33200526	0.33414328
8579510466000	1.8787161	-0.39522982	0.3998113
8579520354000	1.9788979	-0.5335908	0.46273044
8579529875000	1.9016235	-0.76174897	0.47433686
8579543852000	1.6035212	-1.0152581	0.39858958
8579549254000	1.1136073	-1.1902709	0.27152961
8579561522000	0.5757405	-1.2809844	0.16157386
8579569273000	0.3381139	-1.3698653	0.11942416
8579579741000	-0.043066	-1.4367551	0.011911872
8579589384000	-0.28924468	-1.5839735	-0.1826487
8579599394000	-0.3576616	-1.679574	-0.3848451
8579608672000	-0.23335053	-1.717753	-0.46975538
8579619353000	-0.0067195175	-1.7299703	-0.44135013
8579628691000	0.17073683	-1.6184875	-0.3848451
8579641173000	0.28191432	-1.2837334	-0.36346483
8579649382000	0.49938235	-0.8176431	-0.41538838
8579659392000	0.9468411	-0.30176744	-0.5696318
8579668761000	1.4770721	0.23609942	-0.7867944
8579679442000	1.7348573	0.7431176	-0.8885035
8579688780000	1.5326608	1.4975362	-0.7272351
8579699797000	0.77182823	2.4217753	-0.31612277
8579709318000	-0.38545597	2.8108964	0.17470746
8579719450000	-0.8268061	2.3167064	0.52442783
8579728789000	-0.90285885	1.779145	0.64996064
8579741026000	-0.23151793	1.8945986	0.8894198
8579748808000	0.44990227	2.5720482	1.0213667
8579759917000	0.9147707	2.9095511	0.91965765
8579769530000	1.2415836	2.823419	0.75900006
8579779478000	1.4810427	2.6413813	0.6627888
8579788939000	1.6536123	2.536618	0.55741453
8579800230000	1.8316795	2.5607471	0.4456262
8579809447000	1.8356501	2.6322184	0.30634892
8579821745000	1.7027869	2.0195205	0.09407325
8579830077000	1.7125608	0.9987647	-0.24495697
8579840208000	1.2082914	1.2669345	-1.3848315
8579849516000	0.82924956	0.8029824	-2.4281893
8579860380000	1.9172006	1.0137309	-1.8356501
8579869627000	2.4804184	3.645033	-0.6087272
8579880705000	2.5121834	3.9694023	-0.0067195175
8579890257000	1.598329	3.388164	0.9254609
8579900420000	0.8903361	2.59465	1.395827
8579909697000	0.42455134	2.4776695	1.5741998
8579921995000	0.013744468	2.1948388	1.434617
8579929686000	-0.035430185	1.7562376	1.0094548
8579940794000	0.25228736	1.6484199	0.49693888
8579950377000	0.5161811	1.9556851	0.064751714
8579960417000	0.6267477	2.3600779	-0.22357668
8579969603000	0.5271767	2.5870142	-0.3100141
8579980315000	0.3005457	2.6297748	-0.22632557
8579989683000	0.18936823	2.5152376	-0.09712757
8580001952000	0.25442538	2.1310034	-0.018020526
8580010344000	0.41905355	1.525636	0.01038471
8580020354000	0.6059783	0.956615	0.032375857
8580029661000	0.68783426	0.59559363	0.057421334
8580040343000	0.8060367	0.49938235	0.13194689
8580049681000	0.86437434	0.43493605	0.22296582
8580060698000	0.88331115	0.49480084	0.33169982
8580071898000	0.8717047	0.6261369	0.44959682
8580080382000	0.8228355	0.7510588	0.5534439
8580089720000	0.75502944	0.8213083	0.6224717
8580102019000	0.71959925	0.8741482	0.66645396
8580109343000	0.7125743	0.90224797	0.71837753
8580120207000	0.6273586	0.88270026	0.78038037
8580131316000	0.41783184	0.9089675	0.79076505
8580139860000	0.2764165	0.9755518	0.68386364
8580149199000	0.30665436	0.9492846	0.56230146
8580159819000	0.31398472	0.65576386	0.5222898
8580169218000	0.21655174	0.09162979	0.4801401
8580181761000	0.16401732	-0.45570546	0.42088616
8580189787000	0.14385876	-0.67011917	0.17073683
8580204008000	0.26816985	-0.85062987	-0.26847526
8580209257000	0.33750305	-0.31215215	-0.70952
8580219908000	0.12003502	1.003957	-0.8912524
8580229277000	-0.35277468	2.2586741	-0.7486154
8580240324000	-0.829555	2.7058277	-0.39920044
8580249846000	-1.2559389	2.3976462	-0.09437868
8580259978000	-1.7721201	1.8713857	0.06505715
8580269316000	-2.3851233	1.6566665	0.15241088
8580281615000	-2.9791899	1.4504995	0.12797627
8580289336000	-3.3957999	0.77274454	-0.0852157
8580300444000	-3.5146132	-0.35216382	-0.42424592
8580309965000	-3.336546	-1.7208074	-0.82650065
8580320097000	-3.021034	-2.610227	-1.0693196
8580329466000	-2.8347201	-2.2525656	-1.0916162
8580340117000	-2.454762	-1.7104226	-1.0827587
8580349394000	-2.2479842	-0.52198434	-1.072374
8580361937000	-2.28036	0.03268129	-0.999681
8580369994000	-2.38268	-0.13561209	-0.743423
8580380156000	-2.440712	-0.3203988	-0.37812558
8580389464000	-2.2272146	-0.40194935	-0.11484267
8580400206000	-1.8099937	-1.006095	-0.12980886
8580409453000	-1.6621643	-1.6481144	-0.43463063
8580420531000	-1.777007	-1.1908818	-0.8765916
8580430144000	-1.7351627	-0.37568212	-1.2162327
8580440214000	-1.5259414	-0.30176744	-1.3234396
8580449492000	-1.396438	-0.77732605	-1.2263119
8580461821000	-1.4101825	-1.31672	-1.0616838
8580469542000	-1.4801265	-1.6759088	-0.9605856
8580480559000	-1.4966198	-1.9764545	-0.9398162
8580490141000	-1.4422529	-2.123673	-0.9221011
8580500243000	-1.2983941	-2.2956316	-0.9049969
8580509550000	-1.1258247	-2.262034	-0.8509353
8580520262000	-0.9260717	-2.2119431	-0.7443393
8580529570000	-0.689056	-2.2592852	-0.643852
8580542113000	-0.4120286	-2.2033908	-0.58276546
8580550139000	-0.15393804	-1.9792033	-0.5384777
8580560271000	0.028710667	-1.7550159	-0.47769663
8580569640000	0.15851954	-1.5598444	-0.41141775
8580580260000	0.24373524	-1.3429873	-0.34422258
8580589659000	0.3115413	-1.1777482	-0.25534168
8580600645000	0.37812558	-1.0775663	-0.1414153
8580610228000	0.43890667	-0.9440922	-0.01863139
8580620329000	0.51893	-0.7492262	0.09621128
8580629668000	0.5723807	-0.49388456	0.15271631
8580641875000	0.69974613	-0.3494149	0.27030787
8580649687000	0.8414669	-0.05955936	0.39461896
8580660734000	0.9990701	0.1600467	0.5308419
8580672057000	1.1569787	0.25595254	0.67347896
8580680327000	1.2776246	0.25900686	0.7693848
8580689726000	1.3371841	0.24556783	0.79381937
8580700499000	1.3521502	0.24709499	0.78801614
8580709746000	1.3356569	0.23945917	0.7703011
8580726286000	1.2812898	0.16676621	0.6921103
8580730498000	1.2027937	-0.0061086523	0.5369505
8580740446000	1.0864239	-0.26083946	0.34391713
8580749907000	0.90010995	-0.47525316	0.13439035
8580760466000	0.65668017	-0.42394048	-0.15668693
8580769835000	0.45142943	0.021685716	-0.5693264
8580780852000	0.39950588	0.56779927	-0.9279043
8580790526000	0.40042216	0.6640105	-1.0250319
8580800505000	0.50243664	0.5164866	-1.0720685
8580809874000	0.6740898	0.04886922	-1.0329732
8580822111000	0.88178396	-0.3555236	-0.99021256
8580829893000	1.1120802	-0.51893	-1.0076222
8580840971000	1.4123205	-0.4034765	-1.0830641
8580850493000	1.7449366	-0.12736541	-1.0983357
8580860594000	1.8606955	0.21135938	-0.9505063
8580869902000	1.3701707	0.70829827	-0.72204274
8580880583000	0.049480084	1.2947289	-0.4392121
8580889922000	-0.9437868	1.3384057	-0.13255776
8580902495000	-1.0005972	1.0250319	0.19181168
8580910582000	-0.95630956	1.4468343	0.73364913
8580920622000	-0.70646566	2.0576997	1.3164146
8580929961000	-0.47616947	1.947133	1.6349808
8580940672000	0.020463986	1.6142114	1.6606371
8580950011000	0.52931476	1.4941764	1.5314392
8580960966000	1.1026118	1.2993103	1.3219124
8580970579000	1.6178766	1.1866057	0.9550878
8580980681000	1.7537941	1.0958922	0.38973203
8580990050000	1.6022996	1.0036516	-0.13255776
8581002287000	1.577254	1.246776	-0.4025602
8581010069000	1.6948457	1.8719965	-0.38148534
8581021025000	1.7947221	2.3863451	-0.21410827
8581030760000	1.7379116	2.5534167	0.0070249503
8581040739000	1.3494014	2.420248	0.21868975
8581050139000	0.84421575	1.9819523	0.38423425
8581060759000	0.54550266	1.1844677	0.50885075
8581070128000	0.38545597	0.35369098	0.53786683
8581082640000	0.32895094	0.0061086523	0.4373795
8581090819000	0.35063666	0.23304509	0.36102137
8581100828000	0.47861293	0.46181414	0.21838433
8581110136000	0.6536258	0.8481864	0.11026118
8581120756000	0.7987063	0.96761054	0.04550946
8581130156000	0.8790351	0.93676186	0.03390302
8581141203000	0.8784242	0.97249746	0.06414085
8581150877000	0.8219192	1.1258247	0.11636983
8581160887000	0.7516697	1.3060299	0.16798794
8581170195000	0.7113526	1.3127494	0.20891592
8581182432000	0.7473936	1.1026118	0.23732115
8581190306000	0.8374963	0.88422745	0.26389378
8581201323000	0.9111055	0.79626286	0.30085114
8581210905000	0.9682214	0.77213365	0.36926803
8581220854000	1.0332786	0.70463306	0.4718934
8581230254000	1.0900891	0.5723807	0.589485
8581240935000	1.108415	0.41905355	0.64934975
8581250304000	1.1114693	0.36132678	0.7626653
8581262785000	1.0558805	0.32162055	0.8481864
8581272490000	0.9407325	0.28496864	0.88270026
8581280913000	0.75777835	0.16523905	0.86193085
8581290312000	0.5705481	0.10567969	0.79443026
8581301024000	0.44715336	0.21380283	0.68569624
8581310332000	0.39950588	0.4288274	0.5742133
8581321410000	0.37201694	0.6093381	0.4914411
8581332701000	0.27366763	0.66248333	0.43218717
8581341063000	0.17287487	0.5684101	0.37293324
8581350401000	0.15851954	0.39553526	0.27366763
8581366820000	0.20097467	0.24617869	0.15057829
8581370512000	0.23701571	0.0842994	-0.02687807
8581381407000	0.21288654	-0.07269296	-0.30757064
8581390990000	0.15882497	-0.092240654	-0.4541783
8581401091000	-0.098043874	-0.021991149	-0.636827
8581410460000	-0.56321776	0.24007004	-0.643852
8581421141000	-1.138042	0.43890667	-0.5946773
8581430479000	-1.690875	0.3555236	-0.60048056
8581442931000	-2.1401663	0.1826487	-0.7147123
8581452635000	-2.5039365	0.08552113	-0.9755518
8581461211000	-2.8166997	-0.04428773	-1.3509285
8581470549000	-3.009733	-0.19883664	-1.6649132
8581481169000	-3.1117475	-0.2959642	-1.7324139
8581490538000	-3.148094	-0.17867808	-1.5668694
8581501677000	-3.0088167	0.17440203	-1.3451253
8581511107000	-2.7333164	0.56505036	-1.1795808
8581521208000	-2.522568	0.7516697	-1.0259482
8581530547000	-2.5066855	0.70341134	-0.93187493
8581542815000	-2.5583036	0.6774496	-0.895223
8581550597000	-2.6251934	0.7443393	-0.7333437
8581561613000	-2.5079072	0.97219205	-0.4841107
8581571287000	-2.2983804	0.97158116	-0.3390302
8581581236000	-2.021964	0.5555819	-0.38606682
8581590605000	-1.7458528	0.004581489	-0.66950834
8581601561000	-1.7330247	-0.10293079	-1.0677924
8581611296000	-1.777007	0.46975538	-1.368949
8581623595000	-1.6991217	0.89888823	-1.473407
8581632048000	-1.6245961	0.713796	-1.4230106
8581642027000	-1.6105462	0.0	-1.3561208
8581651335000	-1.597718	-0.88208944	-1.2935071
8581661986000	-1.5625933	-1.5964963	-1.1746938
8581671355000	-1.4853189	-2.065641	-1.0167851
8581682402000	-1.344209	-2.2913556	-0.829555
8581691984000	-1.25319	-2.4043655	-0.729984
8581702086000	-1.0644327	-2.4294112	-0.54611355
8581711394000	-0.88270026	-2.3674083	-0.3753767
8581723631000	-0.65118235	-2.158187	-0.20708331
8581731383000	-0.36835176	-1.9199494	-0.058337633
8581742491000	-0.12095132	-1.709201	0.06688975
8581752043000	0.06566802	-1.5625933	0.183565
8581762083000	0.22266038	-1.5189165	0.28802297
8581771452000	0.39064834	-1.4773777	0.37048978
8581782103000	0.59986967	-1.3561208	0.42332962
8581791472000	0.8741482	-1.1249083	0.4465425
8581803770000	1.1869112	-0.8417723	0.48563787
8581812071000	1.4501941	-0.56779927	0.56169057
8581822111000	1.636508	-0.3463606	0.6401868
8581831480000	1.8267925	-0.20677789	0.7189884
8581842161000	1.9385809	-0.13713925	0.8567385
8581851530000	2.1273382	-0.1777618	0.95325524
8581862608000	2.0986276	-0.2657264	1.1273518
8581872099000	1.7418822	-0.59406644	1.1181889
8581885893000	1.1096367	-0.97097033	0.88117313
8581891356000	0.36193767	-1.176221	0.56291234
8581903899000	-0.25900686	-1.1285735	0.24404067
8581910918000	-0.5002986	-0.8539896	-0.12614368
8581921995000	-0.31245756	-0.58093286	-0.44318274
8581931639000	0.028099801	-0.44348818	-0.5390886
8581941618000	0.22113322	-0.42180246	-0.5021312
8581950987000	0.21319197	-0.40775254	-0.45814893
8581961638000	0.21227567	-0.41050145	-0.43004912
8581970976000	0.5149594	-0.6301075	-0.4700608
8581983488000	1.0622946	-0.93584555	-0.6401868
8581991637000	1.3249667	-1.0161743	-0.977079
8582001707000	1.6722436	-0.7507534	-1.1679744
8582011046000	1.6771306	-0.46822822	-1.361924
8582021727000	1.1817188	0.41416663	-1.1609493
8582031035000	0.42760566	1.4782939	-0.75655663
8582042082000	0.1020145	2.2110267	-0.2932153
8582051726000	-0.015577064	2.4559836	0.2782491
8582061735000	-0.05131268	2.2974641	0.8713993
8582071074000	0.12614368	1.7342464	1.3133603
8582083342000	0.40958515	1.2464706	1.5357152
8582091093000	0.90408057	0.93401295	1.5610662
8582102141000	1.5564847	0.6563747	1.484708
8582111662000	1.9040669	0.61391956	1.3252722
8582122649000	1.8530598	0.8698721	0.9431759
8582131773000	1.7910569	1.026559	0.4007276
8582142485000	1.8402315	0.8897252	0.010079277
8582151793000	1.8897116	0.9092729	-0.09315695
8582164091000	1.9877555	1.0341948	-0.14110987
8582172575000	1.9764545	1.2611313	-0.034513887
8582182524000	1.7140878	1.2733486	0.14538592
8582191893000	1.2718215	1.0806206	0.32253686
8582202544000	0.9416488	0.7134906	0.4260785
8582211943000	0.77457714	0.3830125	0.42149702
8582222868000	0.63041294	0.36132678	0.32559118
8582232603000	0.5338962	0.58276546	0.17623462
8582242613000	0.52473325	0.84665924	0.023823744
8582251952000	0.62125	1.0351112	-0.109650314
8582264159000	0.745561	0.9999864	-0.20189096
8582271971000	0.7696902	0.8576548	-0.226631
8582282957000	0.67011917	0.8072584	-0.20708331
8582292662000	0.5671884	0.8384125	-0.1423316
8582302672000	0.5549711	0.88453287	-0.09712757
8582312010000	0.59406644	0.88422745	-0.020463986
8582322722000	0.679893	0.7867944	0.027183503
8582332030000	0.7742717	0.61453044	0.08124508
8582344298000	0.8576548	0.45906523	0.1518
8582354155000	0.9370673	0.35613444	0.24129178
8582362700000	0.9914343	0.30024028	0.3481932
8582372069000	1.0094548	0.25411993	0.46670106
8582382689000	1.0161743	0.2180789	0.5830709
8582392058000	1.02717	0.20677789	0.6542367
8582403075000	1.0125091	0.16615535	0.6545421
8582414275000	0.93309665	0.09865474	0.58368176
8582422728000	0.8173377	0.08399397	0.4841107
8582432127000	0.6963864	0.23915374	0.42149702
8582444334000	0.5589417	0.5149594	0.46120325
8582452238000	0.47433686	0.6188065	0.5158757
8582463255000	0.23732115	0.6038403	0.6365216
8582472777000	0.018020526	0.5671884	0.69974613
8582486662000	0.0143553335	0.39064834	0.6059783
8582492125000	0.17256944	0.03848451	0.35430184
8582502837000	0.28893927	-0.24923302	0.007941248
8582512297000	0.20647246	-0.3662137	-0.43493605
8582524504000	-0.11911872	-0.22052236	-0.82802784
8582532835000	-0.5830709	0.25411993	-0.89675015
8582542265000	-1.1059716	0.820392	-0.6805039
8582551665000	-1.7168368	0.9224065	-0.43096542
8582562254000	-2.3576343	0.5928447	-0.29046643
8582571593000	-2.9535334	0.3390302	-0.35643986
8582582579000	-3.4440582	0.204029	-0.66156703
8582592253000	-3.6432004	0.04642576	-1.1505647
8582602812000	-3.6031888	-0.27091873	-1.402852
8582611571000	-3.395189	-0.47647488	-1.7296649
8582623869000	-3.2018502	-0.7107417	-1.7229455
8582631621000	-2.962391	-0.3286455	-1.5705346
8582642668000	-2.6994135	0.5323691	-1.4492778
8582652190000	-2.54517	1.0170907	-1.3170254
8582662291000	-2.47095	0.8594874	-1.1038336
8582671629000	-2.440712	0.7883216	-0.88789266
8582682249000	-2.2944098	1.0940597	-0.7257079
8582691649000	-1.9614882	1.352761	-0.6560693
8582704192000	-1.5121969	0.9966267	-0.7076874
8582712279000	-1.2666291	-0.029321533	-0.88422745
8582722380000	-1.4355333	-0.82253003	-1.1954633
8582731688000	-1.6490307	-0.70157874	-1.4966198
8582742400000	-1.6102408	-0.29779682	-1.5271631
8582751738000	-1.5418239	-0.33292156	-1.4584408
8582762846000	-1.4761559	-0.573297	-1.2855659
8582772276000	-1.493871	-1.3347405	-1.1462886
8582782439000	-1.4966198	-2.05098	-1.0516045
8582791777000	-1.4358387	-2.474615	-0.9825767
8582803984000	-1.2873985	-2.638327	-0.9370673
8582811797000	-1.0793989	-2.7207937	-0.88056225
8582822844000	-0.8597928	-2.844494	-0.784351
8582832365000	-0.6123924	-2.8069258	-0.68325275
8582842497000	-0.29749137	-2.4700336	-0.59620446
8582851927000	0.032375857	-1.9990565	-0.5164866
8582862486000	0.3200934	-1.6377298	-0.4288274
8582872160000	0.573297	-1.4046847	-0.34116822
8582884337000	0.79076505	-1.094976	-0.27214047
8582892393000	0.9761627	-0.7058548	-0.21502456
8582902525000	1.070236	-0.35033122	-0.15241088
8582911925000	1.2730432	-0.084910266	-0.112704635
8582922545000	1.4779885	0.027183503	-0.0106901415
8582931944000	1.6514742	0.24098633	0.1328632
8582942870000	1.7803668	0.3979787	0.33536503
8582952605000	1.8649716	0.42394048	0.58551437
8582962614000	1.8423696	0.3115413	0.8384125
8582972197000	1.6542231	0.07880162	1.035722
8582988066000	1.2999213	-0.3454443	1.1255192
8582992094000	0.8686504	-0.8698721	1.0742066
8583003020000	0.41538838	-1.2211196	0.86834496
8583012694000	-0.062308256	-1.3445144	0.50671273
8583022765000	-0.40408736	-1.3756685	0.05681047
8583032072000	-0.46609017	-1.2644911	-0.35002577
8583042631000	-0.2669481	-0.9975429	-0.59650993
8583052153000	-0.109650314	-0.7263188	-0.7602218
8583064482000	0.18051068	-0.5900958	-0.88117313
8583072661000	0.3378085	-0.5653558	-1.196685
8583082640000	0.46089783	-0.52931476	-1.4230106
8583092039000	0.82894415	-0.6065892	-1.4639386
8583102751000	1.5586227	-0.88606006	-1.486846
8583112089000	2.2235496	-1.0900891	-1.5131133
8583123045000	2.1401663	-0.98349303	-1.3643675
8583132658000	1.0250319	-0.48166725	-0.96791595
8583142790000	-0.39675698	0.4092797	-0.33261612
8583152129000	-1.0021244	1.1117748	0.37201694
8583164336000	-1.029308	1.2134838	1.0644327
8583172240000	-1.0616838	1.4520267	1.7171422
8583183195000	-0.8445212	1.6178766	2.2091942
8583192717000	-0.21868975	1.151481	2.36863
8583203795000	0.50854534	0.50488013	2.1197023
8583212157000	0.82802784	0.18051068	1.8472565
8583222868000	1.2892311	0.26053402	1.0891727
8583232207000	1.5280794	1.0189233	0.29749137
8583244749000	1.7305813	2.0696115	-0.27885997
8583252867000	2.0277672	2.5079072	-0.47067168
8583262907000	2.3854287	2.5011878	-0.28985557
8583272398000	2.388483	2.5619688	0.007941248
8583282957000	1.5851953	2.896723	0.30757064
8583292326000	0.7492262	3.068987	0.61300325
8583303862000	0.528093	2.1514673	0.8741482
8583312926000	0.5338962	0.6621779	0.98471475
8583322874000	0.55680364	-0.21044308	0.9230174
8583332274000	0.6985244	-0.2144137	0.7684685
8583344572000	1.0228939	0.16493362	0.58062744
8583352354000	1.3322971	0.4578435	0.4361578
8583363310000	1.4034629	0.6469063	0.3943135
8583372984000	1.4046847	0.7467828	0.36071593
8583382963000	1.353372	0.9245446	0.36926803
8583392332000	1.2742649	0.9746355	0.38881573
8583403014000	1.0986412	0.9560041	0.40408736
8583412352000	0.90041536	0.9279043	0.43585235
8583424864000	0.84940815	0.8399397	0.47250426
8583433043000	0.93462384	0.7144069	0.48502702
8583443053000	1.0372492	0.6365216	0.47891834
8583452391000	1.0754282	0.6365216	0.47128254
8583463072000	1.0549643	0.6356053	0.49327368
8583472411000	1.0519099	0.5494733	0.552833
8583483427000	1.0479393	0.44593164	0.6243043
8583494597000	1.0473285	0.35155296	0.698219
8583503111000	1.0595458	0.32406402	0.72143185
8583512450000	1.0589349	0.35246924	0.7049385
8583524718000	1.0421361	0.3371976	0.643852
8583532439000	0.9978484	0.22724187	0.5849035
8583543516000	0.8717047	0.19792034	0.5152648
8583554655000	0.6881397	0.41141775	0.42180246
8583563170000	0.5338962	0.6536258	0.3381139
8583572508000	0.37293324	0.8246681	0.29871312
8583587157000	0.19486602	0.9184359	0.3286455
8583592497000	0.08674286	0.7855727	0.39736784
8583605040000	0.07788532	0.4092797	0.41722095
8583613097000	0.10781772	-0.00580322	0.31398472
8583623198000	0.10567969	-0.2724459	0.059253927
8583632567000	0.029626964	-0.26236662	-0.30757064
8583643156000	-0.116980694	0.032986723	-0.61636305
8583653654000	-0.42485678	0.548557	-0.7058548
8583663603000	-0.6618725	0.9935723	-0.6621779
8583673186000	-1.2800682	1.0604621	-0.4718934
8583683317000	-2.0402899	0.88056225	-0.26450464
8583692656000	-2.8069258	0.6963864	-0.17379116
8583704863000	-3.4489453	0.64996064	-0.32528573
8583712645000	-3.7891972	0.4636467	-0.73364913
8583723692000	-3.6984837	0.07971791	-1.2852604
8583733214000	-3.3377676	-0.49632803	-1.7299703
8583743346000	-2.9944615	-0.9868528	-1.8872682
8583752684000	-2.6713138	-0.7153232	-1.8176296
8583763335000	-2.3099868	0.07544186	-1.6701056
8583772703000	-2.130698	0.56596667	-1.4987578
8583785246000	-2.1951442	0.7296785	-1.2883148
8583793303000	-2.2464569	0.73731434	-1.0861185
8583803343000	-2.1209242	0.63346726	-0.95356065
8583812743000	-2.0060816	0.47219884	-0.9086621
8583823363000	-1.6887369	0.3417791	-0.89552844
8583832762000	-1.2528846	-0.13988814	-1.0671816
8583843809000	-1.0809261	-0.7076874	-1.4132367
8583853819000	-1.1927143	-0.4260785	-1.7705929
8583863402000	-1.1759156	0.40378192	-1.960572
8583872801000	-1.0290025	0.48349985	-1.9840903
8583885069000	-0.9251554	-0.20097467	-1.9220876
8583892821000	-0.91721416	-1.1016954	-1.8344283
8583903868000	-0.9370673	-1.858252	-1.7996091
8583913512000	-0.8906415	-2.3606887	-1.8011361
8583923460000	-0.7470882	-2.575408	-1.7767016
8583932829000	-0.5656612	-2.6661212	-1.6844609
8583943480000	-0.37659842	-2.7586675	-1.5238034
8583952849000	-0.21074851	-2.7296515	-1.312444
8583965391000	-0.14569137	-2.5476136	-1.061073
8583973418000	-0.03970624	-2.2785273	-0.9263771
8583983549000	0.0729984	-2.1255057	-0.64873886
8583992888000	0.18967366	-1.8341229	-0.36682457
8584003569000	0.2929099	-1.6410894	-0.12156218
8584012907000	0.410196	-1.5448782	0.032375857
8584023955000	0.5742133	-1.4413365	0.11301007
8584033476000	0.7800749	-1.3118331	0.18845193
8584043608000	0.981355	-1.1578951	0.2950479
8584052946000	1.1450669	-0.9801333	0.46120325
8584065214000	1.2822062	-0.8206975	0.6976081
8584072935000	1.3927728	-0.698219	0.9859365
8584083983000	1.459968	-0.59315014	1.3051136
8584093535000	1.4230106	-0.5222898	1.6022996
8584103636000	1.2064588	-0.6246097	1.7782288
8584113005000	1.0403035	-0.9108001	1.749518
8584127562000	0.6750061	-0.9941832	1.6554449
8584133025000	0.3109304	-0.9089675	1.3377949
8584145537000	-0.0693332	-0.7473936	0.89644474
8584153593000	-0.35430184	-0.8402451	0.3885103
8584163725000	-0.39858958	-0.915687	-0.17440203
8584173033000	-0.25625798	-0.6392705	-0.75533485
8584183745000	0.008246681	-0.25442538	-1.210124
8584193114000	0.37568212	-0.25686884	-1.4706581
8584204192000	0.70249504	-0.4999932	-1.6230689
8584213713000	0.95386606	-0.5494733	-1.7110336
8584223845000	1.29198	-0.47250426	-1.6655241
8584233183000	1.7067575	-0.50915617	-1.4337007
8584245390000	1.7800614	-0.66248333	-1.0958922
8584253905000	1.1643091	-0.8732319	-0.74006325
8584264220000	0.30115658	-1.0002918	-0.37995818
8584273711000	-0.023518313	-0.74220127	-0.19456059
8584283812000	-0.42332962	-0.453262	0.21746802
8584293181000	-0.6630942	0.27183503	0.71593404
8584303862000	-0.72051555	1.0118983	1.269378
8584313200000	-0.4972443	1.2144	1.7095064
8584325713000	-0.020463986	0.6569856	1.8350391
8584333769000	0.5766568	-0.029626964	1.5796975
8584343901000	1.2000448	-0.2864958	0.9789116
8584353239000	1.6691893	0.08857546	0.20769419
8584363951000	1.8371773	0.8940013	-0.40317106
8584373259000	1.9361374	1.6380352	-0.6560693
8584384245000	2.1273382	2.032654	-0.6218608
8584393858000	2.1633792	2.3026567	-0.46792278
8584403960000	1.6105462	2.7369816	-0.24648413
8584413298000	0.90316427	3.1743612	0.11911872
8584425566000	0.72295904	2.7391198	0.33169982
8584433317000	0.6081163	2.127949	0.6789767
8584444334000	0.5039638	0.80756384	0.82924956
8584454008000	0.48808134	0.04795292	0.81153446
8584463957000	0.6930266	-0.19700404	0.70463306
8584473357000	0.96669424	-0.14294247	0.548557
8584484038000	1.1933253	0.099265605	0.37995818
8584493376000	1.3072516	0.45356745	0.2657264
8584505858000	1.294118	0.7724391	0.22143865
8584514067000	1.2098186	1.0228939	0.2501493
8584524077000	1.1383474	1.2140946	0.33536503
8584533415000	1.0998629	1.1924089	0.41996986
8584544066000	1.0699304	0.9828822	0.48197266
8584553435000	1.0213667	0.7974846	0.5222898
8584564482000	0.95233893	0.7147123	0.55863625
8584574126000	0.9251554	0.61300325	0.5852089
8584584105000	0.91996306	0.5271767	0.63163465
8584593474000	0.977079	0.3032946	0.6453791
8584605742000	1.033584	0.25167647	0.64996064
8584613463000	1.0830641	0.45478916	0.67256266
8584624510000	1.1557571	0.63713247	0.70616025
8584635649000	1.2351695	0.68752885	0.7339546
8584644102000	1.3057245	0.64904433	0.75533485
8584653532000	1.3274102	0.5684101	0.77274454
8584664183000	1.2916746	0.5128214	0.7761043
8584673552000	1.1911873	0.5164866	0.7443393
8584686095000	1.042747	0.63346726	0.6786713
8584695708000	0.93187493	0.7302894	0.5821546
8584704405000	0.8350528	0.7339546	0.47861293
8584713682000	0.7012733	0.77213365	0.42363504
8584724394000	0.61361414	0.8268061	0.42149702
8584733702000	0.40653083	0.83108217	0.45723262
8584748717000	0.22937989	0.75961095	0.47250426
8584754088000	0.1731803	0.61422503	0.39522982
8584764433000	0.2507602	0.5002986	0.24587326
8584773772000	0.3817908	0.5012149	0.059864793
8584786009000	0.40469822	0.63071835	-0.14172074
8584793791000	0.1695151	0.8371908	-0.2678644
8584804716000	-0.28008172	1.0485502	-0.19700404
8584814238000	-0.8017606	1.2724323	0.022602014
8584824370000	-1.3414601	1.2916746	0.20708331
8584833739000	-1.8958203	0.9596693	0.2443461
8584844328000	-2.4553728	0.6038403	0.076052725
8584853728000	-3.0161471	0.3371976	-0.2938262
8584866270000	-3.4626896	0.06719518	-0.79534656
8584874358000	-3.562566	-0.2837469	-1.0687088
8584884459000	-3.4419203	-0.5537493	-1.6126842
8584893797000	-3.0515773	-1.2452488	-2.0231857
8584904448000	-2.777299	-1.5824465	-2.125811
8584913786000	-2.6413813	-1.1023064	-1.9843957
8584924803000	-2.460565	-0.2666427	-1.7712038
8584934355000	-2.3994787	0.2947425	-1.5793921
8584944487000	-2.4663684	0.39614612	-1.3884968
8584953795000	-2.5256224	0.45937067	-1.2412782
8584966063000	-2.4401011	0.8240572	-1.1194105
8584973845000	-2.1661282	1.221425	-0.9859365
8584984892000	-1.738217	1.2366967	-0.8765916
8584994536000	-1.1826351	0.64934975	-0.96883225
8585004546000	-1.0940597	-0.18692477	-1.4083499
8585013884000	-1.4559973	0.015271631	-1.9016235
8585024504000	-1.5479325	0.91996306	-2.123673
8585033903000	-1.4947872	0.8350528	-2.1261165
8585046446000	-1.4523321	0.35002577	-1.9779817
8585054594000	-1.4902058	-1.0845913	-1.7571539
8585064574000	-1.4223998	-2.4275784	-1.5876387
8585073942000	-1.2907583	-3.0396655	-1.4395039
8585084593000	-1.1847731	-3.2473598	-1.3048081
8585093932000	-1.0390818	-3.4107661	-1.2043208
8585104979000	-0.81122905	-3.4104607	-1.0977248
8585114531000	-0.56230146	-3.1673362	-0.9767735
8585124632000	-0.33505958	-2.681393	-0.8399397
8585134001000	-0.11301007	-2.0925188	-0.655153
8585146239000	0.089491755	-1.68385	-0.43768495
8585154021000	0.27366763	-1.5528195	-0.2510656
8585165068000	0.4642576	-1.4963144	-0.12156218
8585174589000	0.56596667	-1.3732251	-0.03634648
8585184691000	0.7834347	-1.1716396	-0.0018325958
8585194029000	1.0170907	-1.0528263	0.07574729
8585204710000	1.2470814	-0.8414669	0.18509217
8585214079000	1.4544702	-0.7098254	0.34880406
8585226897000	1.6423112	-0.6462954	0.5500842
8585235228000	1.813048	-0.6102544	0.75777835
8585245360000	1.8796324	-0.5919284	0.9914343
8585254698000	1.6835446	-0.77854776	1.2287555
8585268980000	1.144456	-1.2623531	1.3573426
8585274809000	0.41538838	-1.6728544	1.294118
8585285826000	-0.15332718	-1.6841555	1.0897835
8585294707000	-0.36957347	-1.4694363	0.8213083
8585304777000	-0.3323107	-1.3182472	0.516792
8585314177000	-0.19883664	-1.1710287	0.24495697
8585326384000	0.04062254	-0.8573494	0.08002335
8585334196000	0.19333886	-0.45937067	0.028710667
8585345274000	0.43554693	-0.30298916	-0.1459968
8585354735000	0.4633413	-0.17623462	-0.5045747
8585364836000	0.41874814	-0.21135938	-0.8891144
8585374235000	0.6973027	-0.2489276	-1.1869112
8585384917000	1.3240504	-0.37965274	-1.3939945
8585394286000	1.6887369	-0.50946164	-1.5167783
8585406706000	1.2119566	-0.38759398	-1.5338826
8585414824000	0.07971791	0.1133155	-1.3335189
8585424925000	-0.5714644	0.68477994	-0.9053023
8585434264000	-0.33261612	0.7724391	-0.344528
8585444884000	-0.014049901	0.7275405	0.22235495
8585454283000	0.17104226	0.960891	0.6835582
8585465330000	0.42088616	1.0968086	0.9783007
8585475005000	0.84299403	0.9569204	1.0274754
8585484953000	1.1322387	0.6963864	0.9315695
8585494353000	1.7489072	0.65026605	0.49938235
8585506834000	2.080607	0.915687	-0.05131268
8585514525000	2.1019874	1.641395	-0.3820962
8585525542000	2.1261165	2.3741279	-0.42424592
8585535124000	2.081218	2.7382035	-0.27000242
8585545195000	1.6539177	3.073263	-0.049480084
8585554564000	1.031446	3.4929276	0.19730948
8585565276000	0.782213	3.3964107	0.5119051
8585574583000	0.77824235	2.3301454	0.816116
8585587065000	0.6805039	0.91874135	0.990518
8585595244000	0.64812803	0.08979719	1.0155635
8585605345000	0.8579602	-0.035430185	0.8903361
8585614714000	1.1936307	0.09468412	0.6795876
8585625365000	1.4312572	0.17715092	0.4728097
8585634734000	1.4844025	0.2687807	0.32070425
8585645750000	1.473407	0.3830125	0.27580565
8585655363000	1.3933836	0.7678576	0.24404067
8585665404000	1.3411547	1.0784826	0.2770274
8585674895000	1.269378	1.1074986	0.3323107
8585687163000	1.142318	0.9654725	0.36774087
8585694914000	1.010982	0.7657196	0.40103304
8585705962000	0.88178396	0.6365216	0.46578476
8585715575000	0.81153446	0.6383542	0.54519725
8585725584000	0.86132	0.61483586	0.6020077
8585734953000	0.9798279	0.57971114	0.6239988
8585745604000	1.0647382	0.61544675	0.61575216
8585754942000	1.0622946	0.68630713	0.61300325
8585767454000	1.0424415	0.74189585	0.643852
8585777129000	1.026559	0.77671516	0.65270954
8585785643000	1.0296134	0.73426	0.6075055
8585794981000	1.0558805	0.6411031	0.5830709
8585805693000	1.112691	0.62858033	0.5684101
8585815001000	1.0571023	0.6945538	0.5885687
8585826079000	0.87017757	0.82527894	0.6044512
8585835875000	0.6575964	1.0106765	0.5891795
8585845854000	0.50762904	1.1414018	0.57360244
8585855223000	0.39370266	1.1081096	0.61422503
8585871672000	0.2751948	0.86376345	0.6976081
8585875487000	0.22937989	0.4654793	0.7153232
8585886320000	0.33292156	0.026572637	0.5833763
8585895811000	0.4605924	-0.2666427	0.3210097
8585906004000	0.44226643	-0.23182335	-0.020463986
8585915373000	0.25717425	0.04550946	-0.37018433
8585926024000	-0.14355333	0.4007276	-0.6270532
8585935393000	-0.6826419	0.75716746	-0.66248333
8585947874000	-1.2104294	0.9502009	-0.49388456
8585955931000	-1.5097535	0.84391034	-0.36926803
8585966185000	-2.3270912	0.7189884	-0.1328632
8585975615000	-3.2806518	0.5161811	-0.07452556
8585986235000	-3.8930442	0.3494149	-0.32375857
8585995573000	-3.9538252	0.1469131	-0.8359691
8586006590000	-3.5619552	-0.27977628	-1.4679092
8586016142000	-3.0757065	-0.91996306	-1.9156734
8586026244000	-2.817616	-0.8142834	-2.0210476
8586035582000	-2.6245825	0.112704635	-1.9220876
8586047880000	-2.438574	0.8552113	-1.7510452
8586055632000	-2.4107797	0.9935723	-1.5378532
8586066710000	-2.4611762	0.86742866	-1.2855659
8586076231000	-2.4657576	0.88056225	-1.0897835
8586086363000	-2.3313673	1.169807	-0.93859446
8586095702000	-2.1001546	1.4859297	-0.75594574
8586106505000	-1.9300288	1.5283848	-0.5696318
8586115843000	-1.844813	1.2370021	-0.5225952
8586128386000	-1.5916094	0.98654735	-0.6215554
8586136565000	-1.4801265	0.56688297	-0.9370673
8586146513000	-1.600467	0.8524625	-1.2583824
8586155882000	-1.6887369	1.4517213	-1.3988814
8586166594000	-1.7024814	1.2110404	-1.3344351
8586175871000	-1.7308867	0.0018325958	-1.1591167
8586186858000	-1.6701056	-1.5012014	-0.9502009
8586196440000	-1.4382823	-2.3671029	-0.7644979
8586206633000	-1.423316	-2.4672847	-0.6246097
8586215941000	-1.4037683	-2.9697213	-0.41508293
8586228209000	-1.1191051	-3.542102	-0.17073683
8586235564000	-0.7825184	-3.49476	0.007941248
8586246153000	-0.6310238	-3.0531044	0.073303826
8586255644000	-0.3820962	-2.762638	0.16249016
8586265776000	-0.1740966	-2.1688771	0.21594086
8586275114000	0.04184427	-1.6743816	0.2657264
8586285796000	0.27030787	-1.3558154	0.3136793
8586295134000	0.516792	-1.1801916	0.35460728
8586315703000	1.0894781	-0.9126327	0.41050145
8586345854000	1.8545868	-0.4175264	0.59956425
8586366118000	2.1917844	-0.40103304	0.7153232
8586385863000	1.9349157	-0.8707884	0.7113526
8586411467000	0.4981606	-1.493871	0.3475823
8586435820000	-1.0473285	-0.70463306	-0.977079
8586445921000	-0.61850107	-1.457219	-1.1081096
8586455260000	0.011911872	-2.1200078	-0.93767816
8586465971000	0.4266894	-1.668273	-0.7293731
8586475279000	0.45753807	-0.97494096	-0.54641896
8586487822000	0.39736784	-0.91782504	-0.3811799
8586495879000	0.6169739	-1.3335189	-0.2910773
8586505949000	1.0537425	-1.6804903	-0.41691554
8586515318000	1.4223998	-1.7067575	-0.8032878
8586525999000	1.5293012	-1.4355333	-1.0980303
8586535338000	1.1905763	-0.679893	-0.95447695
8586546416000	0.8668178	0.44715336	-0.7516697
8586555968000	0.22082779	0.97158116	-0.3203988
8586566099000	-0.24770586	1.674687	0.111177474
8586575407000	-0.5861252	2.0998492	0.6093381
8586587675000	-0.5002986	2.2876904	1.054048
8586595427000	-0.05009095	1.8060231	1.31672
8586606596000	0.47219884	0.9868528	1.3570372
8586616179000	1.2073752	0.3173445	1.3011429
8586626158000	2.097406	-0.18600847	1.1679744
8586635557000	2.6203065	-0.5403103	0.7840455
8586646178000	2.5653286	-0.45204028	0.21105394
8586655455000	2.341141	0.09040806	-0.33322698
8586667967000	2.2660046	0.66737026	-0.6805039
8586676176000	2.2800546	1.2822062	-0.7687739
8586686125000	2.254398	1.8347337	-0.634689
8586695525000	2.1618521	2.0958786	-0.49418998
8586706175000	1.7116444	2.0851886	-0.11789699
8586715514000	1.1236867	1.7443258	0.25289822
8586726561000	0.74464476	1.0057896	0.48838675
8586736204000	0.5635232	0.27855456	0.5345071
8586746153000	0.47250426	0.11209377	0.40469822
8586755675000	0.5317582	0.46792278	0.1957823
8586767943000	0.77182823	0.8417723	-0.0036651916
8586775633000	1.0057896	0.91721416	-0.11911872
8586786650000	1.0922271	0.8472701	-0.116675265
8586797789000	1.0259482	0.8194757	-0.045814894
8586806273000	0.86162543	0.8906415	0.03481932
8586815642000	0.72051555	0.9673051	0.10293079
8586826323000	0.68600166	0.93615097	0.15699236
8586835661000	0.7110472	0.8145888	0.20219639
8586848143000	0.7333437	0.65484756	0.22449298
8586857817000	0.80664754	0.59956425	0.2764165
8586866362000	0.92057395	0.59589905	0.34697145
8586875670000	1.0418307	0.657291	0.4392121
8586886351000	1.1343768	0.6591236	0.5390886
8586895689000	1.180497	0.569021	0.6246097
8586906737000	1.1829406	0.4334089	0.6826419
8586916380000	1.1456778	0.30451632	0.7165449
8586926451000	1.0586295	0.22907446	0.72692966
8586935789000	0.9370673	0.26389378	0.7079928
8586948057000	0.8210029	0.40011674	0.67164636
8586955870000	0.70554936	0.50823987	0.6575964
8586966826000	0.52106804	0.5045747	0.6560693
8586977934000	0.25992316	0.6044512	0.6087272
8586986418000	0.118202426	0.8164214	0.52412236
8586995817000	0.121256754	0.71929383	0.47158796
8587010466000	0.1957823	0.54336464	0.32895094
8587015807000	0.28252518	0.12370021	0.12492194
8587028349000	0.29016098	-0.20830505	-0.13469578
8587036406000	0.1554652	-0.31398472	-0.46120325
8587046507000	-0.03970624	-0.064446285	-0.7641924
8587055876000	-0.32986724	0.50762904	-0.81000733
8587066557000	-0.84879726	0.8793405	-0.62796944
8587075896000	-1.4477507	0.6618725	-0.559858
8587086912000	-1.7986927	0.16187929	-0.8695667
8587096464000	-1.8548924	-0.1777618	-1.4052955
8587107481000	-2.1270328	-0.4007276	-1.7510452
8587115965000	-2.7525587	-0.5513059	-1.8280143
8587128172000	-3.1575625	-0.56230146	-1.7284433
8587135924000	-3.200323	-0.46639562	-1.5103643
8587147002000	-3.19116	-0.20189096	-1.1939361
8587156523000	-3.196047	-0.05375614	-1.0210613
8587166655000	-3.1300735	0.1994475	-0.7507534
8587175993000	-2.9639182	0.49754974	-0.6084218
8587186613000	-2.7638597	0.7623598	-0.4700608
8587196013000	-2.5980098	0.9202685	-0.30268374
8587208678000	-2.5631905	0.97524637	-0.1994475
8587216582000	-2.543643	0.94959	-0.17562376
8587226713000	-2.3063216	0.9080512	-0.24373524
8587236052000	-1.8484782	0.8032878	-0.52870387
8587247404000	-1.6493362	0.64904433	-0.92087936
8587256651000	-1.459968	0.81306165	-1.1258247
8587267668000	-1.7788396	1.1346822	-1.0775663
8587277342000	-2.228742	0.41996986	-0.8552113
8587287321000	-2.1493294	-0.8570439	-0.6649268
8587296690000	-2.0818288	-1.7492126	-0.60139686
8587308928000	-1.9608774	-2.3130412	-0.63224554
8587316710000	-1.8435913	-2.4642303	-0.77274454
8587327757000	-1.758681	-2.6697865	-0.8903361
8587337401000	-1.5323554	-2.9400945	-0.8176431
8587347380000	-1.2046263	-2.8771753	-0.61666846
8587356749000	-0.9392053	-2.5341744	-0.43035457
8587367400000	-0.68325275	-2.244319	-0.29229903
8587376768000	-0.40744713	-1.9031507	-0.2049453
8587388975000	-0.121256754	-1.5402967	-0.16432275
8587397337000	0.14996742	-1.244638	-0.1386664
8587407530000	0.40469822	-1.0030408	-0.11148291
8587416899000	0.6563747	-0.7528914	-0.093767814
8587427550000	0.91813046	-0.49357912	-0.070249505
8587436919000	1.181108	-0.27488935	-0.017104227
8587447935000	1.4227052	-0.15302174	0.081855945
8587457487000	1.5293012	-0.1001819	0.15149458
8587467650000	1.704925	-0.092240654	0.312763
8587477019000	1.853976	-0.12980886	0.4633413
8587489195000	2.0179935	-0.24617869	0.62888575
8587496977000	2.1481075	-0.41630468	0.85062987
8587507872000	2.1044307	-0.6795876	1.0216721
8587517454000	1.7415768	-1.0748174	0.97341377
8587531157000	1.0647382	-1.3310753	0.73548174
8587537016000	0.2144137	-1.2947289	0.48075095
8587547575000	-0.5225952	-1.1917981	0.20616703
8587556944000	-0.7861836	-1.0454959	-0.16829337
8587568846000	-0.5687156	-0.9049969	-0.49480084
8587577055000	-0.2144137	-0.8539896	-0.5751296
8587587035000	0.06627888	-0.86315256	-0.41447207
8587596403000	0.26175576	-1.0528263	-0.17989981
8587607024000	0.33200526	-1.604743	-0.10293079
8587616423000	0.4810564	-1.9327776	-0.13103059
8587627409000	0.73273283	-2.2950208	-0.44715336
8587636992000	1.1224649	-2.0760255	-0.9877691
8587647093000	1.5964963	-1.4199562	-1.598329
8587656462000	1.8982637	-0.42577308	-1.9874501
8587668669000	1.5500705	0.7119634	-1.9022343
8587676451000	0.10903945	1.5775595	-1.3112222
8587687529000	-0.5876524	1.5757269	-0.41538838
8587697020000	-0.37415496	1.5100589	0.47158796
8587707121000	-0.57757306	2.2941043	1.3093897
8587716490000	-0.3857614	2.3515258	1.9178114
8587727171000	0.10781772	1.6276505	2.1725423
8587736510000	0.5546656	0.98899084	2.1105394
8587748991000	1.1707232	0.26053402	1.8603901
8587757109000	1.5525141	-0.59498274	1.6627752
8587767180000	2.339003	-0.95203346	1.010982
8587777129000	2.8588493	-1.2293663	0.15027285
8587787840000	2.866485	-0.634689	-0.6365216
8587797148000	2.5922067	0.29168814	-1.1869112
8587808134000	2.3704627	0.86254174	-1.328021
8587817869000	2.3243423	1.2092078	-1.1585059
8587827788000	2.17804	1.5589281	-0.8604037
8587837187000	1.5561792	1.8802432	-0.46731192
8587849486000	0.73853606	1.9080375	-0.058643065
8587857237000	0.118202426	1.6239853	0.24648413
8587868224000	-0.2828306	1.3756685	0.40500367
8587877898000	-0.39920044	1.3234396	0.40133846
8587887907000	-0.20158553	1.3072516	0.2452624
8587897246000	0.18417588	1.183246	0.01160644
8587907927000	0.39278635	0.86254174	-0.09285152
8587917296000	0.7309003	0.68661255	-0.21044308
8587929655000	0.9077458	0.46120325	-0.20769419
8587939482000	0.999681	0.32467487	-0.14660765
8587947935000	1.0082331	0.24862215	-0.087659165
8587957335000	0.9502009	0.24465153	-0.03970624
8587968901000	0.87995136	0.28160888	-0.0027488936
8587977354000	0.8145888	0.3857614	0.037873644
8587988371000	0.7678576	0.54061574	0.0983493
8587999510000	0.7648033	0.657291	0.18570304
8588008025000	0.8176431	0.6808093	0.30207285
8588017393000	0.9077458	0.63194007	0.43310347
8588029631000	1.0002918	0.5030475	0.552833
8588037382000	1.0720685	0.31581733	0.65393126
8588048460000	1.1117748	0.1282817	0.74220127
8588059569000	1.1175779	0.004886922	0.7788532
8588068053000	1.0903945	-0.014966198	0.81214535
8588077452000	0.9975429	0.0421497	0.7699956
8588088103000	0.84391034	0.1826487	0.6722572
8588097441000	0.6536258	0.2910773	0.54183745
8588109709000	0.45265114	0.35063666	0.4175264
8588118040000	0.2134974	0.39858958	0.3894266
8588131865000	0.02076942	0.28313604	0.39706242
8588137328000	0.070249505	-0.11484267	0.2501493
8588148192000	0.3213151	-0.5497787	-0.10934488
8588157652000	0.42119157	-0.70646566	-0.5699373
8588167967000	0.14752395	-0.46395215	-0.94042706
8588177489000	-0.35033122	0.19792034	-1.028697
8588187651000	-0.9221011	0.98349303	-0.83658
8588196959000	-1.6597209	1.3582588	-0.52687126
8588209227000	-2.0824397	1.1969905	-0.37110063
8588216978000	-2.8973339	1.0170907	-0.3827071
8588228026000	-3.4880404	0.6282749	-0.5653558
8588237578000	-3.604105	0.11148291	-1.1215485
8588247710000	-3.2104023	-0.63499445	-1.917506
8588257048000	-2.966056	-1.4223998	-2.3005185
8588267729000	-3.2583551	-1.7418822	-2.10046
8588277067000	-3.479183	-1.5076154	-1.6187929
8588289610000	-3.300505	-0.88117313	-1.0531317
8588297606000	-3.1132748	0.34116822	-0.5873469
8588307677000	-3.029586	0.9663888	-0.31978795
8588317076000	-2.9006937	0.7370089	-0.12308934
8588327696000	-2.6975808	0.74097955	-0.084910266
8588337096000	-2.3738225	0.65148777	-0.2321288
8588348143000	-1.892155	0.12614368	-0.5180137
8588357664000	-1.6911805	-0.6542367	-0.93645644
8588367796000	-1.6258179	-0.9615019	-1.1508701
8588377135000	-1.7531832	-0.89369583	-1.496009
8588389952000	-1.7831156	-0.464563	-1.5818355
8588397734000	-1.8060231	-0.5852089	-1.4318681
8588408842000	-1.8756617	-1.1047498	-1.1673635
8588418303000	-1.9413297	-1.91323	-0.8524625
8588428374000	-1.9297233	-2.6352727	-0.59315014
8588437773000	-1.890628	-2.891225	-0.41080686
8588448515000	-1.7898352	-2.785851	-0.25992316
8588457793000	-1.6062702	-2.702468	-0.10629055
8588470061000	-1.3423764	-2.7076602	0.0036651916
8588478361000	-1.0424415	-2.5405886	0.062002823
8588488493000	-0.77274454	-2.2617285	0.11056661
8588497862000	-0.535118	-2.0244074	0.15821409
8588508482000	-0.32345316	-1.749518	0.21197024
8588517851000	-0.22174409	-1.45783	0.23823744
8588528868000	-3.0543262E-4	-1.3234396	0.27947086
8588538451000	0.25809056	-1.058324	0.29993483
8588548552000	0.53786683	-0.7663304	0.310625
8588557890000	0.8304713	-0.4456262	0.32284227
8588570189000	1.1371256	-0.14721853	0.3313944
8588577910000	1.4327844	0.07544186	0.33414328
8588588957000	1.7110336	0.24465153	0.3491095
8588598479000	1.9828686	0.3885103	0.38423425
8588608580000	2.2660046	0.4999932	0.42088616
8588617949000	2.575408	0.54061574	0.45814893
8588628569000	2.8808405	0.46670106	0.54092115
8588637968000	3.083037	0.28069258	0.6914995
8588650206000	3.025921	0.0143553335	0.79076505
8588658537000	2.4911084	-0.30298916	0.7247916
8588672270000	2.01555	-0.52687126	0.6273586
8588678130000	0.752586	-0.5739079	0.30757064
8588688750000	-0.40194935	-0.54458636	-0.14660765
8588697447000	-0.83077675	-0.27916542	-0.6722572
8588708403000	-0.6105598	-0.08582657	-1.10139
8588718138000	-0.112399206	-0.23823744	-1.094976
8588728087000	0.30818152	-0.376293	-0.74372846
8588737456000	0.43554693	-0.30695978	-0.44409904
8588749693000	0.30665436	-0.24678956	-0.30451632
8588757506000	0.258396	-0.4034765	-0.258396
8588768584000	0.5879578	-0.7510588	-0.31673363
8588778105000	1.2379184	-0.9795224	-0.6078109
8588788237000	1.8930714	-0.8206975	-1.0858129
8588797545000	1.9978348	-0.47769663	-1.5225816
8588808195000	0.9682214	-0.08827003	-1.7253889
8588817564000	0.30695978	0.52595496	-1.7171422
8588830107000	-0.15851954	1.028697	-1.5836681
8588838255000	0.14844026	2.7699685	-1.3176364
8588848265000	-0.039095376	4.572937	-0.70341134
8588857603000	-0.49541172	4.728708	0.14202617
8588868285000	-0.602924	3.5369098	0.98746365
8588877592000	-0.35308012	2.0592268	1.5928311
8588888640000	0.027794369	0.88606006	1.8579466
8588898192000	0.47708577	0.13439035	1.9025398
8588908263000	0.9599747	-0.22907446	1.784032
8588918242000	1.4352279	-0.25167647	1.5399913
8588930510000	1.6536123	-0.0061086523	1.1520919
8588938261000	1.5986344	0.21380283	0.57848936
8588949309000	1.7037032	0.3943135	-0.01160644
8588958830000	2.0265455	0.91721416	-0.4343252
8588968901000	2.162463	1.6881261	-0.57543504
8588978300000	2.21683	2.0598376	-0.70921457
8588988921000	1.9908098	2.6639833	-0.62949663
8588998320000	1.6759088	2.855184	-0.35430184
8589010619000	1.3759739	2.3451116	0.03359759
8589019011000	1.0589349	1.3005321	0.3717115
8589028990000	0.79320854	0.30604348	0.54428095
8589038359000	0.6365216	-0.21319197	0.56046885
8589049040000	0.54305923	-0.30207285	0.47708577
8589058379000	0.5030475	-0.17012598	0.3295618
8589069426000	0.62980205	0.020158553	0.16187929
8589079069000	0.9184359	0.20586158	0.032986723
8589089079000	1.112691	0.38148534	-0.034208454
8589098418000	1.1139128	0.64721173	-0.040927973
8589110686000	1.0146471	0.9459248	-0.005497787
8589118437000	0.96577793	1.063211	0.03145956
8589129546000	0.90194255	1.0277808	0.12889257
8589139128000	0.8790351	0.84940815	0.22143865
8589149138000	0.84482664	0.6960809	0.29535335
8589158476000	0.8035932	0.68111473	0.36010507
8589169188000	0.8045095	0.73975784	0.43463063
8589178496000	0.8567385	0.7309003	0.51343226
8589190764000	0.91232723	0.6215554	0.591623
8589199187000	0.93584555	0.47769663	0.65576386
8589209196000	0.9550878	0.36682457	0.6933321
8589218535000	0.99021256	0.3304781	0.7101309
8589229246000	1.0045679	0.36041048	0.7125743
8589238554000	0.94134337	0.36896262	0.70463306
8589249632000	0.8216137	0.30268374	0.68691796
8589260741000	0.6780604	0.26847526	0.6582073
8589269255000	0.59223384	0.34483343	0.6658431
8589278593000	0.38026363	0.40744713	0.6826419
8589290831000	0.17012598	0.52442783	0.6921103
8589298613000	0.08857546	0.56230146	0.6414085
8589313505000	0.2049453	0.41172317	0.52626044
8589319151000	0.42577308	0.099571034	0.33353242
8589329314000	0.6001751	-0.19761491	0.052534413
8589338713000	0.6423248	-0.38331795	-0.3032946
8589348692000	0.40530908	-0.3368922	-0.6230826
8589358061000	-0.112399206	0.12889257	-0.76174897
8589370573000	-0.6826419	0.86620694	-0.68630713
8589378661000	-1.235475	1.2632693	-0.46975538
8589388762000	-1.853976	1.0512991	-0.28710666
8589398100000	-2.4239132	0.7733554	-0.32070425
8589408720000	-2.8170052	0.6267477	-0.6239988
8589418150000	-2.9480357	0.35613444	-1.094976
8589429167000	-3.10289	0.16462818	-1.3503176
8589438841000	-3.2000177	-0.21655174	-1.7617353
8589448820000	-3.338073	-0.4098906	-1.8585575
8589458159000	-3.3820555	-0.3051272	-1.6832392
8589470427000	-3.257439	0.009162978	-1.4569136
8589478178000	-3.1483996	0.44104472	-1.3035865
8589489165000	-3.0024028	0.82772243	-1.1490375
8589498747000	-2.7733283	0.9624182	-0.88025683
8589508849000	-2.5778513	0.895223	-0.59406644
8589518217000	-2.3386977	0.71776664	-0.5311473
8589528838000	-1.915368	0.22876903	-0.8014552
8589538206000	-1.6032158	-0.5036584	-1.2525792
8589550993000	-1.5592335	-0.7654142	-1.6258179
8589559508000	-1.6001616	-0.6056729	-1.7733418
8589569517000	-1.6331482	-0.54458636	-1.6734654
8589578886000	-1.6536123	-0.79137594	-1.568702
8589589537000	-1.7186694	-1.0369438	-1.3530666
8589598875000	-1.7806722	-1.5717562	-1.207986
8589609953000	-1.7806722	-1.9877555	-1.1279627
8589619627000	-1.7162259	-2.3038783	-1.0784826
8589629607000	-1.6392568	-2.4397957	-1.0525209
8589638945000	-1.5326608	-2.4318545	-1.001819
8589651488000	-1.3897184	-2.435825	-0.8918633
8589659087000	-1.2092078	-2.4853053	-0.7535023
8589670195000	-0.958753	-2.4330764	-0.61269784
8589679655000	-0.6774496	-2.155438	-0.45906523
8589689787000	-0.43096542	-1.781894	-0.2864958
8589699126000	-0.24007004	-1.5018122	-0.11789699
8589709685000	-0.07666359	-1.2632693	0.011911872
8589719054000	0.08735373	-1.0485502	0.07971791
8589731291000	0.17562376	-0.88331115	0.096516706
8589739622000	0.3744604	-0.81000733	0.1282817
8589749724000	0.5867361	-0.65270954	0.17715092
8589759062000	0.79809546	-0.4718934	0.25259277
8589769743000	1.0103711	-0.28771752	0.35369098
8589779082000	1.2366967	-0.11178834	0.48838675
8589790099000	1.4844025	0.02687807	0.67164636
8589799651000	1.7333301	0.09285152	0.86070913
8589809874000	1.9801197	0.08368854	1.0045679
8589819243000	2.251344	0.017104227	1.1108584
8589831419000	2.5357015	-0.14049901	1.2223413
8589839232000	2.7635543	-0.41172317	1.2733486
8589850310000	2.7919595	-0.7461719	1.131017
8589859770000	2.3588562	-1.0290025	0.77213365
8589873595000	1.3658947	-1.1676689	0.34391713
8589879088000	0.79168135	-0.9434814	0.14019357
8589889922000	-0.07147124	-0.62980205	-0.31703907
8589899290000	-0.41813725	0.118507855	-0.8597928
8589911558000	-0.5161811	0.22021692	-1.2299771
8589919951000	-0.42363504	-0.6374379	-1.201572
8589929930000	-0.14721853	-1.5421293	-0.9334021
8589939482000	0.057421334	-1.4416419	-0.68966687
8589949248000	0.13225232	-0.788627	-0.49327368
8589958678000	0.3933972	-0.48533243	-0.35216382
8589969694000	0.98440933	-0.5879578	-0.3100141
8589979216000	1.6016886	-0.8933904	-0.45112398
8589989348000	1.8133535	-1.1417072	-0.6936375
8589998686000	1.178359	-1.0543534	-0.829555
8590010954000	0.065973446	-0.59742624	-0.8020661
8590018706000	-0.16584991	0.12644911	-0.71959925
8590029753000	-0.0070249503	1.4291192	-0.6386596
8590039244000	0.17287487	2.2021692	-0.24678956
8590049406000	0.030543262	3.1816916	0.31337386
8590058745000	-0.19517145	2.810591	0.795652
8590069426000	-0.20891592	1.65911	1.1563679
8590078764000	0.20799962	0.6258314	1.3264939
8590091246000	0.8176431	0.01740966	1.3396275
8590099425000	1.2953397	-0.14263703	1.2137892
8590109465000	1.6288722	0.05497787	0.9923506
8590118773000	1.8112154	0.45906523	0.77763146
8590129454000	1.8524488	0.70707655	0.52503866
8590138792000	1.9507982	0.7104363	0.25442538
8590149840000	2.1169536	0.7840455	0.02443461
8590159483000	2.1426098	1.0729848	-0.14294247
8590169463000	1.9043725	1.459968	-0.22113322
8590179442000	1.715615	1.670411	-0.2098322
8590191710000	1.3298537	1.6178766	-0.06536258
8590199461000	1.1074986	1.2232577	0.14782938
8590210539000	1.031446	0.7819075	0.29168814
8590220183000	0.86315256	0.6221663	0.34972036
8590230162000	0.58184916	0.72418076	0.3555236
8590239500000	0.3555236	0.8356637	0.3210097
8590250243000	0.27885997	0.75808376	0.23762658
8590259520000	0.3481932	0.6032294	0.12980886
8590271788000	0.49388456	0.54275376	0.028710667
8590281889000	0.6264423	0.57451874	-0.03573562
8590290190000	0.71868294	0.5910121	-0.041233405
8590299559000	0.7507534	0.5497787	0.004276057
8590310423000	0.7348709	0.43371433	0.074830994
8590319701000	0.7318166	0.25350907	0.14080444
8590330687000	0.7431176	0.13133603	0.18448131
8590340178000	0.7809912	0.11148291	0.19608775
8590349699000	0.83260936	0.13255776	0.2134974
8590359038000	0.90377516	0.20372356	0.25167647
8590371306000	0.9718866	0.25442538	0.33200526
8590379057000	1.0149527	0.21838433	0.4297437
8590390105000	1.0354166	0.12797627	0.52442783
8590401244000	1.070236	0.043066	0.59620446
8590409727000	1.1120802	-0.025045475	0.62858033
8590419066000	1.1096367	-0.07147124	0.6417139
8590429747000	1.0482447	-0.069027774	0.6389651
8590439116000	0.95081174	-0.018936822	0.5928447
8590451659000	0.8509353	0.08155051	0.50488013
8590461272000	0.75594574	0.23976462	0.4166101
8590469817000	0.61544675	0.40530908	0.39522982
8590479124000	0.5225952	0.42577308	0.4728097
8590489775000	0.32559118	0.33841935	0.52839845
8590499174000	0.17562376	-0.022907447	0.5919284
8590514250000	0.14385876	-0.48349985	0.48533243
8590519560000	0.27916542	-0.7678576	0.1301143
8590529814000	0.42180246	-0.7516697	-0.39400807
8590539213000	0.22052236	-0.47983465	-0.8781188
8590551451000	-0.4071417	0.039095376	-1.1472049
8590559233000	-1.0613784	0.7318166	-1.2040154
8590570280000	-1.5262468	1.2846496	-1.1053606
8590579802000	-1.9236146	1.4001031	-1.0009027
8590589903000	-2.3081543	1.1410962	-1.0280862
8590599272000	-2.8087585	0.7165449	-1.1151345
8590609923000	-3.360675	0.44318274	-1.1560625
8590619292000	-3.6001344	0.3182608	-1.1578951
8590631804000	-3.5592062	-0.09407325	-1.0763446
8590639860000	-3.3625078	-0.65057147	-0.97249746
8590649992000	-3.2672129	-0.7812967	-0.7244862
8590659300000	-3.2592716	-0.63529986	-0.6203337
8590669920000	-3.250414	-0.15149458	-0.65240407
8590679320000	-3.1722233	0.44837508	-0.7128797
8590690367000	-2.9794953	0.83260936	-0.7651087
8590699919000	-2.67223	0.8863655	-0.8014552
8590710051000	-2.3124304	0.852157	-0.86498517
8590719359000	-1.9712621	0.59803706	-0.9841039
8590731627000	-1.8396207	0.19303341	-1.0995574
8590739348000	-1.9016235	0.2751948	-1.2333369
8590750456000	-1.926669	0.3622431	-1.4095715
8590760100000	-1.7928895	0.051618114	-1.5531249
8590770079000	-1.5870279	-0.42119157	-1.6007724
8590779417000	-1.400714	-0.88331115	-1.5564847
8590790099000	-1.3252722	-1.2935071	-1.5161675
8590799437000	-1.2098186	-1.529912	-1.4110987
8590811919000	-1.1136073	-1.9391917	-1.2907583
8590820036000	-0.9923506	-2.0998492	-1.1863003
8590830107000	-0.83291477	-2.1252003	-1.0983357
8590839476000	-0.63499445	-2.1337523	-0.99112886
8590850340000	-0.38606682	-2.0809124	-0.8549059
8590859495000	-0.110872045	-1.8817704	-0.7031059
8590870543000	0.14630222	-1.5961909	-0.53969944
8590880095000	0.36926803	-1.402852	-0.3817908
8590890166000	0.5717699	-1.3875804	-0.24770586
8590899535000	0.7452556	-1.378112	-0.13347405
8590911742000	0.9053023	-1.280679	-0.018936822
8590919554000	1.0894781	-1.110553	0.11362094
8590930601000	1.3011429	-0.8695667	0.25320363
8590940123000	1.4123205	-0.6010914	0.3182608
8590950316000	1.6249015	-0.46853364	0.4447099
8590959593000	1.7974709	-0.21960606	0.589485
8590970244000	1.926669	-0.021380283	0.7831292
8590979613000	1.9847012	0.093462385	1.03786
8590992155000	1.9120082	0.110872045	1.2993103
8591000182000	1.6707164	-0.0720821	1.4853189
8591014098000	1.2718215	-0.45998153	1.5409076
8591019621000	0.7791586	-0.79290307	1.4333953
8591030302000	0.20769419	-0.8900307	1.0937542
8591039671000	-0.3304781	-0.7657196	0.54428095
8591050688000	-0.5305365	-0.5207626	-0.022602014
8591060240000	-0.3042109	-0.3371976	-0.39736784
8591070311000	-0.035430185	-0.34788775	-0.6206391
8591079741000	-0.059864793	-0.43066	-0.9083566
8591092009000	-0.11026118	-0.25411993	-1.0818423
8591099730000	0.025961773	-0.09162979	-1.3726143
8591110777000	0.6035349	0.13683382	-1.4999796
8591120329000	1.3979651	0.07391469	-1.5262468
8591130431000	1.9077321	-0.3576616	-1.4758505
8591139799000	1.5558738	-0.7675522	-1.2980887
8591150450000	0.33169982	-0.64812803	-0.9868528
8591159788000	-0.61636305	-0.049785517	-0.6246097
8591172301000	-0.68508536	0.56199604	-0.25320363
8591180479000	-0.54183745	1.104139	0.29993483
8591190489000	-0.36285394	1.4462235	0.93523467
8591199828000	-0.08827003	1.1615603	1.3884968
8591210539000	0.18203785	0.6658431	1.5714508
8591219847000	0.5708536	0.4175264	1.5283848
8591230803000	1.133155	0.59406644	1.2956452
8591240416000	1.4095715	1.1936307	1.0894781
8591250578000	1.7733418	1.4844025	0.4841107
8591259917000	1.8044959	1.865277	-0.1908954
8591272154000	1.749518	2.3732114	-0.66431594
8591279936000	1.8655825	2.9657507	-0.79229224
8591290922000	1.9074267	3.281568	-0.6441574
8591300505000	1.4553864	3.4168746	-0.34666604
8591310606000	0.85154617	3.4132094	0.03726278
8591319945000	0.6395759	2.728735	0.4288274
8591330595000	0.59040123	1.3151928	0.7107417
8591339934000	0.47158796	0.089491755	0.81153446
8591352660000	0.46273044	-0.38453966	0.7629707
8591360655000	0.6282749	-0.20738874	0.6261369
8591370604000	0.77091193	0.25411993	0.43310347
8591380034000	0.8402451	0.8063421	0.26145032
8591390623000	0.88239485	1.3698653	0.20555615
8591400053000	0.9789116	1.5537357	0.21838433
8591411040000	1.0341948	1.557401	0.28038713
8591420714000	1.0097603	1.2296717	0.34697145
8591430662000	0.93554014	0.93645644	0.40378192
8591440062000	0.91599244	0.8368854	0.43218717
8591452299000	0.9306532	0.8323039	0.42241332
8591460112000	0.8723156	0.83260936	0.39553526
8591471129000	0.82741696	0.81092364	0.37904188
8591480772000	0.8197812	0.8060367	0.3903429
8591490752000	0.82527894	0.97066486	0.4111123
8591500120000	0.88697636	1.1530081	0.44532076
8591510741000	0.9651671	1.1533136	0.48624873
8591520140000	1.0112875	1.0015136	0.52626044
8591532652000	1.0436633	0.795652	0.5873469
8591542326000	1.0622946	0.605062	0.65118235
8591550810000	1.0827587	0.516792	0.6731735
8591560179000	1.0479393	0.36102137	0.6765333
8591570830000	0.93859446	0.2932153	0.61850107
8591580199000	0.7696902	0.31642818	0.52442783
8591591246000	0.573297	0.27275133	0.43310347
8591600920000	0.39064834	0.07819075	0.37782016
8591610899000	0.2910773	-0.12492194	0.39003745
8591620329000	0.2779437	-0.14263703	0.4007276
8591636687000	0.32253686	-0.020463986	0.27977628
8591640379000	0.43035457	0.15485434	0.08032878
8591651335000	0.5384777	0.4251622	-0.050396383
8591660887000	0.5766568	0.7049385	-0.099571034
8591670927000	0.5225952	0.8561276	-0.09621128
8591680327000	0.36163223	0.86467975	-0.05681047
8591691008000	0.23518312	0.7968737	-0.03726278
8591700346000	-0.10262536	0.7987063	-0.055283304
8591712828000	-0.5155703	0.8304713	-0.15241088
8591720915000	-0.990518	0.9502009	-0.29260445
8591731047000	-1.559539	1.1609493	-0.45845437
8591740355000	-2.1224513	1.31672	-0.6948592
8591751036000	-2.5335636	1.2990049	-1.0231993
8591760435000	-2.7491992	1.1716396	-1.3393221
8591771452000	-2.860682	1.0571023	-1.5100589
8591780974000	-2.9706378	0.8753699	-1.565953
8591791045000	-3.0030136	0.61208695	-1.5738943
8591800444000	-2.9202414	0.66798115	-1.4367551
8591812712000	-2.7714956	1.176221	-1.102001
8591820463000	-2.6978865	1.8212948	-0.8167268
8591831511000	-2.6340508	2.2409592	-0.67103547
8591841032000	-2.5488353	2.3570235	-0.573297
8591851134000	-2.3176227	2.378404	-0.54000485
8591860503000	-2.094046	2.3802364	-0.54367006
8591871153000	-1.7171422	2.5341744	-0.8072584
8591880522000	-1.4682146	3.3512068	-1.1924089
8591892973000	-1.4596626	3.8496728	-1.5005904
8591901213000	-1.6300939	3.486208	-1.5531249
8591911192000	-1.8863518	2.7488935	-1.3344351
8591920561000	-1.9895881	1.6639969	-1.0097603
8591931273000	-1.9975294	0.49846604	-0.68233645
8591940581000	-1.9801197	-0.48533243	-0.4596761
8591951598000	-1.9538525	-0.94134337	-0.35033122
8591961272000	-1.8655825	-0.9129381	-0.321926
8591971312000	-1.7195857	-0.90194255	-0.30482176
8591980589000	-1.5690074	-0.9972375	-0.29016098
8591992857000	-1.4217888	-1.028697	-0.29871312
8592000609000	-1.3542882	-0.9636399	-0.28221974
8592011656000	-1.2183707	-0.8940013	-0.1563815
8592021178000	-1.0546589	-0.70554936	0.070249505
8592031309000	-0.8885035	-0.49205196	0.30451632
8592040648000	-0.72601336	-0.27488935	0.47342056
8592051329000	-0.54183745	-0.050701816	0.5757405
8592060698000	-0.3576616	0.12950343	0.61666846
8592073149000	-0.17898351	0.29016098	0.625526
8592081267000	0.0021380284	0.45814893	0.6356053
8592091399000	0.19028452	0.5833763	0.65393126
8592100706000	0.39920044	0.6606508	0.691194
8592111388000	0.61544675	0.7348709	0.75319684
8592120726000	0.8362745	0.816116	0.84391034
8592131773000	1.0589349	0.86162543	0.95539325
8592141295000	1.2666291	0.8775079	1.0735956
8592151396000	1.3600914	0.883922	1.1246029
8592160796000	1.5332718	0.8863655	1.187522
8592173003000	1.6951511	0.89827734	1.1878275
8592180785000	1.8509218	0.8897252	1.1191051
8592195769000	1.9724839	0.7699956	0.99021256
8592201201000	1.9889772	0.5109888	0.7819075
8592211424000	1.8054122	0.27977628	0.49846604
8592220915000	1.4071281	0.28863382	0.15302174
8592231505000	0.8900307	0.68966687	-0.20311269
8592240874000	0.38912117	1.3304645	-0.46578476
8592253355000	0.01038471	1.784032	-0.6178902
8592261412000	-0.20952678	1.72264	-0.65148777
8592271574000	-0.23793201	1.2049317	-0.5684101
8592280882000	-0.089186326	0.56230146	-0.42119157
8592291563000	0.10781772	0.21655174	-0.27000242
8592300902000	0.20066923	0.3036	-0.19792034
8592312071000	0.40622538	0.41080686	-0.042760566
8592321623000	0.6939429	0.52320606	0.10842858
8592331633000	1.0781772	0.43035457	0.17562376
8592340971000	1.3970488	0.29901853	0.09285152
8592353239000	1.391551	0.47708577	-0.09315695
8592360960000	1.0842859	1.1902709	-0.23976462
8592372038000	0.6817256	2.1777346	-0.26297748
8592381560000	0.31215215	2.9477303	-0.20433442
8592391692000	0.06047566	3.1074715	-0.08277224
8592400999000	-0.083383106	2.5827382	0.22204952
8592411681000	-0.13225232	1.736079	0.70249504
8592421049000	0.01863139	0.93737274	1.1517864
8592433562000	0.26450464	0.26511553	1.4101825
8592441710000	0.45753807	0.16493362	1.3820826
8592451750000	0.5479461	0.75411314	1.2385293
8592461058000	0.75655663	1.1139128	1.1936307
8592471709000	0.98563105	1.6688838	1.1737776
8592481078000	1.2834278	1.8839084	1.1136073
8592492094000	1.6307048	1.8362609	0.8518516
8592501677000	1.6942347	1.7715092	0.44837508
8592511778000	1.5118915	1.8649716	0.077579886
8592521147000	1.3613132	2.211332	-0.09010262
8592533354000	1.2647965	2.6868908	-0.07269296
8592541136000	1.1820242	2.9095511	0.03176499
8592552183000	1.0873401	2.7669141	0.15882497
8592561919000	0.91721416	2.4168882	0.25625798
8592571867000	0.61666846	2.0412061	0.29016098
8592581175000	0.28008172	1.8014416	0.22815818
8592591917000	0.07819075	1.8029687	0.076052725
8592601225000	0.05681047	1.990199	-0.08002335
8592613768000	0.14966199	2.0824397	-0.14110987
8592621947000	0.29779682	2.172237	-0.21930063
8592631987000	0.3930918	2.2226331	-0.23732115
8592641234000	0.44837508	2.2605069	-0.20372356
8592651976000	0.47494772	2.1526892	-0.14355333
8592661284000	0.46670106	1.926669	-0.0842994
8592672301000	0.4642576	1.745242	-0.035430185
8592681975000	0.47433686	1.6276505	-0.0067195175
8592691984000	0.49174652	1.5183055	0.003970624
8592701292000	0.50518554	1.3976597	0.03023783
8592713591000	0.4877759	1.2956452	0.08368854
8592721312000	0.45448375	1.2220359	0.14294247
8592732390000	0.45234573	1.135904	0.20830505
8592743468000	0.48716503	1.0824533	0.2770274
8592752074000	0.5161811	1.128879	0.3371976
8592761442000	0.5888741	1.1582005	0.36254853
8592772124000	0.6579019	1.1233811	0.4166101
8592781432000	0.7147123	0.95722586	0.47861293
8592793974000	0.73914695	0.70829827	0.52320606
8592804076000	0.6957755	0.4654793	0.5412266
8592812071000	0.63713247	0.32375857	0.53969944
8592821410000	0.62980205	0.22388211	0.50671273
8592832091000	0.6401868	0.13897185	0.453262
8592841429000	0.60903263	0.16432275	0.40194935
8592852476000	0.5170974	0.2770274	0.3622431
8592863615000	0.3576616	0.40561453	0.32375857
8592872130000	0.18173242	0.5549711	0.22449298
8592881468000	0.102319926	0.7837401	0.07574729
8592893706000	0.10781772	1.0305296	-0.040927973
8592901488000	0.11942416	1.1026118	-0.10354166
8592912566000	0.17684549	1.1038336	-0.124005646
8592922057000	0.24801129	1.1661417	-0.17073683
8592936400000	0.21471913	1.4220943	-0.20647246
8592941313000	0.009773844	1.7427986	-0.18234327
8592952116000	-0.34116822	2.037541	-0.062308256
8592961546000	-0.77488256	2.2611177	0.11148291
8592974058000	-1.239751	2.2763894	0.19242255
8592982146000	-1.6548339	2.0210476	0.099571034
8592992216000	-1.9755383	1.676825	-0.13530666
8593001585000	-2.2510383	1.3286319	-0.4538729
8593012266000	-2.4602597	0.94134337	-0.84482664
8593021605000	-2.6398542	0.48502702	-1.2275337
8593032652000	-2.9165761	-0.007941248	-1.4431691
8593042326000	-3.1844406	-0.47219884	-1.5121969
8593052275000	-3.28279	-0.6927212	-1.432479
8593061674000	-3.2534683	-0.6056729	-1.3460416
8593073912000	-3.0641	-0.45265114	-1.1468995
8593081694000	-2.833804	0.030848695	-0.9801333
8593092680000	-2.6661212	0.5708536	-0.92149025
8593102232000	-2.4627032	1.0201449	-0.94806284
8593112364000	-2.2171354	1.4306464	-1.0396926
8593121703000	-2.0250182	1.7076738	-1.2996159
8593132384000	-1.8145752	1.9721785	-1.7556267
8593141722000	-1.563815	2.4120014	-2.0980167
8593154234000	-1.3949108	2.2751677	-2.0335703
8593162413000	-1.4361442	1.1267409	-1.6157386
8593172392000	-1.6972891	-0.15668693	-1.0705414
8593181761000	-1.8891008	-0.79351395	-0.63285637
8593192442000	-1.9000963	-0.86009824	-0.3930918
8593201781000	-1.8756617	-0.8503244	-0.36987892
8593212828000	-1.858252	-0.8445212	-0.43249258
8593223570000	-1.7993035	-0.75808376	-0.63224554
8593233061000	-1.7174476	-0.5821546	-0.8045095
8593242461000	-1.575116	-0.7131852	-0.88239485
8593254607000	-1.4068227	-1.063211	-0.86254174
8593262480000	-1.2507466	-1.41904	-0.7703011
8593273436000	-1.1133019	-1.6362026	-0.6038403
8593282988000	-0.9831876	-1.6789632	-0.3811799
8593293089000	-0.82527894	-1.5754215	-0.10781772
8593302550000	-0.6270532	-1.4446963	0.14721853
8593313139000	-0.4456262	-1.3454307	0.3042109
8593322539000	-0.27397305	-1.1771374	0.39645153
8593334746000	-0.09254608	-1.0433578	0.4841107
8593343077000	0.089491755	-0.9645562	0.59864795
8593353148000	0.2648101	-0.8213083	0.7244862
8593362547000	0.3463606	-0.6053675	0.7849618
8593373137000	0.505491	-0.49663344	0.8933904
8593382536000	0.6881397	-0.32650748	0.9801333
8593393553000	0.9071349	-0.23182335	1.0586295
8593403105000	1.142318	-0.16340645	1.1261301
8593413206000	1.3805555	-0.09132435	1.1731668
8593422575000	1.6401732	-0.038789943	1.2067643
8593434813000	1.897042	-0.03848451	1.2281445
8593442595000	2.0653355	-0.15485434	1.2082914
8593453581000	2.0720549	-0.2929099	1.1032226
8593463164000	1.9092593	-0.2837469	0.8912524
8593476927000	1.6178766	-0.11942416	0.625526
8593482481000	1.2092078	0.043982297	0.35888332
8593493315000	0.75594574	0.21013765	0.07788532
8593502928000	0.3915646	0.5564982	-0.2171626
8593514586000	0.26908615	0.8775079	-0.46670106
8593522765000	0.1704314	0.91782504	-0.54061574
8593532713000	0.27091873	0.7696902	-0.5534439
8593542113000	0.48899764	0.5183192	-0.45234573
8593552794000	0.7318166	0.3436117	-0.3491095
8593562132000	0.9596693	0.2171626	-0.29901853
8593573119000	1.1307116	0.07941248	-0.35308012
8593582732000	1.351234	0.19914207	-0.602924
8593592863000	1.7736472	0.6450737	-1.0015136
8593602202000	2.1508565	1.2632693	-1.1184943
8593614378000	2.0134118	1.8270979	-0.72021013
8593622160000	0.6808093	2.0567832	-0.049785517
8593633299000	-0.6826419	1.153619	0.7049385
8593642912000	-0.59803706	0.3005457	1.219287
8593652800000	-0.47525316	1.4285084	1.5283848
8593662230000	-0.4792238	2.7116308	1.666135
8593672819000	-0.36010507	2.9794953	1.6291776
8593682219000	0.034513887	2.8884764	1.4110987
8593694731000	0.7779369	2.1273382	1.178359
8593702818000	1.6203201	1.2647965	1.031446
8593713499000	2.057394	1.0186177	0.9236283
8593722838000	2.0302107	1.133155	0.67011917
8593733610000	1.8374827	0.96486163	0.28069258
8593742888000	1.7214183	0.70371675	0.07941248
8593754790000	1.8277088	0.8426886	0.070554934
8593763731000	1.9999728	1.4086553	0.118202426
8593773680000	1.9141463	2.0158553	0.21838433
8593783079000	1.4672983	2.0540345	0.3659083
8593795348000	0.8023715	1.5717562	0.52687126
8593803831000	0.20952678	1.2208142	0.6160576
8593814024000	0.04520403	1.1801916	0.5323691
8593823668000	-0.04550946	1.3961325	0.4196644
8593833586000	-0.006414085	1.5842791	0.12522738
8593842985000	0.24617869	1.9953914	-0.16157386
8593853667000	0.63132924	2.3988678	-0.3472769
8593863005000	0.8374963	2.6215281	-0.32711834
8593875243000	0.8396343	2.4871378	-0.16126843
8593883726000	0.7486154	2.2177463	0.022907447
8593893706000	0.6789767	1.8851302	0.15332718
8593903075000	0.64843345	1.3234396	0.22968534
8593913664000	0.6270532	0.66737026	0.28038713
8593923094000	0.6453791	0.27885997	0.31856623
8593934111000	0.72234815	0.22632557	0.3680463
8593943755000	0.80664754	0.30390546	0.44043383
8593953764000	0.86345804	0.2929099	0.5332854
8593963103000	0.8872818	0.15424347	0.63529986
8593975340000	0.93034774	-0.04734206	0.68661255
8593983183000	0.93828905	-0.14630222	0.7840455
8593994139000	0.8854492	-0.2657264	0.8772025
8594005308000	0.79381937	-0.22388211	0.9440922
8594013823000	0.7098254	-0.07544186	0.96486163
8594023161000	0.66706485	0.008552114	0.9596693
8594033842000	0.6264423	-0.12461651	0.9416488
8594043181000	0.54061574	-0.38545597	0.9126327
8594055418000	0.45662177	-0.5458081	0.84604836
8594065550000	0.4089743	-0.4615087	0.7431176
8594073881000	0.3549127	-0.22357668	0.65057147
8594083250000	0.26175576	-0.06383542	0.54275376
8594097655000	0.14172074	-0.0143553335	0.42088616
8594103209000	-0.015882496	0.027183503	0.33505958
8594114256000	-0.29138273	0.021685716	0.267559
8594124205000	-0.49174652	-0.13622294	0.23090707
8594133299000	-0.95539325	-0.26389378	0.14752395
8594142699000	-1.4633276	-0.47342056	0.02107485
8594154936000	-2.1206186	-0.4541783	-0.15454891
8594162688000	-3.0317242	-0.31978795	-0.31520647
8594173765000	-4.119675	-0.5476407	-0.4642576
8594183287000	-4.93854	-1.0589349	-0.75716746
8594193419000	-4.8789806	-1.5344934	-1.3356569
8594202757000	-4.120286	-2.2702806	-1.9978348
8594213438000	-3.3961053	-2.7870727	-2.3490822
8594222807000	-2.969416	-2.0027218	-2.3539693
8594235289000	-2.8099802	-0.11484267	-2.1325307
8594243346000	-2.7595837	1.0464121	-1.704925
8594253386000	-2.5030203	1.2168436	-1.3796391
8594262816000	-2.111761	1.0354166	-1.3295482
8594273588000	-1.9773707	0.7440339	-1.366811
8594282988000	-1.8112154	0.7324274	-1.3952162
8594294005000	-1.4321736	0.71837753	-1.5705346
8594303557000	-0.9642508	0.12339478	-1.9886718
8594313689000	-0.8885035	-0.9434814	-2.3683245
8594323027000	-1.0861185	-1.237613	-2.4565945
8594335295000	-1.2064588	-1.2211196	-2.3426683
8594343626000	-1.1261301	-1.8701639	-2.1584923
8594354704000	-1.1029172	-2.8127291	-1.9566014
8594364226000	-1.2073752	-3.657861	-1.8096883
8594374297000	-1.2278391	-4.274835	-1.7238617
8594383665000	-1.1172725	-4.50788	-1.6285667
8594394316000	-0.9816604	-4.5604143	-1.4950926
8594403685000	-0.8509353	-4.488027	-1.3316863
8594415984000	-0.698219	-4.273308	-1.1548407
8594424376000	-0.5946773	-3.982536	-0.98532563
8594434386000	-0.32467487	-3.6569448	-0.8949176
8594443907000	-0.04184427	-3.513697	-0.69913524
8594454558000	0.183565	-3.2742376	-0.50243664
8594463927000	0.34147367	-3.0289752	-0.32589662
8594474974000	0.4636467	-2.7418687	-0.20922135
8594484495000	0.5873469	-2.408947	-0.15118915
8594494566000	0.7141015	-2.0512855	-0.086437434
8594503996000	0.8567385	-1.6759088	0.043066
8594516203000	1.0409144	-1.2611313	0.22632557
8594523985000	1.2461652	-0.83016586	0.43799037
8594535033000	1.4321736	-0.453262	0.6872234
8594544554000	1.5900823	-0.13622294	0.9599747
8594554625000	1.7479908	0.12217305	1.2556335
8594564024000	1.9117028	0.33017266	1.5873333
8594574675000	1.9874501	0.4392121	1.887879
8594584227000	1.883603	0.33017266	2.0607538
8594600615000	1.7513506	0.025045475	2.0525072
8594605315000	1.303281	-0.1554652	1.7852536
8594615050000	0.6017023	-0.4709771	1.260215
8594624174000	-0.2415972	-0.58123827	0.62888575
8594634428000	-0.7476991	-0.28496864	0.015271631
8594643736000	-0.6383542	0.22602014	-0.441961
8594654692000	-0.29229903	0.5030475	-0.68111473
8594664305000	-0.09773844	0.5714644	-0.8680395
8594674406000	-0.031154128	0.7498371	-1.180497
8594683745000	0.15607607	0.91629785	-1.5561792
8594695952000	0.47158796	0.5152648	-1.8500054
8594703764000	0.5531385	-0.42394048	-2.1090124
8594714812000	0.15485434	-1.1420126	-2.2269092
8594724364000	-0.80756384	-1.1136073	-2.0124955
8594734373000	-1.5790867	-0.59895337	-1.4049901
8594743834000	-1.3784174	-0.18112154	-0.90010995
8594754484000	-0.25228736	-0.2929099	0.3735441
8594764006000	0.27855456	-1.0876455	1.3344351
8594776518000	0.47739118	-1.4944818	1.541213
8594784575000	0.6948592	-0.7510588	1.1517864
8594794707000	0.9621128	1.4068227	0.5870415
8594804106000	1.3970488	3.1697798	0.05681047
8594814757000	2.0583105	3.1248813	-0.30298916
8594824095000	2.9798007	2.7690523	-0.35705075
8594835875000	3.6236527	2.8151724	-0.40775254
8594845518000	3.481932	2.6193902	-0.5299256
8594856352000	2.8506026	2.4868324	-0.48930305
8594864775000	2.2922719	2.6957483	-0.23243423
8594877043000	1.988061	2.3991733	0.20525073
8594884795000	1.7461584	1.4544702	0.66889745
8594895811000	1.5864171	0.63621616	0.9147707
8594905363000	1.2253957	0.57910025	0.9086621
8594915404000	0.9993755	0.8561276	0.63041294
8594924742000	0.9837985	1.6878207	0.099265605
8594935576000	1.1441506	2.1337523	-0.37904188
8594944914000	1.3900238	1.9804251	-0.54611355
8594957182000	1.4966198	1.6694947	-0.4288274
8594965483000	1.4343116	1.7333301	-0.17165314
8594975615000	1.4080443	2.395508	0.16340645
8594984953000	1.4251486	2.7827966	0.51893
8594995634000	1.4132367	2.2537873	0.9257663
8595005034000	1.1972959	1.3371841	1.3286319
8595016020000	0.9260717	0.5705481	1.4758505
8595025542000	0.97219205	0.15851954	1.3002267
8595035643000	1.1505647	0.26816985	0.9462303
8595045012000	1.1646146	0.5552765	0.6215554
8595057768000	1.0910053	0.81489426	0.5225952
8595065062000	0.9080512	0.9224065	0.46975538
8595076109000	0.8784242	1.0332786	0.54092115
8595085722000	1.003957	0.8979719	0.6444628
8595099486000	1.0528263	0.57543504	0.72265357
8595105101000	0.8720101	0.29779682	0.72265357
8595115233000	0.5531385	0.26542094	0.63407815
8595124205000	0.3549127	0.52320606	0.50701815
8595136107000	0.37873647	0.89736104	0.39522982
8595145781000	0.3885103	1.1362094	0.34055737
8595154265000	0.21135938	1.1441506	0.33505958
8595163664000	0.032375857	0.91507614	0.2855795
8595174315000	0.002443461	0.54305923	0.16646078
8595183684000	0.028405234	0.22204952	0.09437868
8595194701000	0.13836098	0.103847094	-0.11209377
8595204283000	0.25320363	-0.08155051	-0.4428773
8595214323000	0.074830994	-0.1826487	-0.75136423
8595223692000	-0.5140431	-0.23426682	-0.84482664
8595235991000	-1.2644911	-0.34605515	-0.7870999
8595243712000	-1.9587394	-0.45204028	-0.7846564
8595254729000	-2.5127943	-0.38545597	-1.0112875
8595265929000	-2.8814514	-0.12308934	-1.4669929
8595274443000	-3.0983086	0.118507855	-1.9159788
8595283751000	-3.2091806	0.2751948	-2.1517727
8595294432000	-3.1386256	0.4905248	-2.1716259
8595303770000	-3.0140092	0.6301075	-2.010663
8595316313000	-3.0185907	0.65057147	-1.681712
8595324339000	-3.0454686	0.68111473	-1.3081679
8595334471000	-3.0457742	0.7360926	-1.1603385
8595344389000	-3.0112603	0.7657196	-0.95111716
8595355040000	-2.8454103	0.8002335	-0.8145888
8595364439000	-2.6175575	0.88147855	-0.7877107
8595375426000	-2.5185974	1.0155635	-0.77121735
8595385008000	-2.4996605	1.1585059	-0.7244862
8595395109000	-2.3188446	1.0931433	-0.75655663
8595404478000	-2.1426098	0.5131268	-0.8979719
8595416716000	-2.1618521	0.087659165	-1.1527027
8595424498000	-2.1484132	0.21868975	-1.3759739
8595435545000	-2.0024164	0.34025195	-1.4535538
8595445189000	-1.8732183	0.06872234	-1.4269812
8595455199000	-1.8658879	-0.6215554	-1.3041973
8595464506000	-1.922393	-1.520749	-1.1273518
8595475157000	-1.93797	-2.221717	-0.9300423
8595484526000	-1.9080375	-2.5002716	-0.8188649
8595496764000	-1.7699821	-2.5482244	-0.5561928
8595505125000	-1.491733	-2.6331346	-0.2574797
8595515257000	-1.1881329	-2.6826148	-0.05100725
8595524596000	-0.97310835	-2.4397957	0.027183503
8595535216000	-0.72601336	-2.0152445	0.10048734
8595544585000	-0.44012842	-1.8347337	0.17654006
8595555632000	-0.1563815	-1.7229455	0.22327125
8595565184000	0.11178834	-1.5424347	0.2501493
8595575285000	0.364992	-1.4040737	0.28008172
8595584624000	0.61300325	-1.3096951	0.32803464
8595596892000	0.86009824	-1.1597277	0.36987892
8595604643000	1.1496484	-0.88270026	0.38362336
8595615691000	1.450805	-0.51007247	0.39767328
8595625212000	1.6920967	-0.19211712	0.42913285
8595635313000	1.7852536	-0.014966198	0.44593164
8595644682000	1.9575176	0.017104227	0.48563787
8595655333000	2.132836	-0.0061086523	0.57818395
8595664702000	2.1468859	-0.10995574	0.7528914
8595681120000	1.7843374	-0.3735441	0.91354895
8595685545000	1.0720685	-0.8035932	0.9288206
8595695341000	0.25320363	-1.1438452	0.7431176
8595705229000	-0.3567453	-1.287704	0.36743546
8595714842000	-0.6032294	-1.3658947	-0.11209377
8595724181000	-0.45142943	-1.3863586	-0.5027421
8595735167000	-0.032375857	-1.2684617	-0.6258314
8595744871000	0.32559118	-1.0262536	-0.535118
8595754820000	0.43401974	-0.9230174	-0.49602258
8595764220000	0.3924809	-0.96577793	-0.6737844
8595776488000	0.33292156	-0.8949176	-0.9425651
8595784270000	0.3481932	-0.9254609	-1.0503827
8595795256000	0.68477994	-1.0464121	-1.2495248
8595804838000	1.3698653	-1.2260065	-1.4862351
8595814940000	1.7767016	-0.8918633	-1.6163495
8595824278000	1.5424347	-0.2648101	-1.4880677
8595834959000	0.13103059	0.26633725	-0.979217
8595844267000	-1.461495	0.9080512	-0.20586158
8595856810000	-1.3530666	1.3603969	0.6640105
8595864867000	-0.5934556	1.647809	1.5610662
8595874937000	-0.05681047	1.3939945	2.2327125
8595884337000	0.51923543	0.68477994	2.414445
8595895018000	1.398576	0.19272798	2.026851
8595904356000	1.8860464	0.1685988	1.1151345
8595915373000	1.7931949	1.1468995	-0.019547688
8595925505000	1.998751	2.3231206	-0.8350528
8595935637000	2.248595	2.7473664	-1.0809261
8595944975000	2.7989845	2.835331	-0.9993755
8595957213000	3.068987	2.9425378	-0.5833763
8595964995000	2.196366	3.5030067	-0.12003502
8595976103000	0.96852684	4.3548584	0.33322698
8595985594000	0.6377433	3.6135733	0.6728681
8595995665000	0.5821546	0.7079928	0.77946407
8596005034000	0.5534439	-1.4110987	0.72295904
8596015715000	0.6988298	-1.5986344	0.5516113
8596025053000	0.9370673	-1.183246	0.35460728
8596037321000	1.0891727	-0.5647449	0.15851954
8596046110000	1.2342533	0.22021692	0.0070249503
8596055174000	1.4245378	0.72784597	-0.02443461
8596064513000	1.5723672	0.8197812	-0.017715093
8596075163000	1.6093245	0.67256266	-0.0061086523
8596084502000	1.5522085	0.64476824	0.038789943
8596095549000	1.2751812	0.8888089	0.073303826
8596105223000	0.93187493	1.099252	0.14966199
8596115202000	0.79779	1.5183055	0.22418754
8596124541000	0.947452	1.5216653	0.301462
8596136778000	1.1725558	1.0848967	0.37598756
8596144591000	1.2751812	0.6731735	0.46822822
8596155638000	1.2724323	0.5216789	0.5864306
8596166777000	1.2556335	0.44135013	0.6921103
8596175261000	1.2773192	0.28221974	0.7684685
8596184660000	1.3817772	0.124311075	0.8335256
8596195341000	1.4694363	0.0842994	0.8790351
8596204680000	1.3933836	0.22357668	0.87872964
8596217192000	1.2760975	0.21777347	0.8912524
8596226836000	1.1297953	0.112704635	0.92179567
8596235350000	0.8762862	0.2666427	0.89919364
8596245299000	0.73914695	0.634689	0.8564331
8596255980000	0.5500842	0.8524625	0.7357872
8596265318000	0.5021312	1.2675453	0.6469063
8596276366000	0.453262	1.4999796	0.6844745
8596285857000	0.28313604	1.4052955	0.8072584
8596299712000	0.15393804	1.0760391	0.82711154
8596305174000	0.23548855	0.68844515	0.6704246
8596317870000	0.4804455	0.30604348	0.38698313
8596324736000	0.66859204	-0.07941248	-0.002443461
8596335814000	0.5705481	-0.3359759	-0.39858958
8596345335000	0.18112154	-0.21105394	-0.6093381
8596355406000	-0.24373524	0.16707164	-0.60139686
8596364806000	-0.68019843	0.35918877	-0.46700647
8596375487000	-1.3457361	0.15851954	-0.40317106
8596384795000	-2.057394	-0.14721853	-0.59620446
8596397307000	-2.327702	-0.20311269	-0.8026769
8596405608000	-2.666427	-0.13775012	-1.349096
8596415587000	-2.8417451	0.0061086523	-1.8558086
8596424925000	-2.9342911	-0.07086037	-2.155438
8596435545000	-2.9190195	-0.31948254	-2.2351558
8596444945000	-2.867096	-0.38453966	-2.1200078
8596455931000	-2.9190195	-0.2312125	-1.8307631
8596465483000	-2.9541442	-0.032375857	-1.4404203
8596475584000	-2.928488	0.1740966	-1.1410962
8596484953000	-2.978579	0.40133846	-0.9550878
8596497160000	-3.0344732	0.58123827	-0.795652
8596504973000	-3.0109549	0.713796	-0.6722572
8596516020000	-2.950479	0.8371908	-0.5748242
8596525542000	-2.7809641	0.93828905	-0.4071417
8596536284000	-2.4785857	0.93554014	-0.3231477
8596545683000	-2.3619106	0.47036624	-0.36041048
8596556334000	-2.3829854	0.24648413	-0.5180137
8596565794000	-2.5369234	0.31948254	-0.7012733
8596578093000	-2.4553728	0.41599923	-0.9092729
8596586485000	-2.2785273	0.029626964	-1.0509937
8596596495000	-2.2223277	-0.53023106	-1.0665708
8596606383000	-2.186592	-1.260215	-0.98899084
8596616362000	-2.031127	-1.9978348	-0.77182823
8596625792000	-1.8487836	-2.4706445	-0.49266282
8596636687000	-1.7363845	-2.5867088	-0.3136793
8596646239000	-1.5946637	-2.4801128	-0.20922135
8596656523000	-1.3909402	-2.350915	-0.106901415
8596665800000	-1.1554517	-2.2284365	-0.009468411
8596678099000	-0.88117313	-2.1432207	0.055283304
8596685820000	-0.58276546	-2.071444	0.07422013
8596696867000	-0.42271876	-1.9624046	0.06780604
8596706358000	-0.07971791	-1.8936822	0.03970624
8596716460000	0.25686884	-1.7174476	0.01160644
8596725828000	0.54153204	-1.4401149	0.0067195175
8596736479000	0.745561	-1.1099422	0.014049901
8596745848000	0.9083566	-0.80939645	0.0015271631
8596758086000	1.0775663	-0.569021	-0.0125227375
8596766386000	1.2626585	-0.4550946	-0.010079277
8596776427000	1.4450017	-0.46853364	0.008857546
8596785826000	1.6261233	-0.55833083	0.08246681
8596796477000	1.7513506	-0.7696902	0.24587326
8596805998000	1.6649132	-1.2382239	0.40500367
8596820677000	1.244638	-1.8930714	0.43768495
8596826414000	0.5421429	-2.398257	0.38423425
8596836577000	-0.17104226	-2.5744915	0.34513888
8596845976000	-0.4615087	-2.7262917	0.30176744
8596857909000	-0.8558222	-2.8472428	0.08582657
8596865324000	-0.8793405	-2.9798007	-0.25167647
8596876372000	-0.528093	-2.7705793	-0.5476407
8596885863000	-0.12858713	-2.2174408	-0.6835582
8596895995000	-0.010079277	-1.486846	-0.6939429
8596905363000	-0.11911872	-0.7987063	-0.65301496
8596916014000	-0.050701816	-0.59895337	-0.6151413
8596925383000	0.25503623	-0.98899084	-0.62888575
8596937865000	0.54367006	-1.0839803	-0.7049385
8596945921000	0.65270954	-0.68783426	-0.8051204
8596956023000	0.36163223	-0.4465425	-0.7993172
8596965422000	-0.47769663	-0.376293	-0.6398814
8596976073000	-1.0183123	0.084910266	-0.48258355
8596985442000	-0.3481932	1.0858129	-0.24678956
8596996489000	0.2507602	2.1410828	0.25228736
8597006132000	1.1527027	2.3445008	0.5558874
8597016142000	1.3775011	2.118786	1.1087204
8597025450000	1.187522	1.5091426	1.4040737
8597037749000	0.8542951	0.89949906	1.3246613
8597045470000	0.6618725	0.5833763	1.0189233
8597056547000	0.72387534	0.8689558	0.6356053
8597066161000	1.0656544	1.3384057	0.21380283
8597076201000	1.5238034	1.6016886	-0.14508049
8597085509000	1.8591684	1.8732183	-0.38026363
8597096190000	1.9761491	2.1960607	-0.44929138
8597105528000	1.9575176	2.3014348	-0.3735441
8597118010000	1.8674151	2.1884248	-0.21502456
8597126250000	1.6869044	1.9969184	-0.004886922
8597136229000	1.4923438	1.6756034	0.22510384
8597145567000	1.4184291	1.1743884	0.42852196
8597156218000	1.3448198	0.59315014	0.5112942
8597165587000	1.3362677	0.3222314	0.6227771
8597176604000	1.3191634	-0.10415252	0.6533204
8597186278000	1.3133603	-0.33261612	0.6215554
8597196257000	1.3249667	-0.37110063	0.5467244
8597205656000	1.3292428	-0.26328292	0.4541783
8597217894000	1.344209	-0.07238753	0.37507126
8597225645000	1.3805555	0.098043874	0.30726522
8597236693000	1.4306464	0.18203785	0.22235495
8597247801000	1.5167783	0.22113322	0.12736541
8597257201000	1.5995506	0.2565634	0.073303826
8597265715000	1.6239853	0.27091873	0.08002335
8597276427000	1.5787812	0.28985557	0.103847094
8597285765000	1.4676038	0.3912592	0.098043874
8597298247000	1.357648	0.59742624	0.090713486
8597307860000	1.3283265	0.8188649	0.10293079
8597316374000	1.3185526	0.87689704	0.16554448
8597325743000	1.3274102	0.8454375	0.25625798
8597336424000	1.3090842	0.69974613	0.34574974
8597345763000	1.2880094	0.5726862	0.41783184
8597356749000	1.2986995	0.49021935	0.46822822
8597367918000	1.3139712	0.4202753	0.5006041
8597376463000	1.3377949	0.3903429	0.5152648
8597385802000	1.3665055	0.44257188	0.5140431
8597398100000	1.3799446	0.54428095	0.49418998
8597405821000	1.3524556	0.6417139	0.45540005
8597420866000	1.2186762	0.7699956	0.42271876
8597428007000	0.93370754	0.981355	0.4092797
8597436491000	0.5647449	1.0806206	0.39920044
8597445891000	0.2452624	0.8393288	0.3753767
8597456511000	0.12858713	0.47494772	0.35918877
8597465910000	-0.024129177	0.33169982	0.32803464
8597478422000	-0.06658431	0.09621128	0.25625798
8597486449000	0.021380283	-0.1151481	0.09468412
8597496580000	0.13744467	-0.22235495	-0.15424347
8597505980000	0.086437434	-0.19242255	-0.43676865
8597516600000	-0.2321288	-0.013133603	-0.61422503
8597525938000	-0.70463306	0.2773328	-0.6047566
8597536986000	-1.1878275	0.45265114	-0.52015173
8597546477000	-1.6667458	0.46731192	-0.49510628
8597557249000	-2.147802	0.42577308	-0.57848936
8597565977000	-2.6022859	0.19394971	-0.76174897
8597578245000	-2.9034426	-0.23060162	-1.0537425
8597585966000	-2.9513955	-0.7452556	-1.4162911
8597597044000	-2.9104674	-1.2803736	-1.6737708
8597606566000	-2.90161	-1.6285667	-1.7440202
8597616637000	-2.8487701	-1.5958854	-1.7605137
8597626036000	-2.67223	-1.0680978	-1.5476271
8597636717000	-2.502104	-0.39675698	-1.2586879
8597646025000	-2.440712	-0.026572637	-1.0708468
8597658537000	-2.3695462	0.061391957	-0.9257663
8597666624000	-2.238821	0.113926366	-0.80970186
8597676726000	-2.1746802	0.23823744	-0.80909103
8597686095000	-2.1096232	0.3200934	-0.91813046
8597696715000	-1.7947221	0.31215215	-1.03786
8597706206000	-1.2895365	0.20005837	-1.251052
8597717161000	-1.0836749	-0.2003638	-1.6087136
8597726805000	-1.25319	-0.31306845	-1.9315559
8597736754000	-1.3371841	0.1386664	-2.1138992
8597746153000	-1.2229522	0.17073683	-2.0793853
8597758452000	-1.1630874	-0.55833083	-2.0039434
8597766173000	-1.1087204	-1.0626001	-1.8121318
8597777220000	-1.1328496	-1.9336939	-1.5964963
8597786833000	-1.207986	-2.4376578	-1.4107933
8597796843000	-1.2321151	-2.8194485	-1.2559389
8597806212000	-1.1392636	-3.0671544	-1.1050552
8597816832000	-0.94042706	-3.1129694	-0.9602802
8597826231000	-0.6844745	-3.02531	-0.8524625
8597838744000	-0.41630468	-2.8680124	-0.8029824
8597846800000	-0.129198	-2.6218336	-0.7666359
8597856901000	0.1685988	-2.3564126	-0.7113526
8597866270000	0.4541783	-2.1786509	-0.6554584
8597876890000	0.7174612	-2.0073032	-0.61208695
8597886290000	0.9468411	-1.7913623	-0.569021
8597897276000	1.1710287	-1.5723672	-0.50885075
8597906859000	1.2864822	-1.3741413	-0.46792278
8597916960000	1.4978416	-1.2739595	-0.35979962
8597926329000	1.6804903	-1.0772609	-0.22602014
8597938750000	1.8918496	-0.91965765	-0.04642576
8597946379000	2.0723603	-0.8570439	0.24281894
8597957365000	1.9981402	-0.9837985	0.57726765
8597966917000	1.5125023	-1.4172074	0.8173377
8597977934000	0.68569624	-2.1383338	0.89888823
8597986662000	-0.087659165	-2.7751608	0.8045095
8598001067000	-0.48166725	-2.8212812	0.6640105
8598006407000	-0.4783075	-2.252871	0.6579019
8598019011000	-0.3295618	-1.6197093	0.7357872
8598027159000	-0.310625	-1.4242324	0.7678576
8598037108000	-0.31673363	-1.5580118	0.68752885
8598046538000	-0.14202617	-1.6209309	0.4999932
8598057127000	-0.01160644	-1.3970488	0.16890424
8598066435000	0.17898351	-0.8604037	-0.0842994
8598077513000	0.23487769	-0.52412236	-0.7079928
8598087035000	0.4877759	0.028405234	-1.3020593
8598097166000	1.071763	0.2611449	-1.7180585
8598106505000	1.4480561	0.3567453	-1.853976
8598118773000	1.1038336	0.50701815	-1.6939293
8598126494000	0.16523905	0.84391034	-1.366811
8598137541000	-0.63407815	1.1157454	-0.9285152
8598147063000	-0.6035349	0.95172805	-0.3680463
8598157225000	-0.03481932	0.56321776	0.32559118
8598166533000	0.32742378	0.20677789	1.0396926
8598177245000	0.47494772	0.044898596	1.5754215
8598186583000	0.73884153	-0.064751714	1.7507398
8598199065000	1.029308	-0.11942416	1.4608842
8598207213000	1.1585059	0.4251622	0.88270026
8598217284000	1.575116	1.2296717	0.5534439
8598226622000	2.1740694	1.4162911	-0.012217305
8598237273000	2.695443	1.3041973	-0.19181168
8598246641000	3.0650163	1.17897	-0.122783914
8598257689000	2.7171285	1.5851953	-0.13927728
8598267210000	1.640784	2.7094927	-0.109650314
8598277342000	0.9669997	3.399465	0.11362094
8598286681000	0.8191703	2.2782218	0.33750305
8598298918000	0.70402217	0.61178154	0.47586402
8598306670000	0.54092115	0.00580322	0.5653558
8598317717000	0.5366451	0.17531833	0.59650993
8598327269000	0.72234815	0.4071417	0.5320636
8598337370000	0.9639453	0.45265114	0.4370741
8598346739000	1.1817188	0.3585779	0.3585779
8598357420000	1.349096	0.3830125	0.28680122
8598366759000	1.4037683	0.61758476	0.26053402
8598379271000	1.4370605	0.77304995	0.24587326
8598387480000	1.3784174	1.0897835	0.25686884
8598397459000	1.2757921	1.3106114	0.24587326
8598406798000	1.1774428	1.3014483	0.2049453
8598417448000	1.1068878	1.1099422	0.16218472
8598426756000	1.0729848	0.88178396	0.13927728
8598437804000	1.0152581	0.6979135	0.13683382
8598448973000	0.89949906	0.6637051	0.16218472
8598457518000	0.8579602	0.7797695	0.21930063
8598466856000	0.9086621	0.8597928	0.30543262
8598479124000	0.98563105	0.88361657	0.39706242
8598486845000	1.0656544	0.91354895	0.49510628
8598497923000	1.1505647	0.9746355	0.59986967
8598509062000	1.2501358	1.0238101	0.68508536
8598517515000	1.3054191	0.91629785	0.7150178
8598526915000	1.4022411	0.7696902	0.7510588
8598537566000	1.3955216	0.33292156	0.75319684
8598546934000	1.2263119	-0.06078109	0.70646566
8598559447000	0.9682214	-0.12705997	0.60231316
8598569273000	0.74281216	0.12583824	0.47891834
8598581541000	0.5864306	0.42302418	0.42180246
8598586912000	0.4654793	0.5039638	0.42913285
8598597533000	0.42394048	0.2773328	0.39584067
8598606963000	0.5180137	-0.14630222	0.29229903
8598618071000	0.573297	-0.5204572	0.13439035
8598629301000	0.4166101	-0.4813618	-0.10354166
8598637663000	0.22602014	-0.14263703	-0.39553526
8598647002000	0.0729984	0.22296582	-0.70554936
8598659239000	-0.17898351	0.5839872	-0.88117313
8598667021000	-0.3717115	0.7663304	-0.87872964
8598678099000	-0.90408057	0.7672467	-0.7281514
8598687620000	-1.6978999	0.6814202	-0.4831944
8598697691000	-2.7678304	0.64751714	-0.30879238
8598707060000	-3.683212	0.7119634	-0.37018433
8598717741000	-4.0353756	0.7495316	-0.68966687
8598727080000	-3.977649	0.6169739	-1.0955868
8598739592000	-3.7033706	0.19822577	-1.4391985
8598747649000	-3.2782083	-0.50426924	-1.5937474
8598757750000	-2.973081	-1.0030408	-1.498147
8598767149000	-2.8814514	-0.8078693	-1.3326025
8598777830000	-2.8386908	-0.26389378	-1.2269229
8598787138000	-2.7327056	0.07819075	-1.1169671
8598798125000	-2.493552	-0.00580322	-0.92271197
8598807738000	-2.225382	-0.13439035	-0.7122689
8598817870000	-2.1368067	-0.14630222	-0.63621616
8598827238000	-1.7745636	-0.16982053	-0.5635232
8598839445000	-1.2513574	0.1459968	-0.6377433
8598847197000	-1.4104879	0.8680395	-0.782213
8598858275000	-1.7498235	0.8524625	-1.0204504
8598867827000	-1.9758437	0.5934556	-1.2702943
8598877928000	-2.021964	0.09682214	-1.2770138
8598887236000	-1.8469511	-0.84391034	-1.1988231
8598897887000	-1.6728544	-1.7910569	-1.1997393
8598907286000	-1.4944818	-2.3545802	-1.2516629
8598919829000	-1.2370021	-2.4883597	-1.2925909
8598927824000	-0.9611965	-2.32984	-1.2837334
8598937956000	-0.7476991	-2.1584923	-1.244638
8598947295000	-0.57543504	-2.1563544	-1.1850786
8598958006000	-0.43799037	-2.0576997	-1.0592403
8598967345000	-0.3866777	-1.8396207	-0.9673051
8598978361000	-0.2950479	-1.7391334	-0.73853606
8598987883000	-0.19181168	-1.5809193	-0.49449542
8598997984000	-0.07544186	-1.4746287	-0.27977628
8599007384000	0.04795292	-1.3561208	-0.09560041
8599019652000	0.15577064	-1.2333369	0.03390302
8599027373000	0.29901853	-1.069625	0.12339478
8599038420000	0.47586402	-0.93584555	0.21197024
8599047942000	0.655153	-0.8772025	0.3323107
8599058104000	0.8396343	-0.8604037	0.47983465
8599067442000	1.0241156	-0.86834496	0.6169739
8599078093000	1.212873	-0.87598073	0.7199047
8599087431000	1.4138476	-0.8573494	0.7825184
8599099974000	1.6019942	-0.7819075	0.8332202
8599108153000	1.7366899	-0.6374379	0.88117313
8599118132000	1.7702875	-0.51893	0.9239337
8599127531000	1.7455474	-0.47769663	0.9465357
8599142088000	1.6001616	-0.45814893	0.9767735
8599147490000	1.3600914	-0.3680463	0.93767816
8599158476000	1.0601566	-0.23976462	0.8371908
8599168089000	0.70096785	-0.21197024	0.73273283
8599178221000	0.2855795	-0.3387248	0.5540548
8599187559000	-0.027794369	-0.40439278	0.1957823
8599199828000	-0.15851954	-0.16523905	-0.26725355
8599207548000	-0.16401732	0.15943582	-0.61941737
8599218596000	-0.09682214	0.19211712	-0.8014552
8599228300000	0.034513887	0.024740042	-0.8903361
8599238249000	0.21685717	-0.16737708	-0.8912524
8599247618000	0.473726	-0.46303585	-0.84513205
8599258269000	0.7984009	-0.8695667	-0.88361657
8599267638000	0.96669424	-1.1542299	-1.0341948
8599280180000	1.353372	-1.1004738	-1.099252
8599288206000	1.8903224	-0.91354895	-1.0885619
8599298338000	2.3316727	-0.30634892	-0.86620694
8599307738000	2.3273966	0.33536503	-0.657291
8599318327000	1.8316795	0.86590147	-0.6441574
8599327666000	0.9599747	1.4172074	-0.66156703
8599338713000	0.226631	2.0873265	-0.5131268
8599348357000	0.0852157	2.418721	-0.10751228
8599358336000	-0.0421497	2.0390682	0.40500367
8599367705000	-0.47678033	1.8182404	0.8350528
8599380553000	-0.76144356	2.08977	1.1407908
8599388335000	-0.6267477	2.251344	1.3319917
8599399382000	0.024129177	2.0528126	1.3982705
8599408415000	0.98715824	1.4016303	1.2678508
8599418364000	1.7415768	0.5580254	0.9407325
8599427763000	1.9459113	0.28496864	0.7131852
8599438475000	2.035403	0.46609017	0.2144137
8599447783000	1.8839084	1.1414018	-0.1001819
8599460265000	1.7779233	2.0818288	-0.21685717
8599468474000	1.6890424	3.007595	-0.21899518
8599478422000	1.505172	3.2690454	-0.13988814
8599487822000	1.1801916	2.7885997	0.0033597588
8599498534000	0.7296785	1.8020525	0.21868975
8599507872000	0.33536503	0.7538077	0.4184427
8599518828000	0.13072516	0.13316862	0.47708577
8599528532000	0.1386664	0.028710667	0.39064834
8599538542000	0.30634892	0.26725355	0.23548855
8599547880000	0.5839872	0.60994893	0.08399397
8599560149000	0.8927795	0.8005389	0.0125227375
8599567900000	1.1239921	0.8552113	-0.008552114
8599578947000	1.1942415	0.8002335	-0.00580322
8599588591000	1.2345587	0.7611381	0.0421497
8599598570000	1.1533136	0.75869465	0.11942416
8599607939000	1.0345002	0.8332202	0.19028452
8599618590000	0.93828905	0.8524625	0.27122417
8599627959000	0.84940815	0.7635816	0.36560285
8599640471000	0.7892379	0.64599	0.46944994
8599648619000	0.8399397	0.5183192	0.5815437
8599658659000	0.99112886	0.36651915	0.68539083
8599667998000	1.1337659	0.21135938	0.754724
8599678648000	1.212873	0.049785517	0.7987063
8599688017000	1.2522738	-0.058337633	0.829555
8599699034000	1.2684617	-0.14355333	0.8503244
8599710356000	1.2104294	-0.27122417	0.8604037
8599718718000	1.0393872	-0.28710666	0.84391034
8599728056000	0.92149025	-0.030543262	0.8216137
8599740324000	0.6979135	0.16432275	0.75319684
8599748076000	0.5488624	0.5403103	0.6780604
8599759123000	0.44623706	0.79504114	0.623388
8599768645000	0.38423425	0.850019	0.5684101
8599782835000	0.4129449	0.7266242	0.44776422
8599788084000	0.48991394	0.5403103	0.2593123
8599798765000	0.5155703	0.3827071	0.08674286
8599808165000	0.4642576	0.22602014	-0.07666359
8599820647000	0.38637227	0.1020145	-0.31490102
8599828734000	0.24984388	0.17867808	-0.5366451
8599838805000	-0.015271631	0.4279111	-0.59986967
8599848173000	-0.33505958	0.602924	-0.5497787
8599858855000	-0.7058548	0.5439755	-0.49632803
8599868193000	-1.2076806	0.36102137	-0.5137377
8599879210000	-1.4844025	0.31703907	-0.56016344
8599888914000	-1.981036	0.3005457	-0.7431176
8599898924000	-2.3961189	0.112399206	-1.0161743
8599908232000	-2.8502972	-0.11209377	-1.289842
8599920500000	-3.268129	-0.13561209	-1.5204436
8599928221000	-3.4232888	-0.25320363	-1.6215417
8599939299000	-3.360675	-0.6356053	-1.536326
8599948820000	-3.2592716	-0.79290307	-1.3842206
8599958952000	-3.10289	-0.44012842	-1.3026701
8599968260000	-2.8735101	0.16432275	-1.2528846
8599978941000	-2.705522	0.5687156	-1.1615603
8599988310000	-2.6502388	0.72051555	-1.1163563
8600000822000	-2.6426032	0.88453287	-1.1163563
8600008879000	-2.5497515	1.1346822	-1.0522153
8600018980000	-2.350915	1.3548992	-0.88606006
8600028349000	-2.251344	1.2928963	-0.7816021
8600039000000	-2.0677788	1.1456778	-0.623388
8600048369000	-1.8524488	0.6017023	-0.6554584
8600059386000	-1.7421877	0.065973446	-0.8741482
8600069060000	-1.7314975	0.26236662	-1.1887437
8600079039000	-1.6948457	0.6805039	-1.4340062
8600088377000	-1.6056592	0.66523224	-1.488984
8600100706000	-1.5238034	0.2049453	-1.3778065
8600108397000	-1.5305228	-0.55833083	-1.2147056
8600119414000	-1.5063937	-1.3414601	-1.0467176
8600128996000	-1.4202617	-1.8860464	-0.8765916
8600139067000	-1.3158038	-2.1398609	-0.7141015
8600148466000	-1.138042	-2.1255057	-0.52626044
8600159148000	-0.88331115	-2.0210476	-0.33169982
8600168455000	-0.5900958	-1.8231273	-0.14385876
8600180937000	-0.44073927	-1.5396858	0.042760566
8600189055000	-0.16707164	-1.3078625	0.13683382
8600199095000	0.067500606	-1.2046263	0.31031954
8600208495000	0.29565877	-1.0299188	0.45142943
8600219176000	0.5180137	-0.9425651	0.5561928
8600228514000	0.6979135	-0.90194255	0.61269784
8600239561000	0.84116143	-0.86834496	0.63591075
8600249113000	0.96577793	-0.82527894	0.6609562
8600259245000	1.072374	-0.73792523	0.7141015
8600268553000	1.1801916	-0.6356053	0.79045963
8600280791000	1.3063353	-0.61941737	0.87872964
8600288573000	1.4395039	-0.7107417	0.98715824
8600299589000	1.5091426	-0.8576548	1.1154399
8600309172000	1.4175128	-1.0586295	1.1759156
8600323149000	1.0861185	-1.3301591	1.0580186
8600328612000	0.83291477	-1.5613716	0.7666359
