linearaccelerometer_timestamp	linearaccelerometer_x_data	linearaccelerometer_y_data	linearaccelerometer_z_data
447805403673507	0.7707833	-5.2838535	-2.8570309
447805458051048	-0.79981303	2.5595512	-2.9683611
447805579480673	-0.8123826	2.4582467	-4.0472484
447805893028374	-1.1770494	-0.5786486	0.11791443
447805913042271	-1.8478748	-0.2057517	0.14335282
447805948068445	-2.9165866	-0.48961425	-0.6441899
447805993104153	-2.532467	-1.4679449	-1.6199768
447806053140094	-0.38845924	-0.19348143	-1.2255319
447806063143256	-0.33444005	-0.13946225	-1.4221559
447806093153168	-0.8396166	0.30271688	-0.58433485
447806103156974	-1.02816	0.3290531	-0.56877255
447806113161054	-0.96591073	0.36795887	-0.8405144
447806118163203	-1.0506057	0.358831	-0.95962596
447806123165448	-1.0398318	0.37678748	-1.1583447
447806133170118	-1.0948983	0.29777884	-1.3839983
447806138172566	-1.1049241	0.25573066	-1.3772645
447806143175070	-1.1492168	0.119261175	-1.4161704
447806158183213	-1.0998363	-0.09546879	-1.716942
447806168189037	-1.0507553	0.0020949265	-1.9803041
447806173192025	-1.1459248	0.1738789	-2.037765
447806183198106	-0.9980828	1.0705074	-1.039682
447806188201183	-0.9729437	1.2542624	-0.82360536
447806193204301	-1.0531495	1.2069769	-1.2587515
447806198207478	-1.1849802	1.1351509	-1.5478514
447806203210722	-1.2436382	1.0836755	-1.6531962
447806208214000	-1.448941	0.48871642	-3.1262288
447806213217345	-1.3555671	1.1926117	-1.1450269
447806223224145	-1.801936	1.0324994	-1.17271
447806228227624	-1.896507	1.0582372	-1.4546272
447806233231158	-1.9731215	1.1294646	-1.4791677
447806238234733	-2.0392613	1.1721114	-1.4636054
447806243238369	-2.0536265	1.2110171	-1.3223475
447806248242051	-1.9339164	1.3007997	-1.1816882
447806253245771	-1.8321629	1.3738228	-0.88241297
447806258249533	-1.7975966	1.5037084	-0.58672905
447806263253348	-1.641375	1.6952444	-0.56158996
447806268257202	-1.386991	1.9927241	-0.62683195
447806273261121	-1.1511621	2.224363	-0.7178116
447806278265061	-1.0099041	2.353201	-0.58657944
447806283269081	-0.8267478	2.3753474	-0.29149407
447806288273164	-0.6830957	2.34123	0.05925649
447806293277289	-0.5256769	2.330456	0.23403321
447806298281452	-0.48198274	2.362329	0.32995093
447806303285653	-0.46821606	2.41141	0.38681322
447806308289890	-0.45983636	2.499397	0.49574938
447806313294176	-0.38860887	2.5676317	0.7962217
447806318298492	-0.17178397	2.614169	1.4146739
447806323302854	0.0688333	2.5585039	2.121562
447806328307260	0.2765303	2.4693198	2.7769747
447806333311704	0.5686229	2.2885575	2.918831
447806338316170	1.1984476	2.1266496	2.99365
447806343320669	1.6748937	1.8435353	2.8410196
447806348325200	2.1088428	1.4568717	2.4292169
447806353329780	2.5751135	1.0067618	2.008436
447806358334394	3.1248822	0.5933131	1.9071313
447806363339046	3.4630632	0.19946693	1.4899416
447806368343718	3.6988919	-0.12913725	0.96441436
447806373348410	3.9035962	-0.32366616	0.37065235
447806378353167	4.1075525	-0.27922377	-0.008978256
447806383357970	4.223671	-0.04878186	-0.8265981
447806388362789	4.3086653	0.3079542	-1.857302
447806393367639	4.287716	0.7580641	-2.895787
447806398372513	4.3255744	1.2862848	-3.1585505
447806403377434	4.074183	1.7250223	-3.3022027
447806408382339	3.6665702	2.1140802	-3.0454245
447806413387293	3.1643865	2.3852234	-2.6222494
447806418392231	2.7807157	2.6262896	-1.956811
447806423397155	2.2138884	2.6981156	-1.7562966
447806428402106	1.5746366	2.6993127	-1.5384243
447806433407086	0.94795424	2.5706244	-1.2894273
447806438412092	0.4866215	2.487426	-0.70718735
447806443417123	-0.05207389	2.216881	-0.44143093
447806468443063	-1.9355625	0.84934306	-0.011971008
447806473448269	-2.1402667	0.6422446	0.11552023
447806478453498	-2.0512323	0.5292682	0.34760815
447806483458751	-2.018312	0.28266543	0.23807344
447806488464027	-1.881244	0.054019175	0.14110826
447806493469324	-1.6298528	-0.17342998	0.09142858
447806503479970	-0.80101013	-0.42122987	0.23193829
447806508485321	-0.413748	-0.6019921	0.046986207
447806513490683	-0.07736264	-0.76300216	-0.2451064
447806518496065	0.25198972	-0.9305963	-0.25932196
447806523501466	0.6380547	-1.0916064	-0.4712088
447806528506882	0.93373865	-1.3286324	-0.5897218
447806533512317	1.1737574	-1.5596727	-0.74534494
447806538517778	1.3482348	-1.704522	-0.6096236
447806543523261	1.5445594	-1.8577509	-0.8137293
447806548528755	1.6792332	-1.9624972	-0.911293
447806553534267	1.85401	-1.9912276	-1.0333973
447806558539797	1.9021933	-1.8842367	-0.8170213
447806563545345	1.7501614	-2.0655975	-0.8098387
447806568550910	1.6514006	-2.1613655	-0.7667431
447806573556486	1.596334	-2.244564	-0.7757214
447806578562075	1.6379333	-2.1556795	-0.6621464
447806583567678	1.4763247	-2.245462	-0.5933131
447806588573298	1.3021464	-2.4154503	-0.6681319
447806593578935	1.1273698	-2.6147676	-0.6501754
447806598584587	1.0844238	-2.6960208	-0.4762965
447806603590255	1.1418846	-2.7468975	-0.5175965
447806608595939	1.342399	-2.6373627	-0.5313631
447806613601640	1.4950293	-2.5403976	-0.4894646
447806618607358	1.5357307	-2.5565586	-0.53899467
447806623613087	1.5375264	-2.6427498	-0.4540005
447806628618834	1.4782699	-2.7415106	-0.3648165
447806633624611	1.4645033	-2.8043585	-0.21637598
447806638630403	1.389834	-3.0228293	-0.45205522
447806678682706	0.79652095	-3.5724483	-0.75731593
447806683689713	0.8515876	-3.2618005	-0.55141455
447806688696145	0.97309333	-2.833837	-0.52148706
447806693702291	1.1335049	-2.266411	-0.3119944
447806698708300	1.2267292	-1.682226	-0.36032736
447806703714235	1.2542624	-1.0256162	-0.29209262
447806708720138	1.2476784	-0.42945993	-0.19752164
447806713726043	1.1291654	0.09726445	-0.20949265
447806718731954	0.80445176	0.61501056	-0.4245219
447806723737874	0.49440265	1.3518262	-0.44666827
447806728743798	0.14544775	2.2059577	-0.4388871
447806733749728	-0.26994625	3.081637	-0.57116675
447806738755670	-0.79996264	3.8172553	-1.1125556
447806743761622	-1.1836334	4.5349174	-1.794903
447806748767588	-1.5146319	5.143643	-2.559252
447806753773567	-1.7923592	5.342362	-3.1937153
447806758779559	-1.9011458	5.2623057	-3.3864486
447806763785567	-1.8227357	4.9259205	-3.366098
447806768791582	-1.7048212	4.1992803	-3.3439517
447806773797607	-1.642572	3.1913211	-3.480421
447806778803638	-1.6014217	2.0295348	-3.5185788
447806783809678	-1.7283144	0.6211457	-3.44376
447806788815738	-1.8438346	-0.7794623	-3.231873
447806793821806	-1.872565	-2.0076878	-2.8649616
447806798827879	-1.5321394	-2.709937	-2.3071127
447806803833957	-1.2723686	-3.0630817	-2.2281039
447806808840045	-0.8845079	-2.8918965	-2.116175
447806813846142	-0.4086603	-2.0108302	-1.6283565
447806818852246	0.10444705	-0.38037878	-0.51684827
447806823858360	0.33728316	1.5301942	-0.102052845
447806828864482	0.48692077	3.5509005	-0.471957
447806833870613	0.5779004	5.308244	-0.94900167
447806838876776	0.61964935	6.5864487	-1.22224
447806843882944	0.8692449	7.32925	-1.5352819
447806848889103	1.1403883	7.579444	-1.857302
447806853895262	1.3313258	7.405266	-2.0638018
447806858901426	1.1707647	6.7272577	-2.1273978
447806863907608	1.0971429	5.824045	-2.1465514
447806868913818	0.9672575	4.800524	-2.1441572
447806873920029	0.830788	3.8847418	-1.9334675
447806878926261	0.6536171	3.0689178	-1.4351742
447806883932492	0.6206968	2.4392426	-0.9192238
447806888938745	0.49559975	1.9250878	-0.66244566
447806893944991	0.35553896	1.4193127	-0.68698627
447806898951257	0.16938977	0.782455	-0.8243536
447806903957521	-0.065242	0.07676409	-0.58672905
447806908963803	-0.45310268	-0.8049007	0.38531685
447806913970084	-0.99898064	-1.8086698	1.7170916
447806918976365	-1.3171102	-2.6954222	2.8703485
447806923982651	-1.3967174	-3.2430959	3.939958
447806928988958	-1.1148002	-3.3185132	4.8030677
447806933995261	-0.6844424	-3.0108583	5.4572835
447806939001584	-0.2825158	-2.5875335	5.5122004
447806944007904	-0.073621705	-2.0284874	5.485864
447806949014238	-0.02873042	-1.365892	5.4726963
447806954020604	-0.13227965	-0.7152678	5.4086514
447806959026970	-0.24405894	-0.19886838	5.0335097
447806964033325	-0.17582418	0.43200377	4.7677536
447806969039694	-0.2709937	0.8940847	4.525939
447806974046072	-0.27997196	1.1514614	4.2146926
447806979052454	-0.21218613	1.0407295	3.553145
447806984058834	0.2534861	1.0197803	3.179051
447806989065212	0.7053917	0.77377605	2.8444612
447806994071592	1.2069769	0.5056255	2.5763106
447806999078000	1.7018285	0.13901334	2.0561705
447807004084401	2.5475802	0.24675241	2.0543747
447807009090817	3.2413	0.13901334	1.7269676
447807014097226	3.742287	0.07855974	1.3049896
447807019103655	4.005799	0.11192893	0.7615058
447807024110130	4.2164884	0.2789245	0.4753987
447807029116662	4.1913495	0.3537433	0.21981764
447807034123336	3.9914336	0.40641573	0.14859015
447807039129987	3.5187283	0.34521395	0.036511578
447807079198832	0.32606035	-0.5482722	0.8464999
447807084205242	0.1225532	-0.6254852	1.1463737
447807094217960	-0.1515829	-0.66020113	1.6024691
447807099224295	-0.36736032	-0.75357497	1.4502877
447807104230638	-0.4511574	-0.7290344	1.3521254
447807109236961	-0.5223849	-0.6781576	1.2156559
447807114243273	-0.7444471	-0.6847417	1.0486604
447807119249585	-0.5750573	-0.35479078	1.2090719
447807124255904	-0.6121674	-0.20515315	1.0726024
447807134268573	-1.064073	-0.10878654	0.85054016
447807144281291	-1.366341	0.04444237	0.50742114
447807149287635	-1.6901568	-0.09561843	0.1806126
447807154293986	-1.491438	0.29942486	0.6750153
447807159300340	-1.4829087	0.34012628	0.36182374
447807164306714	-1.7031752	0.229993	0.13916297
447807169313080	-1.9126679	0.11626842	0.0020949265
447807174319458	-2.020407	0.015113398	-0.07571663
447807189338690	-2.26686	-0.5069722	-0.44158056
447807194345099	-2.3386862	-0.670975	-0.52777183
447807199351557	-2.392855	-0.80205756	-0.75985974
447807204358040	-2.3904607	-0.8331822	-0.947206
447807209364497	-2.399439	-0.842759	-1.0639234
447807214370948	-2.37011	-0.8295909	-1.1632828
447807219377398	-2.3817818	-0.801459	-1.3880384
447807224383834	-2.290802	-0.7751228	-1.4377182
447807229390266	-2.2554877	-0.789488	-1.5179238
447807234396691	-2.1926398	-0.84575176	-1.6023195
447807239403125	-2.144606	-0.9540894	-1.6928502
447807244409564	-2.31639	-1.3293805	-2.485331
447807249415999	-1.7663223	-0.85054016	-0.978181
447807254422440	-1.5346833	-0.85772276	-0.8866028
447807259428881	-1.5532384	-0.95483756	-1.2366052
447807264435323	-1.4329298	-0.97877955	-1.3443443
447807269441767	-1.2826935	-0.9350854	-1.2473791
447807274448223	-1.2216414	-1.1547534	-2.0871453
447807279454685	-0.8538322	-0.48168346	-0.23672669
447807284461154	-0.5348048	-0.23867199	0.252289
447807289467622	-0.37738603	-0.041748893	-0.001496376
447807294474092	-0.20799628	0.24316111	-0.24091655
447807299480562	-0.20994157	0.5006874	-0.39100307
447807304487081	-0.07646482	0.83168584	-0.21802199
447807309493622	-0.07526772	1.059135	0.051325697
447807314500167	-0.13153146	1.1267712	-0.5172972
447807319506708	-0.0796072	1.5973815	1.3046902
447807324513273	-0.22625206	1.4417584	0.99643683
447807329519838	-0.35673606	1.3154641	0.08903438
447807334526409	-0.45789108	1.2280759	-0.46701896
447807339533344	-0.6943185	1.072303	-0.69102645
447807344540397	-0.85891986	0.89453363	-0.6784569
447807349547395	-0.97384155	0.71077865	-0.81313074
447807354554524	-1.1019313	0.56293666	-1.0525509
447807359561512	-1.2617443	0.51430446	-1.3817537
447807364568355	-1.4873978	0.53465515	-1.5176246
447807369575060	-1.8118122	0.6346131	-1.4272435
447807374581714	-2.0296845	0.7615058	-1.2710218
447807379588289	-2.194585	0.83542675	-1.1774983
447807384594870	-2.3083098	0.9132383	-1.2044331
447807389601396	-2.3861213	0.9234137	-1.3079823
447807394607958	-2.583643	0.8605659	-1.2846389
447807399614472	-2.7166708	0.8406641	-1.0942998
447807404621029	-2.8375778	0.82629883	-1.0009259
447807409627555	-3.0458734	0.8526351	-0.91114336
447807414634072	-3.2104747	0.964564	-0.7363667
447807419640579	-3.1929672	1.2059295	-0.31064767
447807424647143	-3.1337109	1.5195699	0.107739076
447807429653807	-2.9972413	1.9265841	0.24061728
447807434660455	-2.7787704	2.3383868	0.14844051
447807439667049	-2.4355016	2.760365	0.053570263
447807444673661	-2.0883424	2.996194	-0.030825347
447807449680217	-1.8608932	2.9608793	-0.009277532
447807454686816	-1.6867151	2.7346272	0.18644845
447807459693380	-1.5152304	2.384625	0.41629183
447807464699984	-1.4380174	2.0266917	0.5455787
447807469706541	-1.3913305	1.7896658	0.5186439
447807474713143	-1.3931261	1.6340426	0.51325697
447807479719711	-1.2823943	1.5367782	0.63087213
447807484726319	-1.1393408	1.5278	0.85532856
447807489732937	-1.0070611	1.4673463	1.3802572
447807494739586	-0.9178771	1.379958	2.1811178
447807499746175	-0.7428011	1.2606969	2.944868
447807504752796	-0.59615624	1.1074679	3.2734723
447807509759387	-0.2873042	0.93807817	3.1411927
447807514765991	0.3274071	0.8393173	2.9251158
447807519772585	1.1773487	0.72753805	2.736423
447807524779204	1.7322049	0.4695628	2.4395418
447807529785791	2.1320367	0.12419921	2.2270565
447807534792422	2.4510639	-0.1858499	1.8996494
447807539799018	2.871396	-0.28266543	1.6109985
447807544805661	3.2017958	-0.3012205	0.643741
447807549812262	3.5579333	-0.106093064	-0.5844845
447807554818904	3.873968	0.24585459	-1.7456723
447807559825518	4.232799	0.8598177	-2.106299
447807564832172	4.3171945	1.4164696	-2.0979192
447807569838783	4.184316	1.9150621	-1.8543092
447807574845435	4.052037	2.3490112	-1.7884687
447807579852051	3.9095817	2.7030537	-1.5460558
447807584858711	3.7036803	2.9622262	-1.6328455
447807589865326	3.359514	3.0963013	-1.6370354
447807594871977	2.8878562	3.1040826	-1.4496891
447807599878599	2.430414	3.1165025	-0.9458593
447807604885263	1.8055273	2.9728503	-0.6537667
447807609891880	1.1088147	2.7424085	-0.36586395
447807614898520	0.3660136	2.3958478	-0.06658874
447807619905130	-0.163105	2.122759	0.4007295
447807624911791	-0.9382278	1.735497	0.61022216
447807629918423	-1.658284	1.3482348	0.73831195
447807634925090	-2.318485	0.9956886	0.9418191
447807639931723	-2.653823	0.69925654	1.2056302
447807644938403	-3.042282	0.41674075	1.304391
447807649945044	-3.2415996	0.19946693	1.3109751
447807654951726	-3.3206081	0.038456865	1.0954969
447807659958363	-3.0771477	0.038456865	1.0935516
447807664965056	-2.7886465	-0.013617022	0.8182184
447807669971704	-2.4450784	-0.09023148	0.65541273
447807674978397	-2.11827	-0.21293432	0.47345337
447807679985051	-1.601272	-0.22595279	0.50876784
447807684991748	-1.2577041	-0.3863643	0.28191724
447807689998400	-0.88241297	-0.5294179	0.0017956513
447807695005093	-0.4580407	-0.64553666	-0.21428105
447807700011751	-0.12419921	-0.741604	-0.16968904
447807705018444	0.187047	-0.8415619	-0.3696049
447807710025099	0.47554833	-0.9271546	-0.5671265
447807715031775	0.69342065	-0.9552865	-0.63895255
447807720038432	0.77497315	-1.0242695	-0.5422867
447807725045135	0.98207164	-0.9733926	-0.40701428
447807730051801	1.0574889	-1.0577883	-0.272939
447807735058499	1.0377368	-1.2349591	-0.25079262
447807740065152	1.0482115	-1.3075334	0.011971008
447807745071850	1.1924621	-1.3123218	-0.0724246
447807750078518	1.2972084	-1.3105261	0.039504327
447807755085224	1.1697172	-1.5559318	-0.090381116
447807760091903	1.1531074	-1.6108488	0.11058219
447807765098587	1.4152725	-1.571943	0.1273416
447807770105239	1.6379333	-1.5264533	0.03995324
447807775111929	1.7684172	-1.4612112	0.12434885
447807780118604	1.7760488	-1.5363293	0.113574944
447807785125331	1.6940473	-1.6727988	0.044143096
447807790132018	1.702427	-1.7093104	0.08544307
447807795138737	1.7922096	-1.752406	0.10818799
447807800145423	1.7694647	-1.8909705	0.054468088
447807805152150	1.743727	-2.0453963	0.05327099
447807810158828	1.6252141	-2.218976	0.22924481
447807815165546	1.5647604	-2.4595933	0.12629414
447807820172252	1.525705	-2.5905263	0.0163105
447807825178952	1.5436616	-2.697667	-0.018405426
447807830185645	1.5586253	-2.7581203	-0.036361936
447807835192362	1.5735891	-2.8419175	-0.018405426
447807840199059	1.5964836	-2.8721442	0.14395137
447807845205776	1.5503953	-3.0253732	-0.358831
447807850212471	1.6485575	-3.0032268	-0.5276222
447807855219178	1.654543	-2.9631238	-0.45938745
447807860225883	1.5713445	-2.9963434	-0.4628291
447807870239336	1.3055881	-2.8191724	-0.15337855
447807880252791	0.86041623	-2.355296	0.5244798
447807885259489	0.6928221	-1.9428947	0.91832596
447807890266179	0.5336077	-1.4083891	1.2852374
447807895272866	0.4504092	-0.75956047	1.37083
447807900279551	0.3935469	-0.10878654	1.0428245
447807905286270	0.459986	0.6842928	0.6382044
447807910292969	0.55216277	1.4426562	-0.014215573
447807915299682	0.56413376	2.1034558	-0.6923732
447807920306384	0.470311	2.5646389	-1.409287
447807925313103	0.29074585	2.9405286	-1.7432781
447807930319798	0.07586627	3.3427546	-1.7444752
447807935326932	-0.21742344	3.7539587	-1.6421231
447807940333842	-0.6310218	4.058621	-1.7681179
447807945340672	-1.0506057	4.1597757	-1.9794062
447807950347425	-1.4354736	3.9921818	-2.3116016
447807955354166	-1.7108067	3.5731964	-2.6431987
447807960360874	-1.9538182	2.9037178	-2.9685109
447807965367585	-2.0244472	2.075324	-3.2474353
447807970374275	-2.0998645	1.2074258	-3.3922846
447807975380965	-2.165705	0.35868135	-3.6275148
447807980387653	-2.176479	-0.29448682	-3.533393
447807985394356	-2.2064066	-0.8822633	-3.4819174
447807990401062	-2.22975	-1.3215994	-3.421464
447807995413353	-2.211195	-1.5508442	-3.3143234
447808000431369	-2.0144215	-1.484405	-3.1169512
447808025476252	-1.8570027	1.8460791	-1.712752
447808035489066	-2.173636	3.0276177	-1.5349826
447808045501620	-1.8293197	3.0998926	-1.7188872
447808050507897	-1.3774141	3.3369186	-1.2909236
447808060520484	-0.30256724	4.6749783	-0.44771573
447808070533093	0.57131636	5.7493763	0.41958386
447808080545693	0.42048168	4.2760444	1.0350434
447808085552005	-0.15711948	2.9759927	1.1104606
447808090558305	-0.8765771	1.9285295	1.3887867
447808095564623	-1.777994	1.163582	1.934066
447808105577278	-2.8208184	0.415394	3.2127194
447808110583603	-2.5688288	0.36870706	3.5293527
447808115589943	-2.0522797	0.260968	3.2815528
447808130608956	-0.112976395	-1.5569793	3.029563
447808135615302	0.44187984	-2.2943933	3.676596
447808140621662	0.86595285	-2.911499	4.456657
447808145628042	1.301099	-3.2167597	5.1803045
447808160647221	2.1739352	-2.9071593	4.996699
447808165653639	2.396596	-2.333748	4.571728
447808170660044	2.5893292	-1.6041151	3.9019501
447808175666457	2.7102363	-0.6937199	3.281852
447808180672862	2.5938182	0.14170681	2.4814403
447808185679274	2.684798	1.0173861	1.9301754
447808190685678	2.5812488	1.6656162	1.4321815
447808195692099	2.2179286	1.9954175	1.1490672
447808200698510	1.6443677	1.9936218	0.954239
447808205704958	1.4324808	1.8906711	1.0458173
447808210711383	1.3480852	1.6015713	1.1355999
447808215717829	1.4049475	1.2436382	1.2295722
447808220724264	1.4441526	0.8581717	1.1475708
447808225730721	1.4938322	0.547524	1.3983635
447808230737172	1.5770308	0.3242647	1.5114895
447808235743642	1.7176901	0.21951836	1.5426141
447808240750100	1.9416976	0.17597382	1.3034931
447808245756577	1.9800048	0.12689269	1.0682628
447808250763051	1.8866309	0.24121583	1.129315
447808255769535	2.1458032	0.6206968	1.3292309
447808260776004	2.0998645	0.7360674	1.0818799
447808265782508	1.8233342	0.69416887	0.8783727
447808270789029	1.4953285	0.5810428	0.8442554
447808275795568	1.2265794	0.4810849	0.8891467
447808280802116	0.9947908	0.36750996	0.82031333
447808290815218	0.57281274	0.23163901	0.9980828
447808295821801	0.46926352	0.21906945	1.0543466
447808300828357	0.3374328	0.13706805	0.8975264
447808305834935	0.2817676	0.06404489	0.84006554
447808310841486	0.18899229	-0.02813187	0.7754221
447808315848067	0.18719664	-0.094570965	0.8729858
447808320854631	0.20275895	-0.18001404	0.77242935
447808325861196	0.1985691	-0.3362357	0.7652467
447808330867738	0.059705406	-0.52896893	0.65032506
447808335874314	-0.05057751	-0.5852327	0.68264675
447808340880864	0.085891984	-0.47928926	0.9334394
447808345887451	0.054767363	-0.43559507	0.87119013
447808350894014	-0.10923545	-0.34281975	0.69222355
447808355900611	-0.28805238	-0.24405894	0.42826283
447808360907178	-0.46462476	-0.06748656	0.3612252
447808365913789	-0.5981015	0.13661914	0.34326866
447808370920375	-0.75013334	0.30421326	0.33429042
447808375926997	-0.8882488	0.42841247	0.14978725
447808380933596	-1.0187328	0.55231243	0.10729016
447808385940224	-1.151611	0.56548053	-0.022595279
447808390946815	-1.2545617	0.5732617	-0.09382278
447808395953429	-1.3449428	0.51071316	-0.33039984
447808400960022	-1.4377182	0.4221277	-0.44651863
447808405966664	-1.520318	0.319177	-0.51954174
447808410973275	-1.602918	0.23537995	-0.5781997
447808415979912	-1.6159365	0.12539631	-0.66708446
447808420986522	-1.853561	-0.4671686	-1.7965491
447808425993166	-1.7039235	-0.1038485	-0.667683
447808430999784	-1.4746786	-0.031423897	-0.20560206
447808436006429	-1.5399206	-0.17088614	-0.48332947
447808441013056	-1.6077064	-0.32351652	-0.9521441
447808446019714	-1.5837644	-0.4103063	-1.2083237
447808451026443	-1.5376761	-0.48213238	-1.2496237
447808456033141	-1.7893665	-0.99763393	-2.5261822
447808461039780	-1.4206594	-0.4523545	-1.0046669
447808466046429	-1.2967595	-0.4739023	-0.7293337
447808471053094	-1.3284826	-0.5553052	-1.0453683
447808476059774	-1.4089876	-0.7896376	-1.8994998
447808481066405	-1.3425486	-0.5789479	-1.5391724
447808486073069	-1.3227965	-0.4676175	-0.9735423
447808491079910	-1.3401544	-0.5196914	-0.9316437
447808496086665	-1.489343	-0.5439327	-1.3890859
447808501093353	-1.4001591	-0.18959084	-0.32007483
447808506100027	-1.500117	-0.16564883	-0.20694882
447808511106906	-1.5384243	-0.1237503	-0.37514147
447808516113684	-1.5764322	-0.047734395	-0.48961425
447808521120375	-1.5225626	-0.34641105	-1.941099
447808526127059	-1.3046902	0.3688567	-0.1412579
447808531133868	-1.3813047	0.4885668	0.80924016
447808536140616	-1.4281414	0.44382513	0.32606035
447808541147366	-1.2641385	0.501286	-0.1719336
447808546154085	-1.1522095	0.5288193	-0.4712088
447808551160759	-1.0767922	0.51684827	-0.5184943
447808556167430	-1.1323078	0.5419874	-0.3890578
447808561174324	-1.0957962	0.48273093	-0.52492875
447808566181099	-0.9425673	0.40611646	-0.9552865
447808571187950	-0.7707833	0.47255555	-1.5658079
447808576194706	-0.98566294	0.70733696	0.35942954
447808581201410	-1.0125977	0.6283283	-0.25647885
447808586208109	-0.927005	0.6911761	-0.8963293
447808591214783	-1.0317513	0.7127239	-1.0758944
447808596221438	-1.2315176	0.69895726	-1.0859201
447808601228302	-1.3739725	0.6959645	-1.1391912
447808606235056	-1.5098435	0.72649056	-1.2774563
447808611241762	-1.6397289	0.7504326	-1.4223055
447808616248433	-1.749114	0.8345289	-1.4368203
447808621255102	-1.7772459	0.8812159	-1.539771
447808626261760	-1.8041806	0.8632594	-1.5056536
447808631268417	-1.8772038	0.7650971	-1.3189058
447808636275082	-2.0742764	0.5844845	-0.9741408
447808641281749	-2.294543	0.4563947	-0.6712743
447808646288416	-2.5225909	0.43843818	-0.48512512
447808651295154	-2.7266965	0.5228338	-0.4563947
447808656301881	-2.9384336	0.713921	-0.58747727
447808661308582	-2.9468133	1.1005846	-0.6227917
447808666315277	-2.776825	1.5321394	-0.39534256
447808671321970	-2.8259063	1.7548002	0.2570774
447808676328662	-2.9903579	1.8194437	1.4112322
447808681335344	-3.1214404	1.7715596	2.256984
447808686342030	-3.2225955	1.6374843	2.5095723
447808691348720	-3.280655	1.4429555	2.2336404
447808696355414	-3.1821933	1.2575544	1.7274165
447808701362118	-2.8679543	1.3036429	1.7190368
447808706368815	-2.494459	1.2210429	1.9087774
447808711375505	-2.025794	1.0995371	2.110489
447808716382203	-1.1909657	1.0552444	2.284667
447808721388905	-0.26919806	0.98820674	2.2038627
447808726395600	0.8692449	1.134253	2.2008698
447808731402305	1.796998	1.1767502	2.2960393
447808736408994	2.5594015	1.1733085	2.4001873
447808741415686	2.9735985	1.1068693	2.1655555
447808746422388	3.3859997	1.1966519	1.6771383
447808751429081	3.755904	1.4450504	1.1049241
447808756435776	4.1157823	1.7411832	0.54303485
447808761442475	4.318691	2.0691888	-0.46851534
447808766449172	4.527585	2.433706	-1.3196541
447808771455881	4.667646	2.8389246	-2.155829
447808776462596	4.671836	3.2480338	-2.180519
447808781469324	4.3162966	3.5012207	-1.9243397
447808786476056	3.8613985	3.6173396	-1.6813282
447808791482776	3.4442089	3.6520555	-1.6280571
447808796489493	3.096451	3.6192849	-1.3724761
447808801496229	2.6074352	3.413982	-1.3760674
447808806502951	2.0914848	3.1117141	-1.3000516
447808811509661	1.5845126	2.82022	-1.210269
447808816516366	1.3169606	2.5888803	-0.8348282
447808821523064	0.8512883	2.207005	-0.6792051
447808826529778	0.40117842	1.8185458	-0.4098574
447808831536482	-0.07227496	1.4079403	-0.111779295
447808836543172	-0.36302084	1.0745476	0.3652654
447808841549903	-0.84365684	0.60707974	0.5376479
447808846556607	-1.3099276	0.17732057	0.71841013
447808851563309	-1.7815853	-0.25543138	0.8393173
447808856569995	-1.8468274	-0.50143564	1.1321582
447808861576712	-2.0222025	-0.74743986	1.1566987
447808866583432	-2.080262	-0.9072528	1.0597335
447808871590143	-1.9820998	-0.93239194	0.9597756
447808876596848	-1.682226	-0.81627315	0.80953944
447808881603581	-1.2829928	-0.66124856	0.638354
447808886610329	-0.67651165	-0.3676596	0.81552494
447808896623830	0.23567922	-0.07736264	0.41689038
447808906637357	0.909647	0.030376434	-0.043993454
447808921657649	1.4202105	-0.034267012	-0.102052845
447808941684604	1.3938743	-0.7770681	-0.23014264
447808951698129	1.333271	-0.9653122	-0.02633622
447808961711646	1.4033015	-1.1556512	-0.19572599
447808971725153	1.5882535	-1.314267	-0.43754035
447808981738656	2.0681415	-1.1644799	-0.53570265
447808986745422	2.2489035	-1.1231799	-0.5129577
447808996758940	2.3554456	-1.3015479	-0.43394905
447809021792692	1.8254292	-2.0557215	-0.10908581
447809031806309	1.4992192	-2.5408466	-0.35090017
447809036813112	1.3980641	-2.6539726	-0.4293103
447809081887001	-0.2717419	-1.9499277	0.019752163
447809096907979	-0.4321534	-1.0778397	0.42676646
447809111927766	-0.22251113	0.11941081	0.47973818
447809121940790	0.11162966	1.1589433	-0.36616322
447809131953755	0.28221652	1.9711761	-1.2879308
447809141966707	0.27847558	2.260276	-1.2319664
447809151979667	-0.07826047	2.0489876	-1.3277345
447809161992613	-0.676362	1.7112557	-1.6262615
447809172005587	-1.2180501	1.5065514	-2.1440077
447809182018573	-1.552939	1.0890625	-2.4574983
447809187025081	-1.5613188	0.839467	-2.4676738
447809192031595	-1.4775218	0.54917	-2.4191911
447809202044606	-1.2054806	0.054617725	-2.1894975
447809212057625	-0.8415619	-0.34760815	-2.142212
447809222070683	-0.42706573	-0.40701428	-1.9400516
447809232083868	-0.16490065	-0.037708677	-2.0052936
447809237090448	-0.27503392	0.46507367	-1.9969139
447809242096997	-0.339827	1.1957542	-1.8287212
447809247103543	-0.47450083	1.9343654	-1.7311574
447809252110110	-0.7175123	2.6185086	-1.4989198
447809262123223	-1.2318168	3.4175732	-1.1414356
447809267129774	-1.151611	3.5259109	-1.049259
447809272136302	-0.7637503	3.5438673	-0.82899237
447809277142840	-0.22191256	3.5359366	-0.4031237
447809282149398	0.37663785	3.5437179	0.06015432
447809287155944	0.90515786	3.5838206	0.5832874
447809292162490	1.3492823	3.6245222	0.86999303
447809297169051	1.6136919	3.5302503	0.77362645
447809302175610	1.9961656	3.5978866	0.99748427
447809307182168	2.2732944	3.7373488	1.1692683
447809312188748	2.3906105	3.822343	0.43484688
447809317195313	2.210297	3.7508163	-0.9177274
447809322201885	2.0031986	3.463512	-1.5372272
447809327208447	1.627309	2.8709471	-1.4300866
447809332215021	1.1119571	2.1395185	-0.7848492
447809337221592	0.44532153	1.3223475	-0.020350715
447809342228166	-0.035314474	0.5813421	0.4818331
447809347234755	-0.29807812	-0.08424597	0.93014735
447809352241372	-0.19991584	-0.607379	1.2312182
447809357247988	0.10130466	-1.0742484	1.5494974
447809362254633	0.39758712	-1.6183307	1.80029
447809367261271	0.5885247	-2.1965303	1.9110218
447809372267914	0.6998551	-2.720262	2.1941361
447809377274554	0.82480246	-3.060089	2.6788125
447809382281210	0.92057055	-3.179799	3.2893338
447809387287875	0.94810385	-3.0942063	3.8597524
447809392294537	0.99179804	-2.804508	4.4589014
447809397301208	0.87672675	-2.4012346	4.723012
447809402307878	0.7564181	-1.8218379	4.945074
447809407314557	0.5750573	-1.0724527	4.9378915
447809412321236	0.37394437	-0.2674024	4.613477
447809417327937	-0.008978256	0.32336688	3.758747
447809422334626	-0.31064767	0.8626608	3.2032921
447809427341300	-0.5410896	1.1834838	2.707094
447809432347983	-0.6985083	1.3786112	2.316839
447809437354683	-0.88241297	1.3313258	1.8390462
447809442361417	-0.7375638	1.3307272	1.747468
447809447368166	-0.4921581	1.3109751	1.7750013
447809452374931	-0.18869302	1.2367548	1.807323
447809457381697	0.046537295	1.0510546	1.6406267
447809462388430	0.38411975	0.96665895	1.6597804
447809467395157	0.75103116	0.8451532	1.4814123
447809472401854	1.0820296	0.74758947	1.2898762
447809477408563	1.3278841	0.63042325	0.94092125
447809482415266	1.4535797	0.5693711	0.7906851
447809487421917	1.3667899	0.4161422	0.599149
447809492428541	1.3440449	0.49814358	0.61770403
447809497435148	1.1917139	0.41180268	0.3552397
447809502441788	0.9576807	0.27832595	0.1774702
447809507448425	0.75596917	0.11372458	0.1858499
447809512455073	0.55605334	-0.012569559	0.2379238
447809517461731	0.34596214	-0.19662382	0.15173253
447809522468389	0.037708677	-0.4671686	-0.011671733
447809527475032	0.05327099	-0.32351652	0.26186582
447809532481682	0.110731825	-0.20739773	0.37020344
447809537488334	0.002244564	-0.21667525	0.16265608
447809542494986	-0.12943652	-0.19572599	0.14589667
447809547501627	-0.31379005	-0.2172738	0.2021604
447809552508286	-0.52866966	-0.35194764	0.20156185
447809557514933	-0.48407766	-0.31543607	0.2688988
447809562521578	-0.5199907	-0.31064767	0.30660746
447809567528228	-0.6414964	-0.45190558	0.29583356
447809572534879	-0.7947253	-0.6691794	0.20245968
447809577541528	-0.7887398	-0.6688801	0.3131915
447809582548182	-0.67202246	-0.58747727	0.4604349
447809587554839	-0.69177467	-0.61261636	0.4724059
447809592561527	-0.76659346	-0.66229606	0.49754503
447809597568217	-0.7223007	-0.5883751	0.54064065
447809602574924	-0.6295254	-0.5081693	0.6621464
447809607581643	-0.6001964	-0.46986207	0.6890812
447809612588359	-0.6343138	-0.47465047	0.6501754
447809617595061	-0.62817866	-0.48512512	0.5360019
447809622601773	-0.59944826	-0.44621935	0.49290627
447809627608468	-0.6419453	-0.5030816	0.3079542
447809632615173	-0.6581062	-0.26066872	0.5042787
447809637621887	-0.4043208	0.04938041	0.4914099
447809642628602	-0.37918168	0.1702876	0.24720132
447809647635307	-0.43903673	0.28221652	0.15562311
447809652641984	-0.46058455	0.4055179	0.1340753
447809657648694	-0.4559458	0.48392802	-0.041150343
447809662655410	-0.41883567	0.55814826	0.037858315
447809667662115	-0.33922845	0.58508307	0.018704701
447809672668833	-0.24824879	0.58628017	0.049230773
447809677675542	-0.1643021	0.51235914	-0.11581951
447809682682252	-0.03321955	0.40641573	-0.23552959
447809687688950	0.011073183	0.30705637	-0.3875614
447809692695665	0.06075287	0.11911154	-0.5635352
447809697702371	0.09891046	-0.06284779	-0.8536825
447809702709085	0.21921909	-0.21787235	-1.0380361
447809707715801	0.26590604	-0.3489549	-1.2014403
447809712722525	0.28805238	-0.4878186	-1.352275
447809717729236	0.23567922	-0.62099606	-1.5743372
447809722735962	0.13332711	-0.7000047	-1.7586908
447809727742674	0.044143096	-0.7508815	-1.9179052
447809732749390	-0.124049574	-0.75387424	-2.040608
447809737756128	-0.3362357	-0.73232645	-2.0467432
447809742762869	-0.51939213	-0.70419455	-2.0641012
447809747769589	-0.7959224	-0.89932203	-2.4771008
447809752776309	-1.0796354	-0.6904279	-1.9533693
447809757783032	-1.0483611	-0.3410241	-0.88869774
447809762789754	-1.2506711	-0.29373863	-0.74145436
447809767796466	-1.522413	-0.33922845	-0.76419926
447809772803159	-1.7061679	-0.35778353	-0.87074125
447809777809865	-1.9768624	-0.29867667	-1.0241197
447809782816585	-1.8691233	0.025139118	0.11492168
447809787823296	-1.9870378	0.1352724	0.57041854
447809792830024	-2.109142	0.16759412	0.5859809
447809797836741	-2.2604256	0.22296004	0.24495676
447809802843459	-2.1658547	0.61620766	0.98416656
447809807850170	-2.2442648	0.786196	0.8177695
447809812856889	-2.3729532	0.89213943	0.39998132
447809817863598	-2.4347534	1.0000281	0.074818805
447809822870310	-2.4682722	1.1065701	-0.074818805
447809827877024	-2.455104	1.1406875	-0.110731825
447809832883744	-2.455104	1.0951977	-0.24241292
447809837890456	-2.394052	0.8298902	-1.2307693
447809842897183	-2.1881506	1.1728595	-0.9069535
447809847903903	-2.0881927	1.2632407	-0.24076691
447809852910630	-1.9852421	1.236306	-0.73576814
447809857917351	-1.8335096	1.3340193	-1.3986627
447809862924073	-1.6814778	1.4986206	-1.7996914
447809867930780	-1.6054618	1.7386394	-1.7422307
447809872937487	-1.546804	1.989432	-1.5632641
447809877944261	-1.3530233	2.3078609	-1.1233295
447809882951013	-1.1345524	2.5796027	-0.74384856
447809887957733	-0.9106945	2.8555346	-0.5283704
447809892964468	-0.70419455	3.0829835	-0.50742114
447809897971172	-0.59226567	3.2984617	-0.47809216
447809902977885	-0.6485294	3.4235587	-0.37274727
447809907984586	-0.77721775	3.455282	-0.042945992
447809912991303	-0.988506	3.3589153	0.4412813
447809917998005	-1.2729671	3.1675289	0.89318687
447809923004723	-1.5465046	2.9412768	1.0583868
447809928011459	-1.7488147	2.7192147	1.079336
447809933018187	-1.8391958	2.540248	1.0380361
447809938024891	-1.7844285	2.3989902	1.0892122
447809943031622	-1.702427	2.2008698	1.0544962
447809948038330	-1.5096939	2.0111294	0.98925424
447809953045053	-1.2080244	1.8189948	1.0036194
447809958051760	-0.7613561	1.6675615	1.2466309
447809963058487	-0.48961425	1.4826094	1.5590742
447809968065197	-0.20410569	1.347337	1.8122611
447809973071921	0.19931729	1.2533646	1.9636943
447809978078653	0.6715736	1.2161049	2.0581157
447809983085398	1.0881647	1.1849802	1.8935143
447809988092177	1.5526398	1.1688193	1.7815853
447809993098904	2.1140802	1.1245266	1.5218145
447809998105613	2.7527335	1.1584944	1.4703391
447810003112304	3.29502	1.1315596	1.2105682
447810008118982	3.7822402	1.0519524	0.9837176
447810013125674	4.23235	0.9747394	0.59705406
447810018132422	4.6504374	0.90186584	0.3036147
447810023143951	5.018546	0.81507605	-0.38411975
447810028153227	5.2274404	0.68938047	-0.844405
447810033161227	5.2359695	0.5789479	-0.96441436
447810038168536	5.1922755	0.44068274	-1.4067432
447810043175502	5.1018944	0.35164836	-1.695843
447810048182253	4.9757495	0.37514147	-1.9741689
447810053189073	4.6594157	0.42601827	-2.0428526
447810113268644	-0.39294836	0.93239194	-0.092176765
447810123281797	0.13272856	0.72918403	0.47345337
447810128288379	0.24944589	0.4885668	0.3441665
447810138301540	0.5174468	0.04833295	0.12644377
447810143308139	0.5988497	-0.20664953	-0.16924013
447810153321320	0.8077438	-0.66753334	-0.6911761
447810173347743	1.1873744	-1.3108255	-1.2918215
447810178354345	1.2774563	-1.3742718	-1.0922049
447810183360950	1.2367548	-1.5813702	-1.182586
447810188367576	1.2439374	-1.6998832	-1.2939163
447810193374211	1.2176012	-1.7651252	-1.3633482
447810198380839	1.265186	-1.6941969	-1.2596494
447810203387444	1.0275614	-1.8025346	-1.1884218
447810208394051	0.84859484	-1.9228432	-1.0699089
447810213400660	0.6474819	-2.0772693	-1.011251
447810218407262	0.65556234	-1.9776106	-0.83018947
447810223413874	0.56039286	-1.9255368	-0.7918822
447810228420486	0.40955812	-1.9812019	-0.6847417
447810233427095	0.3179799	-1.9794062	-0.5931635
447810238433677	0.45938745	-1.8034325	-0.5683236
447810243440270	0.41210195	-1.7429788	-0.530615
447810248446855	0.28042087	-1.8112136	-0.5940613
447810253453449	0.24929625	-1.8441339	-0.5767033
447810258460048	0.33683425	-1.8719665	-0.6097732
447810263466646	0.29553428	-2.0670938	-0.7959224
447810268473240	0.22071546	-2.2963388	-0.92640644
447810273479844	0.23148938	-2.5028386	-0.9341876
447810278486454	0.30780455	-2.8690019	-1.1703157
447810283493065	0.18869302	-3.3256958	-1.3301287
447810288499689	0.17372926	-3.666271	-1.3151649
447810293506337	0.121655375	-4.026	-1.1439795
447810298512989	0.22116438	-4.2598834	-1.0001777
447810303519655	0.3127426	-4.401141	-0.8295909
447810308526328	0.4528034	-4.3819876	-0.66139823
447810313532993	0.60543376	-4.285621	-0.46387658
447810318539655	0.74893624	-4.128651	-0.35164836
447810323546297	0.8189666	-3.9095817	-0.38456866
447810328552943	0.89797527	-3.5366848	-0.36661214
447810333559604	0.9231144	-3.0207343	-0.25887305
447810338566279	0.9334394	-2.4826376	-0.3374328
447810343572953	0.8903438	-1.8278234	-0.29792848
447810348579626	0.77721775	-1.1370962	-0.16385318
447810353586298	0.58867437	-0.47090954	0.05940613
447810358592969	0.28476036	0.085293435	0.18450317
447810363599639	-0.06599019	0.70958155	0.45265377
447810368606298	-0.39878422	1.361403	0.5424363
447810373612984	-0.71481884	2.0545244	0.40836102
447810378619655	-0.9398738	2.6511295	-0.15622166
447810383626330	-1.0326492	3.2831988	-0.55964464
447810388632994	-1.0823288	3.7907696	-0.9648633
447810393639650	-1.1948563	4.019416	-1.3802572
447810398646324	-1.4426562	3.957017	-1.7389386
447810403653014	-1.754501	3.578733	-1.8335096
447810408659709	-1.9969139	3.1238346	-1.8484733
447810413666418	-2.1453543	2.6635494	-1.8789995
447810418673116	-2.2192752	2.268057	-1.8867806
447810423679823	-2.310255	1.8532617	-1.9478327
447810428686538	-2.3575404	1.5031098	-2.0322282
447810433693253	-2.3593361	1.1128548	-2.2279544
447810438699968	-2.223615	0.73935944	-2.342876
447810443706683	-2.1948843	0.3000234	-2.4260745
447810448713380	-2.2260091	-0.15128362	-2.442834
447810453720072	-2.2493525	-0.5726631	-2.6152165
447810458726772	-2.0878935	-0.8608652	-2.7151744
447810463733489	-1.9675848	-1.0380361	-2.9504046
447810468740187	-1.7916111	-1.0631752	-3.025822
447810473746897	-1.6180314	-0.9554361	-3.1215901
447810478753607	-1.3548189	-0.5662287	-3.0439281
447810483760319	-1.0609306	-0.19033903	-3.0924108
447810488767013	-0.8209119	0.16160862	-3.0199862
447810493773728	-0.5814917	0.48722005	-3.0702643
447810498780428	-0.46297875	0.923264	-2.9070098
447810503787136	-0.3007716	1.3224971	-2.9076083
447810508793825	-0.16849194	1.7863737	-2.8238113
447810513800526	-0.11402386	2.2328923	-2.8896518
447810518807224	-0.23268647	2.6264393	-2.8311436
447810523813931	-0.16624738	3.0125043	-2.7670987
447810528820645	-0.13691841	3.3680432	-2.5342624
447810533827361	-0.08963293	3.733159	-2.1918917
447810538834068	0.023193829	4.102315	-1.8321629
447810543840775	0.2709937	4.4919715	-1.2431892
447810548847488	0.67980367	4.8074074	-0.51595044
447810553854203	1.2328643	4.9977465	0.2825158
447810558860905	1.7712604	4.9558477	0.83258367
447810563867623	2.30816	4.7391725	1.1976994
447810568874327	2.6678889	4.1669583	0.9660604
447810573881038	2.7720366	3.2380083	0.4830302
447810578887750	2.610428	1.95307	-0.15741876
447810583894467	2.456002	0.7170634	-0.28909984
447810588901165	2.4003367	-0.39264908	-0.025737667
447810593907873	2.414702	-1.2850877	0.46028528
447810598914595	2.4817398	-1.9352632	0.9317934
447810603921324	2.6469395	-2.3398833	1.295712
447810608928033	2.8139353	-2.6726773	1.5075989
447810613934759	2.9240685	-2.959383	1.5405191
447810618941471	2.8820202	-3.1805472	1.4685434
447810623948194	2.9418752	-3.1793501	1.6654665
447810628954916	2.9586349	-2.8489504	1.9934722
447810633961647	2.9508536	-2.1642087	2.2221184
447810638968371	2.680159	-1.273416	2.3627777
447810643975092	2.2976854	-0.13078327	2.5016415
447810648981816	1.6769886	0.94900167	2.6901848
447810653988542	0.84859484	1.766023	2.9661167
447810658995257	-0.24555531	2.1655555	3.0487165
447810664001974	-1.1008838	2.2942438	3.1821933
447810669008678	-1.6090531	2.143409	3.4293947
447810674015391	-1.8185458	1.846528	3.6640265
447810679022090	-1.7645266	1.3533225	3.5362358
447810684028806	-1.5095441	0.9235633	3.5990837
447810689035509	-1.1426327	0.55844754	3.6056678
447810694042217	-0.51475334	0.45010993	3.5272577
447810699048932	-0.04563947	0.100855745	3.0246248
447810704055650	0.33922845	-0.011671733	2.710386
447810709062350	0.87552965	0.23373394	2.456002
447810714069085	1.3352164	0.525228	2.1986253
447810719075806	1.3753192	0.61052144	1.7337013
447810724082528	1.4441526	0.85652566	1.4972739
447810729089249	1.496825	1.0929531	1.3069348
447810734095970	1.4812627	1.2228385	1.1489176
447810739102681	1.2448353	1.1525089	0.8607155
447810744109402	1.0886136	1.0184336	0.66139823
447810749116151	1.0503063	0.84245974	0.47465047
447810754122965	1.0778397	0.7269395	0.50278234
447810759129759	0.822109	0.24465749	0.26680386
447810764136564	0.76105684	-0.042048167	0.15487492
447810769143386	0.8538322	-0.19707273	0.115969144
447810774150197	1.0854712	-0.24794951	0.1949778
447810779156956	1.1954548	-0.3477578	0.11148002
447810784163718	1.2074258	-0.4381389	0.13661914
447810789170453	1.0757447	-0.6452374	0.21083939
447810794177207	0.954239	-0.7906851	0.28984803
447810804190658	0.6379051	-0.78320324	0.29747957
447810809197343	0.47330374	-0.65870476	0.39085343
447810814204088	0.24884734	-0.49530047	0.49200845
447810819210813	-0.07676409	-0.4062661	0.39743748
447810824217526	-0.26710314	-0.2033575	0.40402153
447810829224229	-0.45444942	-0.0028431145	0.39444473
447810834230903	-0.62443775	0.13961188	0.38486794
447810839237585	-0.8551789	0.1683423	0.24779987
447810849250936	-1.0449194	0.26949733	0.44771573
447810854257613	-1.0862194	0.21921909	0.52492875
447810859264275	-1.1703157	0.12210429	0.38696286
447810864270942	-1.2547113	0.01436521	0.34087446
447810869277611	-1.3241432	-0.077213004	0.2971803
447810874284277	-1.3438953	-0.2088941	0.27682957
447810879290937	-1.2723686	-0.34311903	0.07616554
447810884297621	-1.1676222	-0.36825815	0.05761048
447810889304290	-1.0622773	-0.41554365	-0.019602526
447810894310965	-0.98925424	-0.52148706	-0.18779519
447810899317629	-0.94166946	-0.5918167	-0.33713353
447810904324305	-0.80699563	-0.64448917	-0.42871174
447810909330987	-0.64000005	-0.6109703	-0.6154595
447810914337668	-0.5609914	-0.65885437	-0.7471406
447810919344348	-0.3883096	-0.5403414	-0.8511387
447810924351032	-0.16086042	-0.40925884	-0.9247604
447810929357721	-0.12554595	-0.37334582	-1.0462662
447810934364428	-0.16026187	-0.3859154	-1.115698
447810939371121	-0.26725277	-0.42033204	-1.1758523
447810944377811	-0.3390788	-0.49814358	-1.2087725
447810949384488	-0.43783963	-0.5472247	-1.1920131
447810954391179	-0.5342063	-0.59271455	-1.1662755
447810959397858	-0.66962826	-0.6739678	-1.2330139
447810964404545	-0.76898766	-0.76554596	-1.2479776
447810969411222	-0.90186584	-0.830788	-1.2826935
447810974417910	-1.1688193	-1.1031284	-1.7459716
447810979424589	-0.9425673	-0.65511346	-1.0788871
447810984431275	-0.79173255	-0.5988497	-1.089661
447810989437970	-0.9329905	-0.66349316	-1.2207435
447810994444662	-1.0592846	-0.655712	-1.3063363
447810999451352	-1.2143092	-0.61501056	-1.3450924
447811004458049	-1.2879308	-0.6000468	-1.2882302
447811009464735	-1.5183728	-0.5844845	-1.1763012
447811014471422	-1.2879308	-0.20560206	-0.025887307
447811019478096	-1.3841479	-0.18091187	0.142455
447811024484772	-1.5361797	-0.23897126	0.20470424
447811029491549	-1.723526	-0.30900165	0.073621705
447811034498549	-1.605013	-0.004938041	0.8074445
447811039505784	-1.5306431	0.122852474	1.0356419
447811044512923	-1.4444518	0.2264017	0.9446622
447811049519902	-1.3079823	0.38681322	0.6729203
447811054526795	-1.1649288	0.50712186	0.41075522
447811059533614	-1.2181997	0.52148706	-0.11522096
447811064540345	-0.88361007	0.95962596	0.8310873
447811069547019	-0.85547817	0.9243115	0.51565117
447811074553677	-0.98536366	0.88241297	0.017657237
447811079560309	-1.261894	0.88750064	-0.19542672
447811084566955	-1.522862	0.87912095	-0.2439093
447811089573652	-1.8287212	0.82225865	-0.38576576
447811094583694	-2.2303486	0.7492355	-0.41090485
447811099592015	-2.5647886	0.79487497	-0.4369418
447811104599464	-2.7790697	0.86610246	-0.43514615
447811109606472	-2.8395233	0.97982705	-0.3657143
447811119619955	-2.631078	1.3296797	-0.32142156
447811124626607	-2.482039	1.6337434	-0.43394905
447811139646445	-1.9744682	2.765303	-0.14260463
447811144653053	-1.8248307	2.9999347	-0.15337855
447811159672802	-1.1188403	3.2978632	0.21532851
447811164679394	-1.3444939	3.0440779	0.1830068
447811174692563	-1.589301	2.583194	0.07885902
447811179699136	-1.5617677	2.432509	0.013766659
447811184705730	-1.4139258	2.3774424	-0.11791443
447811194718895	-1.12722	2.180519	-0.0017956513
447811204732053	-0.43873745	2.1290438	0.89932203
447811209738634	-0.017357962	2.1242554	1.2273277
447811214745222	0.48961425	2.1290438	1.4751276
447811234771596	2.6152165	1.6255133	2.0890906
447811244784793	3.407398	1.024868	1.9710265
447811249791405	3.7407906	0.73696524	1.6771383
447811264811289	4.5525746	0.30885202	0.52178633
447811269817918	4.734534	0.28311434	-0.1515829
447811274824546	4.903325	0.33877954	-0.8668507
447811279831169	5.032462	0.50712186	-1.3132197
447811284837800	5.045032	0.61186814	-2.0338743
447811289844415	5.054609	0.79981303	-2.553416
447811294851037	4.8977885	0.9895535	-2.6593595
447811299857643	4.688296	1.2307693	-2.3237224
447811304864261	4.459051	1.3911809	-2.3219268
447811309870859	4.142418	1.5491982	-2.1806688
447811314877480	3.7647326	1.6449662	-1.9083284
447811319884093	3.392883	1.7902644	-1.2226889
447811324890728	2.796727	1.7938557	-0.75701666
447811329897366	2.2436662	1.769315	-0.43020812
447811334904019	1.5643115	1.738789	-0.43619362
447811339910653	1.0932523	1.8769045	-0.39444473
447811344917290	0.43005848	1.9313726	-0.31004912
447811349923913	-0.12419921	1.9786581	-0.2717419
447811354930554	-0.58268887	1.9762639	-0.059855044
447811359937180	-0.7627029	1.9906291	0.6238392
447811364943812	-1.0984896	1.6919525	0.80101013
447811369950445	-1.3905823	1.27177	0.72678983
447811374957112	-1.5581764	0.85877025	0.61845225
447811379963773	-1.5146319	0.535553	0.70254856
447811384970462	-1.5912462	0.17582418	0.42721537
447811389977140	-1.5690999	-0.054617725	0.14829087
447811394983827	-1.4230536	-0.23537995	-0.18869302
447811399990495	-1.1691186	-0.29299045	-0.20859483
447811404997188	-0.92251587	-0.45819035	-0.41988313
447811410003860	-0.56278706	-0.57730186	-0.59585696
447811415010574	-0.37663785	-0.8478467	-0.6473323
447811420017283	-0.14709377	-1.0061632	-0.42751464
447811425024015	-0.045340195	-1.3425486	-0.4340987
447811430030714	0.043245267	-1.7058687	-0.4173393
447811435037628	0.121655375	-1.9895816	-0.45385087
447811440044424	0.26231474	-2.1829133	-0.25902268
447811445051174	0.229993	-2.5019407	-0.3386299
447811450057881	0.14440028	-2.7569232	-0.42242697
447811455064596	0.070778586	-2.9167361	-0.47210664
447811460071285	0.035763387	-3.01834	-0.394744
447811465077988	-0.06599019	-3.157204	-0.43963528
447811470084655	0.0010474633	-3.14643	-0.49410337
447811475091331	0.08424597	-3.0255227	-0.5066729
447811480097994	0.18779519	-2.8456583	-0.39653966
447811485104672	0.25662848	-2.7032034	-0.49470192
447811490111337	0.4607342	-2.4398413	-0.6156091
447811495118016	0.5295675	-2.2506993	-0.6096236
447811500124683	0.5633856	-2.173187	-0.6877344
447811505131401	0.48198274	-2.268955	-0.7745243
447811510138092	0.50712186	-2.297087	-0.7721301
447811515144776	0.48796824	-2.446126	-0.7308301
447811520151435	0.49126026	-2.6927288	-0.6690297
447811525158113	0.46492404	-3.0488663	-0.6618471
447811530164769	0.47928926	-3.3810618	-0.6995558
447811535171440	0.55231243	-3.6617818	-0.64688337
447811540178098	0.69446814	-4.011934	-0.83617496
447811545184781	0.8596681	-4.1998787	-0.8062474
447811550191452	0.97638535	-4.347122	-0.6206968
447811555198154	1.1218331	-4.4249334	-0.4177882
447811560204827	1.2512697	-4.400842	-0.262614
447811565211511	1.397316	-4.29011	-0.014215573
447811570218179	1.5170261	-4.026748	0.16056114
447811575224869	1.6199768	-3.617938	0.33054948
447811580231532	1.6660651	-3.1387985	0.24944589
447811585238208	1.7271173	-2.4558525	0.27638066
447811590244868	1.7229275	-1.6723499	0.27638066
447811595251551	1.6403275	-0.8690952	0.24944589
447811600258215	1.3657424	-0.16370355	0.061052144
447811605264898	0.9838673	0.49829322	0.012569559
447811610271562	0.41045594	1.0310031	-0.0023942017
447811615278247	-0.24016836	1.491887	0.023942016
447811620284913	-0.9701006	1.9096751	-0.1455974
447811625291596	-1.5907974	2.50224	-0.2688988
447811630298257	-2.0271406	3.148076	-0.4245219
447811635304934	-2.2468088	3.826832	-0.6537667
447811640311615	-2.3153427	4.381838	-1.1011832
447811645318349	-2.2291515	4.8020205	-1.6320974
447811650325053	-2.1453543	4.908562	-2.0869956
447811655331783	-2.111237	4.7278004	-2.4736593
447811660338491	-2.1229088	4.293851	-2.7733834
447811665345238	-2.0887914	3.75755	-2.976292
447811670351948	-2.024148	3.2218473	-3.297115
447811675358691	-1.8739117	2.6945243	-3.5509005
447811680365399	-1.7025766	2.1350293	-3.5586815
447811685372123	-1.6391304	1.4598645	-3.6023757
447811690378834	-1.5864578	0.79367787	-3.5856164
447811695385575	-1.4338275	0.2100912	-3.4653077
447811700392285	-1.0818799	-0.07227496	-3.1937153
447811705399025	-0.84126264	-0.1925836	-3.0817864
447811710405731	-0.67426705	0.06239888	-3.0368953
447811715412459	-0.58388597	0.70763624	-3.2110734
447811720419177	-0.5541081	1.7332524	-2.973449
447811725425923	-0.6049848	2.643049	-2.7914896
447811730432637	-0.5846341	3.3445501	-2.3437738
447811735439404	-0.43320087	3.6306572	-1.918803
447811740446129	-0.1731307	3.5443163	-1.3335704
447811745452884	0.43080667	3.053505	-0.7787141
447811750459601	1.0550947	2.4334068	-0.32202014
447811755466354	1.5878047	1.8581998	-0.23762453
447811760473074	1.9319712	1.347337	-0.5493196
447811765479835	2.2683566	1.043872	-1.0622773
447811770486562	2.5556607	0.79726917	-1.6111481
447811775493313	2.8046577	0.599149	-1.811064
447811780500030	2.7443538	0.46028528	-1.4369699
447811785506774	2.7988217	0.7398083	-0.50502694
447811790513494	2.7814639	1.3928268	0.3000234
447811795520266	2.7449522	2.2104468	0.17911622
447811800526997	2.654571	2.8393736	-0.39579147
447811805533752	2.6994624	3.242198	-0.538845
447811810540475	2.5354595	3.1817443	-0.39279872
447811815547230	2.1751323	2.7316346	-0.039055414
447811820553953	1.6983868	1.9578584	0.3576339
447811825560696	1.3183073	1.1336545	0.9837176
447811830567417	1.0507553	0.30107087	1.783381
447811835574169	0.9220669	-0.5303157	2.508824
447811840580884	0.8747814	-1.3506291	2.9982886
447811845587641	0.79637134	-1.9264345	3.5818753
447811850594368	0.71436995	-2.209549	4.109198
447811855601132	0.69342065	-2.0940287	4.610185
447811860607865	0.73277533	-1.7565958	4.8672624
447811865614642	0.6705261	-1.1089643	5.3077955
447811870621376	0.47899	-0.4074632	5.6759043
447811875628136	0.10070611	0.2275988	5.765088
447811880634863	-0.37678748	0.56293666	5.2257943
447811885641609	-0.71077865	0.86281043	4.742764
447811890648329	-0.9717466	1.0603321	4.2758946
447811895655043	-0.9992799	1.2572552	3.9365165
447811900661751	-0.8984242	1.2484266	3.3426049
447811905668500	-0.5686229	1.2765584	3.0660746
447811910675213	-0.10414778	1.2723686	2.8493993
447811915681969	0.41838676	1.2286744	2.6901848
447811920688713	0.95109665	1.0649709	2.2756886
447811925695467	1.5304934	1.066168	2.0410569
447811930702198	2.0428526	1.0937012	1.7878702
447811935708962	2.4277205	1.1649288	1.4772224
447811940715687	2.617461	1.1900679	0.95962596
447811945722441	2.6844985	1.197849	0.657358
447811950729170	2.509722	1.1212345	0.46821606
447811955735927	2.1948843	1.0063128	0.39998132
447811960742643	1.8070238	0.7932289	0.2311901
447811965749393	1.5113398	0.6100725	0.28446108
447811970756113	1.2024878	0.42631754	0.3131915
447811975762862	0.9720459	0.24016836	0.3640683
447811980769590	0.8041525	0.041599255	0.33039984
447811985776325	0.6407482	-0.11282676	0.5009867
447811990783029	0.48692077	-0.31812954	0.6871359
447811995789767	0.31812954	-0.501286	0.82899237
447812000796479	0.14215572	-0.73816234	0.84934306
447812005803227	-0.044592008	-0.8854057	1.0049661
447812010809942	-0.163105	-0.9165303	1.13964
447812015816673	-0.1707365	-0.8511387	1.1956044
447812020823384	-0.28685528	-0.7697359	1.2716204
447812025830113	-0.42152914	-0.6398504	1.3135189
447812030836815	-0.5585972	-0.48482585	1.4134768
447812035843537	-0.58388597	-0.33204585	1.1510124
447812040850244	-0.66588736	-0.21413141	1.1318588
447812045856968	-0.7496844	-0.11716624	0.99778354
447812050863681	-0.82031333	-0.023792379	0.93972415
447812055870409	-0.87538	-0.027982233	0.7565677
447812060877110	-0.9124901	-0.09561843	0.7104794
447812065883838	-0.9837176	-0.17522563	0.7026982
447812070890556	-1.0250176	-0.21532851	0.7679402
447812075897307	-0.99868137	-0.25647885	0.6914754
447812080904048	-1.0196307	-0.27623102	0.67531455
447812085910835	-1.0585364	-0.33010057	0.5472247
447812090917588	-1.1662755	-0.38456866	0.43828854
447812095924342	-1.272219	-0.41524437	0.17956513
447812100931063	-1.2985551	-0.37873277	0.130484
447812105937795	-1.3691841	-0.30630818	-0.008978256
447812110944519	-1.3811551	-0.18779519	-0.11671733
447812115951275	-1.3916297	-0.13153146	-0.39279872
447812120957999	-1.4454993	-0.10938509	-0.50951606
447812125964724	-1.4915876	-0.12674305	-0.59870005
447812130971420	-1.5095441	-0.19138649	-0.7226
447812135978130	-1.728464	-0.53226095	-1.2683283
447812140985004	-1.5782279	-0.34671032	-0.7553706
447812145991802	-1.2747627	-0.3107973	-0.56203884
447812150998534	-1.27177	-0.49634793	-0.8355764
447812156005254	-1.3548189	-0.6973112	-1.0407295
447812161012030	-1.3099276	-0.8218097	-1.0940006
447812166018782	-1.148319	-0.86131406	-1.1418846
447812171025562	-0.9753379	-0.86370826	-1.02816
447812176032341	-0.8833108	-0.847697	-1.1115081
447812181039136	-0.66483986	-0.74773914	-1.0648212
447812186045943	-0.5008371	-0.76689273	-1.2186487
447812191052735	-0.5367501	-0.7034464	-1.5209166
447812196059487	-0.17208324	-0.27847558	-0.51714754
447812201066202	-0.009876082	-0.1599626	-0.504578
447812206072919	-0.07751228	-0.13542204	-0.6901286
447812211079707	-0.12240356	-0.06419453	-0.6967127
447812216086454	-0.39279872	-0.2757821	-1.5502456
447812221093201	-0.2575263	0.26351184	-0.40043023
447812226099939	-0.28505963	0.42272624	0.23702596
447812231106649	-0.4861726	0.47061026	0.24720132
447812236113380	-0.68219787	0.54767364	0.16490065
447812241120114	-0.755221	0.62129533	0.25408465
447812246126835	-0.8797195	0.33518824	-0.54019177
447812251133703	-0.8491934	0.80205756	0.75148004
447812256140504	-0.87313545	0.80086046	1.2539631
447812261147243	-0.9934441	0.6500258	1.0235212
447812266153976	-0.9724948	0.6332663	0.84934306
447812271160718	-0.9048586	0.6171055	0.7248446
447812276167444	-0.95364046	0.59017074	0.6385037
447812281174172	-0.99254626	0.57520694	0.6175544
447812286180908	-1.0954969	0.55844754	0.49245736
447812291187635	-1.1834838	0.55365914	0.23089083
447812296194347	-1.3015479	0.5303157	-0.010175358
447812301201067	-1.3895348	0.49799395	-0.23223756
447812306207786	-1.4936826	0.45250413	-0.42916065
447812311214506	-1.659481	0.44113165	-0.5243302
447812316221218	-1.8487726	0.44741645	-0.4774936
447812321227947	-2.0456958	0.43843818	-0.4619313
447812326234672	-2.2899044	0.38935706	-0.4397849
447812331241377	-2.5131636	0.38456866	-0.5565023
447812336248105	-2.8269536	0.5282208	-0.43275195
447812341254857	-3.1794999	0.358831	-1.1611878
447812346261610	-3.5883098	0.9573814	-0.0676362
447812351268456	-3.7020345	1.385345	0.44472298
447812356275566	-3.8115692	1.6068087	-0.062249243
447812366289388	-3.6480153	2.303222	-0.30211833
447812386316580	-2.2634184	2.594716	-0.010773907
447812396330076	-2.1880012	2.0841527	0.29029694
447812411350290	-2.3021746	1.264737	0.27997196
447812416356986	-2.171092	1.1294646	0.113574944
447812426370367	-1.8201919	1.0468647	0.31139585
447812436383738	-1.6454151	1.1468226	0.93328977
447812441390417	-1.400608	1.3006501	1.4339771
447812446397094	-1.2551602	1.395221	1.7919103
447812456410456	-0.39264908	1.5466543	2.1761796
447812466423808	0.7284359	1.6596307	2.1932385
447812476437190	1.6621746	1.6692075	2.1435587
447812486450579	2.6978164	1.5815198	2.0172646
447812496463959	3.4849102	1.309778	1.3678373
447812501470642	3.9085343	1.2650363	0.98341835
447812506477353	4.27365	1.2237363	0.41838676
447812511484073	4.5681367	1.1471219	-0.19991584
447812516490775	4.781221	1.0627263	-0.8283938
447812526504239	5.0798974	1.0384849	-1.2645874
447812531510976	5.0637364	0.99419224	-1.5710453
447812536517722	4.9428296	0.973243	-2.072032
447812541524447	4.788852	1.0576386	-2.0364182
447812546531157	4.4530654	1.0606314	-2.0669444
447812551537867	3.9119759	0.99898064	-1.808969
447812556544568	3.3331776	1.0528502	-1.4803648
447812561551250	2.693028	1.1252748	-0.9280524
447812566557933	1.8825908	1.0570401	-0.8173206
447812571564616	1.0206782	0.9020155	-0.7544728
447812576571298	0.26830024	0.95588505	-0.55934536
447812581577969	-0.2995745	1.0779893	-0.27563247
447812586584646	-1.0740987	1.074398	-0.22056583
447812591591323	-1.6247652	1.0899603	-0.066738375
447812596598002	-1.9551649	1.1133038	0.0338181
447812601604684	-1.9749172	1.2289736	0.20231004
447812606611376	-2.0281882	1.2259809	0.22445641
447812611618067	-1.9797056	1.1768998	0.24899697
447812616624755	-1.972523	1.0512042	0.077213004
447812621631469	-1.8157027	0.952593	0.06778584
447812626638202	-1.7636288	0.77362645	0.009726444
447812631644933	-1.5894506	0.5407903	-0.09142858
447812636651693	-1.4631565	0.25049335	-0.16924013
447812641658440	-1.2520179	0.010175358	-0.027832596
447812646665176	-0.9898528	-0.3453636	-0.081103586
447812651671921	-0.7103297	-0.74639237	-0.14574704
447812656678679	-0.36197338	-1.0600328	-0.16130935
447812661685421	-0.08454525	-1.2940661	0.008379706
447812666692172	0.1261445	-1.5777789	-5.985504E-4
447812671698922	0.3410241	-1.869273	-0.11731588
447812676705666	0.52298343	-2.066196	-0.21906945
447812681712400	0.6851906	-2.1279964	-0.12270284
447812686719152	0.85218614	-2.2411225	-0.2088941
447812691725893	1.0024223	-2.218976	-0.35194764
447812696732643	1.0850223	-2.1686978	-0.40222588
447812701739402	1.0877157	-2.0866964	-0.28206688
447812706746165	1.012897	-2.0453963	-0.33773208
447812711752932	1.0577883	-1.9143139	-0.42033204
447812716759691	1.1158476	-1.7568952	-0.47599724
447812721766446	1.2069769	-1.5619173	-0.44202948
447812726773215	1.1477205	-1.463755	-0.317531
447812731779987	1.0681132	-1.4553753	-0.30376434
447812736786744	1.084274	-1.3769653	-0.32950202
447812741793497	1.1432313	-1.1763012	-0.22445641
447812746800240	1.0857705	-1.1906664	-0.49440265
447812751806977	1.0169371	-1.2559084	-0.4961983
447812756813729	0.89902276	-1.4558243	-0.46567222
447812761820467	0.7745243	-1.8601451	-0.68982935
447812766827205	0.6835446	-2.2713492	-0.72873515
447812771834047	0.6847417	-2.7184663	-0.7269395
447812776840842	0.6979098	-3.1560068	-0.4707599
447812781847605	0.7977181	-3.6801872	-0.5602432
447812786854369	0.8605659	-4.098574	-0.46507367
447812791861123	0.9000702	-4.379893	-0.20590134
447812796867877	0.9072528	-4.512172	0.07182605
447812801874618	0.9588778	-4.46773	0.13676877
447812806881375	0.98581254	-4.181623	0.15771803
447812811888119	1.0372878	-3.7416883	0.12360066
447812816894867	0.98341835	-3.2712276	0.0966659
447812821901604	0.835726	-2.838775	-0.026036944
447812826908359	0.59989715	-2.3240216	0.04818331
447812831915102	0.34491467	-1.7129017	0.13437457
447812836921849	0.13482349	-1.0090064	0.27024552
447812841928589	-0.07212532	-0.31468788	0.21278468
447812846935328	-0.20859483	0.49934068	0.4528034
447812851942059	-0.23193829	1.3630489	0.71436995
447812856948764	-0.22475569	2.1022587	0.7472902
447812861955506	-0.19363107	2.6428995	0.38037878
447812866962245	-0.07811083	3.15885	0.1810615
447812871968972	-0.06075287	3.482067	0.0338181
447812876975714	-0.12479776	3.6813843	-0.09127894
447812881982442	-0.3465607	3.6113539	-0.40417117
447812886989182	-0.6362591	3.467702	-0.6771102
447812891995910	-0.92655605	3.226486	-0.99613756
447812897002640	-1.1061212	2.9619267	-1.2205939
447812902009367	-1.2306197	2.66744	-1.3955203
447812907016104	-1.2970588	2.3418286	-1.5469536
447812912022846	-1.3395559	1.9192519	-1.7971476
447812917029587	-1.3275849	1.4314333	-2.0132244
447812922036318	-1.2617443	0.981922	-2.0441992
447812927043071	-1.228824	0.49111062	-2.1154268
447812932049832	-1.2228385	0.08948329	-2.1405659
447812937056585	-1.2138603	-0.24570495	-2.1435587
447812942063332	-1.1171944	-0.44711718	-1.9565117
447812947070079	-1.1525089	-0.6739678	-2.0097828
447812952076817	-1.1884218	-0.86490536	-2.0379145
447812957083559	-1.2464813	-1.0552444	-2.1336827
447812962090318	-1.2083237	-1.1665748	-2.0688896
447812967097068	-1.2526164	-1.353921	-2.3136966
447812972103826	-1.2149078	-1.477821	-2.5351603
447812977110584	-1.1760019	-1.5071499	-2.7243023
447812982117345	-1.0257658	-1.3548189	-2.6461914
447812987124091	-0.95513684	-1.1309611	-2.7712884
447812992130849	-0.77138186	-0.75746554	-2.8311436
447812997137604	-0.552911	-0.11881226	-2.7353754
447813002144341	-0.4885668	0.70883334	-2.3400328
447813007151079	-0.5017349	1.4839561	-2.2233155
447813012157821	-0.49036244	2.2662616	-2.048539
447813017164563	-0.4209306	3.053954	-1.860594
447813022171309	-0.4535516	3.7713165	-1.4356232
447813027178059	-0.4074632	4.262128	-1.1662755
447813032184815	-0.3434183	4.500351	-1.0166379
447813037191562	-0.27398646	4.4387	-1.1327567
447813042198311	-0.16564883	4.2957964	-1.0788871
447813047205055	0.15218145	4.2700586	-0.60782796
447813052211791	0.54902035	4.422689	0.13377602
447813057218500	0.88839847	4.685453	0.3899556
447813062225193	1.1495161	4.9477673	0.38501757
447813067231885	1.5840636	5.229685	0.4652233
447813072238566	2.1658547	5.383512	0.18629882
447813077245233	2.672827	5.2302833	-0.40207624
447813082251904	2.8275523	4.712986	-1.0284593
447813087258585	2.8263552	3.98874	-1.1966519
447813092265260	2.621651	3.0232782	-0.954239
447813097271950	2.2290018	1.9369092	-0.7082348
447813102278640	1.7615339	0.79846627	-0.46537295
447813107285330	1.4688427	-0.20231004	0.41210195
447813112292022	1.371279	-1.0354922	1.8354548
447813117298712	1.4903905	-1.7142484	2.9212253
447813122305409	1.8038813	-2.3144448	3.295918
447813127312102	1.9732711	-2.8698997	3.3713353
447813132318802	1.9936218	-3.3858502	3.52217
447813137325505	1.9205986	-3.6372414	3.7520134
447813142332203	1.7642274	-3.5628715	4.0343795
447813147338908	1.646313	-2.9840732	4.4779053
447813152345609	1.3422493	-2.0168157	4.993257
447813157353429	0.881964	-0.9220669	5.358373
447813162360689	0.1551742	0.07167641	5.3788733
447813167367657	-0.5199907	0.9838673	5.420772
447813172374473	-1.0371382	1.709909	5.172972
447813177381211	-1.2490251	2.2521956	4.6588173
447813182387913	-1.2786534	2.523339	3.858705
447813187394598	-1.0134956	2.7741315	3.384653
447813192401267	-0.6190508	2.7729344	3.0494647
447813197407919	-0.14080898	2.5706244	2.7130795
447813202414581	0.3405752	2.0863972	2.1821651
447813207421242	0.9259575	1.6141409	2.0020015
447813212427906	1.543063	1.1933599	1.8739117
447813217434569	2.1045034	0.89109194	1.6554408
447813222441229	2.5329158	0.55844754	1.2135609
447813227447896	2.839972	0.47345337	1.0411785
447813232454561	3.0207343	0.48362875	0.9190742
447813237461231	2.9806316	0.51235914	0.79637134
447813242467896	2.6846483	0.42886138	0.5153519
447813247474568	2.360234	0.31214404	0.3357868
447813252481235	2.0226514	0.22714989	0.24480712
447813257487906	1.6832734	0.117615156	0.2753332
447813262494575	1.2711715	-0.17896658	0.09935937
447813267501253	0.9653122	-0.3693056	0.12509704
447813272507919	0.84739774	-0.36511576	0.3465607
447813277515007	0.79292965	-0.35673606	0.670975
447813282521906	0.65795654	-0.48632222	0.7444471
447813287528698	0.604087	-0.5300164	0.94196874
447813292535486	0.5837363	-0.5288193	1.1939584
447813297542338	0.50951606	-0.61381346	1.2855366
447813307555881	0.44547117	-0.7074866	1.2749124
447813317569280	0.35389295	-0.59974754	1.2725182
447813327582649	0.03561375	-0.42826283	1.0374376
447813337596022	-0.37738603	-0.18644845	0.94406366
447813347609383	-0.83737206	0.014215573	0.60214174
447813357622754	-1.2372037	0.12195465	0.6171055
447813367636126	-1.4902409	0.04309563	0.51086277
447813372642807	-1.5309423	-0.03232172	0.43125558
447813377649492	-1.5949873	-0.15143326	0.28161797
447813387662851	-1.5704467	-0.25782558	0.087538
447813397676207	-1.5303438	-0.2638111	-0.0525228
447813402682900	-1.5243583	-0.3036147	-0.26964697
447813412696279	-1.5081974	-0.27069443	-0.55216277
447813422709651	-1.5508442	-0.2853589	-0.8559271
447813427716380	-1.5490485	-0.29912558	-0.9840169
447813432723118	-1.54845	-0.32366616	-1.1025299
447813437729855	-1.6065093	-0.40327334	-1.1498153
447813447743309	-1.6163855	-0.58194065	-1.2406454
447813452750007	-1.6493057	-0.70165074	-1.2514193
447813457756768	-1.8091186	-1.1984476	-2.2234652
447813462763479	-1.652448	-0.856376	-1.1303625
447813467770168	-1.3711294	-0.8144775	-0.66947865
447813472776843	-1.4004583	-0.96471363	-0.83886844
447813477783515	-1.4309844	-1.1059716	-1.017835
447813482790168	-1.3997102	-1.1197382	-1.2385504
447813487796829	-1.3075334	-1.0874165	-1.1212345
447813492803494	-1.3045406	-1.2855366	-1.653346
447813497810161	-1.2195464	-0.89228904	-1.0236709
447813502816887	-1.0187328	-0.5924153	-0.15786767
447813507823645	-0.95349085	-0.4559458	-0.2021604
447813512830410	-0.8882488	-0.3290531	-0.3506009
447813517837171	-0.8170213	-0.33563715	-1.0628759
447813522843904	-0.6964134	0.07736264	-0.4727052
447813527850648	-0.5312135	0.29343936	0.46821606
447813532857383	-0.5431845	0.27488428	0.55799866
447813537864131	-0.43484688	0.12524667	1.496376E-4
447813542870884	-0.3422212	0.29388827	0.46941316
447813547877618	-0.2721908	0.3477578	1.0230724
447813552884336	-0.24585459	0.32321724	0.8752304
447813557891046	-0.17761984	0.33758244	0.59989715
447813562897763	-0.16220717	0.40566754	0.32486326
447813567904477	-0.021547815	0.511611	0.2614169
447813572911177	-0.037110128	0.5894225	0.28236616
447813577917869	0.034117375	0.68100077	0.13572131
447813582924546	-0.019452889	0.74519527	-0.013916298
447813587931220	-0.163105	0.50876784	-1.1481694
447813592937897	-0.13557167	0.9864111	0.43918636
447813597944574	-0.28042087	0.8295909	-0.004938041
447813602951248	-0.5008371	0.6465841	-0.51580083
447813607957944	-0.60678047	0.5657798	-0.68459207
447813612964653	-0.88630354	0.44307694	-0.76300216
447813617971356	-1.1119571	0.3676596	-0.82225865
447813622978080	-1.3769653	0.34371758	-0.80789346
447813627984795	-1.6493057	0.2964321	-0.678008
447813632991509	-1.9659389	0.3000234	-0.49126026
447813637998220	-2.2394764	0.34970307	-0.35658643
447813643004929	-2.6321254	0.42272624	-0.45983636
447813648011629	-3.1073744	0.51909286	-0.858471
447813653018331	-3.5371337	1.0164883	-0.6477812
447813658025062	-3.620931	1.7742531	0.45055884
447813663031796	-3.6945524	2.107496	0.10564415
447813668038541	-3.6508584	2.3774424	-0.21757308
447813673045286	-3.551499	2.6324248	-0.22475569
447813678052035	-3.3240497	2.7581203	-0.13497312
447813683058769	-3.1373022	2.7247512	0.087089084
447813688065500	-3.1157541	2.5541644	0.3079542
447813693072239	-3.1540616	2.3255181	0.43544543
447813698078983	-3.0714614	2.111237	0.42646718
447813703085712	-3.0383916	1.90354	0.35269585
447813708092450	-2.883367	1.7341502	0.24375966
447813713099174	-2.658312	1.5898995	0.2677017
447813718105920	-2.4045267	1.500117	0.31139585
447813723112651	-2.1028574	1.5065514	0.3151368
447813728119409	-1.8406922	1.5951369	0.34207156
447813733126168	-1.6258126	1.7399861	0.42227733
447813738132922	-1.4384663	1.8914193	0.6287772
447813743139672	-1.1860276	2.047641	0.8499416
447813748146421	-0.9274539	2.1266496	0.96067345
447813753153152	-0.58388597	2.1332338	1.0636241
447813758159887	-0.19662382	2.0895395	1.1821371
447813763166618	0.28191724	2.0702362	1.4258968
447813768173353	0.61530983	1.9708769	1.6389807
447813773180075	0.94092125	1.840393	1.8562545
447813778186811	1.2940661	1.7140988	1.9406501
447813783193535	1.7842789	1.657835	2.0949266
447813788200273	2.2427685	1.5704467	2.0518308
447813793207011	2.6569653	1.4459482	1.9776106
447813798213756	3.0322564	1.2849381	1.9117701
447813803220482	3.526659	1.1203368	1.9158102
447813808227214	3.982156	0.9473557	1.5866076
447813813233955	4.3424835	0.84500355	1.052102
447813818240698	4.584896	0.74624276	0.36137483
447813823247418	4.747702	0.7468413	0.006135142
447813828254157	4.857237	0.74504566	-0.6702268
447813833260878	4.969764	0.77138186	-1.2999018
447813838267605	5.1319714	0.8749311	-1.8092684
447813843274322	5.226991	1.0651205	-1.8049288
447813848281057	5.0959086	1.2009914	-2.0623055
447813853287776	4.8475103	1.2967595	-2.2550387
447813858294502	4.4476786	1.3703812	-2.2442648
447813863301237	4.026748	1.4413095	-1.7880198
447813868307976	3.391686	1.4706384	-1.5390228
447813873314693	2.74166	1.5634137	-1.1757027
447813878321432	2.0551229	1.6041151	-0.9290999
447813883328158	1.4885949	1.7241246	-0.5303157
447813888334892	0.6871359	1.6499043	-0.5883751
447813893341613	-0.11133038	1.6217724	-0.5021838
447813898348352	-0.5781997	1.6828245	-0.38367084
447813903355080	-0.81028765	1.8034325	-0.07586627
447813908361808	-1.1430817	1.7824832	0.039653964
447813913368564	-1.4040496	1.6160861	0.11806407
447813918375310	-1.5506945	1.3772645	0.1731307
447813923382032	-1.5167267	1.246182	0.3648165
447813928388764	-1.5514427	0.9995792	0.27263972
447813933395500	-1.6190789	0.7410054	0.15352818
447813938402238	-1.6370354	0.49320555	-0.07451953
447813943408959	-1.4956279	0.32246906	0.08379706
447813948415690	-1.3537714	0.09382278	-0.11192893
447813953422417	-1.1760019	-0.13063364	-0.26994625
447813958429151	-1.0407295	-0.44307694	-0.362123
447813963436041	-0.86879593	-0.65990186	-0.17298107
447813968442856	-0.7718308	-0.9801263	-0.13467385
447813973449620	-0.78440034	-1.4260464	-0.20051439
447813978456368	-0.71915835	-1.8055273	-0.25378537
447813983463101	-0.47494975	-1.9870378	-0.08319851
447813988469834	-0.29658175	-2.2402246	-0.22026655
447813993476555	-0.19542672	-2.5011926	-0.29328972
447813998483285	-0.09427169	-2.6969185	-0.35793316
447814003490003	0.1316811	-2.6457424	-0.27593175
447814008496728	0.2172738	-2.6678889	-0.3369839
447814013503441	0.15382746	-2.7720366	-0.42796355
447814018510129	0.065242	-2.8450599	-0.47046062
447814023516836	0.05761048	-2.7370214	-0.3338415
447814028523554	0.04504092	-2.708291	-0.4026748
447814033530271	0.09950901	-2.6161144	-0.43020812
447814038536992	0.14140753	-2.534113	-0.6379051
447814043543704	0.1894412	-2.3374891	-0.4894646
447814048550423	0.23852235	-2.2453122	-0.38292262
447814053557151	0.3426701	-2.1603181	-0.6061819
447814058563885	0.44382513	-2.047192	-0.6085761
447814063570605	0.57116675	-1.9183542	-0.427365
447814068577336	0.74295074	-1.9405005	-0.39683893
447814073584058	0.7800608	-2.2002714	-0.57041854
447814078590781	0.8453028	-2.48159	-0.60333884
447814083597478	0.89692783	-2.8368297	-0.5693711
447814088604166	0.9531916	-3.2522237	-0.61186814
447814093610834	1.0968436	-3.6161423	-0.5292682
447814098617502	1.1890204	-4.0405145	-0.76689273
447814103624204	1.3628993	-4.3263226	-0.7718308
447814108630918	1.46585	-4.4382515	-0.57251346
447814113637616	1.5496471	-4.4184995	-0.36421794
447814118644319	1.661576	-4.2383356	-0.22116438
447814123651012	1.7085621	-3.991284	-0.2100912
447814128657718	1.718139	-3.5938463	-0.12689269
447814133664412	1.5804724	-3.1545103	-0.17357962
447814138671124	1.3841479	-2.7032034	-0.3597288
447814143677840	1.1843816	-2.2683566	-0.62698156
447814148684556	0.9545383	-1.7332524	-0.62099606
447814153691268	0.68219787	-1.1430817	-0.48093528
447814158697973	0.31768063	-0.52058923	-0.19482817
447814163704689	-0.21443069	0.08334815	-0.07392098
447814168711388	-0.7603087	0.7842507	0.17687166
447814173718102	-1.1427824	1.595885	0.42048168
447814178724814	-1.4241011	2.3991396	0.37618893
447814183731514	-1.5200188	3.0120554	-0.12719196
447814188738239	-1.4667478	3.5226188	-0.66828156
447814193744949	-1.3685856	3.8135145	-1.136348
447814198751667	-1.2416929	3.9009027	-1.4182652
447814203758388	-1.172261	3.8771105	-1.6783354
447814208765113	-1.1890204	3.6891656	-1.8614918
447814213771824	-1.2680291	3.5125933	-2.130241
447814218778546	-1.3596073	3.283947	-2.5127146
447814223785255	-1.3862427	2.9683611	-2.8447604
447814228791966	-1.46585	2.5182512	-3.1021373
447814233798670	-1.5598224	1.975366	-3.2840965
447814238805384	-1.6705543	1.3678373	-3.3373675
447814243812086	-1.6753427	0.798167	-3.17127
447814248818798	-1.714847	0.22894554	-3.1533132
447814253825516	-1.6406267	-0.24211365	-3.1018379
447814258832237	-1.42455	-0.49649757	-3.0653265
447814263838970	-1.0571897	-0.3446154	-2.7563248
447814268845701	-0.8985738	0.03546411	-2.6312277
447814273852415	-0.7261913	0.7495348	-2.8921957
447814278859136	-0.6645406	1.7910125	-3.1896753
447814283865840	-0.6361095	3.1646857	-3.1159039
447814288872562	-0.80669636	4.3737574	-2.9836242
447814293879274	-0.99763393	5.317073	-2.707094
447814298885993	-1.0694599	5.8713307	-2.267758
447814303892750	-0.8858546	6.064064	-1.5904981
447814308899496	-0.2825158	5.7570076	-1.0416274
447814313906243	0.5021838	5.0584993	-0.47180736
447814323919886	1.5553333	2.9976902	-0.35464114
447814328926679	1.846977	1.9915268	-0.50382984
447814333933445	2.0593128	1.1468226	-0.42751464
447814338940188	2.2067058	0.45250413	-0.43245268
447814343946913	2.3138463	-0.008978256	-0.43424833
447814399020880	1.657835	-0.24001873	2.3537996
447814409034363	0.6031892	-0.51669866	2.6761189
447814429061226	-1.1680712	1.2026374	5.26874
447814434067953	-1.7055694	1.5946879	5.912182
447814439074664	-2.0569186	1.7401357	6.1575875
447814444081384	-2.2707508	1.5165771	5.6075196
447814449088108	-2.2348375	1.3100772	5.1627965
447814459101529	-1.6213235	0.73247606	4.159626
447814469114930	-0.61845225	-0.0163105	3.0318074
447814474121683	-0.006135142	-0.23837271	2.6960208
447814479128424	0.5984008	-0.42033204	2.3051674
447814484135213	1.1369466	-0.5427356	1.7512089
447814489142001	1.6912042	-0.44457334	1.5058032
447814494148730	2.146701	-0.27997196	1.1777976
447814499155428	2.491466	-0.07287352	0.873734
447814504162135	2.6325743	0.050876785	0.41075522
447814509168845	2.7325323	0.22625206	0.2551321
447814514175537	2.6840498	0.35075054	0.21083939
447814519182222	2.4865282	0.44711718	0.229993
447814524188914	2.1089923	0.41389763	0.065092355
447814529195596	1.7791911	0.39175126	0.080056116
447814534202271	1.4882957	0.36541504	0.22071546
447814539208953	1.278803	0.32471362	0.29553428
447814544215629	1.0476129	0.21667525	0.24929625
447814549222307	0.76808983	0.051475335	0.40970775
447814554228979	0.45205522	-0.18435353	0.6569091
447814559235665	0.2665046	-0.30825347	0.9370307
447814564242345	0.17118542	-0.41868603	1.0019734
447814569249022	0.046088383	-0.5240309	1.1097125
447814574255708	-0.07062895	-0.62219316	1.204882
447814579262397	-0.074220255	-0.68743515	1.3078327
447814584269077	-0.053570263	-0.78320324	1.1231799
447814589275800	-0.0362123	-0.75985974	1.2057798
447814594282518	-0.044592008	-0.7933786	1.1650784
447814599289254	-0.085891984	-0.80235684	1.0735002
447814604295988	-0.13946225	-0.7806594	0.82270753
447814609302730	-0.14425065	-0.6807015	0.7897873
447814614309452	-0.22385786	-0.5717653	0.71436995
447814619316184	-0.3226187	-0.4568436	0.7125743
447814624322921	-0.42182842	-0.39249945	0.61486095
447814629329659	-0.55231243	-0.3254618	0.59870005
447814634336391	-0.672621	-0.28116906	0.46223056
447814639343179	-0.7636007	-0.1830068	0.39160162
447814644349924	-0.82629883	-0.122253925	0.16639702
447814649356663	-0.8831611	-0.10310031	0.008379706
447814654363388	-0.94900167	-0.12764087	-0.13227965
447814659370122	-0.9932944	-0.14978725	-0.23523031
447814664376844	-1.0663176	-0.19632454	-0.50742114
447814669383579	-1.136348	-0.25318682	-0.60797757
447814674390309	-1.249474	-0.32561144	-0.6935703
447814679397056	-1.4218565	-0.4357447	-0.885705
447814684403784	-1.4589666	-0.43394905	-0.8218097
447814689410517	-1.4086884	-0.4914099	-0.75956047
447814694417258	-1.5068507	-0.7086837	-0.88046765
447814699423994	-1.6415246	-0.9032126	-1.0271125
447814704430721	-1.7805378	-1.0931027	-1.1540052
447814709437461	-1.828422	-1.273865	-1.1659763
447814714444182	-1.8050784	-1.4252982	-1.1019313
447814719450916	-1.7990929	-1.465401	-0.96426475
447814724457634	-1.8112136	-1.5878047	-1.1740566
447814729464436	-1.8842367	-1.579425	-1.1543045
447814734471202	-1.4496891	-1.1263223	-0.19243397
447814739477964	-1.2114661	-0.92640644	-0.004489128
447814744485048	-1.2129624	-0.86640173	-0.37110126
447814749491968	-1.1040263	-0.67187285	-0.41120413
447814754498972	-0.7885902	-0.33309332	0.006584055
447814759505856	-0.50487727	-0.15292963	0.10115502
447814764512716	-0.41958386	-0.04938041	-0.09816227
447814769519511	-0.14844051	0.22774844	0.20410569
447814774526301	0.02873042	0.40611646	0.37948096
447814779533121	0.18854338	0.5162497	0.24899697
447814784539868	0.15263036	0.6525696	0.21054012
447814789546660	0.24899697	0.8548796	0.77976155
447814794553528	0.18195933	0.9530419	1.0137948
447814799560508	0.077213004	1.0164883	0.98207164
447814804567553	-0.16819267	1.1189901	0.78080904
447814809574420	-0.34835634	1.2542624	0.6569091
447814814581152	-0.5363012	1.3183073	0.5551555
447814819587845	-0.74519527	1.3649943	0.4540005
447814824594539	-1.0561422	1.3949218	0.32621
447814829601243	-1.2662334	1.3685856	0.15562311
447814834607903	-1.5708956	1.3087305	0.008978256
447814839614597	-1.8300679	1.202787	-0.16579847
447814844621277	-1.9734207	1.0525509	-0.40117842
447814849627934	-2.0895395	0.8963293	-0.58912325
447814854634555	-2.160767	0.74310035	-0.698658
447814859641413	-2.2631192	0.643741	-0.6286276
447814864648149	-2.195932	0.50727147	-0.62204355
447814869654842	-2.2515972	0.28042087	-0.7734768
447814874661487	-2.459294	0.022445641	-1.1409868
447814879668112	-2.735226	0.3211223	-0.51909286
447814884674716	-2.965518	0.5626374	0.074220255
447814889681352	-3.2181063	0.70509243	-0.39025488
447814894687966	-3.4892497	0.9139865	-0.51475334
447814899694591	-3.7196915	1.1797429	-0.3172317
447814904701225	-3.7672763	1.4718355	-0.14380173
447814909707883	-3.9121256	1.417966	-1.0338463
447814914714511	-3.4973302	2.3702598	0.3242647
447814919721153	-3.140594	2.5474305	0.16624738
447814924727764	-3.0178912	2.6099792	-0.19916765
447814929734427	-2.908955	2.6512792	-0.29254153
447814934741058	-2.6874914	2.619556	-0.048931498
447814939747732	-2.3894134	2.430414	0.24555531
447814944754388	-2.2803276	2.1342812	0.47465047
447814949761062	-2.1803696	1.8667291	0.46148238
447814954767707	-2.0504842	1.6051626	0.23463176
447814959774459	-1.8727146	1.3950714	0.076614454
447814964781152	-1.6623242	1.2819453	0.029777884
447814969787863	-1.5078982	1.2442367	0.11716624
447814974794527	-1.3564649	1.2400469	0.4433762
447814979801218	-1.2732664	1.2879308	0.8276456
447814984807872	-1.1760019	1.3808558	1.2250831
447814989814559	-1.0018238	1.520318	1.443554
447814994821219	-0.6654384	1.6591818	1.5357307
447814999827909	-0.24346039	1.8327614	1.4878467
447815004834585	0.34551322	2.0721815	1.6829741
447815009841295	0.8596681	2.2403743	1.8146553
447815014847994	1.398962	2.3277626	1.8661306
447815019854705	1.850269	2.3475149	1.9313726
447815024861383	2.3124995	2.2860136	2.08101
447815029868012	2.6692357	2.1639094	2.1414638
447815034874635	3.0319571	2.0382137	2.084003
447815039881229	3.4132338	1.8807951	1.8864813
447815044887848	3.7734115	1.7369933	1.7741034
447815049894453	4.029591	1.5035586	1.3042414
447815054901115	4.242675	1.2731167	0.79487497
447815059907745	4.4683285	1.0785879	0.23942018
447815064914383	4.660613	0.92730427	-0.14724341
447815069921003	4.7593737	0.73935944	-0.85173726
447815074927655	4.7372274	0.61067104	-1.4700398
447815079934420	4.6534305	0.5597943	-1.9153614
447815084941125	4.5377603	0.6431424	-1.9173067
447815089947907	4.2767925	0.73352355	-1.9604023
447815094954619	3.8452375	0.8286931	-1.8514661
447815099961296	3.3149219	0.9226655	-1.6270097
447815104967941	2.8532898	1.1028291	-1.0528502
447815109974570	2.2337902	1.154903	-0.90859956
447815114981216	1.5490485	1.1393408	-0.82121116
447815119987842	0.8631097	1.0836755	-0.7098808
447815124994472	0.43589434	1.1435306	-0.31483752
447815130001092	-0.18599954	1.1375451	-0.1933318
447815135007725	-0.7007529	1.142932	-0.110133275
447815140014348	-1.1604396	1.202787	0.10235212
447815145020980	-1.4056957	1.2491747	0.48557404
447815150027606	-1.6445173	1.1839328	0.5789479
447815155034264	-1.6678607	1.1180922	0.6609493
447815160040901	-1.695394	0.99179804	0.70404494
447815165047549	-1.5693992	0.8880992	0.6928221
447815170054182	-1.5089456	0.70494276	0.41449618
447815175060828	-1.5035586	0.48407766	0.19123685
447815180067478	-1.411382	0.26919806	0.019452889
447815185074129	-1.2131121	0.111779295	0.043394905
447815190080770	-1.058686	-0.16415246	-0.11522096
447815195087417	-0.9060557	-0.44966102	-0.26066872
447815200094053	-0.7163152	-0.7531261	-0.4031237
447815205100749	-0.45295304	-0.9859622	-0.5814917
447815210107637	-0.10684125	-1.0568904	-0.3446154
447815215114443	0.11282676	-1.266383	-0.4954501
447815220121209	0.20440497	-1.4782699	-0.5325602
447815225127973	0.32950202	-1.6003742	-0.56308633
447815230134699	0.4707599	-1.7212814	-0.6235399
447815235141406	0.5318121	-1.7919103	-0.66603696
447815245154783	0.54767364	-1.9050363	-0.34042555
447815255168152	0.49320555	-2.025345	-0.30092123
447815265181555	0.545878	-2.0198083	-0.20590134
447815270188262	0.62368953	-1.9222447	-0.2160767
447815280201676	0.6254852	-1.8471266	-0.3883096
447815290215043	0.7092823	-1.857302	-0.494253
447815295221730	0.6823475	-1.9746178	-0.6744167
447815305235103	0.7695862	-2.347066	-0.6019921
447815315248476	0.89109194	-3.025822	-0.5337573
447815320255156	1.0116999	-3.4419641	-0.59106857
447815335275212	1.5180736	-4.1291003	-0.24450785
447815340281895	1.6478093	-4.0999207	-0.26036942
447815345288590	1.7082629	-4.016722	-0.26755205
447815360308664	1.5125369	-3.8226423	-0.31379005
447815370322049	1.2306197	-3.5389295	-0.28146833
447815375328762	1.1180922	-3.309086	-0.15696985
447815380335466	0.97144735	-3.029563	-0.1806126
447815385342177	0.8834604	-2.6279356	-0.10220248
447815390348859	0.7793127	-2.1652563	0.0073322426
447815395355552	0.57041854	-1.6421231	0.14021043
447815400362230	0.32052374	-1.1504139	0.12075755
447815405368919	0.054767363	-0.57400984	0.36855742
447815410375584	-0.21757308	0.023942016	0.65167177
447815415382261	-0.3899556	0.7386112	0.7408558
447815420388930	-0.561141	1.4136264	0.5816414
447815425395617	-0.68982935	2.2204723	0.65765727
447815430402290	-0.79397714	3.1176996	0.6025906
447815435408977	-0.85323364	4.0508394	0.40327334
447815440415643	-0.89453363	4.808006	-0.15053543
447815445422328	-0.7838018	5.4209213	-0.83288294
447815450429006	-0.8562264	5.54123	-1.6660651
447815455435701	-1.1237785	5.2156186	-2.2789807
447815460442377	-1.2563573	4.8160863	-2.6259904
447815465449062	-1.2898762	4.3540053	-2.911499
447815470455739	-1.335366	3.8572085	-3.17127
447815475462450	-1.4137762	3.2395046	-3.535787
447815480469157	-1.4606127	2.5974095	-3.7520134
447815485475881	-1.5252562	1.9120693	-4.010587
447815490482594	-1.6431706	1.1884218	-4.0949826
447815495489327	-1.6258126	0.5138555	-4.1967363
447815500496046	-1.4411598	0.051475335	-4.086902
447815505502778	-1.3651439	-0.35075054	-4.028843
447815510509489	-1.2346599	-0.55126494	-4.0683475
447815515516225	-1.0766426	-0.56682724	-4.1341877
447815520522945	-0.7803601	-0.16534956	-3.8241386
447815525529684	-0.84620064	0.37813422	-3.5272577
447815530536398	-1.0000281	1.1676222	-3.1429882
447815535543153	-1.1777976	2.1265001	-2.9526494
447815540549879	-1.390283	3.172018	-2.6696846
447815545556640	-1.7039235	3.9369655	-2.4206874
447815550563397	-1.9373581	4.48823	-2.1303906
447815555570192	-1.925387	4.86412	-1.8478748
447815560576936	-1.570746	5.121048	-1.4662989
447815565583703	-0.8961796	5.1162596	-1.265186
447815570590450	-0.0013467384	4.949264	-0.9377789
447815575597230	0.95753103	4.672135	-0.56308633
447815580603958	1.6264112	4.2118497	-0.22475569
447815585610696	2.1273978	3.6988919	0.07152677
447815590617403	2.3698108	2.9937997	0.5330092
447815595624146	2.335095	2.197129	0.9184756
447815600630855	2.0223522	1.2862848	0.9651626
447815605637608	1.8362031	0.47105917	0.61740476
447815610644329	1.7655741	-0.3172317	0.14993688
447815615651086	1.75899	-0.9672575	-0.03321955
447815620657810	1.8285716	-1.4951789	-0.05581483
447815625664543	2.0201077	-1.6944963	0.012419921
447815630671252	2.0763714	-1.7615339	0.23986909
447815635677977	1.9740193	-1.8782512	0.8156746
447815640684683	1.7901146	-2.0822072	1.3982137
447815645691435	1.6015713	-2.346168	1.8255788
447815650698152	1.384896	-2.6197057	2.1547816
447815655704912	1.170615	-2.8064532	2.7234044
447815660711629	0.9304466	-2.7825112	3.350386
447815665718392	0.7185598	-2.3096564	4.0728364
447815670725111	0.54138887	-1.4214076	4.5492826
447815675731865	0.3378817	-0.21652561	4.7635636
447815680738574	0.010773907	0.95244336	4.585495
447815685745322	-0.3274071	1.9669863	4.3568487
447815690752034	-0.7787141	2.5912745	4.2221746
447815695758780	-1.2024878	2.7504888	4.1545386
447815700765489	-1.4625579	2.4607904	3.7987003
447815705772234	-1.2656349	2.1495442	3.6855743
447815710778943	-0.9226655	1.7748517	3.6071641
447815715785688	-0.47913963	1.3648446	3.5113962
447815720792388	-4.4891282E-4	0.7830536	3.0829835
447815725799111	0.5645827	0.34910452	2.9351416
447815730805810	1.1481694	-0.008828619	2.7100866
447815735812528	1.6671126	-0.2757821	2.3467665
447815740819228	2.124106	-0.3863643	1.6944963
447815745825972	2.522142	-0.28640637	1.3096284
447815750832680	2.73762	-0.12360066	0.8595184
447815755839412	2.753631	0.045789108	0.41958386
447815760846115	2.6584618	0.19901802	0.19273324
447815765852869	2.4393923	0.27263972	0.107140526
447815770859579	2.1071968	0.30735564	0.15263036
447815775866330	1.7390883	0.27084407	0.20949265
447815780873043	1.2969091	0.12449849	0.1448492
447815785879772	1.0353426	0.05686229	0.29568392
447815790886484	0.7899369	-0.038905777	0.4285621
447815795893229	0.61486095	-0.15367782	0.4652233
447815800899940	0.45205522	-0.26021978	0.6262334
447815805906649	0.1743278	-0.5020342	0.8099884
447815810913341	-0.060902506	-0.67082536	1.0559926
447815815920075	-0.16983868	-0.7815572	1.0862194
447815820926773	-0.30451253	-0.8713398	1.2951134
447815825933499	-0.4014777	-0.9084499	1.544709
447815830940198	-0.43679217	-0.91144264	1.6027684
447815835946944	-0.4249708	-0.89707744	1.4410101
447815840953676	-0.3776853	-0.8539818	1.4446014
447815845960433	-0.40761283	-0.79951376	1.3392565
447815850967146	-0.4165911	-0.7055413	1.2237363
447815855973898	-0.40057987	-0.59391165	0.9403227
447815860980629	-0.45085812	-0.46103346	0.88525605
447815865987385	-0.56518126	-0.41793784	0.8194155
447815870994094	-0.6202479	-0.32516253	0.86729956
447815876000844	-0.7445967	-0.35434186	0.75148004
447815881007551	-0.8487445	-0.3812766	0.7754221
447815886014293	-0.91697925	-0.37708676	0.80953944
447815891021075	-0.9864111	-0.35075054	0.78679454
447815896027855	-1.0327988	-0.33054948	0.49081135
447815901034817	-1.07769	-0.27847558	0.30825347
447815906041682	-1.1531074	-0.24735096	0.17178397
447815911048474	-1.208174	-0.21502924	0.073621705
447815916055261	-1.2765584	-0.20141222	-0.1364695
447815921061990	-1.302296	-0.17328034	-0.17657238
447815926068720	-1.3388077	-0.13198037	-0.23822308
447815931075569	-1.4627076	-0.20620061	-0.30645782
447815936082374	-1.491887	-0.30017304	-0.55335987
447815941089180	-1.5080478	-0.3199252	-0.6473323
447815946095970	-1.4912884	-0.3624223	-0.720954
447815951102689	-1.4661492	-0.4115034	-0.72514385
447815956109428	-1.4257472	-0.49769467	-0.9442133
447815961116194	-1.3569138	-0.55455697	-0.9460089
447815966122962	-1.4377182	-0.71676415	-0.90411043
447815971129695	-1.417966	-0.84964234	-0.8903438
447815976136445	-1.3946224	-0.91832596	-1.0118495
447815981143142	-1.3299791	-1.0260651	-1.1267712
447815986149871	-1.5035586	-1.1643302	-1.3955203
447815991156573	-1.0390835	-0.7411551	-0.44741645
447815996163282	-0.91503394	-0.64718264	-0.55350953
447816001169989	-0.9653122	-0.68848264	-0.8527847
447816006176679	-0.93957454	-0.6429928	-0.9874586
447816011183381	-0.68100077	-0.42990884	-0.65406597
447816016190065	-0.6215946	-0.33369187	-0.7285855
447816021196761	-0.5054758	-0.28700492	-0.8333318
447816026203458	-0.30615854	-0.087089084	-0.556203
447816031210173	-0.13856442	0.037409402	-0.40476972
447816036216867	-0.13377602	0.14335282	-0.42766428
447816041223564	-0.11043255	0.25049335	-0.5216367
447816046230259	-0.07631518	0.30376434	-0.72514385
447816051236959	-0.05955577	0.4683657	-0.33488896
447816056243644	-0.23942018	0.57520694	-0.027982233
447816061250320	-0.4165911	0.6266823	0.10190321
447816066257002	-0.6015432	0.6937199	0.09711481
447816071263697	-0.79128367	0.86251116	0.4317045
447816076270388	-1.1671734	0.9849147	0.6438906
447816081277096	-1.447295	1.0489596	0.4834791
447816086283803	-1.6825253	1.1303625	0.0052373162
447816091290510	-2.0069396	1.285387	-0.3036147
447816096297221	-2.2869115	1.4549265	-0.5288193
447816101303949	-2.321029	1.5285481	-0.74310035
447816106310685	-2.3988404	1.5728409	-0.8562264
447816111317433	-2.3707087	1.3603555	-1.6564883
447816116324185	-2.2343888	1.6982372	-0.8877999
447816121330912	-2.1493945	1.6126444	-0.34012628
447816126337671	-2.079364	1.3917794	-0.90635496
447816131344401	-2.1176715	1.2966099	-1.2678795
447816136351144	-2.2319946	1.2023382	-1.3235446
447816141357884	-2.3678656	1.1496657	-1.273865
447816221483532	-1.3474866	1.3391069	1.2123638
447816241509347	-0.26156655	1.1420342	2.5818472
447816286567630	3.9655461	1.4957775	0.9947908
447816311599741	5.243601	3.025822	-1.99437
447816316606215	5.3649573	3.308338	-2.086846
447816321612688	5.2099323	3.4513915	-2.2245126
447816326619173	4.866963	3.5489552	-2.141314
447816331625642	4.3378444	3.5525465	-1.8342577
447816341638610	3.0594904	3.3544261	-0.99643683
447816351651573	1.6756419	3.0102596	-1.0185832
447816356658067	1.1538556	2.9216743	-0.6889315
447816361664562	0.5080197	2.7588685	-0.5614403
447816371677561	-0.69805944	2.2596774	-0.039504327
447816381690585	-1.1933599	1.4628572	0.54976857
447816386697102	-1.4531308	0.9247604	0.71317285
447816391703619	-1.5548843	0.46447513	0.86400753
447816396710128	-1.4862007	0.13198037	1.067365
447816401716653	-1.5101427	-0.2379238	0.9338883
447816411729708	-1.3652935	-0.64014965	0.64957684
447816416736240	-1.1131542	-0.7098808	0.84021515
447816421742785	-1.0191817	-0.96067345	0.6534674
447816431755858	-0.6289269	-1.4407109	0.15487492
447816436762394	-0.3274071	-1.676839	0.3119944
447816441768937	-0.03232172	-1.9467852	0.1503858
447816446775479	0.3357868	-2.146701	-0.004638766
447816451782030	0.6745663	-2.2711997	-0.20036475
447816456788589	0.9530419	-2.2303486	-0.06778584
447816461795151	1.1415854	-2.336292	-0.26949733
447816466801724	1.1840824	-2.4512136	-0.4209306
447816471808291	1.1571476	-2.603844	-0.5969044
447816476814861	1.0812813	-2.6367643	-0.34671032
447816481821427	0.99389297	-2.7600656	-0.30900165
447816486827999	0.9304466	-2.9132946	-0.31738135
447816491834565	0.89094234	-2.959383	-0.18629882
447816496841128	0.88241297	-3.0310593	-0.072574235
447816501847700	0.92012167	-3.0466216	0.010025719
447816506854282	1.0212767	-2.9418752	0.24346039
447816511860870	1.2056302	-2.8987796	0.09980828
447816516867464	1.3400048	-2.7569232	0.0839467
447816521874023	1.5081974	-2.6743233	0.0827496
447816526880589	1.5518916	-2.7234044	0.054019175
447816531887161	1.5147815	-2.843713	-0.011222821
447816541900316	1.3154641	-3.3409588	-0.3405752
447816546906895	1.1843816	-3.6067152	-0.3669114
447816551913490	1.0784383	-3.8359601	-0.41838676
447816556920077	1.0791864	-3.9474401	-0.4444237
447816561926638	1.1180922	-4.016872	-0.4563947
447816571939817	1.3485341	-3.9827545	-0.37618893
447816576946421	1.4466964	-3.9275382	-0.28446108
447816581953026	1.4951789	-3.7904701	-0.23777416
447816586959636	1.5221137	-3.6198833	-0.25932196
447816591966246	1.5532384	-3.4133835	-0.2347814
447816596972846	1.5243583	-3.2112231	-0.26007015
447816601979454	1.5285481	-2.873042	-0.19422962
447816611992686	1.3836989	-1.9063832	0.001496376
447816616999305	1.1508628	-1.3455414	0.058358666
447816622005922	1.0233716	-0.50517654	0.17687166
447816627012538	0.8396166	0.39564183	0.101454295
447816632019155	0.5798457	1.240795	2.992752E-4
447816637025779	0.13946225	1.9967642	-0.16325463
447816642032396	-0.22864626	2.8514943	-0.25902268
447816652045631	-0.82899237	4.6393642	-1.0712556
447816657052254	-1.1438298	5.403414	-1.8574516
447816662058879	-1.4460979	6.016928	-2.4176948
447816667065509	-1.7322049	6.265925	-2.8217163
447816672072135	-1.9686323	6.1114993	-3.0695162
447816682085359	-2.21733	4.8986864	-3.4075475
447816687091968	-2.3591864	3.9541738	-3.5356374
447816692098583	-2.4495676	2.8935423	-3.663727
447816697105189	-2.4504654	1.7818847	-3.6565444
447816702111815	-2.3241713	0.6087258	-3.7056258
447816707118432	-2.0859482	-0.3878607	-3.7074213
447816712125057	-1.785476	-1.2360066	-3.702633
447816722138304	-0.947206	-1.8945618	-3.3114803
447816727144932	-0.72155255	-1.8017864	-3.0145993
447816732151569	-0.5868787	-1.3025954	-2.7901428
447816737158210	-0.38771105	-0.23897126	-2.3861213
447816742164856	-0.30930093	1.0018238	-2.2562358
447816747171497	-0.2721908	2.321029	-2.182614
447816757184772	0.0062847794	4.221726	-1.5423148
447816762191412	0.48392802	4.4605474	-1.016189
447816767198037	1.0304046	4.231901	-0.6827964
447816772204680	1.5499463	3.7997477	-0.70853406
447816777211332	1.8888755	3.295469	-0.85921913
447816782217982	2.3138463	3.0817864	-0.8029554
447816787224636	2.601749	2.9878142	-0.33189622
447816792231287	2.7412114	3.0177417	0.17447744
447816797237954	2.55596	2.9575872	0.40851066
447816802244614	2.3662195	3.027019	0.7730279
447816807251275	2.0932806	3.0461729	0.981922
447816812257931	1.8299183	2.983325	0.90171623
447816817264579	1.5487492	2.591873	0.35434186
447816822271234	1.4146739	2.0537763	0.11133038
447816827277875	1.3236942	1.3510779	0.14604631
447816832284517	1.3063363	0.61486095	0.40402153
447816842297829	1.0788871	-0.7333739	0.89303726
447816847304495	0.9573814	-1.3492823	1.6968905
447816852311165	0.8975264	-1.826327	2.5558102
447816857317831	0.8560767	-2.1775265	3.2998085
447816862324502	0.73516953	-2.355296	3.8588545
447816872337836	0.27488428	-1.8656816	4.654328
447816877344519	0.001496376	-1.2268788	4.6826096
447816882351192	-0.31693244	-0.31708208	4.78556
447816887357859	-0.74788874	0.5813421	4.8166847
447816892364527	-1.261445	1.3750199	4.7759833
447816897371203	-1.8053777	1.8100165	4.3357496
447816902377877	-2.0639515	2.1547816	4.1112933
447816912391217	-1.7670705	2.1888988	3.4989762
447816917397892	-1.4279916	1.7799393	2.8476036
447816922404568	-0.9461586	1.3741221	2.6069863
447816927411237	-0.3895067	0.88869774	2.4082677
447816932417915	0.23956981	0.37454292	2.245462
447816937424585	0.85173726	-0.13871406	1.7130513
447816942431263	1.4101849	-0.4619313	1.412579
447816947437920	1.9488802	-0.547524	1.0648212
447816957451453	2.7638066	-0.2451064	0.37574002
447816962458409	2.9529486	0.0020949265	0.27159226
447816967465404	2.9092543	0.16968904	0.10339958
447816972472419	2.6853964	0.26725277	0.10878654
447816977479453	2.2381296	0.14230536	0.034566287
447816982486496	1.8891748	0.060902506	0.15667057
447816987493539	1.517475	-0.0055365916	0.4122516
447816992500582	1.1768998	-0.11626842	0.6271312
447816997507622	0.84620064	-0.30421326	0.56533086
447817002514656	0.56308633	-0.41554365	0.6431424
447817007521687	0.34162265	-0.56996965	0.7293337
447817012528716	0.18719664	-0.6250363	0.86999303
447817017535739	0.039055414	-0.82510173	0.7848492
447817027549776	-0.13931261	-1.1231799	1.0937012
447817032556787	-0.08424597	-1.1213843	1.2355577
447817037563791	-0.051325697	-1.1782465	1.0986392
447817042570791	-0.050727148	-1.1818378	1.0327988
447817047577786	-0.02498948	-1.1435306	0.988506
447817052584775	-0.016011223	-1.1153988	0.87119013
447817057591761	-0.14784196	-1.1361984	0.6133646
447817062598743	-0.27593175	-1.0841244	0.588824
447817067605721	-0.35314476	-0.9638158	0.6211457
447817072612696	-0.4297592	-0.8381202	0.6462848
447817082626638	-0.64912796	-0.5391443	0.35583824
447817087633604	-0.70958155	-0.35239655	0.358831
447817092640564	-0.82031333	-0.24226329	0.23852235
447817097647520	-0.96231943	-0.17672202	0.024241293
447817102654475	-0.97429043	0.004638766	0.13976152
447817112668378	-1.0676643	0.1285387	0.009876082
447817122682261	-1.3144168	0.069731124	-0.3835212
447817127689202	-1.4460979	0.03321955	-0.4433762
447817132696137	-1.5502456	-0.028431145	-0.4571429
447817137703070	-1.671901	-0.13796587	-0.614412
447817142710001	-1.8125603	-0.28281507	-0.63057286
447817147716930	-1.934066	-0.44382513	-0.6844424
447817152723853	-1.9418472	-0.5964555	-0.77961195
447817157730776	-1.953519	-0.75013334	-1.0486604
447817162737693	-1.9792566	-0.92131877	-1.1390414
447817172751526	-1.901445	-1.1469723	-1.264737
447817177758441	-1.8810943	-1.3648446	-1.8384476
447817182765355	-1.9247885	-1.2577041	-1.6870143
447817187772263	-1.5614684	-0.888997	-0.44382513
447817192779191	-1.4680946	-0.7806594	-0.3540426
447817197786101	-1.5101427	-0.7866449	-0.67651165
447817202793001	-1.4838065	-0.71003044	-0.9338883
447817207799896	-1.4993688	-0.80220723	-1.7646763
447817212806788	-1.264737	-0.25453356	-0.49515083
447817217813674	-1.228824	-0.059106853	-4.4891282E-4
447817222820559	-1.1677719	0.06838439	0.039055414
447817227827441	-1.073201	0.17372926	-0.016609775
447817232834317	-1.0073603	0.2228104	-0.5373486
447817237841192	-0.9160814	0.51714754	0.39504328
447817242848092	-0.8466496	0.57281274	0.97144735
447817247854971	-0.7706337	0.623091	0.96067345
447817252861842	-0.70838445	0.729633	0.8559271
447817262875571	-0.8432079	1.0314521	0.7793127
447817267882429	-0.9132383	1.1631331	0.6859388
447817272889284	-1.1239281	0.9338883	-0.7350199
447817277896136	-1.1279683	1.6677111	0.82929164
447817282902987	-1.2794015	1.7173908	0.36900634
447817287909834	-1.3697827	1.7975966	-0.62339026
447817292916679	-1.4505869	1.9843442	-0.9729437
447817297923519	-1.5352819	2.066196	-1.030255
447817302930358	-1.532289	2.0147207	-1.00751
447817307937197	-1.5143325	1.8435353	-1.0200796
447817312944034	-1.5610195	1.6053122	-1.0518028
447817317950869	-1.6560394	1.3901334	-1.1757027
447817322957704	-1.7925088	1.2243348	-1.2104186
447817332971371	-2.3312042	1.0118495	-0.8435072
447817337978200	-2.542642	1.178845	-0.504578
447817342985028	-2.7222073	1.3542204	-0.4357447
447817347991852	-2.8802247	1.5852607	-0.41060558
447817352998676	-2.96881	1.8180969	-0.35075054
447817358005498	-2.7030537	2.1652563	-0.31139585
447817363012321	-2.6833014	2.2340894	-0.41793784
447817368019139	-2.64679	2.170643	-0.38501757
447817373025955	-2.5025394	2.0515316	-0.18510172
447817378032771	-2.4307132	1.8571523	0.0
447817383039584	-2.4145525	1.6105496	0.051475335
447817388046395	-2.4271219	1.3412019	0.037708677
447817393053202	-2.4319103	1.0999861	0.16819267
447817398060006	-2.3039703	0.9849147	0.3597288
447817403066813	-2.166902	0.935235	0.42916065
447817408073619	-1.8484733	0.9567829	0.66259533
447817413080420	-1.4630069	1.0316017	1.2018893
447817418087222	-0.9943419	1.1254244	1.7923592
447817423094021	-0.58553195	1.227178	2.121562
447817433107614	0.48048636	1.4187142	2.554314
447817438114406	1.1498153	1.4662989	2.783409
447817443121195	1.7842789	1.4992192	2.778022
447817448127983	2.3630772	1.3944728	2.6720788
447817453134766	2.9059622	1.277157	2.3745992
447817458141550	3.488651	1.283292	2.084452
447817463148333	3.8878844	1.3455414	1.5188217
447817468155115	4.1674075	1.472434	0.8502409
447817473161893	4.384681	1.7082629	0.12838906
447817478168669	4.6244006	1.9765631	-0.23747487
447817483175444	4.799776	2.2465093	-0.80549926
447817488182218	4.969166	2.5338135	-1.3675381
447817493188990	5.0397944	2.8211179	-1.858948
447817498195762	5.1351137	3.12982	-1.8707694
447817503202532	4.9663224	3.3452983	-2.004246
447817508209304	4.6269445	3.4632127	-2.0305824
447817513216076	4.089446	3.551798	-1.8390462
447817518222845	3.6243725	3.6917093	-1.2862848
447817523229617	2.918083	3.5516486	-1.1498153
447817533243155	1.7209821	3.4050038	-1.2372037
447817538249923	1.2089223	3.3081882	-0.82944125
447817543256690	0.5612907	3.0597897	-0.5576994
447817548263456	-0.0947206	2.7922378	-0.3326444
447817553270222	-0.6501754	2.429516	-0.16684593
447817558276985	-0.9358336	2.1106384	0.25647885
447817563283747	-1.2632407	1.6228198	0.5186439
447817568290509	-1.4589666	1.2229881	0.703596
447817573297269	-1.5433623	0.8536825	0.9388263
447817578304027	-1.443554	0.5710171	1.1703157
447817583310784	-1.4956279	0.2184709	1.0134956
447817588317539	-1.5058032	-0.077213004	0.7932289
447817593324297	-1.5052047	-0.30705637	0.7471406
447817598331056	-1.1866262	-0.3995324	0.9290999
447817603337814	-0.99149877	-0.61261636	0.7082348
447817608344569	-0.7909844	-0.8903438	0.39100307
447817613351322	-0.5814917	-1.2075754	0.034267012
447817618358074	-0.17717093	-1.2985551	0.16864158
447817623364852	0.11671733	-1.5840636	0.035763387
447817628371617	0.36990416	-1.8462288	-0.087538
447817633378373	0.65301853	-2.073678	-0.34371758
447817638385123	0.9789292	-2.0684407	-0.27832595
447817643391869	1.272219	-2.0708349	-0.40102878
447817648398615	1.3440449	-2.1737854	-0.4830302
447817653405357	1.3165116	-2.2653637	-0.43873745
447817658412103	1.3160627	-2.2836194	-0.23493104
447817663418850	1.2179005	-2.445228	-0.17088614
447817673432340	1.0491092	-2.7642555	-0.07691373
447817678439083	1.0202292	-2.8558338	0.050727148
447817683445824	1.035193	-2.7923875	0.07586627
447817688452566	1.2039841	-2.752883	0.08065467
447817693459308	1.3350667	-2.6445453	-0.07915829
447817698466049	1.4428058	-2.5378537	-0.012569559
447817703472790	1.4374188	-2.5809495	0.079008654
447817708479531	1.3596073	-2.722806	0.13587095
447817713486274	1.2506711	-3.0005333	-0.08678981
447817718493017	1.2487258	-3.1631894	-0.051624972
447817723499760	1.1924621	-3.3577182	-0.05701193
447817728506500	1.0811317	-3.6366427	-0.11387422
447817733513239	0.9907506	-3.942502	-0.20425533
447817738519979	0.9627684	-4.155287	-0.23971945
447817743526718	1.0543466	-4.2408795	-0.27024552
447817748533457	1.1626842	-4.2791867	-0.35464114
447817753540196	1.2171522	-4.3085155	-0.37678748
447817758546934	1.2339118	-4.31899	-0.32621
447817763553669	1.2321161	-4.238186	-0.27952304
447817773567143	1.2153566	-3.8138137	-0.13587095
447817778573882	1.197849	-3.5425208	-0.22625206
447817783580617	1.203236	-3.1367035	-0.20470424
447817788587355	1.20982	-2.6333225	-0.08200141
447817793594108	1.2307693	-1.9994577	0.076015905
447817798600849	1.1489176	-1.4115316	0.070180036
447817803607584	1.0292075	-0.7710826	0.23537995
447817808614319	0.8777742	-0.10250176	0.56158996
447817813621053	0.8089409	0.6666355	0.6076783
447817818627786	0.7517793	1.3437457	0.1539771
447817823634518	0.6931214	2.100912	0.033069912
447817828641249	0.55126494	2.8281507	-0.10040683
447817833647982	0.37828386	3.6254199	-0.21472996
447817838654714	0.16175826	4.4238863	-0.63042325
447817843661445	0.039653964	5.2959743	-0.9141361
447817848668175	-0.1297358	6.0651116	-1.3127707
447817853674904	-0.4643255	6.4427967	-1.8257284
447817858681629	-0.99748427	6.272509	-2.3888147
447817863688357	-1.3805566	5.784092	-2.7730842
447817868695086	-1.6139913	5.1047373	-3.1196449
447817873701816	-1.7965491	4.2350435	-3.3530796
447817878708542	-1.9629462	3.3101335	-3.370587
447817883715268	-2.085649	2.2518964	-3.4442089
447817888721995	-2.1790228	1.1679215	-3.506458
447817893728717	-2.2239141	0.13721769	-3.5046623
447817898735440	-1.9982606	-0.6392518	-3.354875
447817903742164	-1.7869723	-1.3006501	-3.490746
447817908748887	-1.5457565	-1.7681179	-3.6619315
447817913755609	-1.3542204	-2.099715	-3.843891
447817918762330	-1.0763433	-2.1405659	-3.5699043
447817923769049	-0.93328977	-2.1645079	-3.454384
447817933782485	-0.7166145	-1.6282068	-2.9647698
447817938789203	-0.5255273	-0.9000702	-2.6482863
447817943795921	-0.36272156	-0.08065467	-2.5579052
447817948802639	-0.24839842	0.8123826	-2.3831284
447817953809355	-0.18495208	1.6054618	-2.209549
447817958816071	-0.1882441	2.2408233	-1.9744682
447817963822786	-0.11881226	2.5891795	-1.8541596
447817968829500	0.0032920274	2.7142766	-1.652448
447817973836214	0.13138182	2.6933272	-1.2723686
447817978842930	0.24450785	2.6527755	-0.8158242
447817983849645	0.6072294	2.979584	-0.34356794
447817988856360	0.9316437	3.6212301	0.26156655
447817993863075	1.2608465	4.514866	0.9355343
447817998869787	1.5195699	5.371541	1.4067432
447818003876499	1.7392379	6.0868087	1.6401778
447818008883211	1.745822	6.319645	1.3941736
447818013889923	1.6344916	6.126313	0.5981015
447818018896647	1.3943232	5.4188266	-0.35314476
447818023903366	1.1674726	4.4300213	-0.5955577
447818028910084	0.85203654	3.228132	-0.47345337
447818033916798	0.59465986	1.9657892	-0.4225766
447818038923511	0.39010525	0.64583594	-0.11581951
447818043930223	0.2662053	-0.55365914	0.8598177
447818048936933	0.13572131	-1.5598224	1.9300258
447818053943643	0.0070329676	-2.3900118	2.928408
447818058950395	0.049230773	-3.0339024	3.595642
447818063956900	0.043245267	-3.495385	4.0463505
447818068963272	-0.08484452	-3.8090253	4.2624273
447818073969577	-0.29433718	-3.8958151	4.30672
447818078975861	-0.49694648	-3.6254199	4.237737
447818083982128	-0.556203	-2.879626	4.3239284
447818088988388	-0.6052841	-1.7842789	4.4939165
447818093994649	-0.69925654	-0.5566519	4.6112323
447818099000921	-0.9772832	0.4115034	4.476409
447818104007210	-1.1317092	1.2560581	4.375254
447818109013494	-1.141286	1.8324621	4.010737
447818114019775	-0.9258079	2.1197662	3.455282
447818119026069	-0.6712743	2.0908864	2.6292825
447818124032373	-0.21637598	1.9849428	2.3126493
447818129038673	0.293589	1.7215806	2.1103392
447818134044988	0.84365684	1.3977649	1.9499277
447818139051302	1.3727754	0.95124626	1.5460558
447818144057619	2.01502	0.6795044	1.412579
447818149063942	2.627337	0.49874213	1.1330559
447818154070303	3.1408935	0.4604349	0.89603
447818159076670	3.44376	0.4468179	0.5434838
447818164083055	3.681983	0.5892729	0.5363012
447818169089437	3.6574423	0.64433956	0.5470751
447818174095828	3.4216135	0.60782796	0.6380547
447818179102238	2.9414265	0.3664625	0.47899
447818184108635	2.574515	0.2275988	0.60947394
447818189115057	2.0890906	-0.10878654	0.6878841
447818194121506	1.6395793	-0.440982	0.7674913
447818199128213	1.3102269	-0.69686234	0.7695862
447818204135038	1.09834	-0.8764275	0.9814731
447818209141918	0.87089086	-0.9847651	1.1670237
447818214148820	0.7086837	-1.0577883	1.2855366
447818219155732	0.523582	-1.1766005	1.1522095
447818224162381	0.42003277	-1.1370962	1.2659341
447818229168897	0.25782558	-1.2346599	1.4131776
447818234175346	0.10220248	-1.2879308	1.4568717
447818239181768	0.03321955	-1.2442367	1.3181577
447818244188175	0.0032920274	-1.1197382	1.3570634
447818249194577	-0.056563016	-0.95274264	1.2972084
447818254200974	-0.13138182	-0.8001123	1.2361562
447818259207371	-0.30466217	-0.67740947	0.9883564
447818264213787	-0.4854244	-0.52896893	0.900968
447818269220200	-0.65182143	-0.35538933	0.79861593
447818274226615	-0.83737206	-0.19916765	0.71601593
447818279233033	-1.0606314	-0.13018471	0.5069722
447818284239463	-1.2354081	-0.03441665	0.4369418
447818289245891	-1.4119805	0.043394905	0.31423897
447818294252321	-1.5628152	0.084096335	0.22445641
447818299258761	-1.7051206	0.06434417	-0.0055365916
447818304265201	-1.816451	0.0350152	-0.11806407
447818309271641	-1.9200001	-0.06314707	-0.24435821
447818314278081	-2.0702362	-0.19303252	-0.38441902
447818319284547	-2.236334	-0.35509005	-0.6657377
447818324291007	-2.4111106	-0.58194065	-0.7261913
447818329297463	-2.497302	-0.69446814	-0.8225579
447818334303922	-2.503886	-0.7932289	-0.89677817
447818339310382	-2.503886	-0.8867524	-1.0283096
447818344316842	-2.456002	-0.98671037	-1.1121067
447818349323306	-2.3865702	-1.096245	-1.3628993
447818354329771	-2.5248353	-1.3230957	-1.6112977
447818359336238	-2.221969	-1.1712135	-0.9741408
447818364342711	-2.0082862	-1.235857	-1.0369886
447818369349187	-1.9011458	-1.3986627	-1.290774
447818374355664	-1.8424878	-1.6015713	-1.5930419
447818379362143	-1.6334441	-1.5128362	-1.0152912
447818384368628	-1.4191631	-1.5708956	-0.9117419
447818389375114	-1.2324153	-1.5954362	-0.89917237
447818394381603	-1.033098	-1.5068507	-0.4897639
447818399388094	-1.003769	-1.5640123	-0.7188591
447818404394588	-0.89064306	-1.4790181	-0.7918822
447818409401085	-0.7110779	-1.2156559	-0.23343466
447818414407588	-0.5955577	-0.9959879	-0.12270284
447818419414093	-0.65990186	-0.8740333	-0.5823896
447818424420600	-0.5066729	-0.3155857	0.091578215
447818429427106	-0.32950202	0.1213561	0.4830302
447818434433616	-0.14694414	0.4739023	0.52492875
447818439440130	-0.07990648	0.82929164	0.39444473
447818444446731	0.11342531	1.1399393	0.22385786
447818449453339	0.15472528	1.5020623	0.1945289
447818454459975	0.32591072	1.9402012	1.6226702
447818459466613	0.14859015	1.9651906	1.2210429
447818464473320	0.122852474	2.0280385	0.51475334
447818469479944	0.10070611	2.1369746	0.12629414
447818474486526	0.052223526	2.1836617	0.074220255
447818479493093	-0.103698865	2.1529858	-0.03127426
447818484499620	-0.28386253	2.0727801	-0.28027123
447818489506153	-0.53704935	2.010531	-0.6729203
447818494512752	-0.7740753	1.9835961	-0.96621
447818499519329	-1.103727	1.9662381	-1.1076176
447818504525892	-1.3437457	1.9680338	-0.9783307
447818509532693	-1.5292963	1.8417397	-1.2381016
447818514539377	-1.7292122	1.7806876	-1.5122377
447818519545996	-1.875857	1.845331	-0.45908818
447818524552582	-2.0799627	1.6262615	-0.8714894
447818529559153	-2.2972364	1.5275006	-0.93852705
447818534565711	-2.5755625	1.4706384	-0.6332663
447818539572267	-2.8794765	1.4838065	-0.23882163
447818544578819	-3.1548097	1.6555905	-0.07062895
447818549585373	-3.2439938	1.9542671	-0.10235212
447818554591925	-3.347543	2.2906525	-0.076614454
447818559598493	-3.1564558	2.6804585	4.4891282E-4
447818564605060	-3.1043818	2.8857613	-0.011522096
447818569611627	-3.078644	2.9204772	0.04833295
447818574618193	-3.07206	2.8618193	0.18121114
447818579624784	-2.9487586	2.77069	0.3354875
447818584631359	-2.9134443	2.5779567	0.471957
447818589637936	-2.9750948	2.332551	0.58987147
447818594644509	-2.9649196	2.0733786	0.60303956
447818599651085	-2.6928782	1.8610429	0.68025255
447818604657661	-2.484583	1.6258126	0.70838445
447818609664241	-2.123657	1.3875896	0.8137293
447818614670823	-1.7447745	1.1924621	1.1309611
447818619677408	-1.2078748	1.0531495	1.7296611
447818624683991	-0.6955156	0.9328408	2.2988825
447818629690576	-0.2220622	0.81552494	2.5664346
447818634697168	0.27234045	0.75028294	2.6041431
447818639703760	1.002123	0.7278373	2.7492917
447818644710350	1.6964415	0.6679823	2.7756279
447818649716943	2.31235	0.533907	2.6948237
447818654724712	2.8642135	0.3441665	2.3793876
447818659733158	3.4258034	0.25677812	2.157026
447818664741835	3.895067	0.22804771	1.4776714
447818669750618	4.2134957	0.24001873	0.6438906
447818679768267	4.725705	0.6429928	-0.80086046
447818704802673	4.7140336	2.842067	-2.3437738
447818709809123	4.274099	3.0413845	-2.1953332
447818719821976	3.316568	3.4706945	-1.3157635
447818734841253	1.2072762	3.0888195	-1.0721534
447818739847686	0.6935703	2.8999767	-0.633416
447818744854120	-0.0037409402	2.6024973	-0.43110594
447818754867021	-1.41632	1.8950106	-0.040252518
447818769886406	-2.3108535	0.7851485	0.60438627
447818779902319	-2.3777416	0.0199018	1.0483611
447818789916940	-2.3077111	-0.6169559	0.70599025
447818799939125	-1.8818425	-0.90770173	0.72918403
447818814966060	-0.99898064	-1.6115971	0.2252046
447818824979439	-0.1755249	-2.1004632	0.393098
447818834992040	0.5451298	-2.4224832	0.08304887
447818839998259	0.861763	-2.4256256	0.14859015
447818845004468	1.1071687	-2.4441807	-0.033369187
447818850010672	1.2202947	-2.4735096	-0.25363573
447818865029362	1.5527894	-2.1055508	-0.40013096
447818870035596	1.559972	-2.0696378	-0.43843818
447818880048089	1.4727334	-1.9104233	-0.23089083
447818885054336	1.515829	-1.8368016	-0.36376902
447818895066833	1.6672622	-1.4004583	-0.19797055
447818900073091	1.6840216	-1.3236942	-0.31468788
447818910085652	1.7325042	-1.1405379	-0.13033436
447818915091938	1.7199347	-1.3254899	-0.25662848
447818930110815	1.5276504	-2.062156	-0.2463035
447818935117131	1.4594156	-2.4709659	-0.5587468
447818945129776	1.427842	-3.2692823	-0.59974754
447818950136121	1.4248493	-3.66672	-0.664391
447818955142461	1.3769653	-3.9677908	-0.5189432
447818960148787	1.427842	-4.301183	-0.6449381
447818965155122	1.5726912	-4.457405	-0.80235684
447818970161444	1.7396868	-4.4538136	-0.68504095
447818975167781	1.795352	-4.3783965	-0.5814917
447818980174108	1.8718169	-4.2711062	-0.60947394
447818985180453	1.850269	-4.1083007	-0.58313775
447818990186787	1.7826328	-3.9018006	-0.56877255
447818995193141	1.6832734	-3.605518	-0.51550156
447819000199488	1.5358804	-3.2413	-0.49889177
447819005205854	1.3718776	-2.7139773	-0.3151368
447819010212209	1.2437878	-2.02325	-0.18644845
447819015218584	1.0971429	-1.2612954	0.057760116
447819020224956	0.87328506	-0.5114613	0.09083003
447819025231349	0.5883751	0.33249477	0.20874447
447819030237734	0.2633622	1.2416929	0.30511108
447819035244132	-0.08080431	2.2197242	0.4122516
447819040250522	-0.54423195	3.1462803	0.23148938
447819045256923	-0.9847651	4.20751	-0.009127894
447819050263329	-1.4504373	5.1723733	-0.48557404
447819055269778	-1.8724154	5.8876414	-1.1529578
447819060276216	-2.3698108	6.283582	-1.8151041
447819065282680	-2.7433062	6.282984	-2.3789387
447819070289136	-2.9611785	5.8885393	-2.9158385
447819075295634	-3.0348003	5.1660886	-3.3886933
447819080302108	-3.0548518	4.337994	-3.636942
447819085308624	-3.034501	3.3803136	-4.0876503
447819090315116	-2.9662662	2.3591864	-4.399495
447819095321638	-2.9064112	1.2901754	-4.653879
447819100328136	-2.8226142	0.34596214	-4.5741224
447819105334677	-2.8447604	-0.6476316	-4.5136685
447819110341184	-2.869301	-1.5245079	-4.3197384
447819115347720	-2.7878983	-2.1559787	-4.088698
447819120354230	-2.4676738	-2.366369	-3.514239
447819125360729	-2.3024738	-2.3083098	-3.04737
447819130367222	-2.022951	-1.8246809	-2.7193642
447819135373715	-1.6297032	-0.8759785	-2.4883237
447819140380208	-0.99748427	0.5599439	-2.0982184
447819145386740	-0.59585696	2.0796635	-1.7744027
447819150393247	-0.3354875	3.4850597	-1.5427637
447819155399801	-0.1798644	4.6055465	-1.3416507
447819160406324	-0.09382278	5.303157	-1.11076
447819165412864	0.319177	5.498883	-0.91144264
447819170419397	1.0051157	5.3276973	-0.7360674
447819175425963	1.7539024	4.9524064	-0.76060796
447819180432496	2.2562358	4.4167037	-1.0169371
447819185439062	2.7991211	3.9917328	-0.96785605
447819190445616	3.231873	3.6864722	-0.5835867
447819195452195	3.4730887	3.5218706	-0.23283611
447819200458746	3.2510266	3.2836475	0.07272387
447819205465320	3.141492	3.0597897	0.22535424
447819210471863	2.9200282	2.731784	0.0068833297
447819215478422	2.7709892	2.2511482	-0.12120646
447819220484963	2.4922144	1.654992	-0.012719196
447819225491528	2.292897	1.1360487	-0.07915829
447819230498070	1.9966146	0.61890113	-0.14140753
447819235504630	1.6662147	0.020350715	0.25243863
447819240511173	1.2856863	-0.72050506	1.1197382
447819245517728	0.8834604	-1.5081974	2.333
447819250524273	0.4441244	-2.2504	3.645621
447819255530851	0.09935937	-2.7304375	4.8355393
447819260537419	-0.049829323	-2.942025	5.5138464
447819265544000	-0.13123219	-2.806154	5.86759
447819270550567	-0.16415246	-2.3793876	5.971139
447819275557161	-0.14260463	-1.695843	5.8185086
447819280563721	-0.12195465	-0.9247604	5.29777
447819285570299	-0.060902506	0.038307227	4.835689
447819290576874	-0.002244564	0.96306765	4.4939165
447819295583468	-0.05312135	1.690905	4.1784806
447819300590042	-0.13796587	2.0196588	3.4256537
447819305596650	-0.025438393	2.2082021	2.9982886
447819310603235	0.21218613	2.1333833	2.585289
447819315609835	0.49829322	1.9095255	2.3177369
447819320616413	0.71796125	1.3985131	1.7613842
447819325623028	1.1118075	1.0034698	1.59798
447819330629621	1.5685014	0.63895255	1.4076409
447819335636252	2.0629041	0.33069912	1.2167034
447819340642863	2.5025394	0.04563947	0.75821376
447819345649509	2.918532	-0.060902506	0.7612065
447819350656117	3.1621418	-0.030376434	0.79951376
447819355662756	3.2555158	0.04623802	0.8575731
447819360669365	3.1275756	0.051475335	0.6902783
447819365675990	2.9001265	0.12689269	0.74654204
447819370682595	2.5631425	0.08499416	0.73935944
447819375689239	2.1555297	0.012569559	0.7567174
447819380695858	1.6840216	-0.16475101	0.6594529
447819385702505	1.2404958	-0.2976292	0.83782095
447819390709123	0.8430583	-0.44666827	0.91503394
447819395715778	0.5090671	-0.57116675	1.0197803
447819400722400	0.24121583	-0.6962638	0.9600749
447819405729045	0.026934769	-0.7728782	1.0426749
447819410735670	-0.20470424	-0.8854057	1.1306617
447819415742310	-0.32920274	-0.9947908	1.084274
447819420748921	-0.4189853	-1.0666169	1.1405379
447819425755559	-0.46088383	-1.1234791	1.1561002
447819430762160	-0.49559975	-1.1456255	1.1076176
447819435768777	-0.4810849	-1.153257	0.9148843
447819440775375	-0.49485156	-1.0886136	0.9418191
447819445781984	-0.6139631	-1.0335469	0.8747814
447819450788568	-0.72768766	-0.8701427	0.82270753
447819455795162	-0.8846575	-0.7517793	0.6405986
447819460801752	-1.0971429	-0.6679823	0.5436334
447819465808356	-1.2731167	-0.49081135	0.57475805
447819470814947	-1.441908	-0.3321955	0.53704935
447819475821567	-1.6603789	-0.30256724	0.20799628
447819480828165	-1.8531121	-0.26007015	0.087687634
447819485834783	-1.9949685	-0.2486977	0.12958616
447819490841376	-2.083554	-0.28820202	-0.001496376
447819495848001	-2.1877017	-0.38651395	-0.35164836
447819500854611	-2.2319946	-0.44696754	-0.5659294
447819505861250	-2.3355439	-0.5211878	-0.72993225
447819510867863	-2.3493104	-0.5337573	-0.84964234
447819515874523	-2.4073699	-0.6748656	-1.0263643
447819520881153	-2.3720553	-0.744896	-1.0550947
447819525887817	-2.2918496	-0.77721775	-1.1125556
447819530894465	-2.1410148	-0.82031333	-1.1760019
447819535901153	-1.9801544	-0.8747814	-1.3431472
447819540907808	-1.8245313	-0.9825205	-1.4616601
447819545914488	-1.7862241	-1.220145	-1.5286977
447819550921145	-1.6461633	-1.361403	-1.584363
447819555927829	-1.4739305	-1.476175	-1.7555484
447819560934491	-1.4966754	-1.7874212	-2.44448
447819565941173	-0.86281043	-1.4324808	-1.210269
447819570947835	-0.5264251	-1.4001591	-0.9451111
447819575954530	-0.5256769	-1.5384243	-1.3311762
447819580961454	-0.41075522	-1.601272	-1.8177977
447819585968248	-0.11207857	-1.3917794	-1.4927847
447819590974959	0.09202713	-1.2343606	-1.3479356
447819595981656	-0.004040215	-1.0925041	-1.3600562
447819600988553	0.1503858	-0.70404494	-0.55201316
447819605995323	0.15577275	-0.39938277	-0.19048867
447819611002169	0.08215105	-0.11746552	-0.19048867
447819616008916	-0.10339958	0.37933132	0.6640917
447819621015692	-0.3494038	0.6319196	0.9376292
447819626022390	-0.56548053	0.8809166	0.82270753
447819631029045	-0.7719804	1.1275194	0.59825116
447819636035715	-1.1605892	1.065719	-0.8702923
447819641042382	-1.1420342	1.8061259	0.7308301
447819646049048	-1.3455414	1.9108722	1.0576386
447819651055736	-1.4742297	1.9168577	0.54408234
447819656062401	-1.582268	1.9339164	-0.13272856
447819661069078	-1.5996261	1.9692309	-0.595408
447819666075732	-1.6696564	1.9913772	-0.85098904
447819671082363	-1.7606361	2.059612	-0.98686004
447819676088999	-1.863437	2.0304327	-1.1994951
447819681095656	-1.908927	1.785027	-2.0590134
447819686102302	-1.9801544	2.1675007	-0.75836337
447819691108959	-2.1405659	2.0549734	-0.47046062
447819696115611	-2.2720973	1.8926164	-1.0914567
447819701122247	-2.5121162	1.7806876	-1.3242928
447819706128889	-2.8401217	1.6885108	-1.3003508
447819711138524	-3.1244333	1.614889	-1.1848305
447819716153757	-3.2944214	1.5969325	-0.9334394
447819721164655	-3.3596635	1.666963	-0.79517424
447819726173376	-3.4644098	1.7860745	-0.54138887
447819731181114	-3.4955344	1.946486	-0.14814124
447819756214186	-2.5558102	3.130718	0.14499883
447819766226930	-2.0290859	2.4190416	0.49634793
447819776239670	-1.2708722	1.290774	1.0631752
447819786252423	-0.3096002	0.614412	1.0721534
447819796265158	0.6863877	0.35538933	1.8549078
447819806277913	1.2149078	0.09980828	2.9317
447819816290712	1.9786581	0.027234044	3.3973722
447819826303520	3.0566473	-0.20919338	2.432509
447819831309927	3.6821325	-0.17791912	2.074875
447819836316334	3.8712745	-0.2940379	1.3661914
447819846329162	4.1914988	0.16804303	-0.117615156
447819851335583	4.308216	0.70613986	-1.0118495
447819866354902	4.4960117	3.2984617	-1.9663877
447819871361373	4.3400893	4.1537905	-1.8505683
447819876368014	4.1282024	4.9097595	-2.1773767
447819881374598	3.8391025	5.294627	-2.397045
447819886381118	3.3650506	5.5567927	-2.267758
447819891387596	3.2242415	5.9020066	-1.7983447
447819896394072	2.546084	5.728427	-1.7923592
447819901400531	1.7853262	5.3417635	-1.8210896
