accelerometer_timestamp	accelerometer_x_data	accelerometer_y_data	accelerometer_z_data
1443115601433595392	0.48918152	15.2387085	5.595703
1443115601500734063	2.3009338	5.562546	7.1573944
1443115601559480401	-2.6263885	14.058777	-0.59866333
1443115601567872735	-2.5095062	13.798706	-0.035736084
1443115601576265069	-1.5615692	12.010941	1.2683563
1443115601584657403	-0.8174286	9.325897	2.4642944
1443115601593049737	-0.9592438	6.712509	2.7663422
1443115601601442071	-1.427887	5.0650635	1.8544922
1443115601609834405	-1.7949219	4.630142	1.0072784
1443115601618226739	-2.6577911	4.7778473	1.067749
1443115601626619073	-3.7372742	4.7497253	1.3043213
1443115601635011407	-3.7817993	4.553726	1.3844147
1443115601643403741	-2.9302368	4.399048	1.1312866
1443115601651796075	-1.7936249	4.622864	0.6421356
1443115601660188409	-0.5638275	5.565674	0.21322632
1443115601668580743	0.7121277	7.254959	-0.2545929
1443115601676973077	2.3332214	9.365082	-1.1619415
1443115601685365411	3.3269958	12.241806	-1.915741
1443115601693757745	4.205658	14.874786	-2.2548218
1443115601702150079	4.8294067	16.086884	-1.9511871
1443115601710542413	4.635742	15.503723	-1.0279388
1443115601718934747	3.365158	13.829254	0.2006836
1443115601727327081	2.429535	11.99707	1.4355164
1443115601735719415	1.8375854	10.540619	2.2685547
1443115601744111749	1.2504425	9.292419	2.598343
1443115601752504083	0.28631592	8.575638	2.5084229
1443115601760896417	-0.45307922	8.254028	1.8794708
1443115601769288751	-0.8002167	7.9440613	1.0546875
1443115601777681085	-1.2818451	7.5030975	0.75471497
1443115601786073419	-1.7270355	7.8228607	0.96650696
1443115601794465753	-1.7813263	8.590698	0.8414917
1443115601802858087	-1.6000214	9.037048	0.9688721
1443115601811250421	-1.1538544	9.159866	0.8587036
1443115601819642755	-0.44540405	9.042252	0.42211914
1443115601828035089	0.12171936	8.895721	-0.22991943
1443115601836427423	0.17965698	8.921814	-0.8321228
1443115601844819757	0.5417633	9.0082245	-0.8626404
1443115601853212091	0.5483093	9.098892	-0.7701111
1443115601861604425	0.5320282	9.070694	-0.57611084
1443115601869996759	0.5190277	8.876236	-0.27479553
1443115601878389093	0.5382538	8.669968	-0.11167908
1443115601886781427	0.6138458	8.555832	-0.36547852
1443115601895173761	0.70700073	8.401794	-0.82696533
1443115601903566095	0.7079773	8.295792	-1.1308594
1443115601911958429	0.7070465	8.186432	-0.9392395
1443115601920350763	0.61779785	8.183807	-0.75167847
1443115601928743097	0.6302643	8.215332	-0.62202454
1443115601937135431	0.7126465	8.270889	-0.4958954
1443115601945527765	0.783905	8.428833	-0.3950348
1443115601953920099	0.77601624	8.763229	-0.43502808
1443115601962312433	0.8500366	8.903061	-0.35586548
1443115601970704767	0.7637024	9.1658325	-0.4025116
1443115601979097100	0.72088623	9.375046	-0.540329
1443115601987489434	0.6509552	9.497528	-0.6253052
1443115601995881768	0.60998535	9.5282135	-0.6327667
1443115602004274102	0.67785645	9.486908	-0.5592041
1443115602012666436	0.87724304	9.395218	-0.38659668
1443115602021058770	1.2216644	9.334564	-0.1665802
1443115602029451104	1.1796722	9.367584	0.36375427
1443115602037843438	0.8940735	9.733093	0.6644287
1443115602046235772	0.5475769	10.188049	0.89782715
1443115602054628106	0.1078186	10.793518	0.9776459
1443115602063020440	-0.4059143	11.528229	0.79803467
1443115602071412774	-0.73677063	12.015884	0.47938538
1443115602079805108	-0.43141174	11.638535	0.4752655
1443115602088197442	-0.6889343	11.858902	-0.36224365
1443115602096589776	0.007003784	11.317856	-1.0734406
1443115602104982110	0.4141693	10.841766	-1.7429504
1443115602113374444	0.6936798	10.640915	-1.7759705
1443115602121766778	0.9481354	10.7152405	-0.7651825
1443115602130159112	0.79133606	11.029175	0.94836426
1443115602138551446	0.92500305	11.069275	2.3250885
1443115602146943780	1.0728455	11.272491	1.5913086
1443115602155336114	1.1051483	11.840607	0.93704224
1443115602163728448	1.049408	12.642975	0.70399475
1443115602172120782	1.0748749	13.402603	0.52778625
1443115602180513116	1.2735901	13.934586	0.006210327
1443115602188905450	1.5488281	14.312256	-0.8411255
1443115602197297784	1.6341248	14.942108	-1.3715515
1443115602205690118	1.993988	15.456177	-1.873291
1443115602214082452	2.572342	15.465042	-2.0002136
1443115602222474786	2.6186218	14.634262	-1.5884247
1443115602230867120	2.1104584	13.088242	-0.8597107
1443115602239259454	1.2867126	11.281998	-0.22644043
1443115602247651788	0.36795044	9.684494	0.09609985
1443115602256044122	-0.55522156	8.344772	0.5566864
1443115602264436456	-1.1505432	7.373169	0.7849426
1443115602272828790	-1.8729095	7.0412445	1.1508331
1443115602281221124	-2.6876678	7.4084473	1.4016571
1443115602289613458	-3.391388	8.316681	1.5263672
1443115602298005792	-3.4877777	9.472351	1.5750732
1443115602306398126	-2.6376648	10.464081	1.5908813
1443115602314790460	-1.3803253	10.814484	1.5926056
1443115602323182794	-1.335083	11.159943	1.4136963
1443115602331575128	-1.2510986	11.583786	0.57525635
1443115602339967462	-0.28523254	11.259537	0.05482483
1443115602348359796	0.6370239	10.75856	0.31658936
1443115602356752130	0.9008789	10.616974	1.0501556
1443115602365144464	0.5137024	11.002304	1.9597626
1443115602373536798	-0.24368286	11.800369	3.5904083
1443115602381929132	-0.12954712	12.285675	3.7724
1443115602390321466	-0.21777344	12.07106	3.3078003
1443115602398713800	-0.6837921	11.304245	2.8398895
1443115602407106134	-1.4311829	10.451981	2.2745667
1443115602415498468	-2.1086273	9.834869	1.6798248
1443115602423890802	-2.4134216	9.452637	1.209549
1443115602432283136	-2.0165558	8.971451	0.937088
1443115602440675470	-1.6966705	8.851532	0.13557434
1443115602449067804	-1.776825	9.129486	-1.1129456
1443115602457460138	-1.3233337	8.857956	-1.4180603
1443115602465852472	-0.69143677	8.226471	-0.9623108
1443115602474244806	-0.23240662	7.5516815	-0.3120575
1443115602482637140	-0.1559906	7.00383	0.16130066
1443115602491029474	-0.33122253	6.4114075	0.85791016
1443115602499421808	-0.31375122	5.681427	1.4645233
1443115602507814142	-0.31948853	5.148056	1.6500092
1443115602516206475	-0.41981506	4.7702026	1.852417
1443115602524598809	-0.7417145	4.5640106	2.266159
1443115602532991143	-1.1071014	4.4989777	2.8218231
1443115602541383477	-1.2835693	4.488022	3.2163696
1443115602549775811	-1.3853455	4.493164	3.1207428
1443115602558168145	-1.4861145	4.708313	3.0200043
1443115602566560479	-1.530365	4.9387817	2.895279
1443115602574952813	-1.5563812	5.120575	2.7478485
1443115602583345147	-1.57901	5.1900787	2.6284637
1443115602591737481	-1.6251678	5.105423	2.6467438
1443115602600129815	-1.7139282	4.87883	2.8778076
1443115602608522149	-1.7892456	4.612198	3.1895752
1443115602616914483	-1.8128967	4.3222656	3.5854187
1443115602625306817	-1.749939	4.1381683	3.8605347
1443115602633699151	-1.5841675	4.002304	4.086914
1443115602642091485	-1.4851379	3.9424133	4.259857
1443115602650483819	-1.5282288	4.0451813	4.535858
1443115602658876153	-1.6086121	4.44014	4.9934235
1443115602667268487	-1.4897156	5.292404	5.181122
1443115602675660821	-0.6826019	7.084488	5.5985565
1443115602684053155	0.27998352	10.020355	6.0016937
1443115602692445489	0.73361206	13.948837	6.9539185
1443115602700837823	0.9120331	18.568024	8.243271
1443115602709230157	1.5165558	22.87349	9.148697
1443115602717622491	2.8884888	25.259415	9.06987
1443115602726014825	4.1085815	24.035599	8.302109
1443115602734407159	2.9642334	18.281982	8.632141
1443115602742799493	1.9238739	12.144302	9.463013
1443115602751191827	1.8736267	7.5946655	8.879913
1443115602759584161	2.074417	4.8032684	7.2845306
1443115602767976495	1.6144562	3.5040894	5.7858734
1443115602776368829	0.3770752	3.2979584	5.092804
1443115602784761163	-0.5641937	3.7235413	4.781067
1443115602793153497	-1.1934204	4.826767	4.175461
1443115602801545831	-1.8654785	6.663574	3.525177
1443115602809938165	-2.7449036	9.165039	2.8557587
1443115602818330499	-3.14505	12.277786	2.039215
1443115602826722833	-3.2471619	15.830826	1.0976868
1443115602835115167	-3.2501373	19.1221	0.3840332
1443115602843507501	-2.371811	20.638016	0.61994934
1443115602851899835	0.0793457	18.093292	2.7318115
1443115602860292169	1.220932	13.67778	4.658478
1443115602868684503	1.364212	9.249023	5.074234
1443115602877076837	0.946228	6.081421	3.352356
1443115602885469171	-0.05204773	4.0998077	0.8450012
1443115602893861505	-1.5762634	2.8165436	-0.9056549
1443115602902253839	-3.094452	2.16391	-1.7230988
1443115602910646173	-4.24292	1.7228241	-1.7385254
1443115602919038507	-4.66803	1.8588715	-1.5602875
1443115602927430841	-4.330765	2.825882	-1.3228607
1443115602935823175	-3.107788	4.086563	-1.0561981
1443115602944215509	-1.4014893	5.3326874	-0.8741913
1443115602952607843	0.1611023	6.710907	-0.761322
1443115602961000177	1.1983948	8.60022	-0.53460693
1443115602969392511	2.3305054	12.187347	-0.3655243
1443115602977784845	3.3944244	16.071747	-0.48312378
1443115602986177179	4.333481	18.34401	-0.49641418
1443115602994569513	4.8119965	17.734665	0.14781189
1443115603002961847	4.1559143	15.430038	1.1765594
1443115603011354181	2.411255	12.821228	2.2193604
1443115603019746515	0.6082306	10.286377	3.0355988
1443115603028138849	0.6976776	8.347275	2.7076263
1443115603036531183	0.22694397	7.501297	1.9617157
1443115603044923517	-0.26205444	7.1535187	1.114975
1443115603053315850	-0.6837158	7.139206	0.33862305
1443115603061708184	-0.95040894	7.2757874	-0.28367615
1443115603070100518	-1.0453949	7.517746	-0.8417511
1443115603078492852	-1.0901794	7.9086304	-1.5014648
1443115603086885186	-1.0346527	8.258209	-1.4767914
1443115603095277520	-0.41455078	8.489258	-1.3932953
1443115603103669854	0.21772766	8.67395	-1.2546539
1443115603112062188	0.43449402	8.7921295	-1.2882843
1443115603120454522	0.47261047	8.88176	-1.2664185
1443115603128846856	0.6699219	8.988007	-0.9273071
1443115603137239190	0.68466187	9.066666	-0.63812256
1443115603145631524	0.8296356	9.137604	-0.4540863
1443115603154023858	0.7982178	9.267654	-0.21185303
1443115603162416192	0.754364	9.215591	0.018081665
1443115603170808526	0.60406494	9.155762	0.058639526
1443115603179200860	0.38342285	9.095306	9.1552734E-5
1443115603187593194	0.20037842	8.9309845	-0.0368042
1443115603195985528	0.07421875	8.649887	-0.1795044
1443115603204377862	-0.13142395	8.340408	-0.3316803
1443115603212770196	-0.19856262	8.1129	-0.35289
1443115603221162530	-0.50613403	8.185425	-0.6190796
1443115603229554864	-0.64971924	8.203217	-0.8140259
1443115603237947198	-0.64323425	8.164825	-0.9139557
1443115603246339532	-0.64427185	8.203613	-1.0295105
1443115603254731866	-0.56570435	8.282318	-1.1204987
1443115603263124200	-0.341568	8.441681	-1.0557251
1443115603271516534	-0.04536438	8.763428	-0.79782104
1443115603279908868	0.2947235	9.148865	-0.32505798
1443115603288301202	0.48339844	9.504257	0.279953
1443115603296693536	0.50875854	9.762238	0.93226624
1443115603305085870	0.450531	9.8650055	1.4769135
1443115603313478204	0.3335266	9.84053	1.6399689
1443115603321870538	-0.016036987	10.21582	1.0189514
1443115603330262872	-0.11289978	10.801697	0.55075073
1443115603338655206	-0.16963196	11.579773	0.36921692
1443115603347047540	-0.049209595	12.135681	0.30667114
1443115603355439874	0.26783752	12.195206	0.18473816
1443115603363832208	0.8405609	11.797714	-0.0695343
1443115603372224542	1.549057	11.39296	-0.36872864
1443115603380616876	0.93522644	11.962555	-0.46948242
1443115603389009210	0.8295288	12.268616	0.24830627
1443115603397401544	1.1125488	12.150955	1.0329742
1443115603405793878	1.5502472	11.987625	1.3612213
1443115603414186212	1.8352203	12.0933075	1.101471
1443115603422578546	1.7397766	12.5763855	0.6403656
1443115603430970880	1.3547516	13.319946	0.5462494
1443115603439363214	1.4688721	14.093109	0.6203003
1443115603447755548	1.7914734	14.912064	0.14109802
1443115603456147882	2.0340424	15.613541	-0.53260803
1443115603464540216	2.2178345	15.984619	-1.2013702
1443115603472932550	2.3666534	15.820343	-1.6756287
1443115603481324884	2.3894806	14.866364	-1.7811432
1443115603489717218	1.9984741	13.286972	-1.5277557
1443115603498109552	0.87161255	11.776596	-0.6959686
1443115603506501886	0.07815552	10.383469	0.36573792
1443115603514894220	-0.65219116	9.176605	1.3608856
1443115603523286554	-1.5760193	8.643234	2.0887299
1443115603531678888	-2.7626648	8.841476	2.3431854
1443115603540071222	-4.0154114	9.710831	2.03125
1443115603548463556	-4.5982056	10.572006	1.7191315
1443115603556855890	-4.2755585	11.158585	2.2174225
1443115603565248224	-3.4962158	10.978668	2.417923
1443115603573640558	-2.5652466	10.5824585	1.4636841
1443115603582032892	-1.1105347	10.097778	-0.16494751
1443115603590425225	0.14289856	9.644089	-1.5118561
1443115603598817559	0.52948	9.373169	-1.5253754
1443115603607209893	0.74072266	9.38858	-0.27148438
1443115603615602227	1.758606	9.753586	0.4122467
1443115603623994561	2.404663	10.194855	1.333374
1443115603632386895	2.070755	10.73082	2.7449799
1443115603640779229	1.5060883	11.130783	3.2095184
1443115603649171563	0.7742615	11.046677	2.7703094
1443115603657563897	-0.022109985	10.37912	2.2929535
1443115603665956231	-0.36993408	9.575241	2.249298
1443115603674348565	-1.5430603	9.813782	1.6560516
1443115603682740899	-1.7003784	9.912338	0.81103516
1443115603691133233	-1.5884705	9.604111	0.13877869
1443115603699525567	-1.4565735	9.244995	-0.4284668
1443115603707917901	-1.4294586	8.878769	-0.73924255
1443115603716310235	-1.4996796	8.41861	-0.5836792
1443115603724702569	-1.5816193	7.8472443	0.031143188
1443115603733094903	-1.7389221	7.193329	0.49072266
1443115603741487237	-1.8427277	6.558243	0.720459
1443115603749879571	-1.9543915	5.9797974	1.0106049
1443115603758271905	-1.9546661	5.4388885	1.2637177
1443115603766664239	-2.0123749	5.0047607	1.6729279
1443115603775056573	-2.029358	4.6057587	2.2845001
1443115603783448907	-1.711441	4.0955353	2.8180084
1443115603791841241	-1.7546234	3.8374634	2.9763489
1443115603800233575	-1.6857605	3.802475	3.1296387
1443115603808625909	-1.6366882	3.8835144	3.0994568
1443115603817018243	-1.5722809	4.0869904	2.9598541
1443115603825410577	-1.4361572	4.336426	2.7885895
1443115603833802911	-1.259903	4.5262756	2.6856232
1443115603842195245	-1.1426544	4.580887	2.7495575
1443115603850587579	-1.0830231	4.5099335	2.998352
1443115603858979913	-1.0881653	4.419464	3.253357
1443115603867372247	-1.1861877	4.3246765	3.7327728
1443115603875764581	-1.3438568	4.3300476	4.2256775
1443115603884156915	-1.4060516	4.3128204	4.639923
1443115603892549249	-1.4881287	4.3109894	4.973404
1443115603900941583	-1.7485199	4.521118	5.3045654
1443115603909333917	-1.6789703	4.9779816	5.7864685
1443115603917726251	-0.9623413	6.1757813	6.1411896
1443115603926118585	-0.008468628	8.218826	6.207718
1443115603934510919	0.8500824	11.268829	6.325363
1443115603942903253	1.4912567	15.298584	6.8483276
1443115603951295587	1.9115906	19.69307	7.8945313
1443115603959687921	2.2399902	23.167236	9.065613
1443115603968080255	2.7466583	23.99173	9.314484
1443115603976472589	2.8114166	21.080994	8.992676
1443115603984864923	1.6603394	16.181824	9.602249
1443115603993257257	1.203186	11.877747	10.039276
1443115604001649591	1.3182373	9.163864	9.545578
1443115604010041925	1.2558441	8.03273	8.440582
1443115604018434259	0.51716614	7.943863	7.5753784
1443115604026826593	-0.5614166	8.371368	7.202072
1443115604035218927	-1.3736725	9.348145	6.3814087
1443115604043611261	-2.0744324	11.046921	4.6452484
1443115604052003595	-2.4533691	12.576294	2.0487213
1443115604060395929	-3.0036774	13.32756	-0.7542877
1443115604068788263	-3.5173492	12.753021	-2.185089
1443115604077180597	-3.5117645	10.549637	-1.3754425
1443115604085572931	-3.0970306	7.1745605	-0.075149536
1443115604093965265	-3.2019196	4.4468384	-0.7979431
1443115604102357599	-3.1076813	3.5436401	-0.670166
1443115604110749933	-3.1982117	3.883667	0.48770142
1443115604119142267	-3.3585968	4.104355	2.0687408
1443115604127534600	-3.27565	3.8003693	3.2573547
1443115604135926934	-2.7998352	3.3258514	3.5286713
1443115604144319268	-1.9855042	3.3371735	2.1108246
1443115604152711602	-0.53292847	4.4376373	-0.0975647
1443115604161103936	0.6561737	6.0876465	-1.8288879
1443115604169496270	0.900177	8.485413	-2.8817902
1443115604177888604	0.8840027	11.718216	-3.4208832
1443115604186280938	1.3039856	15.146912	-3.6152039
1443115604194673272	2.0785065	17.49762	-3.282425
1443115604203065606	2.4496613	17.83075	-1.5201416
1443115604211457940	3.2934113	15.836716	1.1025543
1443115604219850274	3.4177551	13.510223	2.9498901
1443115604228242608	3.0379791	11.356125	3.3874512
1443115604236634942	2.3641205	9.647461	3.032135
1443115604245027276	1.550827	8.531647	2.4458008
1443115604253419610	0.7787781	7.976593	1.6165161
1443115604261811944	0.4273224	7.5840454	0.26921082
1443115604270204278	-0.18751526	7.3033447	-0.18215942
1443115604278596612	-1.1386261	7.4007263	-0.27983093
1443115604286988946	-1.6407471	7.553604	-0.33906555
1443115604295381280	-1.5402832	7.740738	-0.45973206
1443115604303773614	-1.306427	7.9791718	-0.0708313
1443115604312165948	-1.2515717	8.169098	1.0516205
1443115604320558282	-0.42137146	8.062851	1.015564
1443115604328950616	-0.502594	8.459732	0.016189575
1443115604337342950	-0.056167603	8.758713	-0.36120605
1443115604345735284	0.265213	8.809418	-0.3590393
1443115604354127618	0.23855591	8.840225	-0.3307495
1443115604362519952	0.08343506	8.906189	-0.40667725
1443115604370912286	0.13053894	8.8841095	-0.5276947
1443115604379304620	0.33621216	8.727066	-0.67793274
1443115604387696954	0.4184723	8.36824	-0.97610474
1443115604396089288	0.21362305	8.40097	-1.419632
1443115604404481622	0.23156738	8.349823	-1.3648682
1443115604412873956	0.22727966	8.232239	-1.0522308
1443115604421266290	0.11880493	8.1957855	-0.8175659
1443115604429658624	0.050109863	8.273666	-0.7271881
1443115604438050958	0.13212585	8.281036	-0.4971466
1443115604446443292	0.034439087	8.628555	-0.4909668
1443115604454835626	0.1824646	8.898193	-0.35499573
1443115604463227960	0.37623596	9.08345	-0.2086792
1443115604471620294	0.5176544	9.291397	-0.09501648
1443115604480012628	0.69729614	9.436401	0.06517029
1443115604488404962	0.9710541	9.482193	0.23554993
1443115604496797296	1.1572571	9.63916	0.14572144
1443115604505189630	1.1644592	9.555878	0.1981659
1443115604513581964	0.810318	9.578537	0.2884369
1443115604521974298	0.69770813	9.662521	0.4309845
1443115604530366632	0.6565857	10.005829	0.43148804
1443115604538758966	0.473114	10.692261	0.3486786
1443115604547151300	0.15270996	11.536804	0.34379578
1443115604555543634	-0.027496338	12.096893	0.4607849
1443115604563935968	0.11643982	12.019791	0.5666809
1443115604572328302	0.8111725	11.654251	0.32051086
1443115604580720636	1.4900055	11.139709	0.22357178
1443115604589112970	1.283081	11.693237	-0.23280334
1443115604597505304	1.0470734	12.529724	-0.3936615
1443115604605897638	1.583725	12.304657	0.4628296
1443115604614289972	1.3735657	12.043869	1.5453796
1443115604622682306	1.0774536	11.785812	1.7900848
1443115604631074640	0.79019165	11.828613	1.308136
1443115604639466974	0.71687317	12.2079315	0.860672
1443115604647859308	0.75761414	12.787399	0.7607727
1443115604656251642	1.0030823	13.288971	0.8187256
1443115604664643975	1.4297333	13.639908	0.74549866
1443115604673036309	1.7911987	14.070053	0.27693176
1443115604681428643	2.0859528	14.654968	-0.36280823
1443115604689820977	2.2978516	14.659836	-1.0804901
1443115604698213311	2.1328735	14.15538	-1.2848053
1443115604706605645	1.0198059	12.9470215	-0.97006226
1443115604714997979	-0.51101685	11.237518	-0.26057434
1443115604723390313	-1.4883118	9.699661	0.2783203
1443115604731782647	-2.0813599	8.533585	0.35894775
1443115604740174981	-3.0221405	8.566483	0.4453125
1443115604748567315	-3.921463	9.209396	0.7506256
1443115604756959649	-4.90213	10.444717	1.1447296
1443115604765351983	-5.41214	11.899384	1.7236176
1443115604773744317	-4.9630127	13.077286	2.0035553
1443115604782136651	-3.74115	13.536667	1.387619
1443115604790528985	-2.8286133	13.063141	0.025909424
1443115604798921319	-1.5742493	12.097702	-1.6088867
1443115604807313653	-0.53601074	11.378738	-0.8348999
1443115604815705987	0.24902344	10.927826	0.93774414
1443115604824098321	0.59854126	10.796417	2.8621063
1443115604832490655	0.59303284	11.140045	4.1035004
1443115604840882989	0.62394714	11.831757	4.166931
1443115604849275323	1.0270844	12.16127	3.3012695
1443115604857667657	-0.37225342	11.663635	2.4736023
1443115604866059991	-1.5623169	11.050583	2.0776062
1443115604874452325	-1.8944244	10.454224	1.6943817
1443115604882844659	-1.330658	9.673309	1.3540039
1443115604891236993	-0.6912384	8.829315	0.82777405
1443115604899629327	-0.5223999	8.149902	0.054382324
1443115604908021661	-0.28826904	7.6330566	-0.5711365
1443115604916413995	-0.056930542	6.9421387	-1.387497
1443115604924806329	0.30743408	6.4292145	-1.9205627
1443115604933198663	0.2115326	5.9697723	-1.9308624
1443115604941590997	-0.034454346	5.5150604	-1.2781982
1443115604949983331	-0.33599854	5.063156	-0.41679382
1443115604958375665	-0.6880951	4.615082	0.2578125
1443115604966767999	-0.98405457	4.149414	0.8908386
1443115604975160333	-1.1248932	3.6682281	1.7236481
1443115604983552667	-1.6190033	3.5227203	2.100769
1443115604991945001	-1.5708008	3.4041138	2.3500519
1443115605000337335	-1.4683838	3.5404663	2.3102722
1443115605008729669	-1.4309387	3.9396973	2.0826263
1443115605017122003	-1.4217834	4.486038	1.923706
1443115605025514337	-1.4558563	5.0471954	1.9916687
1443115605033906671	-1.4157562	5.42247	1.9238129
1443115605042299005	-1.6252594	5.7937775	1.8917542
1443115605050691339	-1.9184265	6.000519	2.0790405
1443115605059083673	-2.1036224	6.0091553	2.3696442
1443115605067476007	-2.1917877	5.867737	2.6291199
1443115605075868341	-2.2437134	5.6911774	2.8417664
1443115605084260675	-2.2725372	5.6147003	3.087799
1443115605092653009	-2.2663574	5.7062073	3.2944489
1443115605101045343	-2.1801605	5.829132	3.4990997
1443115605109437677	-2.1772614	6.0851593	3.801712
1443115605117830011	-2.1568146	6.5371094	4.283264
1443115605126222345	-1.8797913	7.419586	4.9473724
1443115605134614679	-1.3374176	8.97081	5.968521
1443115605143007013	-0.90838623	11.286499	7.6521454
1443115605151399347	-1.2648315	14.214127	10.075378
1443115605159791681	-1.2494049	17.545395	12.454559
1443115605168184015	0.018295288	20.00264	13.193665
1443115605176576349	1.476593	20.285767	12.185059
1443115605184968683	1.8884583	18.36264	10.583008
1443115605193361017	1.2786865	15.059433	9.189804
1443115605201753350	0.53811646	11.135498	8.182617
1443115605210145684	0.22003174	7.601181	7.036377
1443115605218538018	0.3927765	5.6682434	5.615448
1443115605226930352	0.015808105	4.7552795	4.8033447
1443115605235322686	-0.686676	4.5629425	4.813858
1443115605243715020	-1.6599121	4.953827	5.246994
1443115605252107354	-2.7776947	5.9667816	5.583206
1443115605260499688	-3.6143646	7.296829	5.4911957
1443115605268892022	-3.9714203	8.914795	5.3771667
1443115605277284356	-4.0704346	11.227814	5.6480865
1443115605285676690	-4.0390778	12.96254	5.747757
1443115605294069024	-3.68161	14.718689	4.621643
1443115605302461358	-3.2206726	16.045746	2.59346
1443115605310853692	-2.5284271	16.307648	1.0002594
1443115605319246026	-1.5012207	15.1093445	0.4016571
1443115605327638360	-1.0834198	12.430496	0.43717957
1443115605336030694	-1.7030487	8.841873	0.32788086
1443115605344423028	-2.2739716	5.6658783	0.39126587
1443115605352815362	-2.9927979	3.812683	0.8697357
1443115605361207696	-3.9942627	2.9631042	1.4198608
1443115605369600030	-4.624634	2.353592	1.7599182
1443115605377992364	-3.7964783	1.6637115	1.9958496
1443115605386384698	-2.7898865	1.7027893	1.841629
1443115605394777032	-1.2394714	2.8473358	0.87112427
1443115605403169366	0.32052612	4.634033	0.041000366
1443115605411561700	2.1425934	7.0005646	-0.97546387
1443115605419954034	3.8814392	10.014038	-2.3174438
1443115605428346368	5.1271667	13.467026	-3.8321838
1443115605436738702	5.73851	16.706253	-4.982437
1443115605445131036	5.600754	18.81604	-4.5321045
1443115605453523370	4.4009094	18.559357	-1.622757
1443115605461915704	4.2259216	16.388992	1.2711029
1443115605470308038	4.318451	13.509171	2.8833923
1443115605478700372	3.6889496	10.689499	2.995346
1443115605487092706	2.2671356	8.610168	2.1974792
1443115605495485040	0.89482117	7.747406	1.3861389
1443115605503877374	-0.038757324	7.6127167	1.0005646
1443115605512269708	-1.0071564	7.260849	0.039276123
1443115605520662042	-2.0604553	7.250656	-0.90270996
1443115605529054376	-2.4682922	7.10907	-1.3024292
1443115605537446710	-2.5962982	6.933441	-1.257843
1443115605545839044	-2.4249115	6.730713	-1.082077
1443115605554231378	-1.7309418	6.4691467	-0.9017792
1443115605562623712	-1.693512	6.746414	-0.32844543
1443115605571016046	-1.139328	7.3489075	-0.54745483
1443115605579408380	-0.6708832	7.9496765	-0.97291565
1443115605587800714	-0.050704956	8.500656	-1.3285675
1443115605596193048	0.49623108	8.8832245	-1.2569733
1443115605604585382	0.8009033	9.072006	-0.79800415
1443115605612977716	0.8841553	9.113434	-0.31019592
1443115605621370050	0.8357544	8.995728	-0.034866333
1443115605629762384	0.7545166	8.863083	-0.37416077
1443115605638154718	0.5705414	8.789429	-0.3971405
1443115605646547052	0.33190918	8.656479	-0.3224182
1443115605654939386	0.062438965	8.483353	-0.20730591
1443115605663331720	-0.17378235	8.299957	-0.09008789
1443115605671724054	-0.28556824	8.145035	-0.03578186
1443115605680116388	-0.20645142	8.100204	-0.12486267
1443115605688508722	0.044418335	8.120773	-0.2071228
1443115605696901056	0.35095215	8.31102	-0.20817566
1443115605705293390	0.59310913	8.691711	-0.22050476
1443115605713685724	0.8914795	9.136337	-0.07696533
1443115605722078058	1.1507263	9.595184	0.15596008
1443115605730470392	1.2322693	9.975388	0.35620117
1443115605738862725	1.2315521	10.006195	0.63375854
1443115605747255059	0.93029785	9.814941	0.7304077
1443115605755647393	0.8617859	9.598587	0.5226288
1443115605764039727	0.5414734	9.968399	-0.045669556
1443115605772432061	0.2344513	10.736343	-0.42578125
1443115605780824395	-1.5258789E-5	11.527603	-0.5395355
1443115605789216729	-0.12966919	11.930084	-0.55148315
1443115605797609063	0.11416626	11.669876	-0.4758911
1443115605806001397	0.6714325	11.430313	-0.6527252
1443115605814393731	0.89442444	11.242996	-0.89131165
1443115605822786065	0.57247925	11.8367	-1.3123627
1443115605831178399	0.54771423	12.098419	-1.0417175
1443115605839570733	0.6986847	11.981934	-0.084609985
1443115605847963067	0.58576965	11.811462	1.1308594
1443115605856355401	0.6392212	11.191483	1.6171722
1443115605864747735	0.618454	10.697601	1.1709747
1443115605873140069	0.62571716	10.737244	0.49635315
1443115605881532403	0.6468811	11.677841	0.28434753
1443115605889924737	0.7076874	12.807419	0.5251465
1443115605898317071	0.7974396	13.773575	0.769989
1443115605906709405	0.92344666	14.707443	0.67637634
1443115605915101739	1.162796	15.764969	0.068847656
1443115605923494073	1.5154572	16.477478	-0.52337646
1443115605931886407	2.2263641	15.973053	-0.9828949
1443115605940278741	1.8353882	14.384506	-1.0801239
1443115605948671075	0.41732788	12.525711	-0.49072266
1443115605957063409	-1.1271667	10.805267	0.3826294
1443115605965455743	-2.0019073	9.192398	0.764801
1443115605973848077	-2.526001	7.9614716	0.70069885
1443115605982240411	-2.9999847	7.6283417	0.81996155
1443115605990632745	-3.6556091	8.336365	1.1102448
1443115605999025079	-4.5908966	9.912659	1.4781952
1443115606007417413	-4.8430786	11.609131	1.8596344
1443115606015809747	-4.3630066	12.833923	1.982193
1443115606024202081	-3.7399597	13.354431	1.4694519
1443115606032594415	-2.825653	13.178711	0.15710449
1443115606040986749	-1.3872528	12.373642	-1.2093353
1443115606049379083	-0.93325806	11.801132	0.135849
1443115606057771417	-0.8594818	11.403198	1.6313324
1443115606066163751	-0.9115448	11.273239	2.3506012
1443115606074556085	-0.6845856	11.347565	2.3960114
1443115606082948419	-0.2513275	11.50766	2.2873077
1443115606091340753	-0.7398224	11.760193	2.3005219
1443115606099733087	-1.2456818	11.663544	2.7015076
1443115606108125421	-1.5215912	10.898315	2.7552643
1443115606116517755	-1.9187012	10.406189	2.1231842
1443115606124910089	-1.740982	10.059525	1.3660583
1443115606133302423	-1.106247	9.642838	0.6922302
1443115606141694757	-0.55407715	9.116592	-0.09564209
1443115606150087091	-0.20515442	8.627304	-1.1786652
1443115606158479425	-0.029327393	8.080307	-1.497406
1443115606166871759	0.17192078	7.5559387	-2.1807556
1443115606175264093	0.27178955	6.754257	-2.012024
1443115606183656427	0.16255188	6.01886	-1.422821
1443115606192048761	-0.39335632	5.5660706	-0.89585876
1443115606200441095	-1.213974	5.2644806	-0.47763062
1443115606208833429	-1.5668335	4.733017	0.22332764
1443115606217225763	-2.119995	4.2024994	0.9975281
1443115606225618097	-2.1283417	3.6959686	1.3499146
1443115606234010431	-2.3267975	3.4138794	1.778183
1443115606242402765	-2.4875793	3.2297974	2.3383026
1443115606250795099	-2.3392792	3.0845642	2.7659302
1443115606259187433	-1.883194	2.9956055	2.8335724
1443115606267579767	-1.4147949	3.0376282	2.6289215
1443115606275972100	-0.9654846	3.422165	2.5487213
1443115606284364434	-0.7042389	3.8243256	2.481247
1443115606292756768	-0.7030487	4.170578	2.4379578
1443115606301149102	-0.8575897	4.4077606	2.6292267
1443115606309541436	-1.0040283	4.538376	2.9747772
1443115606317933770	-1.0643768	4.6137238	3.3880157
1443115606326326104	-1.0824738	4.702118	3.903244
1443115606334718438	-1.0516205	4.823456	4.3597565
1443115606343110772	-1.1305847	5.0296173	4.7942963
1443115606351503106	-1.3132629	5.193512	5.2530823
1443115606359895440	-1.5311737	5.6934814	5.7866516
1443115606368287774	-1.501648	7.0062714	6.522156
1443115606376680108	-0.95402527	9.423279	7.3063507
1443115606385072442	0.021713257	12.944046	7.99765
1443115606393464776	0.45561218	17.413483	9.717773
1443115606401857110	0.7410126	22.481903	11.537552
1443115606410249444	2.1900482	25.410583	11.734879
1443115606418641778	2.968933	24.16536	10.854691
1443115606427034112	2.4578552	19.32071	10.003937
1443115606435426446	1.3589325	13.198166	9.564926
1443115606443818780	0.9073334	8.249634	8.936096
1443115606452211114	1.2791901	4.8296356	7.349243
1443115606460603448	1.1825409	3.0540009	6.1308746
1443115606468995782	0.45269775	2.6531525	5.9238586
1443115606477388116	-0.17243958	3.4721222	6.032013
1443115606485780450	-0.84262085	5.3029633	5.9072266
1443115606494172784	-1.7461853	8.078369	5.262329
1443115606502565118	-2.5234985	11.099152	4.3768463
1443115606510957452	-2.6880035	14.322922	3.0935059
1443115606519349786	-3.756363	18.129547	0.026916504
1443115606527742120	-4.7317505	20.53975	-3.0336304
1443115606536134454	-3.5069885	18.495941	-3.0274353
1443115606544526788	-1.8852234	13.585388	-1.7664795
1443115606552919122	-1.3800354	7.8354645	-0.5880585
1443115606561311456	-1.9057922	4.635254	0.61338806
1443115606569703790	-1.5202332	4.421402	2.6738434
1443115606578096124	-2.613388	3.5582733	3.179306
1443115606586488458	-4.0478516	2.1464539	3.4049988
1443115606594880792	-4.2954254	0.9840088	2.6756134
1443115606603273126	-3.4558105	0.7437744	1.4587402
1443115606611665460	-2.065445	1.6490326	0.24223328
1443115606620057794	-0.16885376	3.4980621	-1.4491119
1443115606628450128	0.88500977	6.483856	-3.744995
1443115606636842462	1.7357178	10.553528	-6.208084
1443115606645234796	2.360077	15.945343	-7.9694366
1443115606653627130	3.335144	20.250336	-7.160843
1443115606662019464	4.5156555	20.942291	-3.4598236
1443115606670411798	5.0722046	18.107742	1.2219849
1443115606678804132	4.1355896	14.677429	3.7622833
1443115606687196466	2.4236908	11.456177	3.8609772
1443115606695588800	1.3894958	9.581406	3.2978363
1443115606703981134	0.5108185	8.344727	2.1750793
1443115606712373468	-0.5728607	7.4446106	0.7701416
1443115606720765802	-1.9711304	7.0597534	-0.2618103
1443115606729158136	-3.3953857	7.045044	-0.5457001
1443115606737550470	-4.2428894	6.797165	-0.3455963
1443115606745942804	-3.980713	6.2769165	-0.41963196
1443115606754319161	-4.242447	5.9414063	-0.23625183
1443115606762711495	-4.0066223	6.224228	0.22277832
1443115606771103829	-3.4925232	6.6874695	0.15852356
1443115606779496163	-2.5912323	7.3529663	-0.43423462
1443115606787888497	-1.4786224	8.234924	-1.1773376
1443115606796280831	-0.6087799	9.110992	-1.5854797
1443115606804673165	0.066726685	9.635361	-1.1053314
1443115606813065498	0.69184875	9.84407	-0.078186035
1443115606821457832	1.0452423	9.739777	0.5112457
1443115606829850166	1.3184967	9.220795	0.52949524
1443115606838242500	1.4744568	8.58902	0.23982239
1443115606846634834	1.5079498	8.176239	-0.109069824
1443115606855027168	1.5358124	8.116882	-0.38246155
1443115606863419502	1.7216797	8.268295	-0.40344238
1443115606871811836	1.6733551	8.489349	-0.55766296
1443115606880204170	1.7541962	8.492508	-0.5089264
1443115606888596504	1.8115387	8.573654	-0.4547882
1443115606896988838	1.7298279	8.875977	-0.4532318
1443115606905381172	1.6287994	9.232468	-0.37013245
1443115606913773506	1.6423645	9.401703	-0.094177246
1443115606922165840	1.5106812	9.502808	0.13322449
1443115606930558174	1.5404968	9.477112	0.3378296
1443115606938950508	1.5900574	9.311432	0.56396484
1443115606947342842	1.6585388	9.245621	0.8450165
1443115606955735176	1.6752625	9.265625	0.9986725
1443115606964127510	1.4777222	9.491486	0.9032593
1443115606972519844	0.965744	10.163422	0.5700989
1443115606980912178	0.30944824	11.381912	0.13110352
1443115606989304512	0.021560669	12.014236	0.03137207
1443115606997696846	-0.03642273	12.365341	-0.12423706
1443115607006089180	0.30540466	12.456955	-0.30911255
1443115607014481514	0.7674713	12.574249	-0.5974426
1443115607022873848	1.1546783	12.691666	-0.7101288
1443115607031266182	1.378418	12.653687	-0.22077942
1443115607039658516	1.352417	12.494858	1.0202484
1443115607048050850	1.1652832	11.936569	2.445282
1443115607056443184	0.83421326	11.107208	2.841217
1443115607064835518	0.717926	10.685318	2.3838959
1443115607073227852	0.7368164	10.794464	1.7983704
1443115607081620186	0.7258301	11.35437	1.4517365
1443115607090012520	0.58377075	12.27034	1.4911041
1443115607098404854	0.5705719	12.995758	1.6218872
1443115607106797188	0.88827515	13.294952	1.3124084
1443115607115189522	1.1324005	13.68074	0.47257996
1443115607123581856	1.291153	14.399658	-0.23318481
1443115607131974190	1.4483643	14.672638	-0.833786
1443115607140366524	1.5167694	14.085556	-1.288971
1443115607148758858	1.2320557	12.731552	-1.355896
1443115607157151192	0.34835815	10.913834	-0.8258972
1443115607165543526	-1.0180664	9.516556	0.035720825
1443115607173935860	-2.017044	8.166916	0.2061615
1443115607182328194	-2.8621979	7.84169	0.32388306
1443115607190720528	-3.6243286	8.369507	0.5298157
1443115607199112862	-4.4075775	9.359558	0.8305664
1443115607207505196	-5.068207	10.564423	1.1651001
1443115607215897530	-4.6835327	11.747574	1.3000488
1443115607224289864	-3.633789	12.347	0.8055115
1443115607232682198	-2.8131409	12.404572	0.082717896
1443115607241074532	-1.6816406	11.95047	-0.7128296
1443115607249466866	-0.9202118	11.287674	-0.56495667
1443115607257859200	-0.7552643	10.740997	0.6153412
1443115607266251534	-0.7953491	10.476532	1.9278564
1443115607274643868	-0.90715027	10.405045	2.6614075
1443115607283036202	-1.1127777	10.624039	2.9636688
1443115607291428536	-1.518631	11.328873	2.490036
1443115607299820870	-1.4930725	11.52478	1.8098755
1443115607308213204	-1.7280426	11.278671	1.2017059
1443115607316605538	-2.3602142	10.742386	0.7886505
1443115607324997872	-2.8038788	10.008133	0.4484253
1443115607333390206	-2.553711	9.330795	-0.2409668
1443115607341782540	-3.1675262	9.113846	-0.6090393
1443115607350174873	-3.630539	9.40567	-1.3487091
1443115607358567207	-3.146103	9.333664	-1.6354218
1443115607366959541	-2.582962	9.003723	-1.2441406
1443115607375351875	-2.500702	8.70105	-0.62454224
1443115607383744209	-2.653885	8.507202	-0.34753418
1443115607392136543	-2.2744904	8.147095	-0.37643433
1443115607400528877	-1.9979095	7.56308	0.048202515
1443115607408921211	-1.9531555	6.9151154	0.5525665
1443115607417313545	-2.094513	6.4810333	0.73851013
1443115607425705879	-2.0832367	5.9539795	0.9011688
1443115607434098213	-1.8947144	5.3068237	1.1303864
1443115607442490547	-1.5793457	4.6464844	1.312088
1443115607450882881	-1.0202789	3.9376373	1.3445282
1443115607459275215	-0.97091675	3.4605713	1.2252502
1443115607467667549	-0.967926	3.3902435	1.206253
1443115607476059883	-0.8126373	3.361496	1.3040619
1443115607484452217	-0.8270111	3.3658447	1.7133789
1443115607492844551	-1.0198975	3.3866882	2.2748566
1443115607501236885	-1.2385406	3.3909912	2.7228088
1443115607509629219	-1.4279327	3.3626404	3.0046692
1443115607518021553	-1.6191711	3.2927246	3.3604126
1443115607526413887	-1.7563934	3.253662	3.7151947
1443115607534806221	-1.8127899	3.332138	4.1495514
1443115607543198555	-1.7952118	3.5585175	4.5794525
1443115607551590889	-1.7172546	3.9266815	4.9609375
1443115607559983223	-1.6209259	4.432022	5.296173
1443115607568375557	-1.5552521	5.148407	5.638916
1443115607576767891	-1.4226227	6.4510956	6.187958
1443115607585160225	-1.1247864	8.915039	7.246353
1443115607593552559	-1.0248108	12.251938	8.715134
1443115607601944893	-1.0102386	16.31224	10.986923
1443115607610337227	-0.43721008	20.682266	12.9895935
1443115607618729561	0.7865448	23.975952	13.297821
1443115607627121895	1.8696289	24.031021	11.529007
1443115607635514229	2.250061	19.574936	9.937393
1443115607643906563	1.8539429	13.483627	9.405899
1443115607652298897	1.1649017	8.446793	8.985474
1443115607660691231	0.42160034	4.6846924	7.8551025
1443115607669083565	-0.24353027	2.3614655	6.173111
1443115607677475899	-0.9266815	1.6307983	4.851288
1443115607685868233	-1.8038635	2.5679626	4.7758026
1443115607694260567	-2.6263885	5.0612793	5.408127
1443115607702652901	-2.9212341	8.777359	5.8312073
1443115607711045235	-2.7084198	12.63623	6.6048126
1443115607719437569	-2.0776978	16.34755	7.0192566
1443115607727829903	-1.7627258	19.537918	5.533661
1443115607736222237	-1.9729309	21.18312	2.3723297
1443115607744614571	-2.179184	19.823318	-0.21154785
1443115607753006905	-1.8694	14.565292	-0.04109192
1443115607761399239	-2.5582733	8.375732	-1.8506622
1443115607769791573	-4.54599	3.7890472	-2.0730438
1443115607778183907	-6.474762	1.2555542	-0.54589844
1443115607786576241	-6.7409515	-0.07814026	1.41362
1443115607794968575	-5.7610474	-0.9077606	2.9049225
1443115607803360909	-4.96196	-1.2276917	3.7715454
1443115607811753243	-3.662674	-0.52389526	3.8492432
1443115607820145577	-1.6536407	1.0214539	3.7752228
1443115607828537911	0.5671692	3.808075	2.2952728
1443115607836930245	2.3605347	7.276932	-1.3710022
1443115607845322579	3.076294	11.389679	-5.4052124
1443115607853714913	2.8333893	15.654022	-7.33255
1443115607862107247	2.4290314	19.117172	-5.839798
1443115607870499581	2.6813965	20.973495	-2.2047577
1443115607878891915	3.8590698	21.209183	1.8100586
1443115607887284248	4.470764	19.340317	3.3624878
1443115607895676582	4.725601	16.001022	3.2602844
1443115607904068916	4.4595337	12.45079	2.3703308
1443115607912461250	3.7190247	9.757996	1.6786804
1443115607920853584	2.3904724	8.229797	1.3164368
1443115607929245918	0.599411	7.775345	0.8301239
1443115607937638252	-0.2256012	7.0125427	0.2559662
1443115607946030586	-1.3767242	6.3939056	-0.7694855
1443115607954422920	-2.5703583	6.2104187	-1.1248016
1443115607962815254	-3.3096771	6.352997	-0.8160248
1443115607971207588	-3.5944672	6.551605	0.047210693
1443115607979599922	-3.821289	6.5829315	1.6520996
1443115607987992256	-3.0419464	6.269348	2.7923431
1443115607996384590	-1.9413757	6.3098145	1.9644623
1443115608004776924	-1.6346893	7.0389557	0.26104736
1443115608013169258	-1.2154236	8.013077	-1.0550537
1443115608021561592	-0.7078705	8.892395	-1.8839111
1443115608029953926	-0.31384277	9.454956	-1.8954926
1443115608038346260	0.0046844482	9.548325	-0.5294037
1443115608046738594	0.13423157	9.01265	0.62934875
1443115608055130928	0.32254028	8.21759	0.44662476
1443115608063523262	0.56326294	7.3274536	-0.23501587
1443115608071915596	0.6392212	6.777527	-1.0794067
1443115608080307930	0.5012665	6.600174	-1.729126
1443115608088700264	0.23295593	6.6846466	-1.9805603
1443115608097092598	9.3078613E-4	6.9250946	-1.8346863
1443115608105484932	0.0017547607	7.2160645	-1.4024353
1443115608113877266	0.23001099	7.5049896	-0.85443115
1443115608122269600	0.5161133	8.028809	-0.24768066
1443115608130661934	0.75135803	8.769836	0.27844238
1443115608139054268	1.0271149	9.400986	0.7221832
1443115608147446602	1.2901764	9.701035	0.95921326
1443115608155838936	1.4255371	9.698761	0.8710022
1443115608164231270	1.6326447	9.59288	0.7473297
1443115608172623604	1.0753632	9.949661	0.6105957
1443115608181015938	0.8816223	10.1723175	0.7402954
1443115608189408272	0.6508484	10.511337	0.6976929
1443115608197800606	0.23654175	11.087067	0.46984863
1443115608206192940	-0.23765564	11.7859955	0.28137207
1443115608214585274	-0.52983093	12.321182	0.33424377
1443115608222977608	-0.5263519	12.426224	0.5323639
1443115608231369942	-0.06881714	12.387146	0.79660034
1443115608239762276	0.18328857	12.494049	0.89505005
1443115608248154610	0.5580902	12.158417	1.4471436
1443115608256546944	-0.09779358	13.058746	1.2961731
1443115608264939278	-0.60292053	14.178696	0.79985046
1443115608273331612	0.54922485	13.703842	0.91137695
1443115608281723946	1.5879059	12.983215	0.93492126
1443115608290116280	1.5149078	12.947235	0.32418823
1443115608298508614	1.45755	13.0078125	-0.2295227
1443115608306900948	1.6056671	13.39917	-0.38723755
1443115608315293282	1.894104	13.905197	-0.32754517
1443115608323685616	2.2120361	14.471237	-0.40142822
1443115608332077950	2.5717316	15.1080475	-0.7828064
1443115608340470284	3.1273346	15.63385	-1.2743073
1443115608348862618	3.302124	15.62973	-2.077301
1443115608357254952	2.3751984	14.121338	-1.8442993
1443115608365647286	0.58584595	12.275757	-0.79130554
1443115608374039620	-0.9490967	10.574905	0.2774353
1443115608382431954	-2.137741	9.691116	0.8584595
1443115608390824288	-3.230667	9.906631	1.0227203
1443115608399216622	-4.0033875	10.673447	1.2916718
1443115608407608956	-4.8506165	11.6944275	1.6648865
1443115608416001290	-5.2920074	12.815887	2.1424408
1443115608424393623	-4.424515	13.443085	1.875946
1443115608432785957	-3.067337	13.348373	0.12651062
1443115608441178291	-1.7297211	12.439362	-1.668457
1443115608449570625	-0.82032776	11.216171	-1.5223389
1443115608457962959	-0.7957001	10.738586	0.9602051
1443115608466355293	-1.176117	11.058258	2.2491455
1443115608474747627	-0.5110626	11.246826	2.8062897
1443115608483139961	0.5480499	11.339767	2.9508057
1443115608491532295	0.77583313	11.334625	2.7455444
1443115608499924629	0.19325256	11.303787	2.313202
1443115608508316963	-0.8536682	11.246353	1.7882233
1443115608516709297	-1.5272522	10.808105	1.4210663
1443115608525101631	-1.6670685	9.978378	1.490982
1443115608533493965	-1.9570923	9.329651	1.4694061
1443115608541886299	-1.8629913	8.822556	0.68870544
1443115608550278633	-1.7015686	8.431168	-0.2654419
1443115608558670967	-1.3824768	7.9979706	-1.1122437
1443115608567063301	-0.8542175	7.397705	-1.7066345
1443115608575455635	-0.73638916	6.7712555	-2.0146332
1443115608583847969	-0.7826538	6.5913086	-2.6736755
1443115608592240303	-0.8450012	6.3613434	-2.9011383
1443115608600632637	-0.6486664	6.015045	-2.1881409
1443115608609024971	-0.5271301	5.6322327	-1.2499695
1443115608617417305	-0.6905365	5.223114	-0.4192505
1443115608625809639	-1.0743561	4.7360992	0.39582825
1443115608634201973	-1.468399	4.1559143	1.0668793
1443115608642594307	-1.5413971	3.3590698	1.3866425
1443115608650986641	-2.0422516	3.1643372	1.4382019
1443115608659378975	-2.3779755	3.2968292	1.4534454
1443115608667771309	-2.643692	3.572876	1.50354
1443115608676163643	-2.9190521	3.9492188	1.5335999
1443115608684555977	-3.1808014	4.4067993	1.468399
1443115608692948311	-3.397461	4.8049774	1.3476715
1443115608701340645	-3.527008	5.0404205	1.4566498
1443115608709732979	-3.4787445	5.0254364	1.4399567
1443115608718125313	-3.5042114	5.033127	1.4848785
1443115608726517647	-3.6033936	5.0821686	1.7418976
1443115608734909981	-3.6438599	5.0565186	2.1580963
1443115608743302315	-3.6219788	4.958542	2.7185974
1443115608751694649	-3.7833862	5.0555267	3.6313324
1443115608760086983	-3.8800354	5.37117	4.756134
1443115608768479317	-3.595871	5.854904	5.8932953
1443115608776871651	-2.9575043	7.0065765	6.8751984
1443115608785263985	-1.8707886	8.960159	8.120453
1443115608793656319	-0.6110077	11.417267	9.868332
1443115608802048653	0.5788269	14.0468445	11.681442
1443115608810440987	1.7958984	16.664948	12.491806
1443115608818833321	3.0019379	18.248322	12.082596
1443115608827225655	3.479782	17.784622	11.011047
1443115608835617989	2.970932	15.659073	10.1306
1443115608844010323	2.3086243	12.928406	9.567764
1443115608852402657	1.8658905	10.320816	9.143204
1443115608860794991	1.5822906	8.310287	8.725037
1443115608869187325	1.2064514	7.310913	8.362946
1443115608877579659	0.5350647	7.8640747	7.868393
1443115608885971993	-0.7009125	8.996628	7.846649
1443115608894364327	-1.517456	10.261398	7.563751
1443115608902756661	-2.170639	11.652023	7.151779
1443115608911148995	-2.6577606	12.992615	6.803528
1443115608919541329	-2.6836395	14.160828	6.257843
1443115608927933663	-2.0428772	15.091766	4.8524933
1443115608936325997	-1.5812378	15.291229	2.4712677
1443115608944718331	-1.6435852	13.187561	0.7095642
1443115608953110665	-2.3532562	9.006653	-0.19413757
1443115608961502998	-3.4894104	4.900543	-1.7374878
1443115608969895332	-4.312744	2.4957428	-2.285141
1443115608978287666	-4.8023224	2.2021942	-0.79216003
1443115608986680000	-5.3703003	2.94339	1.685318
1443115608995072334	-4.655716	2.2750702	3.5884552
1443115609003464668	-4.431839	1.0074921	4.2049103
1443115609011857002	-3.8861237	1.1529541	4.945099
1443115609020249336	-2.4340515	2.6387024	4.0703583
1443115609028641670	-0.6931915	5.1061096	1.05896
1443115609037034004	0.57128906	8.22229	-3.1228943
1443115609045426338	0.96803284	11.770905	-6.584015
1443115609053818672	0.49267578	15.520996	-7.790039
1443115609062211006	0.4124756	17.693512	-5.511627
1443115609070603340	0.9272003	18.190643	-1.9576416
1443115609078995674	1.8174896	17.5074	1.0489044
1443115609087388008	2.827057	16.105286	2.7525635
1443115609095780342	3.456009	14.388931	3.227707
1443115609104172676	2.855011	12.583435	2.5419617
1443115609112565010	1.5718536	10.752731	1.4565735
1443115609120957344	0.5858307	9.580627	0.77388
1443115609129349678	-0.3182068	9.042145	0.077697754
1443115609137742012	-1.106781	8.521515	-0.47146606
1443115609146134346	-1.8400269	7.805908	-0.96040344
1443115609154526680	-2.531128	7.1119385	-1.3977966
1443115609162919014	-2.9450836	6.976944	-1.431366
1443115609171311348	-2.4865265	6.4895935	-0.62117004
1443115609179703682	-1.9559021	6.543213	-0.24241638
1443115609188096016	-1.2783508	6.9580994	-0.19741821
1443115609196488350	-0.8152466	7.6339264	-0.20269775
1443115609204880684	-0.3552704	8.349319	-0.30255127
1443115609213273018	0.31210327	8.905762	-0.66915894
1443115609221665352	0.93341064	9.280258	-1.2384796
1443115609230057686	1.143158	9.734711	-1.0873413
1443115609238450020	1.4430237	9.389847	-0.25346375
1443115609246842354	1.0991211	8.817093	0.014755249
1443115609255234688	0.8269501	8.418457	-0.3531494
1443115609263627022	0.81832886	7.964279	-0.9685211
1443115609272019356	0.80233765	7.35408	-1.4224548
1443115609280411690	0.41601563	7.0086517	-1.5958405
1443115609288804024	-0.18032837	7.377762	-1.7469788
1443115609297196358	-0.002029419	7.3795013	-1.5237885
1443115609305588692	-0.03540039	7.2507324	-1.2827301
1443115609313981026	-0.37167358	7.4699707	-1.0883942
1443115609322373360	-0.649704	7.923355	-0.684906
1443115609330765694	-0.43225098	8.316711	-0.05870056
1443115609339158028	0.3415985	8.500961	0.45082092
1443115609347550362	0.7939911	8.578079	0.7068329
1443115609355942696	1.1924896	8.598251	1.2119904
1443115609364335030	1.5352173	8.359787	1.4916077
1443115609372727364	2.0343628	8.253876	1.1813049
1443115609381119698	2.5543365	8.441299	0.40112305
1443115609389512032	2.934143	9.022583	-0.5460663
1443115609397904366	3.0865936	9.955795	-1.3286896
1443115609406296700	2.8574371	10.713882	-1.5698547
1443115609414689034	2.786499	10.95549	-0.6259918
1443115609423081368	2.6331482	11.3159485	0.25975037
1443115609431473702	2.1652985	11.812393	0.8375702
1443115609439866036	1.7806549	12.361404	1.0823364
1443115609448258370	1.6134949	12.902878	1.2788086
1443115609456650704	1.4807129	13.38768	1.7186737
1443115609465043038	1.4411774	13.67186	2.1415253
1443115609473435372	1.6200714	13.617371	1.9451447
1443115609481827706	1.5685883	13.810089	1.3331909
1443115609490220040	1.4105377	13.951294	1.0171051
1443115609498612373	1.2630463	14.343811	1.0440521
1443115609507004707	1.3027496	15.015823	1.0887146
1443115609515397041	1.4875946	15.679169	0.8306732
1443115609523789375	1.2561188	16.137909	0.34458923
1443115609532181709	1.3147278	16.577957	-0.31651306
1443115609540574043	1.2828522	16.127716	-0.887146
1443115609548966377	0.7842102	14.628769	-1.1935577
1443115609557358711	-0.2131958	12.637619	-0.88648987
1443115609565751045	-1.350174	10.802124	-0.28808594
1443115609574143379	-2.1436005	9.55603	0.042633057
1443115609582535713	-2.4213715	9.015747	0.11376953
1443115609590928047	-3.0917358	9.482529	0.016082764
1443115609599320381	-3.9985046	10.732437	0.547287
1443115609607712715	-4.2198944	12.301437	0.83335876
1443115609616105049	-4.132843	13.482361	0.5313721
1443115609624497383	-4.226822	13.923355	0.13253784
1443115609632889717	-4.488098	13.644012	0.42907715
1443115609641282051	-4.228241	12.850098	1.5930023
1443115609649674385	-3.403656	11.81781	1.3740082
1443115609658066719	-2.4688263	10.91745	1.1126099
1443115609666459053	-1.5161438	10.392426	0.9773712
1443115609674851387	-1.0642853	10.347565	0.83784485
1443115609683243721	-1.3070831	10.766037	0.9799652
1443115609691636055	-1.6295166	11.120041	1.5907135
1443115609700028389	-1.6234741	10.979248	2.2180939
1443115609708420723	-1.1937103	10.092987	2.5450592
1443115609716813057	-1.7167511	9.523087	2.7647552
1443115609725205391	-1.9264984	9.217224	2.6077423
1443115609733597725	-1.7808685	9.456284	1.6840973
1443115609741990059	-1.0534668	9.580261	0.49420166
1443115609750382393	0.08761597	9.124817	-0.3020172
1443115609758774727	0.7391205	8.421005	-0.41978455
1443115609767167061	0.2935791	7.914917	-1.2297363
1443115609775559395	0.360672	7.715637	-2.0310974
1443115609783951729	1.0292358	7.183548	-1.8381958
1443115609792344063	0.99198914	6.627243	-1.4336548
1443115609800736397	0.23771667	6.169571	-0.85910034
1443115609809128731	-0.6314087	5.729706	-0.021270752
1443115609817521065	-0.96481323	5.074005	0.9294586
1443115609825913399	-1.7009735	4.710037	1.3067932
1443115609834305733	-2.1920013	4.270508	1.7236633
1443115609842698067	-2.5184174	3.8635712	1.9561768
1443115609851090401	-2.675476	3.6114197	2.1471252
1443115609859482735	-2.6787415	3.5444946	2.4424744
1443115609867875069	-2.4663239	3.53833	2.7587433
1443115609876267403	-1.7710724	3.3326569	2.7129822
1443115609884659737	-1.6425476	3.398468	2.9258118
1443115609893052071	-1.4826355	3.587204	3.3252869
1443115609901444405	-1.2896881	3.8303223	3.6477203
1443115609909836739	-1.1989288	4.065384	3.8550415
1443115609918229073	-1.3227692	4.277771	4.068405
1443115609926621407	-1.5258484	4.453476	4.363617
1443115609935013741	-1.3438416	4.5216217	4.6063995
1443115609943406075	-1.6070557	4.6480713	5.5286713
1443115609951798409	-1.59729	4.9394226	6.2860413
1443115609960190743	-1.8517151	5.3421783	6.5499115
1443115609968583077	-2.4692535	5.9877777	6.2300415
1443115609976975411	-3.420517	7.016571	5.3813934
1443115609985367745	-4.513214	8.5159	4.214493
1443115609993760079	-5.328644	10.478531	3.0873413
1443115610002152413	-5.371826	12.6623535	2.336792
1443115610010544747	-4.678467	14.73027	2.5928955
1443115610018937081	-3.9574432	16.051575	3.5758514
1443115610027329415	-3.585907	16.323898	5.163864
1443115610035721748	-3.4005737	15.407806	7.024048
1443115610044114082	-3.1378326	13.423508	8.765671
1443115610052506416	-2.8615417	10.7885895	10.105743
1443115610060898750	-2.526352	7.8788757	10.534485
1443115610069291084	-1.9890442	5.767151	9.896393
1443115610077683418	-1.0582275	4.3335724	9.00502
1443115610086075752	-0.070373535	3.382309	8.436249
1443115610094468086	0.7595978	2.7036438	8.423492
1443115610102860420	1.4629517	2.0588074	8.918686
1443115610111252754	2.1258545	1.3263092	9.685333
1443115610119645088	1.8965759	1.3376312	10.213806
1443115610128037422	0.8342285	2.2947693	9.933517
1443115610136429756	-0.6331024	4.1690216	9.2834015
1443115610144822090	-2.353836	7.1502686	8.7013855
1443115610153214424	-4.0069427	11.047943	8.143753
1443115610161606758	-5.381729	15.723892	7.2525024
1443115610169999092	-6.5636597	21.274445	5.538803
1443115610178391426	-7.812866	27.462967	2.2897797
1443115610186783760	-8.853043	32.187134	-2.3799896
1443115610195176094	-6.8452454	31.934814	-3.1519318
1443115610203568428	-3.8019714	25.796295	-0.4399109
1443115610211960762	-1.0503845	16.009125	1.5506287
1443115610220353096	-0.58955383	5.8269196	0.9891815
1443115610228745430	-3.5331268	-1.835083	0.10095215
1443115610237137764	-2.9727783	-3.9767609	-0.65371704
1443115610245530098	-4.154785	-2.9749298	0.03414917
1443115610253922432	-3.8253937	-2.2614746	1.0305328
1443115610262314766	-2.4019318	-1.3901672	0.65878296
1443115610270707100	-1.180191	-0.2379303	-0.49484253
1443115610279099434	-0.6067047	1.2823639	-1.5979156
1443115610287491768	-0.11984253	3.2819672	-2.5575562
1443115610295884102	-0.21957397	6.436371	-3.8695068
1443115610304276436	0.10769653	9.639847	-5.518509
1443115610312668770	0.5901489	12.891083	-5.8462524
1443115610321061104	1.0894928	15.641129	-4.307724
1443115610329453438	1.6924286	18.225998	-1.9843903
1443115610337845772	2.403244	20.574677	0.6073456
1443115610346238106	2.869461	21.382996	3.2704773
1443115610354630440	3.1114502	17.954346	4.08165
1443115610363022774	1.9845734	13.893097	3.8482666
1443115610371415108	1.3717804	10.983643	3.5068207
1443115610379807442	0.53196716	8.784912	3.135147
1443115610388199776	-0.0640564	7.046356	2.836563
1443115610396592110	-0.30708313	5.6344147	2.0786285
1443115610404984444	-0.613678	4.624542	0.060134888
1443115610413376778	-0.6536102	3.4748383	-3.1690521
1443115610421769112	-0.68911743	3.4365082	-3.6934052
1443115610430161446	-0.2545166	3.8220673	-2.633957
1443115610438553780	-0.19470215	4.6546173	-1.6278687
1443115610446946114	-0.24809265	5.6963196	-1.0994568
1443115610455338448	-0.124679565	6.853119	-0.93089294
1443115610463730782	0.11956787	8.0138855	-0.81144714
1443115610472123116	0.45063782	9.056442	-0.34568787
1443115610480515450	0.7228699	10.084549	1.1647339
1443115610488907784	1.289856	10.834549	2.9024658
1443115610497300118	2.0461426	11.146484	4.030594
1443115610505692452	2.6294403	11.033524	4.3239594
1443115610514084786	2.8279572	10.535889	3.9414825
1443115610522477120	2.7739563	9.669556	3.1001282
1443115610530869454	2.5426178	8.708221	1.8642578
1443115610539261788	2.3535614	8.057602	0.28622437
1443115610547654122	2.1183624	7.6713867	-1.0115662
1443115610556046456	1.8091278	7.5368805	-1.8063965
1443115610564438790	1.4358978	7.6337585	-2.1287231
1443115610572831123	1.0435333	7.879242	-2.056015
1443115610581223457	0.7094269	8.176788	-1.5947571
1443115610589615791	0.5552063	8.669281	-0.7382965
1443115610598008125	0.5222168	9.140732	0.16827393
1443115610606400459	0.5124054	9.554932	0.8635254
1443115610614792793	0.19781494	9.804855	1.6795807
1443115610623185127	-0.087524414	9.877975	2.1608582
1443115610631577461	-0.084228516	9.797241	1.9818726
1443115610639969795	0.03593445	9.676758	1.3508301
1443115610648362129	-0.09979248	9.949234	0.6156769
1443115610656754463	0.087020874	10.6371	0.088760376
1443115610665146797	0.46290588	11.275177	0.14302063
1443115610673539131	0.29022217	11.997467	0.7149811
1443115610681931465	-0.0021820068	12.348618	1.7059021
1443115610690323799	-0.18301392	12.090515	2.4546814
1443115610698716133	-0.47644043	11.489609	2.1163177
1443115610707108467	-0.7225647	11.064102	0.8957977
1443115610715500801	-0.9107208	11.303665	0.41358948
1443115610723893135	-0.260849	11.298431	0.9061737
1443115610732285469	0.49301147	11.492981	0.7907562
1443115610740677803	0.6615448	11.858673	0.4810791
1443115610749070137	0.53012085	12.588516	0.6306
1443115610757462471	0.90618896	13.679123	1.1511841
1443115610765854805	1.7169037	13.935577	0.91545105
1443115610774247139	1.687088	14.275909	0.25845337
1443115610782639473	1.6626129	14.575302	0.11665344
1443115610791031807	1.3322906	14.882034	0.19351196
1443115610799424141	0.5286102	15.218948	0.5439148
1443115610807816475	-0.7500763	15.590622	0.8775482
1443115610816208809	-2.389557	15.948135	0.97546387
1443115610824601143	-4.223236	16.167908	1.3811035
1443115610832993477	-5.5063934	16.42392	0.45062256
1443115610841385811	-5.678421	15.517029	-1.8208466
1443115610849778145	-5.085251	14.026886	-3.296936
1443115610858170479	-3.9264984	12.825958	-2.4970398
1443115610866562813	-2.9140625	12.182846	-0.49417114
1443115610874955147	-2.373291	11.867477	0.85943604
1443115610883347481	-1.3417206	11.653946	1.6724548
1443115610891739815	-0.7608032	11.54805	2.8928833
1443115610900132149	-0.1928711	11.543228	3.5430908
1443115610908524483	-0.08628845	11.662476	3.8890839
1443115610916916817	-0.2645111	11.85788	3.873932
1443115610925309151	-0.53160095	11.679443	3.4601746
1443115610933701485	-0.9430542	10.853867	2.8419342
1443115610942093819	-1.7885132	9.826874	2.4404907
1443115610950486153	-2.5133667	9.026978	1.9212646
1443115610958878487	-2.5391998	8.280975	1.3178558
1443115610967270821	-2.3393707	7.7939606	0.32685852
1443115610975663155	-1.9887238	7.4262085	-0.7488098
1443115610984055489	-1.5276337	6.9097595	-1.5322723
1443115610992447823	-1.1728516	6.1297607	-1.8108063
1443115611000840157	-1.8458099	6.042633	-2.52977
1443115611009232491	-1.4410858	6.043579	-3.1008759
1443115611017624825	-0.80622864	5.4598846	-2.9930878
1443115611026017159	-0.90644836	4.935501	-2.7245636
1443115611034409493	-1.3091125	4.413727	-2.029541
1443115611042801827	-1.6092987	3.7927399	-0.94828796
1443115611051194161	-1.8967285	3.1044006	0.030136108
1443115611059586495	-2.0743103	2.1624146	0.84840393
1443115611067978829	-2.2891998	1.5928192	1.1074829
1443115611076371163	-2.3280792	1.4637299	1.1807556
1443115611084763497	-2.3630066	1.5307922	1.5413818
1443115611093155831	-2.138794	1.6086121	1.8132172
1443115611101548165	-1.8667908	1.771347	2.0057068
1443115611109940498	-1.8159485	2.1363373	2.2458954
1443115611118332832	-1.8706665	2.5215607	2.5398254
1443115611126725166	-1.8891754	2.7991638	2.6899261
1443115611135117500	-2.0232697	2.9214935	2.9362335
1443115611143509834	-2.1793213	3.0345612	3.4740448
1443115611151902168	-2.304428	3.2492828	4.19751
1443115611160294502	-2.3942719	3.6686707	4.939377
1443115611168686836	-2.484558	4.374756	5.571121
1443115611177079170	-2.6165466	5.4153595	6.0250854
1443115611185471504	-2.6093445	7.1745605	6.3191376
1443115611193863838	-2.0660248	10.083466	6.521286
1443115611202256172	-1.4272919	13.794327	7.3509216
1443115611210648506	-1.0267181	18.266617	9.230209
1443115611219040840	-0.52511597	23.23767	11.379059
1443115611227433174	0.55018616	27.343643	12.367142
1443115611235825508	1.8829803	27.55606	11.431992
1443115611244217842	2.255188	21.58551	10.8377075
1443115611252610176	1.6524658	15.015289	11.084076
1443115611261002510	0.86117554	9.769867	11.072586
1443115611269394844	0.07424927	6.209381	10.194199
1443115611277787178	-0.53800964	4.246567	8.7074585
1443115611286179512	-1.009613	3.6931915	7.333664
1443115611294571846	-1.7112732	4.428131	6.544693
1443115611302964180	-2.0577545	6.6160736	5.826004
1443115611311356514	-1.7135773	9.632629	5.5145874
1443115611319748848	-1.0437927	12.441925	6.076233
1443115611328141182	-0.4134674	14.083221	6.589813
1443115611336533516	-0.30374146	14.304886	5.301605
1443115611344925850	-0.69758606	13.258835	2.2584534
1443115611353318184	-0.82884216	11.083405	0.47880554
1443115611361710518	-0.8483734	8.062653	-0.12780762
1443115611370102852	-2.6979065	5.3127747	-2.237091
1443115611378495186	-5.0343475	3.7055511	-3.3929596
1443115611386887520	-6.0430145	3.6602325	-1.6067505
1443115611395279854	-6.0659637	4.364029	1.6129456
1443115611403672188	-5.8012085	4.40123	4.203354
1443115611412064522	-4.828964	2.9749603	5.8686523
1443115611420456856	-3.0666962	2.3806763	5.710327
1443115611428849190	-1.6078796	3.16716	4.105835
1443115611437241524	0.1487732	5.0379944	2.0030212
1443115611445633858	1.927948	7.805588	-0.6635437
1443115611454026192	3.0732117	11.189575	-3.7321472
1443115611462418526	3.2562866	14.542587	-6.36409
1443115611470810860	2.8333435	16.835342	-7.174179
1443115611479203194	2.4899292	17.072845	-5.25972
1443115611487595528	2.3683014	15.961807	-1.8217163
1443115611495987862	2.326889	14.520889	1.1605682
1443115611504380196	2.4953766	12.9578705	2.9956512
1443115611512772530	2.461441	11.486221	3.4710388
1443115611521164864	1.8996735	10.117325	2.9728851
1443115611529557198	0.94062805	8.737335	2.317505
1443115611537949532	0.05331421	7.6731873	2.1643066
1443115611546341866	-0.64489746	7.2846527	1.2805939
1443115611554734200	-1.1954498	6.8983307	0.030685425
1443115611563126534	-1.8217926	6.9898376	-1.0312958
1443115611571518868	-1.9448853	7.15036	-1.5033875
1443115611579911202	-1.4799194	7.113846	-1.4442139
1443115611588303536	-0.9998932	7.0384827	-0.9641876
1443115611596695870	-0.3305664	7.072418	0.069122314
1443115611605088204	0.14445496	7.4520874	0.64811707
1443115611613480538	0.5910797	7.9114075	-0.038879395
1443115611621872872	1.0961456	8.39415	-0.8764343
1443115611630265206	1.3051453	8.808777	-0.99980164
1443115611638657540	1.0032806	9.0876465	-0.33747864
1443115611647049873	0.7762146	9.275299	0.54270935
1443115611655442207	1.0363464	9.137512	1.243927
1443115611663834541	0.4427948	8.61618	1.4805908
1443115611672226875	-0.088134766	8.317947	0.75349426
1443115611680619209	-0.3106079	7.835449	-0.20358276
1443115611689011543	-0.37046814	7.183258	-0.8705597
1443115611697403877	-0.5153656	6.701767	-1.1504822
1443115611705796211	-0.81030273	6.637268	-1.2304688
1443115611714188545	-1.0714569	6.9950714	-1.3620758
1443115611722580879	-0.9233093	7.426941	-1.2961426
1443115611730973213	-0.6975708	8.210327	-1.1607666
1443115611739365547	-0.26364136	9.070282	-0.92030334
1443115611747757881	0.43666077	9.762741	-0.4812622
1443115611756150215	1.0868225	10.18869	0.20144653
1443115611764542549	1.1062317	10.374008	1.0357971
1443115611772934883	1.0023804	10.26503	1.7349396
1443115611781327217	0.9537201	10.22287	1.8637543
1443115611789719551	1.0733185	10.309631	1.6244812
1443115611798111885	0.9144745	10.863541	0.8423462
1443115611806504219	0.70266724	11.576401	-0.05480957
1443115611814896553	0.69351196	12.03801	-0.6131134
1443115611823288887	0.75938416	12.1927185	-0.7900238
1443115611831681221	1.0298004	12.197861	-0.6687012
1443115611840073555	0.98631287	12.365875	-0.10321045
1443115611848465889	0.78974915	12.57341	0.4308319
1443115611856858223	0.651062	12.669617	0.8838043
1443115611865250557	0.8122406	12.562271	1.4683533
1443115611873642891	1.2679291	12.1276245	1.976593
1443115611882035225	1.734314	11.401825	1.7689056
1443115611890427559	2.0365906	11.329849	0.945343
1443115611898819893	1.9365845	11.920654	0.8308258
1443115611907212227	1.9356384	13.138443	1.394577
1443115611915604561	2.2952423	14.252029	1.7404022
1443115611923996895	2.8896332	14.747986	1.2271423
1443115611932389229	3.3162231	14.560501	-0.031234741
1443115611940781563	3.18779	14.130722	-1.2211151
1443115611949173897	2.617157	14.305511	-1.5110474
1443115611957566231	2.1503754	14.3545685	-0.87882996
1443115611965958565	1.3795013	13.690018	0.14331055
1443115611974350899	0.35850525	12.814117	0.9417267
1443115611982743233	-0.95814514	12.382126	1.1616211
1443115611991135567	-2.501648	12.642441	0.9829407
1443115611999527901	-3.7884674	13.176865	0.9121094
1443115612007920235	-4.9749603	13.411285	0.8586426
1443115612016312569	-6.1772766	13.505951	0.25294495
1443115612024704903	-6.122345	13.242126	-0.40837097
1443115612033097237	-5.3591003	12.589676	-0.9507599
1443115612041489571	-4.328369	11.840897	-0.980484
1443115612049881905	-3.386139	11.310242	-0.3544922
1443115612058274239	-2.9399261	11.194183	0.41923523
1443115612066666573	-2.531662	10.981323	1.9536285
1443115612075058907	-1.3913422	10.61586	3.40802
1443115612083451241	-0.4484253	10.297958	3.6198425
1443115612091843575	-0.417099	10.362106	3.2260132
1443115612100235909	-0.7598877	10.618439	2.655075
1443115612108628243	-0.8433838	10.635956	2.2035217
1443115612117020577	-1.019516	10.212723	2.1993256
1443115612125412911	-1.1891785	9.707886	1.8353577
1443115612133805245	-1.3040466	9.120422	0.83625793
1443115612142197579	-1.0671387	8.525589	-0.23110962
1443115612150589913	-0.75616455	7.7679443	-1.1700592
1443115612158982247	-0.88972473	7.06131	-1.8184052
1443115612167374581	-1.4504852	6.695114	-2.198944
1443115612175766915	-1.703949	6.687042	-2.5492706
1443115612184159248	-1.703949	6.570862	-2.9286652
1443115612192551582	-1.372879	6.272476	-2.5204926
1443115612200943916	-1.3352814	5.8092804	-1.9864349
1443115612209336250	-1.4171753	5.1829224	-1.0542603
1443115612217728584	-1.6287994	4.593445	0.14421082
1443115612226120918	-1.8234863	4.105133	1.23349
1443115612234513252	-1.7459717	3.582672	1.8787994
1443115612242905586	-2.0760193	3.2444153	2.058731
1443115612251297920	-2.3840942	3.147705	2.0889282
1443115612259690254	-2.279007	2.972763	2.0332947
1443115612268082588	-2.217041	2.919693	2.0561676
1443115612276474922	-2.2112885	2.9740295	2.1303253
1443115612284867256	-2.2377472	3.082138	2.2422485
1443115612293259590	-2.3625488	3.230957	2.4559326
1443115612301651924	-2.3584442	3.3327484	2.7427826
1443115612310044258	-2.4824677	3.3836823	3.137436
1443115612318436592	-2.5663147	3.4900818	3.5689392
1443115612326828926	-2.605301	3.7573395	4.0249786
1443115612335221260	-2.55365	4.0618286	4.41185
1443115612343613594	-2.448166	4.483597	4.9638214
1443115612352005928	-2.3644867	5.2910004	6.0172577
1443115612360398262	-2.2004395	6.4660034	7.1548767
1443115612368790596	-1.5383148	8.600479	8.496628
1443115612377182930	-0.71484375	11.331726	10.304169
1443115612385575264	-0.2487793	14.621017	11.870163
1443115612393967598	0.23355103	18.293442	12.473282
1443115612402359932	0.95480347	21.434433	11.863205
1443115612410752266	1.7434845	22.478394	10.464981
1443115612419144600	2.382248	19.924042	9.310745
1443115612427536934	2.1652985	15.110184	9.550308
1443115612435929268	1.2645416	11.167206	9.423111
1443115612444321602	0.25976563	7.7043915	8.472626
1443115612452713936	-0.8413849	5.5035095	7.1599884
1443115612461106270	-1.958252	4.7250366	6.2416077
1443115612469498604	-2.8701935	5.071884	5.847519
1443115612477890938	-3.4683838	6.282181	5.9577026
1443115612486283272	-4.1747284	8.374481	6.026596
1443115612494675606	-4.730896	10.830521	5.638565
1443115612503067940	-4.4703674	13.209473	4.9039307
1443115612511460274	-4.3526306	15.119446	3.3912659
1443115612519852608	-4.6318817	15.989044	1.367157
1443115612528244942	-4.869171	15.477997	-0.45959473
1443115612536637276	-4.426056	12.686523	-1.0220032
1443115612545029610	-3.7875214	8.539963	-1.7554932
1443115612553421944	-3.6907654	5.9116516	-0.9337921
1443115612561814278	-3.2735443	4.731186	1.1909943
1443115612570206612	-2.5084076	3.8034058	3.444748
1443115612578598946	-1.7655792	2.6040497	4.685013
1443115612586991280	-1.2073975	1.9420013	4.42955
1443115612595383614	-0.44552612	2.154831	2.7114868
1443115612603775948	1.1872406	3.2345886	0.54855347
1443115612612168282	2.316574	5.0980377	-2.4043274
1443115612620560616	2.7635498	7.752487	-5.180191
1443115612628952950	2.5623322	10.896011	-6.626053
1443115612637345284	1.9761353	13.829346	-5.960724
1443115612645737618	1.4868622	15.830536	-3.3523254
1443115612654129952	1.7171783	17.229858	-0.6719055
1443115612662522286	2.7439575	17.287598	1.2968445
1443115612670914620	3.603775	16.239532	2.3733368
1443115612679306954	3.6425781	14.381226	2.828476
1443115612687699288	2.850418	12.084793	2.896759
1443115612696091622	1.6503906	9.891281	2.8057861
1443115612704483956	0.6127014	8.242722	2.5398102
1443115612712876290	0.12535095	6.8022614	1.2874908
1443115612721268623	-1.417923	6.4290314	-0.22184753
1443115612729660957	-2.1176147	6.5339203	-0.76464844
1443115612738053291	-2.4129486	6.6590424	-0.7545166
1443115612746445625	-1.7187653	6.195221	-0.56214905
1443115612754837959	-0.8177643	5.5939484	-0.46739197
1443115612763230293	-1.0224609	5.897629	-0.42018127
1443115612771622627	-0.78274536	6.897278	0.28437805
1443115612780014961	-0.25735474	7.912079	0.78201294
1443115612788407295	-0.006958008	8.5728	0.7849884
1443115612796799629	0.13267517	9.046097	-0.021530151
1443115612805191963	0.2908783	9.2738495	-0.14199829
1443115612813584297	0.5231476	9.177292	0.5145416
1443115612821976631	0.7133789	8.764786	0.8203125
1443115612830368965	0.5184021	8.173157	0.5992584
1443115612838761299	0.47009277	7.5428925	-0.3302002
1443115612847153633	0.43074036	7.0822144	-1.3018341
1443115612855545967	0.316864	7.02684	-2.0215302
1443115612863938301	0.27452087	7.2313538	-2.2601624
1443115612872330635	0.33615112	7.5659027	-1.9902344
1443115612880722969	0.41444397	8.001511	-1.39328
1443115612889115303	0.4585724	8.537125	-0.7604523
1443115612897507637	0.73309326	8.911377	-0.118881226
1443115612905899971	1.0955505	9.117096	0.2185669
1443115612914292305	1.0814362	9.29393	0.5195465
1443115612922684639	0.88671875	9.363373	0.7680664
1443115612931076973	0.636261	9.442551	0.890625
1443115612939469307	0.46594238	9.617584	0.89082336
1443115612947861641	0.66426086	9.709763	0.8603058
1443115612956253975	0.506958	10.387329	0.21769714
1443115612964646309	0.48143005	11.364929	-0.64082336
1443115612973038643	0.63923645	11.9379425	-1.2657013
1443115612981430977	1.0148773	12.144836	-1.379303
1443115612989823311	1.3123474	12.353149	-1.0186768
1443115612998215645	1.3211212	12.799805	-0.41152954
1443115613006607979	1.2039032	13.362213	0.26293945
1443115613015000313	1.2131805	13.402145	1.0282745
1443115613023392647	1.4177704	13.06691	1.3961182
1443115613031784981	1.682251	12.235886	2.052536
1443115613040177315	1.8647461	11.197388	2.7216797
1443115613048569649	1.8783722	10.346176	2.8777618
1443115613056961983	1.8110046	9.958008	2.2602234
1443115613065354317	1.940567	10.49881	1.3729248
1443115613073746651	1.0535126	11.942932	1.0357666
1443115613082138985	0.33119202	13.167786	0.9703064
1443115613090531319	0.5180969	13.503128	0.48997498
1443115613098923653	0.97346497	13.02002	-0.45159912
1443115613107315987	1.0545044	12.565765	-1.3613129
1443115613115708321	0.8456421	12.945114	-1.6240387
1443115613124100655	1.1578827	13.373245	-1.1825714
1443115613132492989	1.1609802	13.840042	-0.14720154
1443115613140885323	-0.002380371	14.390457	0.73657227
1443115613149277657	-1.5039368	14.58342	1.2570496
1443115613157669991	-3.0101624	14.484756	1.510315
1443115613166062325	-4.382141	14.25882	1.5446625
1443115613174454659	-5.4309845	14.0338745	1.2444458
1443115613182846993	-5.727234	13.932175	0.40499878
1443115613191239327	-4.895447	13.456146	-0.8956299
1443115613199631661	-4.8965454	12.835068	-1.0074463
1443115613208023995	-4.384186	12.214523	-0.12123108
1443115613216416329	-3.2854767	11.800781	1.5730896
1443115613224808663	-2.114029	11.737839	3.423706
1443115613233200997	-1.2692566	11.965637	4.471878
1443115613241593331	-0.41412354	12.135605	3.978012
1443115613249985665	0.6006775	12.104752	2.60643
1443115613258377998	1.4037933	11.68959	1.6309662
1443115613266770332	1.5816345	10.968445	1.25177
1443115613275162666	0.9202118	10.113083	1.3850708
1443115613283555000	0.018722534	9.397858	1.6008301
1443115613291947334	-0.40789795	8.945923	1.4300995
1443115613300339668	-0.48538208	8.509232	0.7518616
1443115613308732002	-0.27461243	8.120575	-0.30303955
1443115613317124336	0.31910706	7.1960144	-0.65789795
1443115613325516670	-0.11943054	6.4688416	-0.8628998
1443115613333909004	-0.64527893	6.1407776	-1.7766571
1443115613342301338	-0.74884033	5.949356	-2.8547974
1443115613350693672	-0.540329	5.550247	-3.1479187
1443115613359086006	-0.31915283	4.9284973	-2.675003
1443115613367478340	-0.57003784	4.411331	-1.8308868
1443115613375870674	-1.0375214	3.6208038	-0.619751
1443115613384263008	-1.5043945	2.9876862	0.20957947
1443115613392655342	-1.6670074	2.4525452	0.6484833
1443115613401047676	-1.8035278	2.0474243	0.96713257
1443115613409440010	-2.1049194	1.8191986	1.3636475
1443115613417832344	-2.2121887	1.7150726	1.7659454
1443115613426224678	-2.3859406	1.7263794	2.1525269
1443115613434617012	-2.201828	1.7367249	2.0780487
1443115613443009346	-2.3041382	1.9352264	2.1767426
1443115613451401680	-2.428421	2.2488556	2.366928
1443115613459794014	-2.5084229	2.6360474	2.578476
1443115613468186348	-2.6482086	3.065277	2.7842712
1443115613476578682	-2.8258057	3.5901642	3.09964
1443115613484971016	-2.9821014	4.160797	3.574646
1443115613493363350	-3.1310425	4.866852	3.9520416
1443115613501755684	-3.0856476	5.921051	4.679291
1443115613510148018	-2.7860107	7.711624	5.695587
1443115613518540352	-2.1651306	10.228439	7.1540375
1443115613526932686	-1.403656	13.434937	9.383316
1443115613535325020	-1.201004	17.735825	12.802658
1443115613543717354	-1.2236328	22.191895	14.220505
1443115613552109688	-0.45768738	24.740189	12.249619
1443115613560502022	0.08517456	24.058289	9.997162
1443115613568894356	0.129776	21.009506	8.740372
1443115613577286690	-0.36975098	16.359268	8.799988
1443115613585679024	-1.0779572	11.782898	9.429886
1443115613594071358	-1.5240326	8.695862	9.529327
1443115613602463692	-1.0037842	7.6707764	7.5480347
1443115613610856026	-1.134079	7.61792	5.492874
1443115613619248360	-1.4668121	8.51416	4.577774
1443115613627640694	-1.7735901	10.158264	4.6299744
1443115613636033028	-1.9023132	11.489914	4.9506836
1443115613644425362	-1.824997	11.282791	4.7904205
1443115613652817696	-1.712265	9.364578	3.7486572
1443115613661210030	-1.8551941	7.5683746	2.6197357
1443115613669602364	-2.4965973	6.197998	1.3795166
1443115613677994698	-3.8791199	4.9093933	-0.30366516
1443115613686387032	-5.504135	4.01326	-1.6581116
1443115613694779366	-6.557251	4.013153	-1.3558044
1443115613703171700	-6.61705	5.028061	1.1327057
1443115613711564034	-6.086319	6.3004456	4.343811
1443115613719956368	-4.4710693	6.074234	5.292801
1443115613728348702	-2.4617004	5.7842407	3.6780243
1443115613736741036	-0.51474	6.324539	1.8735352
1443115613745133370	1.1127625	7.7017975	0.2844391
1443115613753525704	2.341339	9.675415	-1.0165253
1443115613761918038	2.9680328	11.871124	-1.9585571
1443115613770310372	2.6275482	13.792709	-2.3923645
1443115613778702706	2.1772156	14.600861	-2.2247772
1443115613787095040	2.0589905	14.33989	-1.4475098
1443115613795487373	2.3811493	13.479706	-0.53504944
1443115613803879707	2.8933563	12.343903	0.40592957
1443115613812272041	3.2982635	11.155548	1.0790253
1443115613820664375	3.2881165	10.138077	1.2316589
1443115613829056709	2.665863	9.50061	0.88308716
1443115613837449043	1.8638916	8.984467	0.2672119
1443115613845841377	0.7877197	8.723022	-0.32426453
1443115613854233711	-0.039093018	8.545486	-0.6228943
1443115613862626045	-0.39353943	8.206223	-0.34898376
1443115613871018379	-0.7895813	7.720169	0.2666626
1443115613879410713	-1.5220642	7.4459534	0.71354675
1443115613887803047	-2.1412506	7.778885	0.6240082
1443115613896195381	-2.017868	8.083206	0.44509888
1443115613904587715	-1.5921631	8.116058	0.9116211
1443115613912980049	-1.2264557	8.176056	0.83403015
1443115613921372383	-0.8996277	8.448273	0.60494995
1443115613929764717	-0.780426	8.472931	0.879303
1443115613938157051	-0.63586426	8.302582	1.2721405
1443115613946549385	0.005142212	8.569855	0.71698
1443115613954941719	0.46678162	8.789886	0.3087921
1443115613963334053	0.86257935	8.654266	0.5713501
1443115613971726387	1.0292511	8.651154	0.5742645
1443115613980118721	1.0632324	8.504639	0.10121155
1443115613988511055	1.0097351	8.298676	-0.41529846
1443115613996903389	0.8872223	8.113342	-0.63175964
1443115614005295723	0.7187805	7.9161377	-0.59199524
1443115614013688057	0.56140137	7.7667236	-0.5130615
1443115614022080391	0.38754272	7.8125305	-0.50279236
1443115614030472725	0.48979187	7.8928986	-0.424057
1443115614038865059	0.75390625	8.091446	-0.48091125
1443115614047257393	1.0383911	8.347717	-0.6433716
1443115614055649727	1.281311	8.590164	-0.7490387
1443115614064042061	1.4542694	8.863647	-0.7290039
1443115614072434395	1.5149231	9.12175	-0.6331482
1443115614080826729	1.3750916	9.325317	-0.541626
1443115614089219063	1.2606201	9.340561	-0.5037842
1443115614097611397	1.1415558	9.2256775	-0.55755615
1443115614106003731	0.7164917	9.117401	-0.517395
1443115614114396065	-0.011016846	9.143188	-0.3441925
1443115614122788399	-0.3690033	9.260254	-0.44044495
1443115614131180733	-0.6322174	9.623199	-0.7046814
1443115614139573067	-0.63142395	10.063065	-0.86920166
1443115614147965401	-0.99716187	10.907013	-1.1122284
1443115614156357735	-1.1820221	11.568161	-1.0785217
1443115614164750069	-1.144104	11.878174	-0.76020813
1443115614173142403	-1.034195	11.9448395	-0.33587646
1443115614181534737	-0.8052826	11.880966	0.076431274
1443115614189927071	-0.7014313	12.016693	0.3231964
1443115614198319405	-0.3322754	12.122391	0.6454773
1443115614206711739	-0.08111572	12.273453	1.0972443
1443115614215104073	0.36360168	12.101181	1.5643768
1443115614223496407	0.896286	11.803894	1.3257446
1443115614231888741	1.3114166	11.615463	0.4746399
1443115614240281075	1.6276245	11.531143	0.21243286
1443115614248673409	2.0789795	12.117203	0.05203247
1443115614257065743	2.4237518	13.092148	0.2992859
1443115614265458077	2.898346	13.767242	0.8370056
1443115614273850411	3.2856293	14.0896	1.0953064
1443115614282242745	3.4079437	14.284973	0.98539734
1443115614290635079	3.2904816	14.490784	0.6838684
1443115614299027413	3.1009064	14.554291	0.35673523
1443115614307419747	2.747223	14.093658	-0.064819336
1443115614315812081	1.9459839	12.815399	0.14723206
1443115614324204415	0.71183777	11.044022	0.57025146
1443115614332596748	-0.51420593	9.519897	1.1364441
1443115614340989082	-1.4302521	8.788071	1.462326
1443115614349381416	-2.0470886	8.935593	1.3769836
1443115614357773750	-2.6550598	9.684586	1.1366272
1443115614366166084	-3.567047	10.889603	1.2106628
1443115614374558418	-4.0713043	12.344559	1.5110779
1443115614382950752	-3.5757751	13.490509	1.0186615
1443115614391343086	-3.0888367	13.951614	-0.1690979
1443115614399735420	-2.5369568	13.539398	-1.2690277
1443115614408127754	-1.835434	12.575363	-1.257904
1443115614416520088	-1.476654	11.819031	0.31993103
1443115614424912422	-2.5393982	12.008636	2.2908173
1443115614433304756	-1.9039764	12.227646	2.0944366
1443115614441697090	-1.5039215	12.220047	1.9925537
1443115614450089424	-1.2327118	12.010223	1.5962982
1443115614458481758	-1.3426971	11.660767	1.1587067
1443115614466874092	-1.8661194	11.21196	1.009491
1443115614475266426	-2.4719238	10.6493225	1.2273712
1443115614483658760	-2.6590424	9.912537	1.5012665
1443115614492051094	-2.6333466	9.27919	1.4529419
1443115614500443428	-2.8238983	8.982712	1.2268066
1443115614508835762	-3.0847168	8.979233	0.6880951
1443115614517228096	-3.3083801	9.110901	-0.18663025
1443115614525620430	-3.1408234	9.067154	-1.320816
1443115614534012764	-2.4435577	8.634827	-2.348053
1443115614542405098	-1.9301453	8.009705	-2.505844
1443115614550797432	-2.1193237	7.404129	-2.3084412
1443115614559189766	-2.1661987	7.068573	-2.0745392
1443115614567582100	-1.7277527	6.8007965	-1.6946411
1443115614575974434	-1.4597626	6.3926544	-0.79611206
1443115614584366768	-1.480896	5.931381	0.13856506
1443115614592759102	-1.5290222	5.5455017	0.5669861
1443115614601151436	-1.5718536	4.943466	0.9515991
1443115614609543770	-1.1143341	4.1877594	1.2847137
1443115614617936104	-1.3952026	3.8835754	1.4939423
1443115614626328438	-1.377533	3.641327	1.5642395
1443115614634720772	-1.3160553	3.5194092	1.6537933
1443115614643113106	-1.4509277	3.5922852	1.8495026
1443115614651505440	-1.5727234	3.7166748	2.0738983
1443115614659897774	-1.7444305	3.5830078	2.5211487
1443115614668290108	-1.7684021	3.323578	2.879547
1443115614676682442	-1.7912445	3.0894165	3.1332092
1443115614685074776	-1.7401123	2.9277039	3.4068298
1443115614693467110	-1.6461029	2.8437195	3.7790222
1443115614701859444	-1.5735779	2.8905182	4.29126
1443115614710251778	-1.490036	3.118164	4.9140015
1443115614718644112	-1.0684814	3.319687	5.43219
1443115614727036446	-1.1543884	3.9635925	6.068344
1443115614735428780	-1.0014648	5.163162	6.9273224
1443115614743821114	-0.5342102	7.2766876	7.800476
1443115614752213448	-0.061309814	10.305862	8.657959
1443115614760605782	0.035842896	14.092117	9.772034
1443115614768998116	-0.15081787	18.368835	11.194168
1443115614777390450	0.6625519	22.639694	11.634323
1443115614785782784	1.4881744	24.36084	10.682251
1443115614794175118	1.7204895	21.498718	9.387543
1443115614802567452	1.189148	16.292969	8.982971
1443115614810959786	0.4658966	11.096558	8.994263
1443115614819352120	0.22639465	7.0483704	8.3654785
1443115614827744454	0.55848694	4.156952	6.7533417
1443115614836136788	0.3743286	2.487152	5.759369
1443115614844529122	-0.32583618	2.5478058	6.311493
1443115614852921456	-1.1288147	4.4019012	7.177292
1443115614861313790	-1.477356	7.2872467	7.8407135
1443115614869706123	-1.4261322	10.223694	8.315216
1443115614878098457	-1.3695526	12.787399	8.116638
1443115614886490791	-1.7189941	15.099289	6.4579315
1443115614894883125	-2.5586395	17.283966	3.1217194
1443115614903275459	-3.638214	18.269974	-0.41311646
1443115614911667793	-3.380539	15.888412	-1.6308136
1443115614920060127	-3.6210327	11.036118	-2.4102478
1443115614928452461	-4.281601	6.708069	-1.7558136
1443115614936844795	-4.685196	4.503296	0.52508545
1443115614945237129	-4.4601135	3.7838745	3.118332
1443115614953629463	-4.092575	2.458664	3.9505615
1443115614962021797	-3.3276215	0.8228607	3.1352386
1443115614970414131	-3.283905	0.52053833	2.192459
1443115614978806465	-2.4564514	1.1487885	0.8236389
1443115614987198799	-1.0614624	2.8376312	-1.1981506
1443115614995591133	0.17953491	5.534439	-3.8149872
1443115615003983467	0.6527405	9.030273	-6.246567
1443115615012375801	0.32710266	13.049088	-6.9316864
1443115615020768135	0.2767334	16.508865	-5.374008
1443115615029160469	0.9923248	17.805435	-2.7026978
1443115615037552803	1.8350983	17.907745	0.31173706
1443115615045945137	2.6531067	16.812225	2.613266
1443115615054337471	3.0085754	14.922119	3.3262177
1443115615062729805	2.7442932	12.771011	2.579773
1443115615071122139	2.2672272	10.573822	1.4786072
1443115615079514473	1.5771484	9.289185	0.6489868
1443115615087906807	0.892395	8.071091	0.24584961
1443115615096299141	-0.36114502	7.2211456	-0.16838074
1443115615104691475	-1.4025726	6.8013	-0.9606781
1443115615113083809	-2.1581116	6.668396	-1.5076141
1443115615121476143	-2.7568817	6.7139435	-1.2053223
1443115615129868477	-2.070053	6.2985687	-1.333847
1443115615138260811	-1.5639954	6.0815125	-1.1978912
1443115615146653145	-1.1315765	6.55809	-0.9358063
1443115615155045479	-0.40611267	6.873123	-0.96180725
1443115615163437813	0.29673767	7.36322	-0.88653564
1443115615171830147	0.7027588	8.155777	-0.7705536
1443115615180222481	0.8303375	9.034576	-0.82850647
1443115615188614815	1.3881378	9.584579	-0.5401459
1443115615197007149	1.4200134	9.687393	-0.44865417
1443115615205399483	1.6557312	9.373764	-0.37384033
1443115615213791817	1.669693	8.972885	-0.22798157
1443115615222184151	1.434494	8.551147	-0.25779724
1443115615230576485	0.9662018	8.214844	-0.56073
1443115615238968819	0.34786987	8.07193	-0.96069336
1443115615247361153	-0.07545471	8.022263	-1.135315
1443115615255753487	-0.30062866	8.045898	-1.0057526
1443115615264145821	-0.24134827	8.129669	-0.76405334
1443115615272538155	-0.09831238	8.373856	-0.6007538
1443115615280930489	0.1579895	8.715027	-0.4477539
1443115615289322823	0.4784851	9.111069	-0.3317566
1443115615297715157	0.7336426	9.554443	-0.26290894
1443115615306107491	0.83932495	10.000809	0.027374268
1443115615314499825	0.83418274	10.164291	0.96507263
1443115615322892159	0.55332947	10.096008	1.9879456
1443115615331284493	0.45106506	9.886459	2.4843597
1443115615339676827	0.47480774	9.730179	2.223114
1443115615348069161	0.49578857	9.838745	1.4229889
1443115615356461495	0.44831848	10.341949	0.5500641
1443115615364853829	0.3605957	11.198547	-0.009262085
1443115615373246163	0.18991089	12.09613	-0.2539673
1443115615381638497	0.34732056	12.291763	0.15281677
1443115615390030831	0.6548004	12.311432	0.7627106
1443115615398423165	0.71517944	12.472656	1.2934723
1443115615406815498	0.55929565	12.749954	1.3736572
1443115615415207832	0.5453644	12.97081	0.9209442
1443115615423600166	1.0372925	12.996231	0.4360199
1443115615431992500	2.02742	12.247726	0.5717468
1443115615440384834	2.407364	12.143707	0.91911316
1443115615448777168	2.748108	12.429428	0.43748474
1443115615457169502	2.9453125	12.894165	0.062408447
1443115615465561836	3.1118927	13.378189	0.16749573
1443115615473954170	3.32753	13.686249	0.4405365
1443115615482346504	3.3885345	13.674332	0.31074524
1443115615490738838	2.9988403	14.035217	-0.16529846
1443115615499131172	2.3748932	13.947983	-0.51594543
1443115615507523506	1.7631531	13.696625	-0.31114197
1443115615515915840	0.7816925	12.942047	-0.027694702
1443115615524308174	-0.67045593	12.194489	0.35049438
1443115615532700508	-2.2710571	11.950424	0.8101349
1443115615541092842	-3.5219269	12.15715	1.003891
1443115615549485176	-4.664215	12.935471	0.8342438
1443115615557877510	-5.5956573	13.676224	0.7470093
1443115615566269844	-6.236908	14.290482	0.4462738
1443115615574662178	-6.044327	14.467209	-0.26579285
1443115615583054512	-5.283493	14.095703	-1.53508
1443115615591446846	-4.10849	13.0191345	-2.9685364
1443115615599839180	-2.7412567	11.7977295	-2.7946625
1443115615608231514	-1.7377625	11.126343	-0.022720337
1443115615616623848	-1.9436188	11.174698	2.2444763
1443115615625016182	-1.095108	11.2851715	2.3193512
1443115615633408516	-0.14190674	11.331787	2.7859955
1443115615641800850	0.29911804	11.350098	3.6094666
1443115615650193184	0.058242798	11.453949	4.0407104
1443115615658585518	-0.59088135	11.618057	3.7882996
1443115615666977852	-0.96850586	11.312393	3.0078278
1443115615675370186	-1.1677856	10.48642	2.5327148
1443115615683762520	-1.4043121	9.873962	1.7950287
1443115615692154854	-1.2811737	9.252213	0.7445221
1443115615700547188	-0.95458984	8.48349	-0.42274475
1443115615708939522	-0.8387451	7.682266	-1.5027618
1443115615717331856	-0.8852844	7.059372	-2.4774933
1443115615725724190	-0.7156372	6.673813	-3.2619934
1443115615734116524	-0.55711365	6.081482	-3.6820984
1443115615742508858	-0.38235474	5.3945313	-3.868988
1443115615750901192	-0.3473053	4.6418457	-3.0940552
1443115615759293526	-0.4608612	3.901657	-1.6298218
1443115615767685860	-0.73043823	3.2789917	-0.3508606
1443115615776078194	-1.2914581	2.8341522	0.24980164
1443115615784470528	-1.7808533	2.4383087	0.9314575
1443115615792862862	-1.5930023	1.8050537	1.6226044
1443115615801255196	-1.8299408	1.6457367	2.0307007
1443115615809647530	-2.052063	1.7804108	2.2584076
1443115615818039864	-2.14151	2.0738068	2.4351196
1443115615826432198	-2.2311249	2.483368	2.6054077
1443115615834824532	-2.3645477	2.9562836	2.7091522
1443115615843216866	-2.3779144	3.3017426	2.7122345
1443115615851609200	-2.4038239	3.5507355	2.8532562
1443115615860001534	-2.5770874	3.9431	3.1944885
1443115615868393868	-2.520401	4.110214	3.5857086
1443115615876786202	-2.4050446	4.2114105	3.919983
1443115615885178536	-2.4988556	4.538681	4.1801605
1443115615893570870	-2.7647858	5.1412354	4.449341
1443115615901963204	-3.0506134	5.9853516	4.935669
1443115615910355538	-2.9981842	7.4243774	5.8172607
1443115615918747872	-2.4828644	9.477371	7.157852
1443115615927140206	-1.8233795	12.044739	8.7521515
1443115615935532540	-1.1119843	15.110596	10.24382
1443115615943924873	-0.28953552	18.500534	11.229095
1443115615952317207	0.6517792	21.521286	11.447449
1443115615960709541	1.3272858	22.297546	11.13591
1443115615969101875	1.3464966	19.325378	10.246231
1443115615977494209	0.90249634	15.07637	9.936737
1443115615985886543	0.5128784	11.051559	9.343475
1443115615994278877	0.12802124	8.119217	8.266312
1443115616002671211	-0.31396484	6.47316	7.1388245
1443115616011063545	-0.73091125	5.872574	6.632004
1443115616019455879	-1.3560333	6.208786	6.9466248
1443115616027848213	-2.0168915	7.4993286	7.1652985
1443115616036240547	-2.5637665	9.633118	7.082367
1443115616044632881	-2.9783173	12.238281	7.0112915
1443115616053025215	-3.099823	14.499496	6.433548
1443115616061417549	-3.004486	15.9449005	4.3062134
1443115616069809883	-2.9793396	16.476624	0.47198486
1443115616078202217	-3.0965576	15.661011	-2.0626068
1443115616086594551	-2.6544495	11.649109	-2.1859894
1443115616094986885	-2.9240417	6.8279266	-3.3416443
1443115616103379219	-3.8027039	3.9013214	-3.1904755
1443115616111771553	-4.2671204	2.9305573	-0.6199188
1443115616120163887	-3.6751251	2.598236	3.0651245
1443115616128556221	-2.5498047	1.6621857	5.4082947
1443115616136948555	-2.718689	0.47068787	5.742859
1443115616145340889	-2.3130188	0.5884552	5.1642914
1443115616153733223	-1.2215576	1.791748	3.480301
1443115616162125557	0.4818573	3.7926636	0.5839081
1443115616170517891	2.017044	6.6031036	-3.1260376
1443115616178910225	2.6498718	10.328369	-6.517212
1443115616187302559	2.41951	14.580627	-7.782593
1443115616195694893	2.1984558	17.648666	-5.657364
1443115616204087227	2.4192657	18.515793	-1.8830109
1443115616212479561	2.833084	18.032578	1.3632355
1443115616220871895	3.7913666	16.644653	3.1387634
1443115616229264229	4.053406	14.732269	3.2859344
1443115616237656563	3.2720795	12.515625	2.706665
1443115616246048897	1.991745	10.208588	2.330719
1443115616254441231	0.74972534	8.628281	1.8207397
1443115616262833565	-0.15382385	7.5741577	0.69425964
1443115616271225899	-1.0400085	6.7678375	-0.6537018
1443115616279618233	-1.8019562	6.260086	-1.3735352
1443115616288010567	-2.3835754	6.131958	-1.4250641
1443115616296402901	-2.5666656	6.1988983	-0.9522095
1443115616304795235	-2.1855469	6.017212	-0.5255585
1443115616313187569	-1.8339233	6.390442	-0.50190735
1443115616321579903	-1.6563263	6.957596	-0.26046753
1443115616329972237	-1.3243256	7.6940765	0.40478516
1443115616338364571	-0.8235321	8.245972	-0.15739441
1443115616346756905	-0.15872192	8.714233	-1.304184
1443115616355149239	0.32362366	9.180145	-1.6900482
1443115616363541573	0.20658875	9.428055	-0.76449585
1443115616371933907	0.2137909	9.04866	0.35003662
1443115616380326241	0.4023285	8.26297	0.56484985
1443115616388718575	0.44909668	7.938553	0.3675537
1443115616397110909	0.78053284	7.6497955	-0.41630554
1443115616405503243	0.8830719	7.379318	-1.1385498
1443115616413895577	0.5940857	7.1865234	-1.4363861
1443115616422287911	0.36854553	7.0912476	-1.5158234
1443115616430680245	0.3558197	7.2399445	-1.4732971
1443115616439072579	0.23551941	7.8424377	-1.3262482
1443115616447464913	0.36741638	8.32489	-1.0704193
1443115616455857247	0.6161957	8.767792	-0.9203949
1443115616464249581	0.98435974	9.172668	-0.78507996
1443115616472641915	1.3654175	9.475403	-0.4723053
1443115616481034248	1.5517426	9.584503	0.08685303
1443115616489426582	1.4514465	9.449188	0.6250763
1443115616497818916	1.4185486	9.470779	0.8625946
1443115616506211250	1.1324158	9.960892	0.57951355
1443115616514603584	0.7944336	10.689117	0.32322693
1443115616522995918	0.51701355	11.439423	0.11329651
1443115616531388252	0.40460205	11.999527	-0.048553467
1443115616539780586	0.59672546	12.21611	-0.119659424
1443115616548172920	1.2467346	12.090576	-0.17356873
1443115616556565254	1.7042694	12.185181	-0.090286255
1443115616564957588	1.822113	12.662704	0.39845276
1443115616573349922	1.8876343	13.120987	1.0147552
1443115616581742256	1.8994446	13.349899	1.6848145
1443115616590134590	1.9335938	13.048889	2.1284485
1443115616598526924	2.106491	12.202972	2.0361938
1443115616606919258	2.3851929	11.528915	1.4747925
1443115616615311592	2.3821106	11.46106	1.3627319
1443115616623703926	2.5657196	12.071045	1.5182953
1443115616632096260	2.7826233	12.8789215	1.7978516
1443115616640488594	3.0859222	13.488205	1.9277191
1443115616648880928	3.43161	13.737717	1.5136566
1443115616657273262	3.6362305	13.647278	0.44696045
1443115616665665596	3.4348755	13.360352	-0.7920227
1443115616674057930	2.5763702	13.80658	-1.9692688
1443115616682450264	1.986145	13.841263	-1.9807434
1443115616690842598	0.9569397	13.399353	-1.2833557
1443115616699234932	-0.47358704	12.70343	-0.32258606
1443115616707627266	-2.1040192	12.333481	0.4121399
1443115616716019600	-3.8870544	12.661972	0.96762085
1443115616724411934	-5.58226	13.654343	1.6122894
1443115616732804268	-6.260849	14.087204	1.7449341
1443115616741196602	-6.4235687	14.1228485	0.7606201
1443115616749599883	-6.468292	13.785873	-0.22142029
1443115616757992217	-6.1362305	13.0998535	-0.9372711
1443115616766384551	-5.1860046	12.130783	-1.1399994
1443115616774776885	-3.5703125	11.033066	-0.42041016
1443115616783169219	-2.7025452	10.601242	1.2431641
1443115616791561553	-2.1543884	10.797379	2.1210022
1443115616799953887	-1.313736	11.0360565	2.5713043
1443115616808346221	-0.15473938	11.11084	2.7106628
1443115616816738555	0.4896698	11.083405	2.6064148
1443115616825130889	0.30618286	10.965378	2.4064178
1443115616833523223	-0.20941162	10.666977	2.2316742
1443115616841915557	-0.4935608	10.192078	1.8791046
1443115616850307891	-1.0127869	9.724258	1.671402
1443115616858700225	-1.1619415	9.03685	1.046402
1443115616867092559	-1.1416779	8.315201	-0.11526489
1443115616875484893	-1.0808105	7.7031555	-1.1088562
1443115616883877227	-1.0514832	7.142441	-1.7468872
1443115616892269561	-1.1690674	6.609436	-2.3809814
1443115616900661895	-1.6802521	6.5221405	-3.0555267
1443115616909054229	-1.4674225	6.225006	-3.093567
1443115616917446563	-1.410965	5.74736	-2.4283752
1443115616925838897	-1.6159668	5.3658447	-1.7675018
1443115616934231231	-1.8434296	4.993469	-1.1047516
1443115616942623565	-2.1338043	4.591507	-0.19500732
1443115616951015899	-2.4865112	4.1320496	0.91171265
1443115616959408233	-2.3216553	3.443512	1.475647
1443115616967800567	-2.6105804	3.1062775	1.6463318
1443115616976192901	-2.8839722	2.929596	2.0322876
1443115616984585235	-2.7075195	2.6557617	2.322113
1443115616992977569	-2.5644073	2.5137787	2.5918121
1443115617001369903	-2.4848938	2.5143738	2.8587494
1443115617009762237	-2.2808685	2.5169525	3.066803
1443115617018154570	-2.1510468	2.5247498	3.1866455
1443115617026546904	-1.989624	2.7622528	3.1064453
1443115617034939238	-1.88591	3.0258331	3.1091003
1443115617043331572	-1.8050079	3.3714447	3.194397
1443115617051723906	-1.8030853	3.9384613	3.354782
1443115617060116240	-1.7615814	4.764923	3.575882
1443115617068508574	-1.5576324	5.8383636	3.890976
1443115617076900908	-1.2258453	7.183548	4.4508057
1443115617085293242	-0.5318451	8.865631	5.7257385
1443115617093685576	0.5049896	11.055756	7.4374847
1443115617102077910	1.2052612	13.573914	9.224442
1443115617110470244	1.2758484	16.370605	10.681595
1443115617118862578	1.0605316	18.964584	11.43779
1443115617127254912	1.0748901	20.510757	11.26796
1443115617135647246	1.4541016	20.136658	10.291901
1443115617144039580	1.5178528	17.644379	9.635941
1443115617152431914	1.2446136	14.044327	9.407013
1443115617160824248	0.94096375	10.699066	9.143646
1443115617169216582	0.48735046	8.063904	8.04155
1443115617177608916	0.050338745	6.242859	6.7144623
1443115617186001250	-0.30065918	5.206421	5.875473
1443115617194393584	-0.81689453	4.9671326	5.4440002
1443115617202785918	-1.6836395	5.7135773	5.532425
1443115617211178252	-2.6398468	7.413315	5.747711
1443115617219570586	-3.6655884	10.065811	6.1608887
1443115617227962920	-4.2723083	12.879532	6.624359
1443115617236355254	-4.3389893	14.946045	6.362671
1443115617244747588	-4.180313	15.859985	4.92894
1443115617253139922	-4.1121216	15.447754	2.782669
1443115617261532256	-3.3512878	13.660797	1.5231628
1443115617269924590	-3.6162872	10.396423	-0.72398376
1443115617278316924	-4.596756	7.059738	-2.2812653
1443115617286709258	-5.376892	4.8002625	-1.0122528
1443115617295101592	-4.9424896	3.8322296	1.7758331
1443115617303493926	-3.6674347	3.427002	4.0857544
1443115617311886260	-2.8748627	2.6453247	5.1157227
1443115617320278594	-1.8786774	2.001007	4.341156
1443115617328670928	-0.8506317	2.550827	2.7422943
1443115617337063262	0.4086914	3.838272	0.49269104
1443115617345455596	1.5581818	5.844467	-2.3402252
1443115617353847930	2.2999878	8.455521	-5.187851
1443115617362240264	2.460907	11.241959	-6.8628845
1443115617370632598	2.1529846	13.82634	-6.2435303
1443115617379024932	1.9936218	15.857986	-3.1210022
1443115617387417266	2.6035156	16.282806	-0.67074585
1443115617395809600	3.5014954	15.453033	0.49720764
1443115617404201934	4.0535736	14.180511	0.77552795
1443115617412594268	3.6985626	13.146652	0.8070221
1443115617420986602	2.6072083	12.527512	0.93281555
1443115617429378936	1.9547272	11.865509	0.8989563
1443115617437771270	1.8508911	10.459991	0.5586395
1443115617446163604	0.46852112	9.098785	0.654541
1443115617454555938	-0.42842102	7.6425476	0.7701416
1443115617462948272	-1.3050385	6.654648	0.80340576
1443115617471340606	-2.0946045	6.1688232	0.5174866
1443115617479732940	-2.594864	5.9230804	0.008270264
1443115617488125274	-3.0054016	5.778717	-0.17832947
1443115617496517608	-2.710312	5.68721	-0.93608093
1443115617504909942	-2.475769	6.3499756	-0.6964569
1443115617513302276	-2.254181	7.5118256	-0.77456665
1443115617521694610	-1.6337128	8.284317	-0.49023438
1443115617530086944	-0.7878113	8.517609	-0.12869263
1443115617538479278	-0.010726929	8.547882	0.09510803
1443115617546871612	0.70010376	8.690903	0.72146606
1443115617555263945	1.4136353	8.717651	1.4195862
1443115617563656279	1.6854095	8.258514	0.9667511
1443115617572048613	1.5717926	7.791504	0.03895569
1443115617580440947	1.4825592	7.513382	-0.6198425
1443115617588833281	1.4604034	7.385681	-0.90771484
1443115617597225615	1.3442535	7.4580536	-1.1087494
1443115617605617949	1.0245056	7.899414	-1.4669647
1443115617614010283	0.71810913	8.388809	-1.6294098
1443115617622402617	0.4336853	8.607697	-1.5742493
1443115617630794951	0.23124695	8.883209	-1.3382568
1443115617639187285	0.05949402	9.194687	-0.9871979
1443115617647579619	0.014862061	9.50766	-0.5559845
1443115617655971953	0.09829712	9.77449	-0.17469788
1443115617664364287	0.24700928	9.911163	0.03201294
1443115617672756621	0.79296875	9.750763	0.38157654
1443115617681148955	0.50605774	9.856812	0.79319763
1443115617689541289	0.30329895	10.1974945	0.9890747
1443115617697933623	0.17063904	10.521164	0.85272217
1443115617706325957	-0.12120056	11.079498	0.18171692
1443115617714718291	-0.5205231	11.790909	-0.8043518
1443115617723110625	-0.6809387	12.170792	-1.5814209
1443115617731502959	-0.44067383	12.069702	-2.072464
1443115617739895293	0.03742981	11.363358	-1.8020477
1443115617748287627	0.117385864	10.93457	-0.897583
1443115617756679961	-0.28894043	11.010971	0.15309143
1443115617765072295	-0.55810547	11.286591	1.1837921
1443115617773464629	-0.1630249	11.442871	1.9303894
1443115617781856963	0.7604675	11.404831	1.9491425
1443115617790249297	1.1637878	11.366028	0.8458252
1443115617798641631	1.5380402	11.298172	0.13226318
1443115617807033965	1.8245697	11.639694	-0.5706482
1443115617815426299	1.9329071	12.504562	-0.7568512
1443115617823818633	1.8819885	13.838791	-0.73306274
1443115617832210967	1.8385773	15.270905	-0.60780334
1443115617840603301	2.179184	15.815079	-0.21130371
1443115617848995635	2.5431519	15.6732025	-0.5896759
1443115617857387969	2.6516113	15.129929	-1.2845612
1443115617865780303	2.580902	14.732376	-1.8254395
1443115617874172637	2.288437	13.784805	-1.8573608
1443115617882564971	1.576294	12.412674	-1.32547
1443115617890957305	0.40774536	10.821594	-0.40853882
1443115617899349639	-0.5852814	9.367264	0.098587036
1443115617907741973	-0.96040344	8.293121	0.21073914
1443115617916134307	-1.473465	8.643723	0.23027039
1443115617924526641	-2.0428314	9.767426	0.49250793
1443115617932918975	-2.3059082	11.256454	0.71121216
1443115617941311309	-2.274414	12.699158	0.49108887
1443115617949703643	-2.4241943	13.6571045	-0.24391174
1443115617958095977	-3.3022003	14.006424	-0.8640442
1443115617966488311	-4.109314	13.916977	-0.011703491
1443115617974880645	-4.223877	13.431213	0.3730011
1443115617983272979	-4.1642456	12.799713	0.6183319
1443115617991665313	-3.5794983	12.390701	0.8829498
1443115618000057647	-2.6759796	12.109985	1.1137543
1443115618008449981	-1.8163605	11.899704	1.24086
1443115618016842315	-1.2073059	11.835556	1.3043976
1443115618025234649	-0.9101715	11.448959	1.4452667
1443115618033626983	-1.0844574	10.973541	2.3634186
1443115618042019317	-0.87376404	10.377029	2.283966
1443115618050411651	-0.5957794	9.741837	1.5751648
1443115618058803985	-0.7388153	9.649414	0.79422
1443115618067196319	-0.84202576	9.8381195	-0.042388916
1443115618075588653	-0.015731812	9.3763275	-1.1979523
1443115618083980987	0.67211914	8.619614	-1.8590698
1443115618092373320	0.31019592	8.203201	-1.6431427
1443115618100765654	0.09446716	7.6251373	-2.674118
1443115618109157988	0.29951477	6.8515015	-3.1577759
1443115618117550322	0.25830078	6.1033173	-2.9675446
1443115618125942656	-0.276474	5.573822	-2.3932037
1443115618134334990	-0.93478394	5.251999	-1.6171265
1443115618142727324	-1.5267029	4.861923	-0.8304901
1443115618151119658	-1.7138367	4.283066	0.07223511
1443115618159511992	-2.249771	3.9633942	0.91171265
1443115618167904326	-2.2938232	3.627472	1.5628204
1443115618176296660	-2.3856506	3.4477692	2.043396
1443115618184688994	-2.643814	3.567688	2.3002625
1443115618193081328	-2.75589	3.9530334	2.2961578
1443115618201473662	-2.9649048	4.446945	2.253601
1443115618209865996	-3.1273499	4.787262	2.500351
1443115618218258330	-3.2709656	4.9983673	2.8108215
1443115618226650664	-3.0655212	4.9558716	2.639923
1443115618235042998	-2.9008179	4.7733307	2.4028778
1443115618243435332	-2.8182068	4.4785614	2.4182434
1443115618251827666	-2.57518	4.031067	2.679367
1443115618260220000	-2.175644	3.4873505	3.023285
1443115618268612334	-1.9617767	3.1429138	3.589798
1443115618277004668	-1.8147888	3.0357208	4.0812225
1443115618285397002	-1.795639	3.2365112	4.642685
1443115618293789336	-1.6909637	3.7302094	5.3457336
1443115618302181670	-1.2751617	4.628418	6.2061005
1443115618310574004	-0.48168945	6.1447906	7.275131
1443115618318966338	0.5022125	8.490173	8.694565
1443115618327358672	1.3412018	11.925278	10.357101
1443115618335751006	2.3988953	16.282928	11.864487
1443115618344143340	3.3435822	20.461502	12.729401
1443115618352535674	3.877304	22.6577	12.455399
1443115618360928008	3.6925507	21.678207	10.781876
1443115618369320342	2.905548	17.746124	8.450073
1443115618377712676	2.2489166	12.659134	7.310959
1443115618386105010	1.9456177	8.439545	7.4374237
1443115618394497344	1.352478	5.935089	7.138687
1443115618402889678	0.24432373	4.9572296	6.7610474
1443115618411282012	-1.1741486	5.230118	6.4661713
1443115618419674346	-2.624298	6.643585	6.31662
1443115618428066680	-4.00914	9.016129	6.21109
1443115618436459014	-5.3926086	11.935791	5.9345856
1443115618444851348	-6.117462	15.146759	5.5747223
1443115618453243682	-6.5895844	18.60463	3.4952545
1443115618461636016	-7.115448	20.80989	0.61320496
1443115618470028350	-5.7548676	19.434723	-0.5780487
1443115618478420684	-3.9382782	14.452759	-0.42892456
1443115618486813018	-3.4026642	7.7267456	0.051605225
1443115618495205352	-4.532715	2.4426727	1.2638702
1443115618503597686	-3.596054	0.7986145	3.5505066
1443115618511990020	-2.827011	-0.06729126	4.812683
1443115618520382354	-2.2061615	-0.37904358	4.6683807
1443115618528774688	-1.5552521	0.061584473	3.2393646
1443115618537167022	-0.5269165	1.187973	1.2032471
1443115618545559356	0.9631958	2.8918304	-1.2058563
1443115618553951690	1.9794159	5.438553	-5.087158
1443115618562344024	1.6971283	8.30246	-8.682922
1443115618570736358	1.3859711	11.534348	-9.342041
1443115618579128692	1.1958771	14.411423	-6.5954895
1443115618587521026	1.1642609	16.716705	-2.1969757
1443115618595913360	1.5783081	18.525177	1.6073608
1443115618604305694	2.6110687	19.746231	3.2765656
1443115618612698028	3.6266937	19.606552	2.8248444
1443115618621090362	2.4000854	16.651611	2.6973572
1443115618629482695	0.9100189	12.369324	2.647995
1443115618637875029	0.394989	9.437912	1.8323822
1443115618646267363	-0.1529541	7.781723	1.1706696
1443115618654659697	-1.0301666	6.768173	0.46224976
1443115618663052031	-1.8514862	5.9144287	-0.63627625
1443115618671444365	-2.528061	5.1167297	-0.87719727
1443115618679836699	-3.072998	4.7907867	-0.60884094
1443115618688229033	-2.7797241	4.840378	-0.8903198
1443115618696621367	-2.6023865	5.10997	-0.71177673
1443115618705013701	-2.361496	5.701828	-0.12200928
1443115618713406035	-1.9650421	6.616272	0.027816772
1443115618721798369	-1.4712219	7.7235413	-0.57803345
1443115618730190703	-0.9132538	8.824539	-0.74661255
1443115618738583037	-0.3138275	9.68718	0.009094238
1443115618746975371	-0.015213013	9.880112	0.88397217
1443115618755367705	-0.04525757	9.96814	1.6066895
1443115618763760039	0.07467651	9.6828	1.954071
1443115618772152373	0.33551025	9.029037	1.6374664
1443115618780544707	0.5442047	8.221405	0.673172
1443115618788937041	0.71487427	7.4648438	-0.42643738
1443115618797329375	0.87628174	6.9456177	-1.2674866
1443115618805721709	1.2286987	6.56723	-2.0226746
1443115618814114043	1.4089508	6.5700226	-2.6065674
1443115618822506377	1.572464	6.953659	-3.009079
1443115618830898711	1.8152313	7.5375977	-2.9368134
1443115618839291045	2.0424957	8.105804	-2.2584076
1443115618847683379	2.0565186	8.555176	-1.2894287
1443115618856075713	2.0678253	9.035339	-0.49053955
1443115618864468047	2.1194458	9.35817	0.22279358
1443115618872860381	2.027832	9.5703125	0.8548126
1443115618881252715	1.5173187	9.821991	1.3274994
1443115618889645049	0.8879547	10.105301	1.5516663
1443115618898037383	0.3874817	10.470444	1.4390259
1443115618906429717	-0.13311768	11.096191	0.9910126
1443115618914822051	-0.8867645	12.040054	0.5509491
1443115618923214385	-1.1654663	12.830597	-0.22277832
1443115618931606719	-0.9515381	12.956818	-0.4015808
1443115618939999053	-0.6302643	12.882477	-0.41033936
1443115618948391387	-0.4134674	13.048264	-0.47027588
1443115618956783721	-0.22984314	13.444611	-0.3945923
1443115618965176055	0.17355347	13.608612	0.15336609
1443115618973568389	0.8951416	13.126312	0.8730774
1443115618981960723	1.6681519	12.615158	1.8440857
1443115618990353057	2.4664154	11.572357	2.3170166
1443115618998745391	2.539734	11.245956	2.4835968
1443115619007137725	2.5825806	11.754868	1.9555359
1443115619015530059	2.8010254	12.727478	1.2652893
1443115619023922393	2.7107239	13.775345	1.3943939
1443115619032314727	2.622223	14.74202	1.4119263
1443115619040707061	2.618103	14.886993	0.31488037
1443115619049099395	2.5446167	14.243118	-0.5876007
1443115619057491729	2.1620026	12.915985	-1.3310394
1443115619065884063	1.4409332	11.6675415	-1.6286163
1443115619074276397	0.7431183	10.760284	-1.5231018
1443115619082668731	0.21502686	9.725357	-1.1661377
1443115619091061065	-0.55641174	9.017273	-0.3658142
1443115619099453399	-1.1667633	8.663025	-0.03213501
1443115619107845733	-1.6168671	8.793213	0.28523254
1443115619116238067	-2.093689	9.520462	0.7087097
1443115619124630401	-2.64357	10.682083	1.2566681
1443115619133022735	-3.2554169	12.14444	1.7817688
1443115619141415069	-3.867981	13.765701	1.9619293
1443115619149807403	-3.7003937	14.528595	1.2874451
1443115619158199737	-3.4208221	14.038635	0.08369446
1443115619166592070	-3.4642487	13.644211	-0.89430237
1443115619174984404	-2.9844666	13.010925	-0.3203888
1443115619183376738	-2.0105133	12.296799	1.3211365
1443115619191769072	-0.9760437	11.875229	2.7003784
1443115619200161406	-0.12721252	11.85556	3.0087433
1443115619208553740	0.23265076	11.948105	2.9521942
1443115619216946074	0.8559723	11.740082	2.5755768
1443115619225338408	0.92652893	11.434387	1.9758606
1443115619233730742	0.35186768	11.123657	1.6459503
1443115619242123076	-0.14324951	10.615204	1.4205933
1443115619250515410	0.020401001	9.674606	0.9281311
1443115619258907744	0.47283936	8.431839	0.1605835
1443115619267300078	-0.5286102	8.139832	0.051574707
1443115619275692412	0.008453369	7.4192047	-1.4149017
1443115619284084746	0.3662567	6.756775	-2.8628845
1443115619292477080	0.3325653	6.1937103	-2.6579895
1443115619300869414	0.026733398	5.748047	-1.6281433
1443115619309261748	-0.32873535	5.4240875	-1.1815948
1443115619317654082	-0.64456177	5.203308	-1.6077881
1443115619326046416	-1.2665863	5.031082	-1.0217285
1443115619334438750	-1.8886261	4.8588715	-0.4356842
1443115619342831084	-1.8794861	4.4487915	0.48413086
1443115619351223418	-2.069809	4.063614	1.5703735
1443115619359615752	-2.0443268	3.6952667	2.2534485
1443115619368008086	-1.8377686	3.4562988	2.426529
1443115619376400420	-2.0739136	3.564911	2.5254822
1443115619384792754	-2.317459	3.8667603	2.7363892
1443115619393185088	-2.2454834	4.331482	2.4176636
1443115619401577422	-2.3255157	4.660614	2.300171
1443115619409969756	-2.3531342	4.8213654	2.278717
1443115619418362090	-2.381363	4.858551	2.273285
1443115619426754424	-2.5232697	4.84816	2.356598
1443115619435146758	-2.783966	4.85553	2.652481
1443115619443539092	-2.9371033	4.901474	3.0662231
1443115619451931426	-2.8106384	5.025879	3.5443115
1443115619460323760	-2.6815186	5.324997	4.172409
1443115619468716094	-2.4698486	5.887207	4.897415
1443115619477108428	-2.0539398	6.783325	5.6585236
1443115619485500762	-1.3826141	8.156845	6.6039734
1443115619493893096	-0.5171509	10.08638	7.9058075
1443115619502285430	0.37280273	12.356888	9.370377
1443115619510677764	0.90641785	14.832718	10.475662
1443115619519070098	1.7887421	17.182404	10.793442
1443115619527462432	2.4447327	18.69429	10.40654
1443115619535854766	2.662735	18.72403	9.739792
1443115619544247100	2.5630493	17.304459	8.841583
1443115619552639434	2.3455963	14.436966	7.4612885
1443115619561031768	2.236908	10.940094	6.622238
1443115619569424102	1.7001953	8.256577	6.847397
1443115619577816436	1.08992	6.387024	7.101074
1443115619586208770	0.5189209	5.4766083	7.392288
1443115619594601104	-0.21400452	5.3742523	7.688904
1443115619602993438	-1.164978	6.1560364	7.864731
1443115619611385772	-2.0824432	7.4417725	7.7284546
1443115619619778106	-2.866333	8.973373	7.101471
1443115619628170440	-3.2822723	10.425888	6.153702
1443115619636562774	-3.9859772	12.670425	4.184723
1443115619644955108	-5.048874	15.501923	1.5545502
1443115619653347442	-5.6037445	18.04007	-1.124115
1443115619661739776	-5.1605225	18.559921	-2.659546
1443115619670132110	-4.136368	15.436523	-1.8596954
1443115619678524444	-2.8377838	9.993423	0.20280457
1443115619686916778	-3.1815643	6.283188	2.5157318
1443115619695309112	-3.2462616	3.710373	3.930603
1443115619703701445	-2.4881744	1.5276184	4.559494
1443115619712093779	-2.008728	0.2730713	4.499954
1443115619720486113	-2.0908356	0.17617798	3.8617706
1443115619728878447	-1.6858368	0.7026825	2.7604828
1443115619737270781	-0.42837524	1.65065	1.2213135
1443115619745663115	0.8065338	3.6875763	-1.9046783
1443115619754055449	1.5815887	6.695114	-5.8121796
1443115619762447783	2.2182007	10.418961	-8.162537
1443115619770840117	2.6651917	14.30127	-7.6046295
1443115619779232451	2.9651337	17.619232	-4.4702606
1443115619787624785	3.4499054	19.735138	-0.40423584
1443115619796017119	4.644745	20.41893	2.9445343
1443115619804409453	5.91658	18.876663	3.438034
1443115619812801787	4.6582947	15.810394	2.9770813
1443115619821194121	2.8577576	12.161926	2.5474396
1443115619829586455	1.202774	9.390823	2.2625122
1443115619837978789	-0.12742615	7.936615	1.6806183
1443115619846371123	-1.1525574	7.145645	0.50642395
1443115619854763457	-2.0244446	6.24942	-0.5467987
1443115619863155791	-2.7143402	5.51532	-0.8819885
1443115619871548125	-3.0789795	5.236023	-1.1796417
1443115619879940459	-3.2619019	5.202957	-0.8159485
1443115619888332793	-3.0991669	5.349365	-0.23641968
1443115619896725127	-2.4184113	5.477112	-0.3136139
1443115619905117461	-1.4299927	5.6728363	-1.3598938
1443115619913509795	-0.9528656	6.7779083	-2.222824
1443115619921902129	-0.41719055	8.10939	-1.7303314
1443115619930294463	0.19146729	8.831467	-0.35203552
1443115619938686797	0.5311279	9.077347	0.969162
1443115619947079131	0.7748871	8.98378	1.5110474
1443115619955471465	0.9387665	8.695923	1.3297272
1443115619963863799	1.0073547	8.255905	0.84147644
1443115619972256133	1.1839752	7.5569916	0.16101074
1443115619980648467	1.0945282	6.930847	-0.41989136
1443115619989040801	0.872879	6.8353424	-0.8527832
1443115619997433135	0.6923523	7.2063446	-1.268692
1443115620005825469	0.6670532	7.69368	-1.547348
1443115620014217803	0.844223	8.187073	-1.5348816
1443115620022610137	1.1229553	8.709091	-1.1891785
1443115620031002471	1.2700653	9.190659	-0.65252686
1443115620039394805	1.4181213	9.482651	-0.0839386
1443115620047787139	1.3059845	9.700577	0.11616516
1443115620056179473	1.1449738	9.852997	0.09124756
1443115620064571807	0.9611206	9.925339	0.18682861
1443115620072964141	0.7976074	9.9691925	0.4232025
1443115620081356475	0.66326904	10.111984	0.6005249
1443115620089748809	0.3311615	10.647659	0.23861694
1443115620098141143	0.22471619	11.377792	-0.35290527
1443115620106533477	0.18380737	12.010132	-1.0972748
1443115620114925811	0.35961914	12.362869	-1.4600983
1443115620123318145	0.5085144	12.707184	-1.2620544
1443115620131710479	0.40289307	13.06662	-0.39517212
1443115620140102813	0.12936401	13.215393	0.7005768
1443115620148495147	0.26808167	13.13826	1.2614594
1443115620156887481	0.46446228	13.243134	1.563736
1443115620165279815	0.90122986	12.368866	2.1258698
1443115620173672149	1.4035492	11.829941	1.7121582
1443115620182064483	1.7292175	11.338486	0.9190521
1443115620190456817	1.9853363	10.953812	0.29943848
1443115620198849151	2.3916473	11.193802	0.021697998
1443115620207241485	2.4888916	12.319519	0.48313904
1443115620215633819	2.3727112	13.519394	1.4084778
1443115620224026153	2.5710907	14.45256	1.5159607
1443115620232418487	2.973526	14.901474	0.96183777
1443115620240810820	3.2901306	14.825943	0.08055115
1443115620249203154	3.2087555	14.469452	-0.6944885
1443115620257595488	2.5949402	14.000214	-0.9046631
1443115620265987822	1.6420593	13.021698	-0.17285156
1443115620274380156	0.15327454	11.689194	1.0722809
1443115620282772490	-0.69311523	10.657074	1.6053314
1443115620291164824	-1.4150848	10.424545	1.445404
1443115620299557158	-2.206009	10.931686	1.0876465
1443115620307949492	-3.1525269	11.967133	0.7706909
1443115620316341826	-3.9815674	13.179367	0.36860657
1443115620324734160	-3.931137	14.006241	-0.40093994
1443115620333126494	-3.8643036	13.915756	-1.4897614
1443115620341518828	-4.05513	13.21579	-2.7900543
1443115620349911162	-3.6324615	12.344009	-3.1786194
1443115620358303496	-3.5445404	11.838959	-1.3735657
1443115620366695830	-3.7027588	11.945206	1.6372375
1443115620375088164	-3.3286285	12.486603	3.7144012
1443115620383480498	-2.1486206	12.942139	3.695465
1443115620391872832	-1.3507538	12.866058	3.091919
1443115620400265166	-1.3273621	12.304764	2.8624268
1443115620408657500	-1.5340881	11.463898	2.6895142
1443115620417049834	-1.9173431	10.614777	2.4858246
1443115620425442168	-2.1855621	9.82959	2.1282349
1443115620433834502	-2.1652985	9.128113	1.4275208
1443115620442226836	-2.1408844	8.623718	0.2620697
1443115620450619170	-2.4966278	8.31218	-0.738327
1443115620459011504	-2.7591705	8.239899	-2.062561
1443115620467403838	-2.3208618	7.702469	-2.830841
1443115620475796172	-1.964035	7.116104	-2.9645233
1443115620484188506	-1.7272186	6.5131836	-2.7930603
1443115620492580840	-1.2232208	5.623001	-2.3645782
1443115620500973174	-0.35095215	4.309906	-1.3198547
1443115620509365508	-0.27999878	3.4955902	-0.46955872
1443115620517757842	-0.8878784	3.1475525	0.009475708
1443115620526150176	-0.6897583	2.526535	0.61938477
1443115620534542510	-0.84272766	2.0694275	1.2126007
1443115620542934844	-1.2221222	1.9292908	1.6949921
1443115620551327178	-1.4481049	2.0336914	2.0429993
1443115620559719512	-1.531189	2.2089996	2.2207642
1443115620568111846	-0.93177795	2.162735	1.9812012
1443115620576504180	-0.8953552	2.6115875	1.691742
1443115620584896514	-1.006134	3.1051636	1.5692596
1443115620593288848	-1.2797089	3.4543304	1.7000885
1443115620601681182	-1.6291656	3.5878448	2.0994263
1443115620610073516	-1.9122162	3.5668793	2.7138672
1443115620618465850	-2.015503	3.5425873	3.4368591
1443115620626858184	-1.9558563	3.640274	4.138077
1443115620635250518	-1.7660522	4.001343	4.6653748
1443115620643642852	-1.734375	4.665756	4.995575
1443115620652035186	-1.5901337	5.678787	5.3205566
1443115620660427520	-1.1939087	7.185318	5.9113464
1443115620668819854	-0.5383301	9.35553	6.9371033
1443115620677212188	0.19772339	12.297546	8.444244
1443115620685604522	0.5410156	15.961044	10.492447
1443115620693996856	0.44755554	19.784882	12.269287
1443115620702389190	1.0518341	23.238876	12.804581
1443115620710781524	1.7948303	23.593628	11.733032
1443115620719173858	2.0889282	20.72551	10.2734375
1443115620727566192	1.5823059	15.198456	9.308701
1443115620735958526	0.73495483	10.139206	8.762009
1443115620744350860	0.11274719	6.4505463	7.854538
1443115620752743194	-0.47639465	4.194748	6.2536926
1443115620761135528	-1.0322723	3.0033722	5.2535095
1443115620769527862	-1.7093506	2.748825	4.887497
1443115620777920195	-2.3789368	3.640854	4.999222
1443115620786312529	-2.803955	5.6506805	5.1764984
1443115620794704863	-2.9003296	8.52739	5.2470856
1443115620803097197	-2.8602295	11.619095	6.043915
1443115620811489531	-2.88591	14.2712555	6.9665833
1443115620819881865	-3.1138306	16.627518	5.5099335
1443115620828274199	-3.707489	18.270523	2.9244995
1443115620836666533	-3.4638824	18.419266	1.363617
1443115620845058867	-2.0536194	16.195618	1.3847504
1443115620853451201	-1.3638153	11.282303	1.1186218
1443115620861843535	-2.6983643	5.8926544	0.17373657
1443115620870235869	-3.8550262	2.9536285	1.2109375
1443115620878628203	-3.727356	1.7572327	2.5377045
1443115620887020537	-3.4977264	0.74583435	3.5288696
1443115620895412871	-3.5107117	0.09286499	3.8132935
1443115620903805205	-3.3807373	0.32279968	3.333664
1443115620912197539	-2.566208	1.2863617	2.327057
1443115620920589873	-1.1720123	2.9560852	1.0665283
1443115620928982207	0.6442566	5.387741	-1.123352
1443115620937374541	1.9812775	8.7907715	-4.5105286
1443115620945766875	2.5958405	12.516464	-7.4587555
1443115620954159209	2.7482605	15.4869995	-8.05809
1443115620962551543	2.8125153	17.324615	-5.4976044
1443115620970943877	3.0589447	18.534424	-0.6919708
1443115620979336211	3.7745514	19.14412	4.1075134
1443115620987728545	4.780884	17.943832	4.700531
1443115620996120879	4.720871	15.227798	3.3657837
1443115621004513213	3.464386	11.793381	2.0513306
1443115621012905547	1.842926	9.099045	1.2350922
1443115621021297881	0.52667236	7.8269043	0.48103333
1443115621029690215	-0.5100403	7.4218903	-0.6207886
1443115621038082549	-1.7901001	6.8070526	-1.2058258
1443115621046474883	-2.5252533	6.025635	-1.6098938
1443115621054867217	-3.0737915	5.529724	-1.6510773
1443115621063259551	-3.3720856	5.4140625	-2.1033478
1443115621071651885	-3.123581	5.5363007	-2.1871796
1443115621080044219	-2.6430817	5.9570465	-1.2636871
1443115621088436553	-2.4740753	6.839676	0.08743286
1443115621096828887	-2.042038	7.904999	-0.28312683
1443115621105221221	-1.487854	8.477676	-1.453186
1443115621113613555	-1.0101166	8.787659	-1.297409
1443115621122005889	-0.6654358	8.807861	-0.4982605
1443115621130398223	-0.30236816	8.550888	0.40318298
1443115621138790557	0.14291382	8.160553	1.0497131
1443115621147182891	0.5309448	7.873291	1.3135376
1443115621155575225	0.56977844	7.880417	1.2765045
1443115621163967559	0.6839142	7.885559	0.6123047
1443115621172359893	0.5593567	8.176041	-0.36325073
1443115621180752227	0.4918518	8.258804	-0.9081421
1443115621189144561	0.41548157	8.413116	-1.1360168
1443115621197536895	0.39212036	8.709061	-1.2441711
1443115621205929229	0.5341339	8.992569	-1.2714539
1443115621214321563	0.8240814	9.212585	-0.8468323
1443115621222713897	1.1265564	9.483734	-0.28233337
1443115621231106231	1.3232422	9.900452	0.05407715
1443115621239498565	1.5321808	10.045578	0.3827057
1443115621247890899	1.5450897	10.0576935	0.7310791
1443115621256283233	1.450882	9.948822	1.0361786
1443115621264675567	1.4515991	9.677567	1.0693207
1443115621273067901	1.3091736	9.8077545	0.5440216
1443115621281460235	1.3830261	10.418106	-0.13735962
1443115621289852569	1.3893738	11.256165	-0.8206024
1443115621298244903	1.2454681	11.882095	-0.9687805
1443115621306637237	1.1530609	12.263626	-0.717453
1443115621315029570	1.2204742	12.540985	-0.4953003
1443115621323421904	1.2567444	12.833939	-0.46229553
1443115621331814238	0.9421234	13.331558	0.19985962
1443115621340206572	0.9351349	13.664871	1.6074677
1443115621348598906	1.0895691	13.557007	3.1712952
1443115621356991240	1.3962402	12.907364	3.61969
1443115621365383574	1.7320709	11.771362	3.0266418
1443115621373775908	1.9134827	10.510864	2.1086578
1443115621382168242	1.8735199	9.778046	1.5452576
1443115621390560576	1.9897003	10.300339	1.5257263
1443115621398952910	2.1120148	11.14621	1.5082245
1443115621407345244	2.126114	11.751495	0.9912262
1443115621415737578	2.3683014	11.737473	-0.006439209
1443115621424129912	2.2493286	11.746811	-1.0928345
