gyroscope_timestamp	gyroscope_x_data	gyroscope_y_data	gyroscope_z_data
3547277191231	-0.6533666	-3.589783	0.43166912
3547287200997	0.52226615	-1.126604	-0.5425179
3547297210762	0.23555261	0.33041307	-0.37624553
3547307220528	0.1897212	0.9528695	0.2685939
3547317199776	0.6011391	1.1628422	1.0125573
3547327209541	0.92515737	0.7109215	1.9537027
3547337188790	0.8217698	-0.017053818	2.890585
3547347168038	0.21423534	-0.5936788	3.7581866
3547357177803	-0.7482268	-0.94114596	4.3881044
3547367157051	-1.6307508	-1.1937524	4.6151304
3547377136299	-1.8854887	-1.2470449	4.446726
3547387146065	-1.73627	-1.3099298	4.097127
3547397125313	-1.5433512	-1.2747569	3.7603183
3547407135079	-1.3014032	-0.9816481	3.5503461
3547417114327	-1.0157552	-0.37944293	3.2913446
3547427154610	-0.75995165	0.3666523	2.9854457
3547437133858	-0.48069844	1.1820272	2.7147195
3547447143624	-0.36878443	1.7629157	2.5090103
3547457153389	-0.76101744	1.6360794	2.4738376
3547467132637	-1.4580832	0.86120665	2.5303276
3547477142403	-1.9739544	0.14282346	2.4951546
3547487121651	-2.1370296	-0.26752838	2.4162815
3547497100899	-2.0570908	-0.4060892	2.392833
3547507110664	-2.0474982	-0.4156819	2.3779113
3547517089913	-2.4844968	-0.7077249	2.278787
3547527099678	-2.199915	-2.4013603	1.8950812
3547537078926	-0.71092236	-3.3115962	1.2662295
3547547119210	0.46471015	-2.70193	0.90170854
3547557098458	0.75355583	-1.8801597	0.8889187
3547567108223	0.06288496	-1.3056667	1.0466644
3547577087471	-0.81430995	-1.1926866	0.83882356
3547587066719	-1.337642	-0.80151933	0.63098276
3547597076485	-1.3546957	-0.36985022	0.43806416
3547607055733	-0.7492926	-1.4644781	0.15454803
3547617096016	0.34959874	-2.3747141	-0.12470465
3547627075264	0.7002633	-1.6669897	-0.34320396
3547637054512	0.5062784	-0.46790862	-0.4934891
3547647064278	0.24088159	0.2835156	-0.7492926
3547657074044	0.46364436	-0.05649044	-0.9805823
3547667053292	1.0445325	-0.34959927	-1.3504323
3547677063057	1.3632219	-0.02238307	-1.8897525
3547687072823	1.2640979	0.47110522	-2.5580404
3547697052071	1.1298008	0.5297272	-3.419247
3547707061836	1.1234055	0.19931364	-4.3657217
3547717041084	1.2395833	-0.48176426	-4.876264
3547727050850	1.3845385	-1.1095504	-4.8325644
3547737030098	1.3344439	-0.37304762	-4.577826
3547747039864	1.3717487	1.1681712	-4.2367544
3547757049629	1.3653535	1.9227933	-3.886089
3547767028878	1.0786399	1.7703766	-3.7965577
3547777038643	1.2353197	0.123638056	-3.8370605
3547787017891	1.6978986	-2.949207	-3.3744812
3547796997139	1.2033442	-5.328184	-2.1754003
3547806976387	-0.04796353	-5.101158	-1.3152593
3547816986153	-1.842855	-1.4698074	-1.465544
3547826995918	-2.0784078	-0.074609786	-2.341673
3547836975167	-0.86866826	-0.6437739	-3.0664508
3547846984932	-0.18012902	-0.5446495	-3.1943529
3547857025215	0.10765083	0.35279614	-2.928956
3547867004463	0.24301371	1.5625358	-2.4919574
3547876983712	0.28671354	2.5239325	-2.0240495
3547886993477	0.4178127	3.2774882	-1.700031
3547897003243	0.6693533	3.797623	-1.5380219
3547906982491	0.8590748	4.042769	-1.4325029
3547916992256	0.8697333	4.164275	-1.2577031
3547926971504	0.78659713	4.134432	-1.0349406
3547936981270	0.6384439	3.9404469	-0.86547035
3547946960518	0.42953727	3.570597	-0.6864077
3547956970284	0.23128888	2.96626	-0.43699864
3547966980049	0.049028795	2.1316996	-0.13536341
3547976959298	-0.20784108	1.1319324	0.2248941
3547986938546	-0.6032715	0.27392316	0.55317557
3547996948311	-1.0093602	-0.43060386	0.9667256
3548007507393	-1.0967598	-0.62885195	1.2768878
3548016937325	-0.67042017	-0.20144603	1.3419049
3548026977608	0.536122	1.1425906	1.3792096
3548036956856	3.3691514	5.4987197	1.1244713
3548046966622	3.986279	7.5121107	-1.2161351
3548056915352	-0.7727415	2.4045575	-4.775008
3548066925118	-3.5439515	-2.5068796	-4.881593
3548076904366	-0.89744616	-2.184993	-2.3800433
3548086914132	0.8697333	-0.72264636	-0.29310885
3548096923897	0.9134331	-2.1189103	0.5659662
3548106903145	0.5052126	-4.0896664	1.1681712
3548116912911	-0.09805839	-5.7726436	1.8726981
3548126892159	-1.5934463	-5.4731402	2.2425478
3548136901924	-2.4162824	-2.6848764	1.2203978
3548146881172	-2.3374093	-0.3506651	-0.05222672
3548156921456	0.013855628	0.86227244	-1.6115656
3548166900704	0.86227244	1.0242816	-1.5529436
3548176879952	0.82816505	0.4263396	-0.6448397
3548186920235	1.2587684	-0.068214744	0.19824784
3548196899483	1.2172004	-0.42314273	1.0829034
3548206909249	0.4156811	-1.0200189	2.179663
3548216888497	-0.7887295	-1.4591491	3.5109096
3548226867745	-1.8162087	-0.9880431	4.5224013
3548236877510	-2.1700706	-0.8302972	5.0116262
3548246856758	-1.9792837	-0.66722226	4.9402137
3548256866524	-1.5444169	-0.5084105	4.5479813
3548266845772	-1.1042209	-0.6608272	4.2346215
3548276825020	-0.7738073	-0.9592653	3.96283
3548286834786	-0.5787568	-0.89851195	3.713421
3548296844551	-0.5243985	-0.35705987	3.5215683
3548306854317	-0.4114187	0.4338007	3.2817519
3548316833565	-0.19931445	1.3536291	2.95347
3548326843330	-0.31122845	2.074144	2.620925
3548336853096	-1.080772	1.93132	2.3779113
3548346832344	-1.7565212	1.331246	2.021917
3548356842110	-1.8876206	0.8025846	1.6179601
3548366821358	-1.5998412	0.2931083	1.468741
3548376831124	-1.2491765	-0.2728579	1.702162
3548386810372	-1.1329987	-0.83349514	2.121041
3548396789620	-1.3195225	-0.99124056	2.3235524
3548406799385	-1.6605943	-0.71411973	2.1530166
3548416809151	-1.9718229	-0.75781953	1.9995341
3548426788399	-1.2800862	-1.848184	1.986744
3548436767647	-0.15774596	-2.3086314	1.9611635
3548446807930	0.44126156	-1.791694	1.7639815
3548456817696	0.3016352	-1.2065427	1.3589586
3548466796944	-0.23981632	-1.0157552	1.0200181
3548476776192	-0.7812684	-0.9592653	0.86227244
3548486785958	-1.0093602	-1.0306774	0.6778802
3548496765206	-0.66722226	-1.4975195	0.48176372
3548506774971	0.14388953	-1.6680555	0.44339314
3548516784737	0.5542419	-1.4261075	0.40182492
3548526763985	0.5414515	-0.97525334	0.1918528
3548536773750	0.34107184	-0.76208323	-0.12363885
3548546752998	0.3133598	-1.2267936	-0.40289178
3548556762764	0.84735024	-1.6915044	-0.7812684
3548566742012	1.4932557	-1.3621565	-1.3387077
3548576751778	1.6222233	-0.4060892	-2.0048642
3548586761544	1.3461683	0.37411287	-2.844754
3548596771309	1.0722445	0.7908603	-3.886089
3548606750557	1.1361959	0.7812679	-4.960467
3548616760323	1.3429706	0.30696446	-5.350567
3548626739571	1.4996505	0.46257856	-5.153385
3548636749336	1.4655432	1.5998408	-4.655633
3548646728584	1.2822173	2.3096964	-4.1823955
3548656738350	1.1042204	2.2755895	-4.258071
3548666748116	1.298205	0.59794146	-4.4659114
3548676696846	1.6360794	-3.1058872	-3.6665244
3548686706612	0.78553104	-5.362292	-2.3288825
3548696685860	-0.69067115	-4.7195845	-1.3195225
3548706695626	-2.1658075	-0.49668646	-1.3067324
3548716705391	-1.3621565	0.9358159	-2.1935196
3548726684639	-0.25473854	0.30589867	-2.631584
3548736694405	0.119374864	0.19291858	-2.5921476
3548746704170	0.17586477	0.80791414	-2.468509
3548756713936	0.20784055	1.6819111	-2.3118289
3548766693184	0.32188642	2.3960307	-2.010193
3548776672432	0.551044	2.9790504	-1.6968334
3548786682198	0.88252336	3.6388118	-1.4900587
3548796691963	1.148986	4.149354	-1.3792104
3548806671212	1.219332	4.4211454	-1.2118717
3548816680977	1.1617761	4.446726	-1.0615869
3548826660225	0.95393527	4.1578803	-0.8835897
3548836669991	0.6810779	3.4256418	-0.73223907
3548846649239	0.472171	2.2937088	-0.640576
3548856659004	0.31762296	1.1926857	-0.4167477
3548866668770	0.046897203	0.18226008	-0.029844182
3548876648018	-0.5233327	-0.6416418	0.37624475
3548886627266	-1.1553818	-1.2459791	0.78553104
3548896637032	-1.2640984	-1.3472346	1.0829034
3548906646798	-0.75781953	-0.8281656	1.0530595
3548916656563	0.49988306	0.65549743	1.0136231
3548926666329	3.7102237	6.378046	0.8313627
3548936645577	4.1013904	8.874267	-1.842855
3548946624825	-1.572129	3.008894	-5.896282
3548956634590	-3.6654584	-1.4698074	-5.71722
3548966583321	-0.23768473	-0.85800976	-2.808515
3548976593087	1.2214637	-0.6459055	-0.4615133
3548986633370	0.98377943	-2.1327662	0.43806416
3548996612618	0.4359323	-3.7507262	0.8526797
3549006591866	-0.110848755	-5.000968	1.0882323
3549016601632	-0.58088845	-4.6801476	1.0956935
3549026580879	-0.89957774	-2.303302	1.1180766
3549036621163	-1.6371461	1.1830933	1.832196
3549046600411	-3.9830816	3.9095376	2.9065726
3549056610176	-3.3307815	-0.18652381	2.306499
3549066558907	-0.07034633	-2.7925274	0.47110522
3549076568672	0.4359323	-0.61179817	-0.18972173
3549086639473	0.1897212	0.9571332	0.16094308
3549096588204	0.66615593	1.3451024	0.75355583
3549106597969	1.1308666	1.1607102	1.446358
3549116607735	1.085035	0.51480526	2.355528
3549126586983	0.26326466	-0.48283058	3.2742908
3549136566231	-1.067982	-1.2832836	3.9638958
3549146575997	-2.0592225	-1.3099298	4.1578803
3549156555245	-2.389636	-1.4175807	4.0374393
3549166534493	-2.2478778	-1.550812	3.7453969
3549176544258	-1.8439208	-1.7522577	3.4618804
3549186523506	-1.3578931	-1.6435409	3.3670197
3549196533272	-0.89851195	-1.1010236	3.328649
3549206512520	-0.51054263	-0.15454857	3.2082078
3549216552803	-0.1417582	0.87079906	3.0142236
3549226562569	0.119374864	1.6733842	2.7989218
3549236541817	-0.026646258	2.0805387	2.6369128
3549246521065	-0.968858	1.7117548	2.5239325
3549256530830	-2.0144567	0.91556495	2.41415
3549266540596	-2.4205456	0.44019577	2.2596016
3549276519844	-2.2798536	0.15348223	2.134897
3549286529610	-1.9259912	-0.13216549	2.1082506
3549296508858	-1.6616602	-0.4604475	2.1444898
3549306488106	-1.8449866	-0.9464749	2.121041
3549316497872	-2.3725824	-2.1626098	2.014456
3549326507637	-1.4783343	-3.4448273	1.6136967
3549336486885	-0.20997268	-2.9108367	1.2363856
3549346496651	0.6064681	-1.7437311	1.0050962
3549356506416	0.49668565	-1.1735011	1.112747
3549366485664	-0.16307548	-1.1010236	1.2747562
3549376495430	-0.7077249	-0.75995165	1.0946276
3549386474678	-0.95393604	-0.4188793	0.614995
3549396453926	-0.9677922	-0.6928027	0.14708692
3549406463692	-0.5148058	-1.4591491	-0.16200967
3549416473458	0.14708692	-1.7138869	-0.32295302
3549426452706	0.49775147	-1.4005271	-0.54038626
3549436462471	0.4806979	-1.1052867	-0.778071
3549446441719	0.5073442	-1.3674861	-0.9113018
3549456451485	0.9123673	-1.5199025	-0.9155655
3549466461250	1.331246	-0.7919269	-1.0701135
3549476471016	1.376012	0.40395707	-1.685109
3549486450264	1.2768878	1.2182662	-2.8074493
3549496460030	1.3419049	1.7074916	-4.231425
3549506439278	1.5369552	1.6755158	-5.3004723
3549516449044	1.6264865	0.879326	-5.4081235
3549526458809	1.659528	0.31549138	-5.157648
3549536438057	1.7042936	0.9208942	-5.0244174
3549546447823	1.6851085	1.5433503	-5.3004723
3549556427071	1.6446064	1.0232158	-5.2247972
3549566436836	1.7799692	-1.1575134	-4.226095
3549576385567	0.92196	-4.052362	-2.8831246
3549586395333	-0.35279667	-5.108619	-1.9153329
3549596374581	-1.7863648	-2.9982362	-1.2470449
3549606414864	-1.8172746	0.4369981	-1.4772685
3549616394112	-0.45618433	0.82923084	-2.3757799
3549626403878	0.20570895	0.31655717	-2.841556
3549636383126	0.27605477	0.4369981	-2.8639393
3549646392891	0.23235469	1.0413351	-2.7594857
3549656402657	0.25047457	1.6488695	-2.602806
3549666381905	0.48709324	2.2969067	-2.3363435
3549676391670	0.864404	2.859675	-2.0869346
3549686370918	1.1212739	3.3584929	-1.9014765
3549696380684	1.2928758	3.9511058	-1.6211582
3549706359932	1.3429706	4.3561287	-1.2939421
3549716369698	1.2044101	4.38917	-1.0424014
3549726379463	0.9208942	4.045966	-0.8516145
3549736358712	0.6373781	3.1986156	-0.7535564
3549746368477	0.31975457	2.0581563	-0.57022995
3549756347725	0.004263188	0.943277	-0.26433098
3549766388009	-0.24408005	0.014921425	0.18226008
3549776336739	-0.56490093	-0.67042017	0.71838266
3549786346504	-1.0711793	-1.0296116	1.2630318
3549796325752	-1.3291153	-0.8281656	1.5657334
3549806335518	-1.1106162	-0.24194846	1.6541991
3549816375801	0.014921425	0.95073783	1.7767715
3549826355049	3.6643922	5.8056846	1.6009066
3549836334298	4.0683494	7.7934947	-1.0040312
3549846313546	-1.8098137	1.8641713	-5.000968
3549856323311	-4.185593	-2.0741444	-5.336712
3549866302559	-0.70665914	-1.5167049	-2.829832
3549876312325	1.0328082	-1.0136236	-0.39543068
3549886322090	0.78339946	-2.4940896	0.63311434
3549896331856	0.3581254	-4.19412	1.0306766
3549906311104	0.14175767	-5.1853604	1.0946276
3549916290352	-0.75462216	-4.5533113	1.3205879
3549926300118	-1.7352042	-2.069881	1.4921894
3549936309883	-2.299039	0.32721567	1.2065419
3549946289132	-2.611333	0.7929919	0.64057547
3549956268379	-0.7343712	-0.4124845	-0.71198815
3549966278145	0.3709155	-0.11298035	-0.920895
3549976287911	0.61179763	0.25580356	-0.25580436
3549986297676	1.0381378	0.27179158	0.45511746
3549996307442	1.2022785	-0.16840446	1.2203978
3550006286690	0.7919261	-0.9027754	2.2095068
3550016265938	-0.24621163	-1.5806556	3.44909
3550026245186	-1.2257279	-1.3802762	4.3198895
3550036254952	-1.7767721	-0.82283664	4.62046
3550046264717	-1.9249253	-0.328282	4.4829645
3550056274483	-1.8140769	0.008526376	4.066217
3550066284249	-1.5966437	-0.06395155	3.6697211
3550076232979	-1.3387077	-0.46684283	3.4789343
3550086242745	-1.1052867	-0.6981322	3.4384315
3550096221993	-0.87506306	-0.62245667	3.4267075
3550106231758	-0.5766252	-0.24834323	3.349966
3550116241524	-0.19078752	0.3613228	3.1527839
3550126251290	-0.01279063	0.9987011	2.8330293
3550136230538	-0.5073447	1.1436565	2.5100763
3550146240303	-1.0392041	0.9326185	2.099724
3550156250069	-1.1585792	0.91663074	1.5721282
3550166229317	-1.08397	0.8654698	1.1319324
3550176208565	-0.9496729	0.5201345	1.1074177
3550186218330	-0.8921166	-0.12577072	1.4388974
3550196197579	-0.9454091	-0.73650277	1.8439202
3550206207344	-1.0999577	-0.86653614	2.051761
3550216186592	-1.3483005	-0.56383514	1.8556446
3550226196358	-1.644607	-0.280319	1.6083671
3550236206124	-1.6254215	-0.449789	1.5849185
3550246185372	-1.0871674	-1.0871674	1.5518773
3550256164620	-0.5478474	-1.1521839	1.3610902
3550266204903	-0.31016266	-0.6523003	1.0402694
3550276184151	-0.25367275	-0.80151933	0.8345604
3550286163399	-0.43486705	-1.4506222	0.72797537
3550296173164	-0.57555944	-1.3941318	0.64590496
3550306182930	-0.42314273	-1.0466652	0.55743927
3550316162178	-0.105519235	-0.968858	0.49881727
3550326171944	0.2344868	-0.8803923	0.44552475
3550336151192	0.45938116	-0.5553082	0.24194792
3550346160958	0.46684203	-0.36025777	-0.09699259
3550356140206	0.4327349	-0.62245667	-0.38264033
3550366149971	0.5627683	-0.6853419	-0.67788076
3550376159737	0.7482263	-0.17693137	-1.2353206
3550386169503	0.8462844	0.6267196	-2.1647418
3550396148750	1.0360056	1.2481099	-3.404325
3550406158516	1.3525634	1.3109951	-4.447792
3550416137764	1.4953873	0.6086002	-4.895449
3550426147530	1.3856049	-0.33574313	-4.938083
3550436126778	1.3003366	-0.62352246	-4.934886
3550446167061	1.3802754	0.15348223	-4.8922515
3550456146309	1.3323123	0.77274096	-4.656699
3550466125557	1.3099294	0.5180027	-4.0459666
3550476104805	1.6499354	-0.9166313	-3.3350449
3550486114571	1.4538192	-3.3584936	-2.409887
3550496093819	0.44552475	-5.0318785	-1.4431611
3550506073067	-0.763149	-3.75499	-0.9805823
3550516082833	-1.5476146	-0.9933727	-1.3717493
3550526092598	-0.76528066	-0.5457158	-2.2073755
3550536102364	0.0053289854	-0.25047535	-2.5537767
3550546112129	0.32082036	0.16200915	-2.6145303
3550556091378	0.40715444	0.6341801	-2.6401107
3550566101143	0.39756176	1.0669156	-2.5505793
3550576080391	0.49881727	1.5849185	-2.2819853
3550586090157	0.70772415	2.1924531	-2.0080616
3550596069405	0.91556495	2.7616172	-1.8545793
3550606079170	0.943277	3.1026893	-1.7682452
3550616058418	0.86333823	3.4416294	-1.5550756
3550626068184	0.7812679	3.5780582	-1.26623
3550636077950	0.67681444	3.3531637	-0.9571337
3550646057198	0.55317557	2.7765388	-0.68427604
3550656066963	0.37411287	2.009127	-0.4487232
3550666046212	0.119374864	1.2651637	-0.13536341
3550676055977	-0.20144603	0.57236123	0.23981579
3550686035225	-0.51693743	0.075675055	0.5904806
3550696044991	-0.84521943	-0.29204303	0.96139634
3550706024239	-1.0285459	-0.48709375	1.3461683
3550716034004	-0.889985	-0.31868932	1.6627257
3550726043770	-0.3240188	0.5126737	1.94411
3550736053536	1.5135067	2.869268	2.2468116
3550746032784	4.5991426	7.3692865	1.5305603
3550756042549	3.0941622	6.7031307	-1.6627265
3550766021798	-2.7797372	1.2598342	-5.0905
3550776001046	-4.0054646	-2.195651	-5.17257
3550786010811	-0.62991774	-2.1114492	-3.0845704
3550795990059	1.2704929	-1.2640984	-0.85268027
3550806030342	1.1820272	-1.5795898	0.3016352
3550816009590	0.6896048	-2.6401107	0.7695436
3550826019356	0.052226186	-4.2410173	1.0018988
3550835998604	-0.68427604	-5.346304	1.1042204
3550845977852	-0.9805823	-4.457385	1.0306766
3550855987618	-1.4698074	-1.6200925	1.3184562
3550865997383	-2.5186036	0.83029664	2.534591
3550875976632	-3.4288397	1.0242816	3.8605082
3550885986397	-1.8279331	0.013855628	3.131467
3550895996163	0.09699179	0.38583744	1.1223397
3550905975411	0.52120036	1.5550749	0.14815272
3550915985176	0.7045265	2.3320794	0.09699179
3550925994942	1.2299905	2.4727714	0.5201345
3550936004707	1.5241652	2.1604774	1.2896781
3550945983956	1.340839	1.5774577	2.2819843
3550955993721	0.34533504	0.4146153	3.226328
3550965942452	-1.4612807	-1.3429714	3.8860886
3550975952217	-2.6273203	-2.4173481	3.9233937
3550985961983	-2.5996082	-2.9140344	3.5876508
3550995941231	-2.0144567	-3.3979301	3.2241957
3551005920479	-1.4794002	-3.0493972	2.8607414
3551015930245	-1.0924966	-2.0634856	2.3917668
3551025940010	-0.635247	-0.8942487	2.0133903
3551035949776	-0.16094388	0.2238283	1.8886858
3551045959541	0.045831405	1.0583887	1.8247348
3551055938790	-0.14602192	1.4122511	1.7554545
3551065918038	-0.8132436	1.1255372	1.7938251
3551075927803	-1.4261075	0.693868	1.8769616
3551085937569	-1.6510019	0.4124837	1.9281223
3551095916817	-1.6104997	0.36345437	1.8950812
3551105926583	-1.4548855	0.48389584	1.8108788
3551115905830	-1.5017831	0.54464895	1.8822908
3551125915596	-2.153017	0.4124837	2.0816045
3551135894844	-2.6699545	0.3144256	2.093329
3551145904610	-2.7403007	-0.33680892	2.0048637
3551155883858	-1.2758228	-2.7264447	1.9377149
3551165924141	0.08953121	-3.2753575	1.7767715
3551175903389	0.7045265	-2.283051	1.5998408
3551185882637	0.5563735	-1.5689316	1.3387072
3551195892403	-0.10978296	-1.4431611	1.070113
3551205871651	-0.73650277	-1.089299	0.82816505
3551215850899	-1.0573237	-0.67361754	0.49455407
3551225860664	-1.044533	-0.4167477	0.17799637
3551235870430	-0.7929927	-0.5670325	-0.122573055
3551245819161	-0.5126742	-0.98697734	-0.33680892
3551255828926	-0.24408005	-1.2513083	-0.5489132
3551265869210	0.046897203	-1.1649746	-0.778071
3551275848458	0.26646206	-0.704527	-1.0647845
3551285858223	0.28564718	0.14069188	-1.3824078
3551295867989	0.3016352	1.1084838	-1.8567109
3551305847237	0.8025846	1.5550749	-2.8191736
3551315857003	1.5262967	1.3845385	-3.902077
3551325866768	1.67445	0.97205484	-4.384907
3551335846016	1.5071117	0.4369981	-4.618328
3551345855782	1.4975189	-0.42314273	-4.56397
3551355835030	1.6392769	-0.93155324	-4.277256
3551365814278	1.6627257	-0.5467816	-4.052362
3551375824044	1.6414087	-0.28991145	-3.6974337
3551385803292	1.7852982	-0.63737863	-3.27216
3551395813057	2.1082506	-1.9696913	-2.8703346
3551405792305	1.7277426	-4.1152472	-2.2159023
3551415802071	0.63631225	-5.2908797	-1.4911244
3551425781319	-0.5116084	-4.147223	-1.4911244
3551435760567	-1.657397	-1.3472346	-2.2489436
3551445770333	-1.1106162	-1.0690477	-3.0664508
3551455780098	-0.1332313	-1.2832836	-3.2700279
3551465789864	0.381574	-0.89744616	-2.9683926
3551475769112	0.5478466	-0.20784108	-2.568699
3551485778878	0.5521098	0.57769024	-2.367253
3551495788643	0.5190687	1.2800857	-2.27559
3551505798409	0.68427527	2.0560246	-2.1444902
3551515777657	0.864404	2.7115219	-1.954769
3551525787422	1.0551913	3.1048207	-1.8471181
3551535766670	1.2289248	3.4448268	-1.6275533
3551545745918	1.3674853	3.6953018	-1.2491765
3551555786202	1.4335679	3.7763062	-0.8281656
3551565765450	1.3738804	3.5823214	-0.45511797
3551575775215	1.2012126	3.003565	-0.19078752
3551585784981	0.82923084	1.9846125	0.04369928
3551595733712	0.37304708	0.9336843	0.25580356
3551605743477	-0.035173167	0.13856028	0.49775147
3551615722725	-0.33361152	-0.29097724	0.80791414
3551625732491	-0.5766252	-0.49562067	1.1724348
3551635711739	-0.740766	-0.46684283	1.5604042
3551645721504	-0.75675374	-0.20144603	1.8535128
3551655731270	-0.28245062	0.49881727	2.0208514
3551665741036	1.610499	2.6198592	2.1455557
3551675720284	4.528796	6.5293965	1.0349398
3551685730049	1.8886858	5.0936966	-2.8404903
3551695709298	-3.9489744	-0.22276278	-6.015658
3551705688546	-2.8330297	-3.2103405	-5.2034802
3551715698311	0.858009	-1.7426648	-2.6603618
3551725677559	1.3216536	-1.2129375	-0.65869564
3551735717842	0.7237116	-1.8758961	0.38903484
3551745697090	0.0948602	-3.2615013	0.94754046
3551755706856	-0.34426975	-4.6332507	1.2353197
3551765686104	-0.6800129	-4.3497343	1.2918099
3551775695870	-0.7908611	-2.2361536	1.6158283
3551785705635	-2.0411031	0.88145757	2.193519
3551795684883	-3.6430755	1.7213475	2.3576598
3551805664132	-0.8292314	-1.4591491	1.148986
3551815673897	0.83988935	-0.7098565	0.19291858
3551825683663	0.8558771	1.1457886	0.100189716
3551835693428	1.0306766	1.7703766	0.39329857
3551845672676	1.2534394	1.8055497	0.8452186
3551855682442	1.1095496	1.4879262	1.6286186
3551865692207	0.402891	0.7269096	2.5878835
3551875640938	-0.82283664	-0.34320396	3.3957975
3551885650704	-1.8258015	-0.75995165	3.6825116
3551895629952	-2.1540833	-0.8377583	3.5524776
3551905639717	-1.9579669	-1.2278595	3.286015
3551915649483	-1.578524	-1.7352042	3.0707135
3551925628731	-1.2278595	-1.8524477	3.0302112
3551935607979	-1.0029653	-1.5550756	3.1218743
3551945617745	-0.8601414	-1.0402699	3.145323
3551955627510	-0.66935384	-0.35173088	3.0771086
3551965637276	-0.5116084	0.4274054	2.9769187
3551975616524	-0.7524905	1.0935619	2.8372924
3551985626290	-1.487927	1.2651637	2.7104561
3551995636055	-1.9323865	1.1500517	2.5218008
3552005615303	-1.9153329	1.0072278	2.2425478
3552015625069	-1.5891825	0.83775777	1.910003
3552025604317	-1.139394	0.5126737	1.6307502
3552035614083	-0.8590756	-0.13749501	1.468741
3552045593330	-0.84308785	-0.91876286	1.4570167
3552055572579	-0.88678765	-1.4250418	1.5465482
3552065582344	-0.9390144	-1.6009071	1.5636015
3552075592110	-0.9795165	-1.502849	1.5049797
3552085571358	-0.7642149	-1.1020893	1.4527533
3552095581124	-0.29737255	-0.5318594	1.4314363
3552105590889	0.087399356	-0.19505072	1.397329
3552115600655	0.1502843	-0.42207694	1.1671053
3552125579903	-0.049029328	-0.9592653	1.0125573
3552135559151	-0.31442612	-1.3845394	0.9411454
3552145568916	-0.44552556	-1.3717493	0.7951235
3552155548164	-0.40289178	-0.90703857	0.6086002
3552165557930	-0.28991145	-0.53079355	0.4338007
3552175537178	-0.12150726	-0.3208209	0.2835156
3552185546944	0.12257226	-0.15348276	0.08313616
3552195526192	0.25473776	-0.11937566	-0.21743378
3552205535958	0.2792524	-0.4732376	-0.51693743
3552215545723	0.678946	-1.5007168	-0.75781953
3552225524971	1.3845385	-1.6872406	-1.1489865
3552235534737	1.5614699	-0.6576298	-1.8076822
3552245575020	1.3387072	0.402891	-2.7669468
3552255554268	1.1703027	1.1926857	-3.9010112
3552265533516	1.2587684	1.298205	-4.9295564
3552275543282	1.3493657	0.43806416	-5.266365
3552285522530	1.3205879	-0.7205148	-5.2162695
3552295532295	1.3589586	0.12257226	-5.137397
3552305542061	1.5699966	1.6211575	-5.255707
3552315521309	1.7085574	2.014456	-5.0212197
3552325500557	1.7543888	0.5798218	-4.02465
3552335510323	1.3280487	-2.1945853	-2.6497033
3552345489571	0.64697075	-4.4797683	-1.5369558
3552355468819	-0.24088213	-4.8293667	-0.7695441
3552365478584	-1.4804659	-1.6552655	-0.7034612
3552375488350	-1.6467388	0.52333194	-1.5529436
3552385467598	-0.5041473	0.33467653	-2.5111427
3552395507881	0.004263188	0.041567683	-2.8543465
3552405487129	0.2259599	0.530793	-2.9140344
3552415466378	0.32721567	1.2044101	-2.781869
3552425476143	0.42953727	2.0187194	-2.408821
3552435485909	0.6235219	2.8202386	-2.0315104
3552445465157	0.8899845	3.42351	-1.864172
3552455474922	1.1266031	3.8732986	-1.7852991
3552465454170	1.2640979	4.172802	-1.5699974
3552475463936	1.2470441	4.262334	-1.3195225
3552485443184	1.1255372	4.0886	-1.123406
3552495452950	0.97951573	3.6942358	-1.0008333
3552505432198	0.7908603	3.0749772	-0.89744616
3552515441963	0.5297272	2.3448696	-0.6757492
3552525451729	0.19398439	1.468741	-0.34640136
3552535461495	-0.20144603	0.5958099	0.093794405
3552545440743	-0.80471724	-0.2707263	0.52120036
3552555419991	-1.3408399	-0.99657005	0.92196
3552565399239	-1.4889928	-1.3141936	1.1756322
3552575409004	-1.0786405	-1.2054764	1.3504317
3552585449287	0.5798218	0.32082036	1.6083671
3552595428536	4.2665973	6.4824996	1.155381
3552605438301	2.9417458	8.139896	-1.6680555
3552615417549	-2.064552	3.8818254	-4.3976974
3552625396798	-3.0803068	0.6075339	-4.1546836
3552635376046	-0.43699864	0.47430313	-2.1146467
3552645385811	0.83029664	0.10871663	-0.55957144
3552655426094	0.75248975	-1.4420953	0.16840392
3552665405342	0.31016186	-2.920429	0.8239019
3552675384590	-0.43273544	-4.333746	1.3333782
3552685363838	-1.3365761	-4.748362	1.4708726
3552695404122	-2.0251153	-2.8436882	1.4911236
3552705413887	-2.6433084	0.69706535	1.6883059
3552715393135	-2.3875046	3.1911547	1.8396566
3552725372383	-0.5467816	-0.13536341	1.8449861
3552735382149	0.39436436	-2.347002	1.7330716
3552745391915	1.0264132	0.35066456	1.4911236
3552755371163	1.2001469	2.1114488	1.2811514
3552765380928	1.0125573	2.1860578	1.312061
3552775360176	0.62245613	1.8236691	1.510309
3552785369942	-0.041568484	1.4793996	1.9036078
3552795349190	-0.94221175	1.0466644	2.327816
3552805358956	-1.8492498	0.7897945	2.4876935
3552815368721	-2.4834306	0.1801285	2.478101
3552825347969	-2.7371032	-0.9251582	2.5793564
3552835327217	-2.473838	-2.1977828	2.790395
3552845336983	-1.9132011	-3.0600557	3.0270135
3552855316231	-1.3685519	-3.3339791	3.1570475
3552865325997	-0.92942137	-3.0056975	3.0653841
3552875305245	-0.6075347	-2.0592225	2.826634
3552885315010	-0.5073447	-0.8569434	2.663559
3552895324776	-0.9827139	0.029843649	2.6465054
3552905334541	-1.9739544	0.32082036	2.6848757
3552915344307	-2.5836208	0.45298585	2.6859415
3552925323555	-2.6369133	0.72797537	2.5932128
3552935302803	-2.3128946	1.0743765	2.4823642
3552945312569	-1.9195961	1.1692369	2.3256845
3552955322335	-1.8258015	0.67681444	2.072012
3552965881416	-1.26623	-0.561703	1.8812248
3552975280830	-0.17266817	-1.8513819	1.6211575
3552985321114	0.054358315	-1.8108795	1.5294944
3552995269844	-0.1513509	-1.095694	1.4932557
3553005279610	-0.12044146	-0.7002638	1.3941313
3553015289375	0.028777853	-0.8281656	1.3184562
3553025268624	-0.017053818	-1.032809	1.2374517
3553035278389	-0.38370612	-0.7055928	1.1724348
3553045288155	-0.88678765	-0.20251183	1.0690472
3553055267403	-1.2363864	-0.42527434	0.815375
3553065246651	-1.1617765	-1.438898	0.4700394
3553075256416	-0.37837714	-2.333146	0.16307494
3553085266182	0.4178127	-2.1114492	0.023448335
3553095245430	0.55743927	-1.3824078	0.0063947826
3553105224678	0.35279614	-0.4700402	-0.20144603
3553115264961	0.08953121	0.2238283	-0.51374
3553125274727	0.11617721	0.024514131	-0.61712766
3553135253975	0.609666	-0.5862177	-0.6640249
3553145233223	1.0509279	-0.4188793	-0.9677922
3553155273506	1.02215	0.16414073	-1.6925702
3553165252755	0.90170854	0.53931993	-2.817042
3553175232003	0.99230605	0.70985574	-4.1760006
3553185241768	1.1980153	0.6043365	-5.068117
3553195221016	1.3291144	0.06608235	-5.053195
3553205230782	1.3205879	-0.3506651	-4.82084
3553215240547	1.2310563	0.45298585	-4.5692997
3553225219795	1.2246616	1.5326921	-4.2037125
3553235229561	1.2246616	1.6787132	-3.7368705
3553245208809	1.7341379	0.2259599	-3.3318472
3553255188057	1.8439202	-2.6443741	-2.6987324
3553265167305	0.9976353	-4.727045	-1.8982791
3553275177071	-0.4625791	-3.9553695	-1.3738809
3553285156319	-1.7821016	-1.345103	-1.741599
3553295166084	-1.0530599	-1.2140033	-2.4546528
3553305175850	-0.11404615	-1.1095504	-2.7061932
3553315185616	0.3336107	-0.38903564	-2.6251886
3553325195381	0.43166912	0.25154036	-2.4599822
3553335174629	0.39010063	0.96885747	-2.404558
3553345184395	0.4188785	1.6637915	-2.2510753
3553355163643	0.6043365	2.4994178	-1.9803495
3553365173409	0.94007933	3.3563612	-1.763982
3553375183175	1.255571	3.8775618	-1.6691213
3553385162422	1.4218436	4.238885	-1.5092437
3553395172188	1.446358	4.3934336	-1.3046006
3553405151436	1.3919997	4.209041	-1.1074183
3553415161202	1.19162	3.6302848	-0.8910508
3553425140450	0.8228361	2.7541564	-0.75781953
3553435119698	0.38903484	1.7053595	-0.57022995
3553445129463	-0.039436888	0.6896048	-0.23022388
3553455139229	-0.44339395	-0.14495613	0.21849905
3553465118477	-0.8377583	-0.6864077	0.63204855
3553475128243	-1.2395837	-0.9272898	1.037072
3553485107491	-1.387737	-0.64803714	1.2683611
3553495117256	-1.2534399	-0.12044146	1.3557607
3553505127022	-0.6213909	0.5691636	1.4506215
3553515136787	1.689372	3.2966735	1.682977
3553525116036	4.344404	7.4108553	0.27605477
3553535125801	0.693868	4.6758833	-3.6196272
3553545105049	-4.3401413	-0.71092236	-5.7321415
3553555084298	-2.3736484	-2.0677493	-4.1131153
3553565094063	0.47750053	-0.91876286	-1.430371
3553575134346	0.65549743	-1.6403434	0.04369928
3553585113594	0.31122765	-2.9875777	0.75248975
3553595092842	0.018119348	-4.455253	1.2374517
3553605102608	-0.6864077	-5.151253	1.6051698
3553615081856	-1.6531335	-3.8711674	1.2960734
3553625061104	-1.6318165	-1.6925702	0.21636745
3553635070870	-2.0006008	0.28138402	-0.28884566
3553645080635	-1.1639087	1.3600245	-0.98377997
3553655090401	0.29204252	0.19824784	-1.1543161
3553665069649	0.943277	-0.577691	-0.7290417
3553675048897	1.4239752	-0.86760247	-0.09805839
3553685089180	1.3674853	-0.89957774	0.81750655
3553695068428	0.78339946	-1.1585792	2.064551
3553705047676	-0.19824864	-1.3216542	3.529029
3553715057442	-1.032809	-0.68321025	4.5053473
3553725036690	-1.3333787	-0.027712587	4.8677363
3553735076973	-1.2854152	0.37517866	4.795259
3553745025704	-1.0370724	0.48389584	4.4350014
3553755035469	-0.7865979	0.26646206	3.996937
3553765045235	-0.64803714	-0.006395315	3.6174946
3553775024483	-0.640576	-0.075675584	3.4426951
3553785003731	-0.64803714	-0.004263721	3.3179908
3553795044014	-0.54038626	0.47536892	3.1709032
3553805023262	-0.3751792	1.1820272	2.9087043
3553815033028	-0.76528066	1.3610902	2.5452495
3553825012276	-1.4900587	0.8121773	2.1402266
3553835022041	-1.7650478	0.37517866	1.6360794
3553845031807	-1.5955778	0.3773108	1.1703027
3553855011055	-1.1607108	0.39969334	1.0274789
3553865020821	-0.704527	0.26539627	1.2363856
3553875000069	-0.53505677	-0.2259607	1.5731945
3553885009835	-0.9230266	-0.8079147	1.8769616
3553894989083	-1.4399637	-0.76208323	1.9302539
3553904998848	-1.6776482	-0.29524097	1.710689
3553914978096	-1.6947018	-0.35279667	1.6009066
3553924987862	-1.2459791	-1.429305	1.7000304
3553934967110	-0.34320396	-2.2521415	1.7479937
3553944976875	0.26539627	-1.7874309	1.567865
3553954986641	0.42953727	-0.9773849	1.219332
3553964996407	0.19505018	-0.9603311	0.98377943
3553974975655	-0.27818742	-1.2726253	0.90064275
3553984954903	-0.56383514	-1.0743773	0.7897945
3553994934151	-0.49029115	-0.80898046	0.6586948
3554004943916	-0.16733865	-0.74396366	0.536122
3554014953682	0.28671354	-0.7929927	0.40822026
3554024963448	0.54358315	-0.68321025	0.24088159
3554034942696	0.5073442	-0.6544324	0.037304495
3554044921944	0.49348828	-0.8931824	-0.1289681
3554054931710	0.7023949	-0.9795165	-0.48709375
3554064941475	0.90703803	-0.29524097	-1.2054764
3554074951241	0.97951573	0.8345604	-2.2745242
3554084961006	1.0882323	1.5763919	-3.4863958
3554094940255	1.2843488	1.5710623	-4.279388
3554104919503	1.4730042	1.0040303	-4.6726866
3554114929268	1.4335679	-0.04796353	-4.7238474
3554124908516	1.1585786	-0.5819545	-4.614065
3554134948799	1.0722445	0.2909767	-4.4179487
3554144928047	1.1703027	1.1266031	-4.2058444
3554154907295	1.2289248	1.1468544	-4.009728
3554164886544	1.6616596	-0.057556238	-3.6420097
3554174865792	1.5092432	-2.6763496	-2.872466
3554184875557	0.48815903	-4.825103	-1.8055502
3554194854805	-0.6096665	-4.783535	-0.9901748
3554204864571	-1.5838535	-1.6360803	-1.0136236
3554214904854	-1.415449	0.657629	-1.7948915
3554224884102	-0.5425179	0.8260335	-2.4898257
3554234863350	-0.10019025	0.6277854	-2.7562883
3554244873116	0.071411334	0.6928022	-2.803186
3554254882881	0.11724327	1.1095496	-2.6486375
3554264862129	0.16414073	1.6691208	-2.227627
3554274871895	0.4732368	2.441862	-1.8972133
3554284851143	0.86014086	3.2476444	-1.7256114
3554294860909	1.0690472	3.5514119	-1.706426
3554304870675	1.0455983	3.6228237	-1.573195
3554314849922	0.86014086	3.66226	-1.2918105
3554324859688	0.5947441	3.5109096	-1.0573237
3554334838936	0.3485324	3.0792403	-0.8366925
3554344848702	0.105518706	2.5228665	-0.597942
3554354858467	-0.12150726	1.789562	-0.28991145
3554364837715	-0.37944293	0.89424795	0.071411334
3554374816963	-0.6949343	0.026645726	0.4188785
3554384826729	-1.0210847	-0.47643524	0.8324285
3554394805977	-1.3056667	-0.5936788	1.3280487
3554404815743	-1.3770785	-0.34533557	1.6978986
3554414825509	-1.1575134	0.18758908	1.9004102
3554424804756	-0.20890687	1.3504317	2.0240488
3554434845040	3.272159	5.8621745	1.8034178
3554444824287	4.634316	8.28272	-0.7876637
3554454803536	-0.42101115	2.4066892	-5.044668
3554464782784	-4.3028364	-3.2892134	-5.6223593
3554474792549	-2.1317005	-3.3489008	-3.2902794
3554484802315	0.6192587	-1.2939421	-0.7087907
3554494812081	1.1095496	-1.9920738	0.36984968
3554504791329	0.9965695	-3.3361108	0.8356262
3554514801094	0.80471647	-4.4179487	1.0605203
3554524780342	0.36558598	-4.051296	1.1244713
3554534790108	-1.0637188	-1.2267936	1.5337579
3554544769356	-2.2308242	1.595577	2.4226768
3554554779122	-3.157048	1.9782174	2.5655007
3554564758370	-1.0232164	-1.6083677	0.25367194
3554574768135	0.5489124	-0.24194846	-0.97631913
3554584777901	0.7055923	1.1298008	-0.7055928
3554594787667	1.0658498	1.2022785	0.03943609
3554604766915	1.5433503	1.0605203	0.80791414
3554614776680	1.5604042	0.9677917	1.710689
3554624786446	0.7013291	0.3837056	2.8191729
3554634765694	-0.6981322	-0.081005104	3.6185603
3554644775460	-1.6968334	0.23128888	3.8125448
3554654754707	-2.092264	0.31016186	3.6718528
3554664733956	-1.9750203	0.09272861	3.3147929
3554674743721	-1.6126314	-0.32188722	3.0024989
3554684722969	-1.2427814	-0.67894655	2.9769187
3554694702217	-0.99124056	-0.7269101	3.05366
3554704711983	-0.8164416	-0.6107323	3.1325328
3554714721749	-0.76101744	-0.21743378	3.146389
3554724731514	-0.7205148	0.3826398	3.06645
3554734710762	-0.926224	1.0381378	2.846885
3554744720528	-1.573195	1.2491757	2.5964103
3554754699776	-2.1093175	1.042401	2.3470013
3554764709541	-2.2478778	0.81750655	2.1402266
3554774719307	-2.0251153	0.7418315	2.0240488
3554784698555	-1.6968334	0.6821437	2.043234
3554794708321	-1.5806556	0.42953727	2.1732678
3554804718087	-1.6712532	0.06821394	2.3246188
3554814697335	-1.5401537	-0.61286396	2.2809186
3554824676583	-0.73223907	-1.6211582	1.94411
3554834686348	-0.42314273	-1.5913144	1.8119445
3554844665596	-0.30589947	-1.642475	1.8151424
3554854675362	0.063950755	-1.7927599	1.7085574
3554864685127	0.31655717	-1.3760124	1.5007163
3554874664375	0.04369928	-0.7482268	1.2800857
3554884674141	-0.44445974	-0.38050872	0.9667256
3554894653389	-0.7695441	-0.30270153	0.47750053
3554904663155	-0.88465554	-0.5680983	-0.0842025
3554914642403	-0.7002638	-1.0338749	-0.4689744
3554924621651	-0.28991145	-1.502849	-0.62352246
3554934631416	0.02131674	-1.6275533	-0.69173694
3554944641182	0.07460926	-1.2854152	-0.80898046
3554954650948	0.08420196	-1.08397	-0.9390144
3554964630196	0.60007334	-1.5401537	-0.9923069
3554974639961	1.3077977	-1.3920002	-1.1777643
3554984649727	1.5604042	-0.30909687	-1.7106895
3554994659493	1.4314363	0.6608264	-2.568699
3555004638741	1.3099294	1.0264132	-3.6345487
3555014648506	1.3355098	0.9081038	-4.543719
3555024627755	1.3568265	0.45085427	-4.8858566
3555034637520	1.4388974	-0.19824864	-4.804852
3555044647286	1.5081774	0.09272861	-4.670555
3555054626534	1.5284287	1.1372616	-4.5415874
3555064605782	1.4271729	1.5305603	-4.1482887
3555074585030	1.6296844	0.34426922	-3.403259
3555084594795	1.5795892	-2.4439943	-2.510077
3555094574044	0.8249677	-5.023351	-1.573195
3555104583809	-0.39543068	-4.8922515	-0.8601414
3555114563057	-1.6712532	-1.5699974	-1.0082943
3555124572823	-1.1329987	-0.25580436	-1.9888763
3555134552071	-0.17906323	-0.6938685	-2.595345
3555144561836	0.21423534	-0.17799717	-2.6475718
3555154602120	0.36984968	0.46684203	-2.5569744
3555164581368	0.39329857	0.90597224	-2.4578505
3555174560616	0.3837056	1.2374517	-2.3246193
3555184570381	0.50414675	1.7778374	-2.0347078
3555194580147	0.72797537	2.428006	-1.706426
3555204559395	1.0242816	3.0547256	-1.5316268
3555214569161	1.2513078	3.4863951	-1.4794002
3555224548409	1.303534	3.7912283	-1.3696177
3555234558175	1.2385174	3.8391912	-1.1862912
3555244567940	1.0477302	3.5300946	-1.044533
3555254547188	0.75142395	2.789329	-0.88785344
3555264526436	0.44019577	1.8343276	-0.69067115
3555274536202	0.11511141	0.91449916	-0.43593284
3555284515450	-0.23768473	0.050094593	-0.020251475
3555294525215	-0.6533666	-0.5894151	0.5052126
3555304504463	-1.1106162	-0.8281656	1.0114915
3555314514229	-1.2470449	-0.5883493	1.3888023
3555324523995	-1.0285459	-0.1310997	1.4815311
3555334533760	-0.3154919	0.41035184	1.4666095
3555344543526	2.0389707	3.1176107	1.6158283
3555354522774	4.5170717	7.6218925	0.35173035
3555364532540	0.99017423	5.526432	-3.4725394
3555374511787	-3.8722334	0.2941741	-5.9591675
3555384491036	-2.5836208	-1.8524477	-4.741967
3555394500801	0.2494085	-1.372815	-2.163676
3555404480049	0.7567532	-1.6126314	-0.43699864
3555414489815	0.4252738	-2.5974767	0.38690326
3555424499581	0.09699179	-4.021452	0.9667256
3555434478829	-0.31868932	-5.302604	1.5262967
3555444458077	-1.438898	-4.6172624	2.0858681
3555454467842	-2.1743345	-2.1700706	2.208441
3555464447090	-2.1050541	-0.29950416	1.4207776
3555474487373	-0.47643524	0.015987223	-0.34959927
3555484497139	0.8729307	0.6245877	-1.3067324
3555494476387	0.9326185	0.836692	-0.8036509
3555504455635	1.2545052	0.6597606	-0.22276278
3555514495918	1.5625358	0.34426922	0.37411287
3555524475167	1.0168204	-0.07034633	1.2736903
3555534454415	-0.67361754	-0.44659135	2.5814884
3555544464180	-2.2340217	0.36558598	3.5439508
3555554473946	-2.7680128	1.1287347	3.9020765
3555564453194	-2.5420525	1.2672952	3.8573108
3555574432442	-1.9419789	0.9123673	3.6270869
3555584442207	-1.2800862	0.036238696	3.4885266
3555594421456	-0.699198	-0.89957774	3.4480243
3555604400704	-0.34213817	-1.393066	3.413917
3555614410469	-0.4519206	-1.1692377	3.4895926
3555624450752	-1.83646	0.053291984	3.7102237
3555634430001	-2.8479514	0.7226458	3.541819
3555644409249	-2.6624935	0.96139634	3.0749772
3555654419014	-1.848184	0.9763183	2.6465054
3555664428780	-0.9613969	0.8441528	2.2617335
3555674408028	-0.27818742	0.62245613	1.9398468
3555684417793	0.13642868	0.360257	1.7415985
3555694427559	0.24088159	-0.021317273	1.702162
3555704406807	-0.008526909	-0.3751792	1.8034178
3555714386055	-0.3240188	-0.30696526	1.9505053
3555724395821	-0.5883493	0.026645726	2.059222
3555734375069	-0.9038412	0.08633356	2.0048637
3555744384835	-1.3131273	-0.29204303	1.9046737
3555754364083	-1.5806556	-0.8068489	1.8151424
3555764373848	-1.2854152	-1.2044106	1.679779
3555774353096	-0.62991774	-1.2800862	1.5262967
3555784362862	-0.1705366	-1.067982	1.3024682
3555794372627	-0.185458	-1.0285459	1.1234055
3555804351875	-0.5041473	-1.4378319	0.88145757
3555814361641	-0.74289787	-1.6414093	0.5990075
3555824340889	-0.6501687	-1.5039147	0.3485324
3555834350655	-0.2259607	-1.5817214	0.18439168
3555844360421	0.23235469	-1.6414093	0.123638056
3555854370186	0.44872266	-1.2960739	-0.081005104
3555864318916	0.34107184	-0.6523003	-0.37944293
3555874328682	0.14708692	-0.31229424	-0.6256546
3555884307930	0.29524016	-0.7162516	-0.740766
3555894317696	0.8739965	-1.0594553	-0.9240924
3555904327461	1.1841592	-0.35599408	-1.3685519
3555914337227	1.0786399	0.5073442	-2.183927
3555924346993	0.985911	0.8356262	-3.3030694
3555934326241	1.1393932	0.6714852	-4.33268
3555944336006	1.3536291	-0.23661894	-4.7334394
3555954315255	1.4037242	-1.3546957	-4.7440987
3555964325020	1.2992707	-0.577691	-4.7686133
3555974304268	1.4314363	1.1074177	-4.684411
3555984314034	1.4218436	1.9846125	-4.3284173
3555994323799	1.3440367	1.3429706	-3.8573112
3556004303047	1.7490596	-1.0157552	-3.3926005
3556014282295	1.6158283	-3.9201965	-2.6070693
3556024261544	0.76314825	-5.4496913	-1.7714431
3556034271309	-0.27712163	-5.0841045	-1.1383283
3556044250557	-1.2289252	-2.3555286	-1.3056667
3556054260323	-1.451688	-0.19824864	-2.1434245
3556064270089	-0.8707999	-0.04476614	-2.8490171
3556074249336	-0.42634013	-0.39543068	-3.2785547
3556084228584	-0.092729405	-0.29950416	-3.384074
3556094299385	0.09912392	0.31016186	-2.9694583
3556104278633	0.22063065	1.3866707	-2.2926438
3556114257881	0.40715444	2.2468116	-1.8673694
3556124267647	0.61179763	2.90977	-1.757587
3556134246895	0.736502	3.2551057	-1.8396573
3556144256661	0.76314825	3.4938557	-1.7586528
3556154235909	0.7258437	3.6228237	-1.4538196
3556164245675	0.68853897	3.4768026	-1.075443
3556174224922	0.6235219	3.0547256	-0.7162516
3556184234688	0.472171	2.3661866	-0.36985022
3556194213936	0.2238283	1.5465482	-0.019185679
3556204223702	-0.099124454	0.75355583	0.25154036
3556214202950	-0.4167477	0.15881123	0.51373947
3556224212715	-0.7279759	-0.17906323	0.8249677
3556234222481	-0.9880431	-0.47963265	1.1788297
3556244201729	-1.032809	-0.62352246	1.4666095
3556254211495	-0.6800129	-0.19185333	1.6083671
3556264221260	0.61179763	1.5806551	1.7266767
3556274200509	3.4192464	5.989011	1.3248513
3556284210274	3.6366796	7.4950566	-1.2758228
3556294220040	-1.4037248	3.316925	-4.670555
3556304199287	-3.7709775	-1.3845394	-4.930622
3556314178536	-0.89638036	-1.8279331	-2.8255687
3556324188301	1.02215	-0.71305394	-0.7876637
3556334198067	1.0455983	-1.7128211	0.2248941
3556344177315	0.6288512	-2.9140344	0.89531374
3556354187081	0.18439168	-4.25061	1.3099294
3556364166329	-0.38690403	-4.7334394	1.3866707
3556374176094	-1.1916208	-2.7083254	1.3173904
3556384185860	-1.6712532	0.4796321	1.7362695
3556394165108	-2.9662607	2.6550322	2.4727714
3556404174873	-2.9236271	-0.5531764	2.054958
3556414154122	-0.7269101	-1.763982	0.66509014
3556424163887	0.39649594	0.8313627	-0.16520707
3556434173653	0.6501682	2.1690044	-0.5148058
3556444152901	0.75142395	2.1231728	-0.39543068
3556454193184	0.85161394	1.8929491	0.123638056
3556464172432	0.80684835	1.7288083	1.1372616
3556474151680	0.4327349	1.4527533	2.3224866
3556484161446	-0.2845822	1.0296109	3.0920305
3556494140694	-1.2417153	0.23875	3.542885
3556504119942	-1.9782178	-1.0264137	3.8029525
3556514099190	-2.1285028	-2.0986588	3.8093476
3556524139473	-1.8396573	-2.7541568	3.555675
3556534118721	-1.396264	-2.9556022	3.1399937
3556544097969	-1.111682	-2.7296422	2.766946
3556554107735	-1.0008333	-2.2500095	2.4727714
3556564117501	-0.91023594	-1.5209683	2.1903217
3556574096749	-0.86547035	-0.69067115	2.0187194
3556584106514	-0.8803923	-0.06075363	1.9174638
3556594116280	-1.0157552	0.06927974	1.8769616
3556604095528	-1.2449133	-0.27818742	1.9355834
3556614074776	-1.430371	-0.7919269	2.043234
3556624084541	-1.3973297	-1.1084844	2.199914
3556634094307	-1.2129375	-1.0733114	2.3736475
3556644073555	-1.0018996	-0.86333877	2.4610474
3556654083321	-0.8707999	-0.5680983	2.420545
3556664093087	-1.0338749	-0.35173088	2.2627993
3556674072335	-2.0538933	-0.34746715	2.0965266
3556684082100	-2.8980465	-0.64803714	1.832196
3556694061348	-2.5484478	-1.044533	1.4271729
3556704040596	-1.4676758	-1.3504323	1.0040303
3556714050362	-0.3506651	-1.4932562	0.657629
3556724060127	0.081004575	-1.1148794	0.5563735
3556734069893	0.12150646	-0.7716757	0.55317557
3556744049141	0.22169644	-0.9272898	0.45724958
3556754058907	0.2451453	-1.6776482	0.25900093
3556764038155	0.10232131	-2.6198597	0.16414073
3556774047921	-0.06501735	-2.9726558	0.06608235
3556784027169	-0.08846568	-2.1306345	-0.06395155
3556794006416	-0.13429762	-0.57022995	-0.22169697
3556804046700	-0.37731135	0.64377314	-0.32188722
3556814025948	-0.55104476	0.44765687	-0.35919198
3556824035713	0.44765687	-1.1713696	-0.61925924
3556834014961	1.5135067	-0.83456093	-1.2481107
3556844055245	1.689372	0.40182492	-2.0784078
3556854034493	1.5262967	0.81857234	-3.0195532
3556864044258	1.4090532	0.46364436	-4.0107937
3556874023506	1.3813412	-0.20038024	-4.804852
3556884002755	1.413317	-0.9123681	-5.132068
3556894012520	1.5582722	-1.471939	-5.0030994
3556903991768	1.638211	-0.5275962	-4.783535
3556914001534	1.5550749	0.864404	-4.5959454
3556924011299	1.2960734	1.1884223	-3.889287
3556933990547	1.5028481	-0.37624553	-3.02808
3556943969795	1.6637915	-3.5823221	-2.056025
3556953949044	0.8537455	-5.8472533	-1.011492
3556963958809	-0.88465554	-3.553544	-0.95500183
3556973938057	-1.9014765	-0.36878443	-2.0325763
3556983947823	-0.83349514	-0.75995165	-2.8916512
3556993927071	-0.13749501	-0.90810436	-2.8021197
3557003936836	0.14602113	-0.32934782	-2.4546528
3557013977120	0.23235469	0.35919118	-2.2937095
3557023956368	0.27285737	1.1308666	-2.2521415
3557033966133	0.31868878	1.9281223	-2.1476882
3557043945381	0.49988306	2.6262538	-1.7618505
3557053955147	0.80684835	3.2870808	-1.4026587
3557063964913	1.1180766	3.841323	-1.2704937
3557073944161	1.3355098	4.4158163	-1.2278595
3557083923409	1.4015924	4.864539	-1.1617765
3557093933175	1.3333782	4.8283005	-1.1084844
3557103942940	1.0861007	4.2687287	-1.0093602
3557113922188	0.71731687	3.2870808	-0.9240924
3557123931954	0.27392316	2.064551	-0.7887295
3557133911202	-0.18119483	0.8121773	-0.51054263
3557143890450	-0.5862177	-0.2717921	-0.07887298
3557153900215	-0.9251582	-1.0701135	0.4231422
3557163909981	-1.3429714	-1.4751369	1.0114915
3557173889229	-1.5135075	-1.032809	1.5220336
3557183898995	-1.3163252	-0.20251183	1.8151424
3557193908760	-0.48389637	0.7940577	1.9771515
3557203918526	2.491957	4.6193933	2.1316996
3557213897774	5.363357	9.610769	0.8526797
3557223907540	2.0794728	5.682046	-3.1293359
3557233886787	-3.8583772	-2.112515	-6.1265063
3557243866036	-4.15575	-5.599976	-5.444362
3557253845284	-0.36452097	-3.5194368	-2.8905854
3557263855049	1.0679814	-1.6829774	-0.56916416
3557273895333	0.8239019	-1.9419789	0.7652798
3557283874581	0.36984968	-3.1741016	1.5060458
3557293884346	-0.185458	-4.2516756	1.8204714
3557303863594	-1.0647845	-4.5096116	2.1359632
3557313873360	-1.5753267	-3.5865855	2.0101926
3557323822090	-1.35363	-1.657397	0.963528
3557333831856	-1.5497462	-0.02238307	0.10232131
3557343872139	-1.5934463	0.5691636	-0.6469713
3557353851387	-0.56916416	0.3378739	-0.9390144
3557363861153	0.022382537	0.6778802	-0.36558676
3557373870918	0.651234	1.0871665	0.4231422
3557383880684	1.1798956	1.0946276	1.2470441
3557393859932	1.2577026	0.71731687	2.184992
3557403869698	0.6491024	0.07354346	3.4842632
3557413818428	-0.23661894	-0.38583824	4.6023397
3557423828194	-0.87826073	-0.35919198	5.142726
3557433807442	-1.1628429	-0.058622036	5.1800303
3557443817207	-1.1202086	0.19398439	4.75902
3557453826973	-0.9795165	0.33467653	4.120576
3557463806221	-0.920895	0.33893973	3.388337
3557473815987	-0.95500183	0.32082036	2.804251
3557483825752	-0.9592653	0.2835156	2.518603
3557493805001	-0.8388241	0.36984968	2.4056232
3557503784249	-0.676815	0.49988306	2.312894
3557513794014	-0.719449	0.45511746	2.1743336
3557523803780	-1.0306774	0.07993824	2.0048637
3557533783028	-1.1862912	-0.30163574	1.8076813
3557543792793	-1.0221505	-0.4167477	1.6499354
3557553772041	-0.6650907	-0.21423586	1.5625358
3557563812325	-0.33574313	0.015987223	1.5518773
3557573791573	-0.24301425	0.061818894	1.5337579
3557583770821	-0.4487232	-0.006395315	1.483663
3557593750069	-0.9667264	-0.22915809	1.5220336
3557603759835	-1.6392777	-0.6512345	1.6563307
3557613769600	-2.0389714	-1.117011	1.794891
3557623748848	-1.9931399	-1.372815	1.8417886
3557633758614	-1.6275533	-1.2694277	1.7842325
3557643737862	-1.1436572	-0.82177055	1.6637915
3557653747627	-0.72584426	-0.38477245	1.4303705
3557663757393	-0.4487232	-0.56490093	1.0232158
3557673736641	-0.27818742	-1.2982059	0.678946
3557683746407	-0.23022388	-1.8471181	0.40182492
3557693725655	-0.19718285	-2.0421689	0.18545748
3557703735421	-0.10019025	-2.0176542	0.09805759
3557713745186	0.061818894	-1.8012868	0.07780665
3557723724434	0.25473776	-1.0733114	-0.0010663297
3557733703682	0.35066456	-0.07141213	-0.23875053
3557743713448	0.34533504	0.26752785	-0.5382547
3557753723213	0.614995	-0.50627893	-0.63098353
3557763702461	1.0605203	-0.83456093	-0.85268027
3557773712227	1.1809615	-0.15454857	-1.3717493
3557783721993	1.1180766	0.70878994	-2.3128946
3557793731758	1.1884223	1.3387072	-3.5514123
3557803711006	1.5028481	1.3845385	-4.69507
3557813720772	1.6978986	0.48282978	-5.1906896
3557823700020	1.6030382	-0.85587764	-5.250377
3557833679268	1.2076077	-0.699198	-5.359094
3557843719551	1.1159444	0.2845814	-5.209875
3557853698799	1.1703027	0.8910503	-4.615131
3557863678047	1.6296844	0.07780665	-3.845587
3557873657295	2.037905	-2.191388	-2.8703346
3557883667061	1.0892981	-4.7121234	-1.7863648
3557893646309	-0.3154919	-5.499787	-0.9933727
3557903625557	-1.5422853	-3.419247	-1.0200189
3557913635323	-1.7554554	-0.926224	-1.8833572
3557923645089	-0.77593887	-0.19931445	-2.5782914
3557933654854	-0.1513509	0.13216496	-2.7722762
3557943664620	0.21743326	0.77274096	-3.055792
3557953643868	0.33041307	1.092496	-3.1240065
3557963653633	0.39329857	1.4538192	-2.8191736
3557973663399	0.5798218	2.364055	-2.2063096
3557983642647	0.90490645	3.1474547	-1.8034184
3557993652413	1.1319324	3.4384315	-1.7394674
3558003631661	1.1841592	3.6196263	-1.7320065
3558013641426	1.1415249	3.841323	-1.5636021
3558023620675	1.0381378	3.8967474	-1.323786
3558033630440	0.91130126	3.6196263	-1.1308671
3558043609688	0.7375678	2.9321532	-0.97525334
3558053619454	0.5062784	2.1412923	-0.7503584
3558063598702	0.21849905	1.3728145	-0.4156819
3558073608467	-0.11404615	0.6821437	0.0
3558083587715	-0.4615133	0.13642868	0.37411287
3558093597481	-0.75781953	-0.15774596	0.7492921
3558103576729	-1.0072286	-0.27712163	1.1170102
3558113586495	-1.0818381	-0.3378747	1.3706827
3558123596260	-0.93261904	-0.10338764	1.4985847
3558133606026	-0.3154919	0.7375678	1.5657334
3558143615792	1.5913138	3.2806861	1.6446064
3558153595040	4.108851	7.351167	0.5585051
3558163604805	1.9185295	6.2544074	-2.531394
3558173584053	-3.5578077	0.8121773	-4.6908054
3558183563301	-3.2455137	-1.9078718	-3.7400677
3558193573067	0.075675055	-0.9038412	-1.4676758
3558203552315	0.9240916	-1.345103	-0.043700077
3558213562081	0.72797537	-2.7712104	0.6054023
3558223571846	0.32614988	-4.174935	1.0125573
3558233551094	-0.27605528	-4.753691	1.2203978
3558243560860	-1.4804659	-3.7571216	1.5454819
3558253540108	-2.097593	-2.2372193	1.9025418
3558263549873	-1.9888763	-1.5380219	1.6136967
3558273529122	-2.2414827	-1.8854887	0.6181927
3558283508370	-1.5380219	-1.985679	-0.5531764
3558293518135	-0.29310885	-0.48176426	-0.7834
3558303558418	0.48815903	1.0029646	-0.3623894
3558313568184	0.99017423	1.8204714	0.43486652
3558323547432	1.3003366	1.9302539	1.3994608
3558333557198	1.2459782	1.5870504	2.4216108
3558343536446	0.63311434	1.064784	3.4458926
3558353546212	-0.122573055	0.84735024	4.1738687
3558363525460	-0.6938685	0.82923084	4.4776354
3558373504707	-1.131933	0.66615593	4.5597057
3558383514473	-1.3514984	0.31016186	4.4030256
3558393524239	-1.415449	-0.1279023	4.003332
3558403472969	-1.444227	-0.65869564	3.485329
3558413482735	-1.4762027	-1.0775746	2.9502726
3558423492501	-1.5060464	-1.2854152	2.6187932
3558433471749	-1.4591491	-1.2566373	2.477035
3558443481514	-1.2097402	-0.97312117	2.378977
3558453918526	-0.87719494	-0.38583824	2.227626
3558463501046	-0.70239544	0.15561382	2.014456
3558473480293	-0.81111205	0.35173035	1.7959567
3558483490059	-0.9720554	0.26433045	1.552943
3558493469307	-0.9443433	0.20677476	1.3429706
3558503479073	-0.7887295	0.190787	1.2310563
3558513458321	-0.6810787	0.17373317	1.2577026
3558523498604	-0.7333054	0.07887244	1.4762019
3558533477852	-0.8814581	-0.073543996	1.73094
3558543457100	-1.0264137	-0.15028511	1.9153322
3558553436348	-1.1862912	-0.29417464	1.9387808
3558563446114	-1.4271734	-0.5968762	1.8641713
3558573455879	-1.5199025	-0.8185732	1.8098129
3558583435127	-1.2342548	-0.7492926	1.7810351
3558593444893	-0.7503584	-0.36452097	1.7117548
3558603454659	-0.36771864	-0.025580462	1.5028481
3558613433907	-0.20038024	-0.21849959	1.2140027
3558623413155	-0.24621163	-0.94327754	0.9443428
3558633422921	-0.3741134	-1.487927	0.6160608
3558643402169	-0.4060892	-1.5817214	0.3581254
3558653411934	-0.27605528	-1.4229102	0.2238283
3558663391182	-0.04263428	-0.89957774	0.17479898
3558673400948	0.13003337	-0.11511194	0.08526776
3558683441231	0.1790627	0.4210106	-0.18119483
3558693420479	0.36345437	0.17053579	-0.52866197
3558703399727	0.74289733	-0.32508463	-0.94114596
3558713409493	0.9422112	-0.1332313	-1.5017831
3558723419258	1.0892981	0.27072576	-2.2297585
3558733398506	1.3280487	0.57769024	-3.035541
3558743408272	1.5476141	0.5840856	-3.7890968
3558753387520	1.5710623	0.25260615	-4.2026467
3558763397286	1.4506215	-0.17373398	-4.313495
3558773376534	1.3919997	-0.75995165	-4.2047787
3558783386299	1.468741	-0.40289178	-4.1333666
3558793396065	1.6627257	0.800453	-4.0587573
3558803375313	1.7842325	1.4996505	-3.929789
3558813385079	1.8119445	1.1223397	-3.6142976
3558823364327	1.9632955	-0.74716103	-3.0760434
3558833343575	1.4538192	-3.946843	-2.1210418
3558843353340	0.16200915	-5.2759576	-1.4026587
3558853332589	-1.5977094	-2.510077	-1.8396573
3558863342354	-1.7277434	-1.1798965	-2.8074493
3558873321602	-0.6320494	-1.3056667	-3.2178016
3558883331368	0.03943609	-0.465777	-3.014224
3558893341133	0.39116642	0.40822026	-2.5942793
3558903350899	0.5499782	0.9955037	-2.2809196
3558913330147	0.5201345	1.3653535	-2.2073755
3558923339913	0.48815903	1.7810351	-2.1871245
3558933319161	0.58301973	2.3917668	-1.9632959
3558943328926	0.73969936	2.8650045	-1.7309407
3558953308175	0.8739965	3.1346645	-1.5891825
3558963317940	0.90384066	3.4544196	-1.415449
3558973327706	0.83882356	3.6047044	-1.2182671
3558983306954	0.70665836	3.3158593	-1.0061628
3558993316719	0.48602742	2.6283858	-0.7802026
3559003295967	0.20677476	1.7725081	-0.61286396
3559013275215	-0.10765136	0.89531374	-0.4583159
3559023254463	-0.42207694	0.087399356	-0.185458
3559033294747	-0.70665914	-0.48922536	0.24194792
3559043273995	-0.9560676	-0.7077249	0.72051424
3559053283760	-1.2118717	-0.6512345	1.2513078
3559063263009	-1.3387077	-0.23235548	1.7469277
3559073303292	-1.1628429	0.39223224	2.0005999
3559083282540	-0.3400066	1.2246616	2.0176537
3559093292305	2.4663763	4.788863	1.7639815
3559103271553	4.1813293	8.385041	0.11084822
3559113281319	0.48602742	3.728343	-3.6857095
3559123260567	-4.2751245	-2.3928335	-5.458218
3559133239815	-2.9065733	-3.5247662	-4.0139914
3559143249581	0.3783766	-1.7554554	-1.5518777
3559153259346	1.0114915	-1.6339481	-0.081005104
3559163269112	0.9773841	-2.4802334	0.61179763
3559173248360	0.60007334	-3.4704077	0.92515737
3559183258126	0.2259599	-3.584454	1.0658498
3559193237373	-0.24408005	-2.8042517	1.1617761
3559203247139	-1.1361966	-0.74502945	1.3397729
3559213256905	-2.1221077	1.2161347	1.9142663
3559223236153	-3.6366804	2.2372189	2.7808025
3559233215401	-2.6155963	-0.280319	2.4802325
3559243194649	-0.1300339	-1.4495565	1.2715588
3559253234932	0.7162511	0.46471015	0.7034607
3559263244698	0.6288512	2.0901313	0.58941454
3559273223946	0.6064681	2.6997979	0.7663456
3559283233712	0.70665836	2.6166613	1.2800857
3559293243477	0.68534106	2.0986583	2.1242387
3559303222725	0.48602742	1.3429706	2.96626
3559313232491	-0.015988022	0.5414515	3.5929801
3559323211739	-0.8175074	-0.43699864	3.9201958
3559333190987	-1.4261075	-1.2907447	3.8669033
3559343170235	-1.4463586	-1.7852991	3.4842632
3559353180001	-1.3067324	-2.0517616	3.008894
3559363159249	-1.2225302	-1.741599	2.720049
3559373169014	-0.9933727	-0.99124056	2.4439936
3559383178780	-0.62991774	-0.058622036	2.1636753
3559393188546	-0.29204303	0.757819	1.9643612
3559403167793	-0.20890687	1.1862907	1.8343276
3559413177559	-0.4135503	1.2172004	1.7288083
3559423156807	-0.87826073	0.7141189	1.7916936
3559433166573	-1.3227202	0.09912392	1.9366492
3559443176338	-1.4762027	-0.22276278	2.0197856
3559453155587	-1.330181	-0.3154919	2.065617
3559463165352	-1.0924966	-0.17160238	2.0794728
3559473144600	-1.0573237	-0.051160924	2.0261803
3559483154366	-1.330181	0.060753096	1.9462416
3559493133614	-1.8886867	0.04369928	1.9110687
3559503143379	-2.3757799	-0.029844182	1.8748298
3559513122627	-2.6251886	-0.28245062	1.8055497
3559523132393	-2.4876943	-0.94221175	1.6925694
3559533111641	-1.308864	-2.0421689	1.5188357
3559543121407	-0.0959268	-1.813011	1.2523736
3559553161690	0.3581254	-0.741832	1.0349398
3559563140938	0.34426922	-0.44552556	0.83775777
3559573120186	0.11511141	-0.9486071	0.46044698
3559583129952	-0.09805839	-1.3387077	-0.062885754
3559593078682	-0.16414127	-1.4623466	-0.49455488
3559603088448	-0.07674138	-1.46661	-0.7301075
3559613098213	0.04263348	-1.2118717	-0.8366925
3559623077461	-0.04263428	-0.74396366	-0.8590756
3559633087227	-0.2238291	-0.46684283	-0.6949343
3559643096993	0.19611599	-1.1607108	-0.5382547
3559653076241	1.3227197	-1.8631063	-0.8516145
3559663086006	1.789562	-1.1159452	-1.6691213
3559673095772	1.567865	-0.19718285	-2.8351614
3559683105538	1.2097396	0.22915728	-3.945777
3559693084786	1.0797057	0.30696446	-4.681213
3559703094551	1.1596445	-0.027712587	-5.038273
3559713073799	1.3930655	-0.9390144	-4.976454
3559723053047	1.5977086	-0.94221175	-4.923161
3559733093330	1.6680549	0.3016352	-4.9157004
3559743072579	1.5838528	1.0733106	-4.5959454
3559753051827	1.6978986	0.402891	-4.017189
3559763061592	1.3482999	-2.1157124	-2.9044414
3559773040840	0.66295856	-5.018022	-1.7831675
3559783020089	-0.20677528	-5.888821	-0.93794805
3559793029854	-1.281152	-3.4853296	-0.81217784
3559803009102	-1.401593	-0.93261904	-1.5561415
3559813018868	-0.6448397	-0.14389032	-2.405624
3559823028633	-0.07141213	0.4359323	-2.6774154
3559833038399	0.25686935	0.9368817	-2.6603618
3559843017647	0.27285737	1.1884223	-2.572962
3559853027413	0.21210374	1.4666095	-2.3565946
3559863037178	0.31229344	2.0400364	-1.9387813
3559873016426	0.5798218	2.7594852	-1.5881168
3559883026192	0.7471605	3.1762326	-1.4282392
3559893005440	0.78659713	3.5205019	-1.308864
3559903015206	0.8260335	3.8274672	-1.1308671
3559913024971	0.81750655	3.898879	-0.9560676
3559923004219	0.73117274	3.5951116	-0.75675374
3559932983467	0.58941454	3.0334086	-0.5435837
3559942993233	0.33041307	2.2585359	-0.29204303
3559953033516	0.019185146	1.2779535	0.020250943
3559962982247	-0.36025777	0.20890635	0.3613228
3559972992012	-0.83349514	-0.6107323	0.7482263
3559982971260	-1.3664198	-1.0125579	1.2022785
3559992981026	-1.6350139	-0.68427604	1.5934454
3560002960274	-1.3216542	-0.22169697	1.7405326
3560012970040	-0.092729405	0.58621716	1.6861743
3560022979805	3.4373658	5.5413537	1.5881162
3560032989571	4.7792706	9.265433	-0.49135694
3560042968819	-0.34107238	4.9423466	-4.6012745
3560052948067	-4.3241534	-1.1084844	-5.541354
3560062927315	-1.8556451	-2.5239332	-3.3297157
3560072937081	0.63098276	-1.3493662	-0.97418725
3560082977364	0.9848452	-2.2926438	0.010658237
3560092956612	0.7237116	-3.7890968	0.5627683
3560102935860	0.4732368	-4.9252934	1.1116812
3560112945626	-0.0021321268	-4.909305	1.4314363
3560122924873	-1.0647845	-2.7722762	1.5390872
3560132965157	-2.4141507	0.39969334	2.0975926
3560142944405	-3.9223282	2.6720853	3.008894
3560152923653	-3.7027633	1.2097396	2.7573535
3560162902901	-0.6640249	-1.423976	0.985911
3560172912667	0.8132431	-0.13642922	0.13216496
3560182922432	0.85054815	1.6552649	0.14708692
3560192932198	0.7599509	2.1199753	0.7141189
3560202941963	0.8771944	1.5977086	1.4943216
3560212921212	1.0455983	0.83029664	2.1817946
3560222900460	1.0797057	0.118309066	2.755222
3560232910225	0.89531374	-0.35386246	3.143191
3560242919991	0.23022309	-0.6938685	3.5546093
3560252899239	-0.7642149	-0.968858	3.7986894
3560262878487	-1.502849	-1.0487968	3.6015065
3560272888252	-1.7128211	-0.9613969	3.138928
3560282867501	-1.614763	-0.90703857	2.8575435
3560292877266	-1.3866712	-0.63418096	2.7189832
3560302856514	-1.0029653	-0.06075363	2.5132742
3560312896798	-0.55424243	0.614995	2.2734578
3560322876046	-0.20890687	1.1894884	2.0443
3560332885811	-0.142824	1.4154485	1.8695008
3560342865059	-0.38583824	1.1159444	1.817274
3560352874825	-0.82283664	0.52120036	1.8535128
3560362854073	-1.139394	0.02131674	1.8460518
3560372863838	-1.2545058	-0.3389405	1.7725081
3560382843087	-1.3419056	-0.6064689	1.6552649
3560392852852	-1.5103096	-0.7865979	1.5540088
3560402832100	-1.7799698	-0.89744616	1.5124409
3560412811348	-2.1221077	-1.0061628	1.5614699
3560422821114	-2.6678228	-1.0594553	1.6978986
3560432830879	-3.4021933	-1.1383283	1.8428545
3560442810127	-3.0024996	-2.1242392	1.8609738
3560452819893	-0.7706099	-3.0973601	1.5753261
3560462829659	0.74076515	-1.5699974	1.1926857
3560472839424	1.0189524	-0.035173167	0.87079906
3560482818672	0.53505623	-0.49029115	0.5744929
3560492828438	-0.074609786	-1.5540093	0.29737204
3560502777169	-0.30909687	-1.7341384	0.08633356
3560512786934	-0.24834323	-1.1703035	-0.04476614
3560522766182	-0.06501735	-0.4284717	-0.15987755
3560532806465	0.105518706	0.081004575	-0.37837714
3560542816231	0.19291858	0.027712055	-0.6949343
3560552795479	0.5062784	-1.1191429	-0.81963897
3560562774727	1.2289248	-1.9036087	-1.0669161
3560572784493	1.6637915	-1.0690477	-1.5348243
3560582824776	1.6446064	0.14602113	-2.2212317
3560592804024	1.4388974	0.7023949	-3.162377
3560602783272	1.3077977	0.83775777	-4.2474127
3560612793038	1.2992707	0.39436436	-5.007364
3560622772286	1.3461683	-0.47643524	-5.076644
3560632782051	1.4165144	-0.1417582	-4.9796515
3560642791817	1.7064253	1.298205	-4.9881783
3560652771065	1.7064253	2.3875036	-4.94661
3560662780830	1.6360794	1.5721282	-4.4264755
3560672760079	1.5625358	-1.5145732	-3.2742915
3560682739327	1.148986	-4.944478	-2.0165884
3560692718575	0.34640083	-6.252277	-1.0967598
3560702728340	-0.549979	-5.22906	-0.5318594
3560712707589	-1.3109957	-1.508178	-0.7290417
3560722717354	-1.3408399	1.3728145	-1.4740705
3560732727120	-0.42634013	1.5113751	-2.2457464
3560742736885	0.09912392	0.985911	-2.6230571
3560752746651	0.33893973	0.8334946	-2.9151
3560762725899	0.40395707	1.0583887	-2.886322
3560772735664	0.35919118	1.5401529	-2.334212
3560782714913	0.40822026	2.214836	-1.6669897
3560792724678	0.65443164	2.8479507	-1.4069225
3560802703926	0.820704	3.3137271	-1.438898
3560812713692	0.87079906	3.6079018	-1.4484906
3560822692940	0.86120665	3.7656476	-1.2577031
3560832702706	0.82816505	3.7475283	-1.0061628
3560842681954	0.779136	3.3489003	-0.7386344
3560852691719	0.58195394	2.590015	-0.4188793
3560862670967	0.26219887	1.552943	-0.06075363
3560872680733	-0.13536341	0.5073442	0.25260615
3560882659981	-0.6650907	-0.35599408	0.6288512
3560892669747	-1.2246621	-0.7823342	1.0392035
3560902679512	-1.4911244	-0.75781953	1.3834728
3560912658760	-1.3014032	-0.4476574	1.5422845
3560922699044	-0.42527434	0.536122	1.6243548
3560932678292	1.9387808	4.0800734	1.7160182
3560942688057	4.211173	8.786867	0.46364436
3560952667305	1.1255372	6.6008086	-3.2263284
3560962677071	-3.6313512	0.13856028	-5.5946474
3560972625801	-2.4024262	-2.4599822	-4.1866593
3560982635567	0.3687839	-1.0551921	-1.5348243
3560992645333	0.89424795	-1.5422853	-0.08633409
3561002655098	0.69813144	-3.0685823	0.5606367
3561012634346	0.37411287	-4.7440987	1.0104257
3561022644112	-0.11724407	-5.4454284	1.3877364
3561032623360	-1.3056667	-3.715553	1.923859
3561042633126	-2.240417	-0.8185732	2.054958
3561052642891	-2.4226773	0.8750623	1.1425906
3561062622139	-0.8302972	-0.66295904	-0.7588853
3561072601387	0.7993872	-0.62778616	-1.6414093
3561082641670	0.6448389	0.3687839	-1.0189531
3561092620918	0.96139634	0.57875603	-0.24621163
3561102630684	1.503914	0.49348828	0.46684203
3561112640450	1.5508114	0.3250841	1.3323123
3561122619698	0.57769024	0.038370293	2.5964103
3561132629463	-1.1287355	0.40715444	3.728343
3561142608712	-2.1594124	1.1692369	4.1216416
3561152587960	-2.2926438	1.4293045	4.0086613
3561162597725	-1.9771521	1.2374517	3.5684655
3561172576973	-1.5209683	0.5990075	3.16664
3561182586739	-1.126604	-0.12577072	3.0280795
3561192565987	-0.9006435	-0.48815957	3.1378622
3561202575752	-0.81430995	-0.57342786	3.2657642
3561212555001	-1.1575134	-0.21210428	3.3915343
3561222595284	-2.2425487	0.4146153	3.401127
3561232574532	-2.7349715	0.58728296	3.11015
3561242584298	-2.5186036	0.5265293	2.6465054
3561252563546	-2.0112596	0.35919118	2.2382846
3561262573311	-1.4751369	0.18545748	1.8897517
3561272552559	-1.0274795	0.027712055	1.6669892
3561282531807	-0.6949343	-0.18332642	1.6094332
3561292541573	-0.55211055	-0.37837714	1.73094
3561302551338	-0.6608272	-0.36878443	2.0187194
3561312530587	-0.8388241	-0.10765136	2.3043673
3561322570870	-0.97525334	0.10445291	2.3523307
3561332550118	-1.1436572	-0.29097724	2.2329555
3561342529366	-1.032809	-1.4730048	2.1242387
3561352539132	-0.4284717	-2.3970969	1.9590319
3561362518379	0.3837056	-2.5239332	1.6435403
3561372528145	0.736502	-1.879094	1.2843488
3561382537911	0.32934728	-1.2992716	1.0530595
3561392517159	-0.28884566	-1.3642882	0.8015188
3561402496407	-0.6256546	-1.2214644	0.38477165
3561412506172	-0.71092236	-0.97525334	-0.07887298
3561422485421	-0.635247	-1.117011	-0.4114187
3561432495186	-0.36665285	-1.5273631	-0.5627688
3561442474434	-0.068214744	-1.7192165	-0.6928027
3561452484200	0.004263188	-1.5497462	-0.7972562
3561462493965	0.030909447	-1.3717493	-0.735437
3561472473213	0.52333194	-1.365354	-0.6448397
3561482482979	1.0509279	-0.6096665	-0.7929927
3561492492745	1.0392035	0.7119873	-1.3514984
3561502502510	0.9464744	1.488992	-2.3501995
3561512481758	1.1319324	1.6531328	-3.6217587
3561522491524	1.46128	1.3706827	-4.585287
3561532501290	1.5838528	0.15774542	-4.85921
3561542480538	1.376012	-0.67148596	-4.951939
3561552490303	1.1948174	0.29204252	-4.9849806
3561562469551	1.2086735	1.354695	-4.788864
3561572448799	1.1521834	1.2715588	-4.308166
3561582458565	1.7842325	-0.18439221	-3.660129
3561592437813	1.723479	-2.9342852	-2.837293
3561602417061	0.7876629	-5.025483	-2.0528274
3561612426827	-0.2664626	-5.3228545	-1.3845394
3561622406075	-1.1777643	-3.3020036	-1.0669161
3561632446358	-1.8172746	0.6800121	-1.5220342
3561642425606	-0.93048745	1.552943	-2.3651214
3561652404854	-0.10338764	0.96885747	-2.8436882
3561662445137	0.2344868	0.63098276	-3.0483315
3561672424385	0.31122765	0.7897945	-2.9982362
3561682434151	0.2909767	1.3962631	-2.571896
3561692413399	0.4156811	2.2201653	-2.1668732
3561702423164	0.71838266	2.8745968	-2.0144567
3561712432930	0.9091696	3.3041344	-1.9611644
3561722412178	0.8771944	3.542885	-1.7746406
3561732391426	0.7492921	3.7187505	-1.436766
3561742401192	0.6181927	3.6409433	-1.090365
3561752410958	0.5734271	3.2146032	-0.7706099
3561762390206	0.53185886	2.5175374	-0.4146161
3561772399971	0.38903484	1.7778374	-0.05649044
3561782409737	0.13856028	0.985911	0.27712083
3561792388985	-0.16733865	0.33467653	0.58195394
3561802368233	-0.5531764	-0.1875896	0.91023546
3561812377998	-0.9230266	-0.5126742	1.3205879
3561822357247	-0.9709896	-0.41035238	1.589182
3561832397530	-0.6075347	0.16307494	1.7032279
3561842376778	0.6597606	1.8886858	1.8439202
3561852386544	3.4863951	6.097728	1.5785235
3561862365792	4.1013904	7.57393	-0.7162516
3561872345040	-0.8377583	2.8713994	-4.46378
3561882354805	-4.2175684	-1.8034184	-5.335645
3561892334053	-1.4698074	-2.1892562	-3.2668304
3561902343819	0.8452186	-0.9059728	-0.81111205
3561912353584	1.0189524	-1.8044841	0.23128888
3561922332833	0.59367824	-3.227394	0.6917364
3561932342598	-0.031975776	-4.755823	1.0018988
3561942321846	-0.7748731	-5.3047357	1.2022785
3561952331612	-1.4708732	-3.72408	1.5806551
3561962310860	-1.7053603	-1.4889928	2.2393503
3561972351143	-2.3789775	0.3773108	2.4301374
3561982330391	-0.99443847	-0.5489132	0.6597606
3561992309639	0.5201345	-0.25900173	-0.61925924
3562002319405	0.6022049	0.68534106	-0.57129574
3562012298653	0.8025846	0.8345604	-0.069280535
3562022338936	1.1830933	0.64057547	0.6245877
3562032318184	1.3077977	0.34959874	1.5017824
3562042327950	0.84095544	0.12044066	2.554842
3562052307198	-0.3240188	0.27498895	3.3872712
3562062316963	-1.5753267	0.95926476	3.6835773
3562072296212	-2.2627997	1.3578923	3.5514119
3562082305977	-2.2905118	0.84841603	3.272159
3562092285225	-1.9025424	-0.122573055	2.95347
3562102264473	-1.3909345	-1.1063524	2.8255682
3562112274239	-0.9144997	-1.7458627	2.8884532
3562122253487	-0.577691	-2.0091274	2.95347
3562132263252	-0.3623894	-1.716019	2.946009
3562142273018	-0.2739237	-0.9709896	2.9193628
3562152252266	-0.4487232	-0.026646258	2.8809922
3562162262032	-1.2299911	0.58301973	2.7957242
3562172271798	-1.9334522	0.67681444	2.5996077
3562182281563	-2.0581567	0.66509014	2.2873137
3562192260811	-1.791694	0.7876629	1.971822
3562202270577	-1.3269837	0.8686675	1.7650473
3562212249825	-0.9667264	0.63311434	1.7117548
3562222259590	-0.9784507	0.11511141	1.8279325
3562232238838	-1.2395837	-0.33254573	1.9814148
3562242218087	-1.4740705	-0.47963265	2.054958
3562252227852	-1.6648581	-0.5936788	2.0496292
3562262207100	-1.2108059	-1.1916208	1.9206611
3562272216866	-0.31122845	-1.73627	1.7799692
3562282226632	0.38477165	-1.6616602	1.6648573
3562292236397	0.58941454	-1.223596	1.5636015
3562302246163	0.2366184	-1.215069	1.437831
3562312194893	-0.2845822	-1.5369558	1.1649737
3562322204659	-0.5435837	-1.1639087	0.7375678
3562332183907	-0.6043373	-0.76528066	0.3485324
3562342193672	-0.6096665	-0.99763584	0.13109916
3562352203438	-0.471106	-1.2310568	0.044765607
3562362182686	-0.20464343	-1.0189531	-0.11617774
3562372192452	0.06288496	-0.61819345	-0.3165577
3562382171700	0.5062784	-0.6960001	-0.5659667
3562392181465	0.84735024	-0.45618433	-0.97312117
3562402191231	0.8899845	0.07993824	-1.6275533
3562412200997	0.91556495	0.5553077	-2.4024262
3562422210762	1.0669156	0.9848452	-3.2305915
3562432190010	1.331246	0.9976353	-3.8882213
3562442199776	1.4516875	0.53292465	-4.3028364
3562452179024	1.3440367	-0.39756227	-4.4648457
3562462158272	1.2427809	-1.2672958	-4.415817
3562472168038	1.1958832	-0.84521943	-4.2804537
3562482177803	1.3056661	0.23555261	-4.071547
3562492157051	1.4229094	0.80791414	-3.9447112
3562502166817	1.4783337	0.5595709	-3.802953
3562512146065	1.5337579	-1.2939421	-3.6803803
3562522125313	1.1980153	-4.2335563	-3.1282701
3562532135079	0.5904806	-6.2714615	-2.1018565
3562542114327	-0.039436888	-6.2682643	-1.5486804
3562552093575	-0.7738073	-4.15042	-1.5998412
3562562133858	-1.7501259	0.054358315	-2.0688152
3562572113106	-1.3664198	1.2459782	-2.78933
3562582122872	-0.42527434	0.26539627	-3.2817523
3562592132637	0.10445291	-0.28991145	-3.2902794
3562602111885	0.2803182	-0.041568484	-2.828766
3562612121651	0.35705933	1.049862	-2.169005
3562622131416	0.48922482	2.214836	-1.7266773
3562632110664	0.6277854	2.8447533	-1.5337584
3562642120430	0.69706535	3.1165447	-1.5252315
3562652099678	0.63204855	3.1495864	-1.4815317
3562662109444	0.47536892	3.0952282	-1.3014032
3562672088692	0.26965997	2.890585	-0.98484576
3562682098458	0.13856028	2.7402997	-0.6757492
3562692077706	0.10871663	2.520735	-0.39649647
3562702087471	0.08420196	2.0794728	-0.11191455
3562712097237	-0.05542464	1.376012	0.1897212
3562722076485	-0.2845822	0.64164126	0.4732368
3562732055733	-0.61179817	0.071411334	0.82709926
3562742065498	-0.89957774	-0.2632652	1.2033442
3562752075264	-0.86760247	-0.1961165	1.3685511
3562762085030	-0.22915809	0.56809783	1.3738804
3562772094795	1.4335679	3.0579233	1.2907442
3562782074044	3.2806861	6.6636934	0.36238858
3562792053292	1.5870504	6.321556	-2.3065
3562802063057	-2.7115228	1.9505053	-4.60767
3562812042305	-3.227394	-1.080772	-3.9905427
3562822021553	-0.6640249	-1.2001474	-1.8822913
3562832031319	0.72904116	-0.9603311	-0.20144603
3562842041084	0.9326185	-2.184993	0.59687567
3562852020333	0.7055923	-3.3115962	1.1820272
3562862030098	0.19505018	-4.3539977	1.519902
3562872039864	-0.9603311	-4.329483	1.6115648
3562882019112	-2.0325763	-2.6529007	1.8577762
3562892028878	-2.2905118	-0.7791368	2.5452495
3562902008126	-2.409887	0.5606367	3.0888329
3562912017891	-0.97525334	-0.031975776	1.9995341
3562922027657	0.651234	0.40608865	0.77593833
3562932037422	0.9443428	2.086934	0.5020152
3562942016670	0.836692	2.661427	0.6725512
3562952026436	0.9763183	2.2798529	1.0892981
3562962036202	1.1681712	1.410119	1.7980886
3562972015450	1.1308666	0.45938116	2.6049368
3562981994698	0.8558771	-0.370916	3.1996815
3562991973946	0.19718204	-1.0381383	3.591914
3563001983712	-0.74396366	-1.387737	3.7326062
3563011962960	-1.5017831	-1.2001474	3.4789343
3563021972725	-1.8258015	-0.8590756	2.9865115
3563031951973	-1.8321965	-0.5958104	2.6155953
3563041961739	-1.5550756	-0.25367275	2.4439936
3563051971504	-1.0274795	0.23128888	2.263865
3563061981270	-0.38903564	0.8025846	2.138095
3563071991036	0.16414073	1.2182662	2.0805387
3563081970284	0.46257856	1.413317	2.035773
3563091980049	0.36452016	1.2289248	2.078407
3563101959298	-0.22169697	0.5691636	2.1668727
3563111969063	-0.9027754	-0.1406924	2.20098
3563121948311	-1.2214644	-0.5233327	2.1370292
3563131927559	-1.2534399	-0.65869564	2.037905
3563141937325	-1.2545058	-0.61286396	1.986744
3563151916573	-1.415449	-0.48389637	1.9377149
3563161926338	-1.8716328	-0.280319	1.9025418
3563171936104	-2.4120185	0.20144524	1.8812248
3563181945870	-2.694469	0.5009494	1.7778374
3563191925118	-2.6060035	-0.054358847	1.6328818
3563201904366	-1.444227	-1.7714431	1.488992
3563211914132	0.004263188	-2.0219178	1.3088635
3563221923897	0.49348828	-1.0935624	1.1980153
3563231933663	0.27605477	-0.9358164	1.1020888
3563241912911	-0.13642922	-1.5870509	0.9240916
3563251892159	-0.3304136	-1.954769	0.6586948
3563261871407	-0.22915809	-1.8780282	0.38583744
3563271911690	0.041567683	-1.4037248	0.17053579
3563281890938	0.26433045	-0.5467816	-0.035173167
3563291900704	0.30376682	0.2472769	-0.27605528
3563301879952	0.19718204	0.43060333	-0.45725012
3563311889717	0.19611599	0.06288496	-0.49242327
3563321868965	0.48602742	-0.21423586	-0.44339395
3563331909249	0.9667256	0.059687298	-0.71411973
3563341888497	1.2140027	0.5265293	-1.5135075
3563351898262	1.1777638	0.70772415	-2.5367234
3563361877510	1.2140027	0.5712952	-3.490659
3563371887276	1.3323123	0.2931083	-4.15042
3563381866524	1.4484899	-0.081005104	-4.5597067
3563391845772	1.3706827	-1.044533	-4.668423
3563401855538	1.1745664	-0.99550426	-4.7227817
3563411865303	1.3941313	0.80578226	-4.9220953
3563421844551	1.6200917	2.1647413	-5.1160808
3563431854317	1.7117548	1.7000304	-4.67695
3563441833565	1.6787132	-1.111682	-3.6750512
3563451812813	0.9869768	-4.391302	-2.3800433
3563461822579	0.00959244	-5.969826	-1.3568273
3563471801827	-0.76634645	-5.5147085	-0.8132436
3563481781075	-1.3941318	-2.0997245	-1.1052867
3563491821358	-1.8098137	1.9068053	-1.8886867
3563501800606	-0.7333054	2.0965266	-2.7221813
3563511810372	0.054358315	1.1084838	-3.0270143
3563521820137	0.21956486	0.39862755	-3.055792
3563531799385	0.123638056	0.6128634	-2.6667569
3563541809151	0.17266738	1.5870504	-2.1658075
3563551818916	0.381574	2.3491328	-1.8769624
3563561798164	0.64057547	2.952404	-1.7831675
3563571807930	0.8132431	3.373415	-1.7042944
3563581787178	0.8441528	3.5567408	-1.4794002
3563591796944	0.7897945	3.5546093	-1.1042209
3563601776192	0.66509014	3.3712833	-0.77700466
3563611785958	0.5020152	3.1495864	-0.55104476
3563621765206	0.31016186	2.784	-0.33147994
3563631774971	0.05542411	2.1263704	-0.10978296
3563641784737	-0.23981632	1.3003366	0.14815272
3563651763985	-0.5233327	0.45724958	0.43060333
3563661773750	-0.86653614	-0.19505072	0.80684835
3563671752998	-1.2555715	-0.61606133	1.3014024
3563681762764	-1.436766	-0.5382547	1.695767
3563691742012	-1.2481107	-0.05649044	1.8673686
3563701751778	-0.17693137	1.1116812	1.9505053
3563711761544	3.1026893	5.6372805	1.8151424
3563721771309	3.9020765	8.360527	-0.533991
3563731750557	-1.3195225	3.4426951	-4.5341268
3563741729805	-4.3252196	-1.9537033	-5.0947638
3563751709053	-1.8183403	-2.9747875	-3.0227509
3563761749336	0.7034607	-1.3141936	-0.7247785
3563771759102	1.0903645	-1.7938256	0.4199443
3563781738350	0.91769654	-3.3020036	1.0157547
3563791717598	0.5744929	-4.671621	1.4431607
3563801727364	0.08313616	-4.876264	1.5135067
3563811706612	-0.8835897	-2.8362272	1.5625358
3563821746895	-2.240417	0.23022309	2.1764653
3563831726143	-3.6036391	1.910003	3.024882
3563841705391	-1.3813419	-0.7535564	1.7810351
3563851715157	1.0541252	-0.5904814	0.38050818
3563861724922	1.1191423	1.2470441	0.17266738
3563871704170	0.96992326	1.7277426	0.3709155
3563881713936	1.2854147	1.4516875	0.67574865
3563891693184	1.4495556	1.028545	1.2449125
3563901702950	1.1191423	0.6245877	2.0965266
3563911682198	0.09272861	0.12577018	3.0632522
3563921691963	-1.3546957	-0.05649044	3.6505358
3563931671212	-2.1093175	-0.38583824	3.678248
3563941650460	-2.135964	-1.0349406	3.3638222
3563951660225	-1.7810359	-1.6328824	3.003565
3563961639473	-1.2054764	-1.8215377	2.8202386
3563971649239	-0.71198815	-1.3760124	2.6816783
3563981659004	-0.33574313	-0.5627688	2.5313935
3563991668770	-0.020251475	0.51480526	2.3672523
3564001678536	0.17373317	1.5540088	2.2254946
3564011657784	-0.004263721	2.149819	2.1636753
3564021637032	-1.0008333	1.7767715	2.221231
3564031646798	-2.0986588	0.90597224	2.3033013
3564041656563	-2.465311	0.4220764	2.2883797
3564051635811	-2.2649317	0.26539627	2.2329555
3564061645577	-1.8417892	0.10871663	2.2734578
3564071655342	-1.6861749	-0.073543996	2.463179
3564081634590	-2.259602	0.28564718	2.661427
3564091613838	-3.055792	1.0317425	2.5537763
3564101623604	-2.0826714	-0.48815957	2.2478774
3564111602852	-0.2845822	-2.6241229	1.8812248
3564121612618	0.2344868	-3.2657647	1.8524469
3564131622383	0.6064681	-2.5111427	1.6989647
3564141601632	0.46364436	-1.2715596	1.3866707
3564151611397	-0.23022388	-0.61286396	1.0658498
3564161590645	-0.89851195	-0.3815745	0.6800121
3564171600411	-1.2353206	-0.66935384	0.16094308
3564181579659	-1.025348	-1.5412195	-0.32188722
3564191558907	-0.16200967	-2.260668	-0.52653015
3564201568672	0.52439773	-2.3278167	-0.6064689
3564211578438	0.5595709	-1.6893728	-0.7482268
3564221557686	0.2259599	-0.640576	-0.8697341
3564231597969	0.06608235	0.087399356	-0.84308785
3564241577217	0.50841	0.13216496	-0.7183832
3564251586983	1.2577026	0.16840392	-0.842022
3564261596749	1.3909339	0.6608264	-1.5252315
3564271575997	1.1990811	0.97205484	-2.6305182
3564281585762	1.219332	0.8835892	-3.853048
3564291565010	1.4165144	0.25367194	-4.7014647
3564301574776	1.552943	-1.0072286	-4.9487414
3564311554024	1.4154485	-1.8567109	-4.895449
3564321533272	1.2065419	-0.9113018	-4.810181
3564331573555	1.212937	0.6917364	-4.540521
3564341552803	1.0669156	1.6435403	-3.989477
3564351532051	1.5838528	1.0264132	-3.435235
3564361511299	1.7501253	-1.3994613	-2.813844
3564371521065	1.1308666	-4.0353084	-2.1103833
3564381500313	0.402891	-5.3750815	-1.5135075
3564391510079	-0.29950416	-4.9487414	-1.1308671
3564401489327	-1.3664198	-0.81963897	-1.4026587
3564411499092	-1.8833572	2.2766552	-2.1317005
3564421508858	-0.74716103	1.7042936	-2.9119024
3564431518624	0.07887244	0.7983214	-3.3297157
3564441497872	0.4231422	0.5659662	-3.2796206
3564451507637	0.4689736	1.1170102	-2.6550329
3564461517403	0.5158711	2.20098	-1.8758961
3564471496651	0.63098276	2.845819	-1.4644781
3564481506416	0.7802021	3.1932862	-1.3664198
3564491485664	0.81750655	3.3467686	-1.3706834
3564501464913	0.7897945	3.2689614	-1.2555715
3564511505196	0.678946	3.1357303	-1.0082943
3564521484444	0.4806979	2.826634	-0.7482268
3564531463692	0.27818662	2.5036814	-0.48815957
3564541473458	0.13749447	2.1615431	-0.21743378
3564551483223	-0.005329518	1.717084	0.020250943
3564561462471	-0.2621994	1.1212739	0.2899109
3564571441719	-0.704527	0.4913564	0.55743927
3564581451485	-1.1436572	-0.033041574	0.9027749
3564591430733	-1.2630327	-0.2749895	1.092496
3564601471016	-0.88785344	0.070345536	1.1202081
3564611480782	0.26219887	1.7224133	1.2630318
3564621460030	3.2870808	6.469709	1.0445325
3564631469795	3.1634424	7.0793757	-1.7703774
3564641449044	-1.6275533	1.1905541	-5.319658
3564651428292	-3.4000618	-2.547382	-5.2120066
3564661407540	-0.75675374	-1.5326927	-2.5921476
3564671417305	0.63098276	-0.77593887	-0.40715498
3564681427071	0.72904116	-1.9323865	0.3709155
3564691436836	0.4146153	-3.162377	0.7439631
3564701416084	-0.1279023	-4.4744387	0.9816473
3564711395333	-0.73223907	-4.938083	1.0743765
3564721405098	-1.3216542	-3.164509	1.2992707
3564731414864	-1.5273631	-0.7844658	1.9696904
3564741424629	-2.0016665	1.2012126	2.8426216
3564751403878	-2.7967906	2.1775312	2.8149095
3564761383126	-1.9355838	0.85161394	1.1074177
3564771392891	-0.20144603	-0.24727744	-0.3932991
3564781433175	0.10232131	0.2824498	-0.3741134
3564791442940	0.46151277	0.83988935	0.4231422
3564801422188	0.9731207	0.6800121	1.2704929
3564811401436	1.2331879	-0.0842025	2.0986583
3564821380684	1.1745664	-0.9358164	2.834095
3564831390450	0.7897945	-1.3173909	3.37981
3564841369698	-0.10871716	-1.2907447	3.7091577
3564851379463	-1.1148794	-0.9486071	3.7400672
3564861358712	-1.6168946	-0.61392975	3.4394972
3564871368477	-1.6723189	-0.34213817	3.0621865
3564881378243	-1.5742608	0.087399356	2.8980458
3564891357491	-1.3600249	0.4338007	2.7914608
3564901367256	-1.0072286	0.779136	2.6422417
3564911346504	-0.5478474	1.1148785	2.4599817
3564921356270	-0.0959268	1.3504317	2.2468116
3564931366036	0.10445291	1.4314363	2.0496292
3564941375801	-0.0831367	1.1575129	1.9430442
3564951355049	-0.49242327	0.5563735	1.9334515
3564961334298	-0.90703857	0.044765607	1.923859
3564971313546	-1.1564476	-0.28884566	1.8908175
3564981323311	-1.3664198	-0.49988386	1.8865542
3564991333077	-1.6552655	-0.7087907	1.9259907
3565001312325	-1.9867448	-0.8697341	1.9728879
3565011291573	-2.4237432	-0.9891089	2.0762756
3565021301338	-3.0099607	-1.1127478	2.1668727
3565031311104	-3.2753575	-1.4836636	2.1306338
3565041290352	-2.0528274	-2.9172318	1.9473073
3565051300118	-0.005329518	-2.8021197	1.5486798
3565061340401	0.7695436	-1.2086743	1.2566367
3565071319649	0.47750053	-0.5894151	1.1511176
3565081298897	-0.029844182	-0.99870163	0.9283548
3565091278145	-0.36665285	-1.3003374	0.5116079
3565101287911	-0.5020157	-1.5135075	0.13856028
3565111297676	-0.43593284	-1.6200925	-0.02238307
3565121246407	-0.2707263	-1.2203987	-0.12363885
3565131256172	-0.1396266	-0.52013534	-0.35599408
3565141235421	-0.07780718	-0.14495613	-0.7055928
3565151275704	0.27285737	-0.7929927	-0.96246266
3565161254952	0.879326	-1.047731	-1.1361966
3565171264717	1.312061	-0.40182546	-1.3269837
3565181274483	1.5081774	0.40502286	-1.6488703
3565191284249	1.4303705	0.8249677	-2.3214216
3565201263497	1.2523736	0.6608264	-3.3147938
3565211273262	1.2278589	0.3240183	-4.357195
3565221252510	1.3781438	-0.34853294	-4.9924417
3565231231758	1.483663	-1.3141936	-4.9785857
3565241241524	1.3344439	-1.0701135	-4.8229713
3565251251290	1.3376414	0.46257856	-4.834696
3565261230538	1.4197117	1.7650473	-4.6758847
3565271240303	1.4580826	1.6062355	-4.102457
3565281250069	1.8311299	-0.7279759	-3.2593696
3565291229317	1.4293045	-4.1301694	-2.1508856
3565301208565	0.45192006	-5.944246	-1.2118717
3565311187813	-0.5009499	-5.5061812	-0.6960001
3565321197579	-1.4133174	-2.0123253	-0.95393604
3565331207344	-1.8471181	1.7149522	-1.7074921
3565341186592	-0.8292314	1.9739536	-2.4333358
3565351196358	-0.0021321268	1.2076077	-2.8575442
3565361206124	0.35386193	0.79618984	-3.099492
3565371215889	0.39436436	0.83029664	-2.9065733
3565381195137	0.3783766	1.5795892	-2.27559
3565391204903	0.40928605	2.4173474	-1.7096237
3565401184151	0.64377314	3.0909643	-1.5369558
3565411193916	0.8665356	3.5077121	-1.6073018
3565421173164	0.91663074	3.764582	-1.5891825
3565431182930	0.820704	3.8391912	-1.3163252
3565441192696	0.63204855	3.5162387	-0.9816481
3565451171944	0.3794424	2.8554118	-0.71411973
3565461151192	0.14815272	2.1178434	-0.38583824
3565471160958	-0.009593239	1.3781438	-0.10765136
3565481140206	-0.1875896	0.7812679	0.2494085
3565491149971	-0.3815745	0.25047457	0.6267196
3565501159737	-0.6960001	-0.05968783	0.99976695
3565511138985	-1.032809	-0.2845822	1.437831
3565521148750	-1.0285459	-0.285648	1.808747
3565531158516	-0.6107323	0.09059701	1.9132005
3565541168282	0.6139292	1.354695	1.880159
3565551147530	3.598309	5.8014216	1.5007163
3565561157295	4.5405207	8.311498	-1.1063524
3565571136544	-0.8057831	3.5737944	-5.1118164
3565581115792	-4.1344323	-1.6243557	-5.2194676
3565591095040	-1.2001474	-1.8279331	-2.7648153
3565601135323	1.0093594	-0.847351	-0.6427076
3565611145089	1.0146888	-2.334212	0.15348223
3565621124336	0.5798218	-4.0992594	0.66615593
3565631103584	-0.16627286	-5.1683073	1.2353197
3565641113350	-1.2534399	-4.3113637	1.8982786
3565651092598	-1.8556451	-2.850083	1.7980886
3565661102364	-1.3610908	-1.906806	0.1790627
3565671081612	-0.81004626	-1.460215	-0.9059728
3565681060860	-1.0136236	-0.5915472	-0.98697734
3565691070626	-0.597942	-0.19078752	-0.76208323
3565701110909	0.105518706	0.027712055	-0.29843837
3565711120675	0.6991975	0.17373317	0.27392316
3565721130440	0.7460947	0.17586477	1.0765083
3565731109688	0.23128888	0.019185146	2.1189096
3565741088936	-0.6661565	-0.027712587	3.2625668
3565751098702	-1.2704937	0.190787	4.2346215
3565761077950	-1.2907447	0.32828146	4.7920613
3565771057198	-0.94327754	0.2931083	4.9178314
3565781066963	-0.5659667	0.12896757	4.6961346
3565791046212	-0.4124845	0.053291984	4.2367535
3565801055977	-0.7535564	0.28777933	3.6206923
3565811065743	-1.6723189	0.86227244	3.131467
3565821044991	-2.3747141	1.1894884	2.7530904
3565831054756	-2.3523314	1.319522	2.4173474
3565841064522	-2.0197861	1.3045998	2.1444898
3565851043770	-1.700031	0.7386336	1.9569001
3565861053536	-1.2513083	-0.13642922	1.8055497
3565871032784	-0.61925924	-0.7301075	1.6328818
3565881042549	0.050094593	-0.9891089	1.4740701
3565891021798	0.51373947	-1.0317432	1.3792096
3565901031563	0.5297272	-1.016821	1.3653535
3565911010811	0.07460926	-0.97312117	1.5305603
3565921020577	-0.49029115	-0.7887295	1.8130103
3565930999825	-1.0008333	-0.31016266	2.0752096
3565941040108	-1.4868612	0.2472769	2.2510748
3565951019356	-2.0176542	0.4359323	2.2745235
3565960998604	-2.3086314	0.31549138	2.1562142
3565971008370	-2.1093175	0.047962997	1.9515711
3565980987618	-1.5113757	-0.45405218	1.6787132
3565990997383	-0.54145205	-0.8366925	1.2299905
3566001007149	0.13003337	-1.0104262	0.68747264
3566011016915	0.095925994	-1.7874309	0.35386193
3566020965645	-0.21636799	-2.3150265	0.3240183
3566030975411	-0.27818742	-1.9313207	0.36238858
3566040985176	0.0031973913	-1.3632224	0.3687839
3566050964424	0.39010063	-0.8302972	0.21956486
3566060974190	0.6480366	-0.23661894	-0.10445344
3566070983956	0.5990075	0.004263188	-0.47963265
3566080963204	0.41674688	-0.37304762	-0.7279759
3566090972969	0.551044	-0.9891089	-0.86333877
3566100952217	1.0988908	-1.3440372	-1.238518
3566110961983	1.6648573	-1.3259178	-1.8332623
3566120941231	1.7202817	-0.889985	-2.465311
3566130950997	1.4079875	-0.57555944	-3.1890233
3566140960762	1.0637182	-0.52013534	-4.001201
3566150940010	0.8260335	-0.6544324	-4.756889
3566160949776	0.8729307	-0.98591155	-4.9817834
3566170929024	1.1436565	-0.5073447	-4.718518
3566180938790	1.5604042	1.2310563	-4.606604
3566190918038	1.723479	2.7530904	-4.8219056
3566200927803	1.5795892	2.6155953	-4.6161966
3566210937569	1.552943	0.044765607	-3.6984997
3566220916817	1.0882323	-4.007596	-2.157281
3566230896065	-0.027712587	-6.144625	-0.88465554
3566240875313	-1.800221	-3.514108	-0.6107323
3566250885079	-2.3565946	-0.2238291	-1.5092437
3566260894844	-0.87719494	-0.32934782	-2.5932133
3566270904610	0.05116039	-0.5084105	-2.730708
3566280914375	0.20784055	0.045831405	-2.524999
3566290893624	0.037304495	0.6011391	-2.5495136
3566300872872	-0.09805839	1.0402694	-2.6710203
3566310913155	0.02131674	1.8631054	-2.4226773
3566320892403	0.3581254	3.039804	-1.8066161
3566330871651	0.779136	3.8168087	-1.4431611
3566340881416	1.1244713	4.469109	-1.2779543
3566350891182	1.3696169	5.0627875	-1.0882331
3566360870430	1.5230994	5.3185916	-0.9592653
3566370849678	1.446358	4.9167657	-0.8516145
3566380859444	1.1266031	4.061954	-0.77593887
3566390869210	0.6704194	2.790395	-0.7301075
3566400848458	0.1790627	1.3674853	-0.60860074
3566410827706	-0.25687015	0.08526776	-0.2728579
3566420867989	-0.61179817	-0.86653614	0.19398439
3566430847237	-1.0232164	-1.420778	0.7013291
3566440826485	-1.5188365	-1.6211582	1.2502415
3566450836250	-1.7554554	-1.2790204	1.652067
3566460846016	-1.4698074	-0.56490093	1.8631054
3566470855782	-0.29417464	0.57769024	2.0059295
3566480865547	3.322254	5.5733294	1.8428545
3566490844795	4.6279197	8.558775	-0.48176426
3566500824044	-0.8164416	2.7445636	-5.0137587
3566510803292	-4.4275413	-3.070714	-5.7886314
3566520782540	-1.2619668	-2.6848764	-3.3083987
3566530822823	0.9379475	-0.9933727	-0.9017093
3566540832589	0.9763183	-1.8631063	0.13642868
3566550811836	0.6160608	-3.1527846	0.6618927
3566560821602	0.20144524	-4.2879148	0.86333823
3566570800850	-0.21849959	-4.539455	0.8974453
3566580780098	-0.7823342	-3.1367965	0.8441528
3566590789864	-1.7703774	-0.019185679	0.7919261
3566600799629	-2.850083	3.3350444	1.2086735
3566610809395	-4.1173787	4.5788913	2.0208514
3566620788643	-2.9673269	-0.053292517	2.746695
3566630767891	-0.36878443	-2.5814888	2.362989
3566640777657	0.8228361	-1.0594553	1.6584623
3566650817940	0.64057547	0.70878994	1.4762019
3566660797188	-0.16200967	1.3898681	1.77464
3566670776436	-0.48496217	1.0104257	2.078407
3566680755684	-0.21849959	0.509476	2.263865
3566690765450	0.09166281	0.29204252	2.3949645
3566700775215	0.20464262	0.17160158	2.5644345
3566710784981	0.12577018	-0.18972173	2.6966
3566720764229	-0.24940903	-0.9581995	2.7648144
3566730743477	-1.0178868	-2.5207357	2.937482
3566740753243	-1.4762027	-3.3563619	3.0334086
3566750732491	-1.5092437	-3.0547261	2.8095803
3566760711739	-1.2886131	-2.163676	2.3523307
3566770721504	-0.85800976	-1.0146894	1.9462416
3566780731270	-0.4593817	-0.035173167	1.7096232
3566790741036	-0.33574313	0.39862755	1.6467379
3566800720284	-0.46790862	0.33254492	1.702162
3566810730049	-0.70665914	-0.07141213	1.8332617
3566820709298	-0.8505487	-0.39010143	1.9728879
3566830719063	-0.80898046	-0.5009499	2.0666828
3566840698311	-0.6501687	-0.49775228	2.1007903
3566850708077	-0.57342786	-0.48602796	2.1125145
3566860687325	-0.6810787	-0.45405218	2.0443
3566870697090	-1.025348	-0.5574398	1.8385907
3566880706856	-1.642475	-0.8931824	1.4783337
3566890686104	-2.4674432	-1.3898686	1.1393932
3566900695870	-3.2082088	-1.8183403	1.0157547
3566910675118	-3.1389287	-2.1093175	1.1212739
3566920684883	-2.5356574	-2.1871245	1.319522
3566930664132	-1.741599	-2.0538933	1.5017824
3566940673897	-0.2621994	-1.5646682	1.1308666
3566950714180	0.7002633	-0.9677922	0.4231422
3566960693428	0.820704	-1.3280494	0.047962997
3566970672676	0.530793	-1.9995348	-0.13216549
3566980651924	0.20357683	-2.2414827	-0.28991145
3566990661690	0.17799637	-1.5007168	-0.39010143
3567000640938	0.3837056	-0.30909687	-0.49988386
3567010681221	0.5371881	0.31122765	-0.7716757
3567020660469	0.88252336	-0.38050872	-0.94221175
3567030639717	1.552943	-1.2161351	-1.0200189
3567040649483	1.9163979	-0.7524905	-1.372815
3567050659249	1.7554545	0.29204252	-2.0176542
3567060669014	1.4655432	1.0018988	-3.0184875
3567070648262	1.331246	1.3099294	-4.270861
3567080658028	1.3941313	0.6896048	-5.0094953
3567090637276	1.4037242	-0.5329252	-4.9135685
3567100647041	1.2257273	-0.5084105	-4.7121234
3567110626290	1.1468544	0.70878994	-4.478702
3567120636055	1.1159444	1.67445	-3.9340527
3567130645821	1.7405326	1.2449125	-3.2241964
3567140625069	2.3661866	-0.71518576	-2.4194796
3567150604317	1.8897517	-3.6516023	-1.4847294
3567160583565	0.90384066	-5.270628	-0.75995165
3567170593330	-0.18332642	-4.670555	-0.4529864
3567180572579	-1.3845394	-1.0050969	-1.0775746
3567190582344	-1.4250418	0.65443164	-2.1903222
3567200592110	-0.5030815	0.123638056	-3.0366068
3567210601875	0.053291984	-0.069280535	-3.3403742
3567220611641	0.35066456	0.4338007	-3.3105302
3567230590889	0.51373947	1.1319324	-2.965195
3567240570137	0.6618927	2.028312	-2.3970969
3567250579903	0.8771944	2.854346	-1.9537033
3567260589669	1.0487963	3.1474547	-1.7682452
3567270568916	1.1479201	3.2465787	-1.7341384
3567280578682	1.1511176	3.388337	-1.5966437
3567290557930	0.9976353	3.4149833	-1.3674861
3567300567696	0.82923084	3.138928	-1.1436572
3567310546944	0.6586948	2.7360365	-0.9251582
3567320556710	0.54251736	2.2020457	-0.6395102
3567330535958	0.39862755	1.638211	-0.23875053
3567340576241	0.12470385	1.0754426	0.2451453
3567350524971	-0.23342155	0.5478466	0.65549743
3567360534737	-0.7269101	0.15348223	0.9965695
3567370513985	-1.0733114	-0.09166361	1.3131267
3567380554268	-1.0264137	0.036238696	1.4580826
3567390533516	-0.6746834	0.536122	1.552943
3567400543282	0.39116642	1.8556446	1.7522572
3567410522530	2.8511486	5.671387	1.6094332
3567420532295	3.3446372	7.4321713	-0.4519206
3567430511544	-1.332313	2.9300213	-4.0992594
3567440521309	-3.5876513	-1.2203987	-4.8997126
3567450500557	-0.889985	-1.2619668	-2.9246929
3567460510323	0.47110522	-0.88891923	-0.9613969
3567470489571	0.536122	-2.0421689	-0.07993878
3567480499336	0.23342101	-3.3062668	0.35279614
3567490478584	-0.28245062	-4.6087356	0.6341801
3567500488350	-0.9635285	-5.0244174	0.8686675
3567510498116	-1.7106895	-3.5343587	1.3962631
3567520477364	-2.1508856	-1.6883065	2.2350872
3567530456612	-2.7488275	-0.67788076	2.3033013
3567540466378	-1.0306774	-1.815143	0.81644076
3567550476143	0.31016186	-0.42101115	-0.09059781
3567560485909	0.6448389	1.5167041	-0.22169697
3567570465157	0.7897945	2.1476874	-0.034107372
3567580505440	0.9187623	2.0581563	0.33893973
3567590484688	0.7343704	1.3909339	1.0008327
3567600494454	0.071411334	0.26326466	2.014456
3567610473702	-0.862273	-0.8281656	3.1016233
3567620452950	-1.487927	-1.1383283	3.756055
3567630462715	-1.7671794	-1.1276698	4.041703
3567640441963	-1.7650478	-1.0615869	4.118444
3567650421212	-1.4740705	-1.1553818	3.9841468
3567660430977	-1.0978255	-1.1575134	3.6558652
3567670410225	-0.7887295	-0.8185732	3.3052003
3567680419991	-0.620325	-0.19824864	3.1538496
3567690429756	-0.52653015	0.63311434	2.9715896
3567700439522	-0.62245667	1.6637915	2.7850657
3567710418770	-1.2417153	2.4056232	2.6870072
3567720428536	-1.9590328	2.2606673	2.5889492
3567730438301	-2.2414827	1.659528	2.384306
3567740417549	-2.048564	1.1191423	2.134897
3567750427315	-1.4165149	0.6949338	1.9547685
3567760437081	-0.7269101	0.044765607	1.93132
3567770416329	-0.4604475	-0.7386344	1.9739536
3567780395577	-0.75568795	-1.3099298	2.0251145
3567790405342	-1.2044106	-1.1415256	2.0421681
3567800384590	-1.5710632	-0.5659667	2.0315099
3567810394356	-1.5827878	-0.48922536	2.0347073
3567820373604	-0.9933727	-1.182028	1.9750195
3567830383370	-0.43486705	-1.7671794	1.8258007
3567840393135	0.0	-1.8705671	1.5028481
3567850372383	0.24621111	-1.3802762	1.0956935
3567860382149	0.16414073	-0.7482268	0.73969936
3567870361397	-0.17160238	-0.66189325	0.4806979
3567880371163	-0.51906955	-1.0637188	0.2344868
3567890350411	-0.7098565	-1.4250418	-0.036239497
3567900360176	-0.63098353	-1.6755166	-0.15241697
3567910339424	-0.24514584	-1.6861749	-0.11830986
3567920349190	0.19824784	-1.1436572	-0.08846568
3567930328438	0.39543015	-0.43593284	-0.22915809
3567940338204	0.39010063	-0.21103847	-0.46684283
3567950317452	0.6043365	-0.59474456	-0.7919269
3567960327217	1.0871665	-0.94221175	-1.2790204
3567970336983	1.5390872	-0.7972562	-1.8204719
3567980346749	1.5092432	-0.20038024	-2.4706407
3567990356514	1.2182662	0.14069188	-3.1964843
3568000335762	1.02215	0.16200915	-3.988411
3568010345528	1.0583887	-0.10765136	-4.6172624
3568020324776	1.2395833	-0.556374	-4.7355714
3568030304024	1.3600245	-0.2621994	-4.4563193
3568040344307	1.3706827	0.96885747	-4.2676635
3568050323555	1.3216536	1.9888756	-4.210108
3568060302803	1.0583887	2.390701	-4.1056547
3568070312569	1.3514975	1.1884223	-3.9681602
3568080291817	1.6435403	-2.4781015	-3.1602454
3568090271065	1.0061619	-5.679915	-1.8609743
3568100280830	-0.17479977	-6.153152	-0.9827139
3568110260079	-1.7895625	-2.291578	-1.1084844
3568120269844	-2.056025	0.7141189	-1.9771521
3568130279610	-0.72264636	0.45618352	-2.6347814
3568140258858	-0.046897735	0.17586477	-2.6529007
3568150268624	0.093794405	0.40395707	-2.6902058
3568160278389	0.060753096	0.9315527	-2.7690785
3568170288155	0.088465154	1.7362695	-2.5132747
3568180267403	0.30589867	2.7562878	-1.906806
3568190277169	0.6203245	3.5993748	-1.4996511
3568200256416	0.9208942	4.204778	-1.3951981
3568210266182	1.1148785	4.75902	-1.3280494
3568220245430	1.1671053	5.0446672	-1.1521839
3568230255196	1.0914303	4.907173	-0.98697734
3568240234444	0.86333823	4.343338	-0.8313635
3568250244210	0.54464895	3.3894026	-0.6896053
3568260253975	0.18332589	2.142358	-0.55104476
3568270202706	-0.17906323	0.9294206	-0.32615042
3568280242989	-0.533991	-0.07141213	0.13323076
3568290222237	-0.95287025	-0.7311733	0.6672217
3568300201485	-1.393066	-0.968858	1.097825
3568310211250	-1.5678657	-0.7727415	1.437831
3568320221016	-1.3621565	-0.26752838	1.6446064
3568330230782	-0.54038626	0.70772415	1.8012862
3568340240547	2.073078	4.5149403	2.0389707
3568350219795	4.7963243	9.688576	0.57236123
3568360229561	0.8249677	4.632184	-4.151486
3568370208809	-3.6345487	-2.7999883	-6.2799883
3568380188057	-1.6318165	-2.901244	-4.0054646
3568390197823	0.5563735	-0.82070476	-1.2203987
3568400207589	0.8015188	-1.429305	0.030909447
3568410186836	0.6565632	-2.7296422	0.53931993
3568420196602	0.2899109	-4.210108	0.8121773
3568430206368	-0.22169697	-4.755823	0.8985111
3568440185616	-0.9251582	-3.0195532	1.1585786
3568450164864	-1.3067324	-0.68427604	1.910003
3568460205147	-2.7626836	1.4964532	2.7637486
3568470184395	-2.965195	0.9731207	2.5367224
3568480133126	-0.49988386	-0.740766	0.74289733
3568490203926	0.34320343	0.028777853	-0.20784108
3568500183175	0.30056942	1.0232158	-0.07993878
3568510192940	0.68534106	1.2395833	0.39223224
3568520172188	0.97951573	1.0786399	1.1703027
3568530181954	0.820704	0.657629	2.263865
3568540161202	0.08633356	-0.06608315	3.2529738
3568550140450	-0.7791368	-0.62672037	3.8274672
3568560150215	-1.3888028	-0.5787568	3.8594425
3568570129463	-1.5614705	-0.6533666	3.635614
3568580139229	-1.409054	-0.88785344	3.2774882
3568590118477	-1.2033448	-0.8814581	2.894848
3568600128243	-1.047731	-0.471106	2.7008638
3568610107491	-0.904907	-0.09059781	2.6784806
3568620117256	-0.7834	0.26326466	2.6934025
3568630127022	-0.67788076	0.7034607	2.5878835
3568640106270	-0.66828805	1.092496	2.4365327
3568650116036	-1.0583895	0.9965695	2.320355
3568660125801	-1.6883065	0.34000605	2.1967163
3568670105049	-2.0080616	-0.28991145	2.0336416
3568680114815	-1.8833572	-0.6469713	1.8790932
3568690094063	-1.465544	-0.8462852	1.8130103
3568700103829	-1.032809	-0.9390144	1.8982786
3568710083077	-0.86333877	-0.9336848	2.0666828
3568720092842	-1.1351306	-0.80471724	2.1913874
3568730072090	-2.013391	-0.6533666	2.1881895
3568740081856	-2.9300218	-0.4732376	2.0368388
3568750061104	-3.007829	-1.420778	1.7000304
3568760070870	-1.1617765	-3.162377	1.2331879
3568770080635	0.52866143	-2.9108367	0.8441528
3568780059883	1.0328082	-1.7277434	0.76314825
3568790100167	0.38050818	-0.90810436	0.9869768
3568800079415	-0.25473854	-0.77700466	1.0029646
3568810058663	-0.4604475	-0.7791368	0.63631225
3568820037911	-0.47750106	-0.9571337	0.19931364
3568830078194	-0.34959927	-1.3483005	-0.007461112
3568840026924	-0.053292517	-1.4911244	-0.105519235
3568850036690	0.1897212	-1.025348	-0.29950416
3568860046456	0.17160158	-0.31122845	-0.6043373
3568870025704	0.049028795	-0.16733865	-0.7844658
3568880035469	0.530793	-0.83456093	-0.8793265
3568890014717	1.3163244	-0.6810787	-1.1948181
3568900055001	1.6062355	0.29843783	-1.7117553
3568910034249	1.4197117	0.8750623	-2.440797
3568920044014	1.2267932	0.7919261	-3.3371766
3568930023262	1.2001469	0.39223224	-4.1685395
3568940033028	1.3834728	-0.4476574	-4.668423
3568950012276	1.6019723	-1.420778	-4.7686133
3568960022041	1.5273626	-0.592613	-4.76435
3568970031807	1.4900578	1.3397729	-4.6790814
3568980011055	1.426107	2.5100763	-4.5032163
3568990020821	1.3291144	2.1487532	-4.2090416
3569000000069	1.7341379	-0.61819345	-3.6153634
3569009979317	1.5081774	-4.3891706	-2.4898257
3569019958565	0.6821437	-6.3471375	-1.4708732
3569029968330	-0.42101115	-5.706561	-0.8068489
3569039947579	-1.673385	-1.6637924	-0.9176971
3569049957344	-1.7778379	1.4293045	-1.7170849
3569059967110	-0.70132965	1.2140027	-2.6283865
3569069976875	-0.16307548	0.3240183	-3.035541
3569079986641	0.026645726	0.08313616	-3.1943529
3569089965889	0.063950755	0.63524646	-2.9673269
3569099975655	0.19398439	1.8854883	-2.2670634
3569109954903	0.44019577	2.8777947	-1.5486804
3569119964669	0.71838266	3.4810658	-1.2331885
3569129974434	0.9518036	3.7400672	-1.2342548
3569139953682	1.0541252	3.9244595	-1.2278595
3569149963448	0.96885747	4.03211	-1.0551921
3569159942696	0.75035787	3.8338618	-0.7972562
3569169921944	0.51054186	3.421378	-0.5904814
3569179931710	0.2803182	2.8991115	-0.4508548
3569189941475	0.057555705	2.1455557	-0.2792532
3569199920723	-0.19291912	1.255571	-0.01279063
3569209930489	-0.5254643	0.34533504	0.33680812
3569219909737	-0.93794805	-0.3400066	0.73010695
3569229919503	-1.2374521	-0.62352246	1.2150686
3569239898750	-1.2790204	-0.471106	1.4943216
3569249939034	-0.9720554	0.13429682	1.6371453
3569259918282	0.11511141	1.7970228	1.8034178
3569269897530	3.6132312	7.2221994	1.6435403
3569279937813	3.946842	7.5302296	-1.4730048
3569289917061	-1.5561415	0.4338007	-5.7822366
3569299896309	-3.8061504	-3.788031	-5.696968
3569309875557	-0.8313635	-2.0688152	-2.7978566
3569319885323	0.6928022	-0.9027754	-0.42314273
3569329895089	0.76314825	-1.8950818	0.381574
3569339874336	0.5052126	-3.1719697	0.78339946
3569349884102	0.047962997	-4.5042825	1.0797057
3569359893868	-0.5116084	-4.854947	1.1532494
3569369873116	-0.9997674	-3.0035658	1.2566367
3569379852364	-1.3131273	-0.15987755	1.8886858
3569389892647	-2.1711364	2.0187194	3.0152893
3569399871895	-2.8607419	2.0251145	3.3563612
3569409851143	-1.1074183	0.12150646	1.8236691
3569419891426	0.10232131	0.045831405	0.46257856
3569429870675	0.07247766	0.6800121	0.018119348
3569439849922	0.2451453	1.196949	0.24088159
3569449859688	0.7151852	1.6350133	0.7141189
3569459869454	0.99976695	1.7927593	1.4548849
3569469848702	0.8548113	1.9004102	2.334211
3569479858467	0.17266738	1.5572065	3.0707135
3569489837715	-1.1276698	0.13323076	3.6505358
3569499816963	-2.0741444	-1.4399637	3.7773721
3569509826729	-2.0613542	-2.2713268	3.4171147
3569519805977	-1.6019729	-2.723247	2.9918404
3569529815743	-1.1937524	-2.4503894	2.6475713
3569539825509	-0.99443847	-1.6158288	2.4152157
3569549804756	-0.88465554	-0.7929927	2.2318895
3569559814522	-0.7908611	-0.03837109	2.1316996
3569569824287	-0.74289787	0.6586948	2.086934
3569579803536	-0.9059728	0.9965695	2.0752096
3569589813301	-1.2672958	0.69706535	2.1679385
3569599823067	-1.5113757	0.2824498	2.2468116
3569609802315	-1.4495565	-0.0031979238	2.285182
3569619781563	-1.1575134	-0.21210428	2.320355
3569629791329	-0.8569434	-0.34853294	2.3970964
3569639770577	-0.7855316	-0.51054263	2.4610474
3569649780342	-1.0146894	-0.6363128	2.4749033
3569659759590	-1.6179607	-0.66722226	2.4216108
3569669769356	-2.2851827	-0.49775228	2.2372189
3569679779122	-2.6550329	-0.392233	1.8620396
3569689758370	-2.4120185	-0.9571337	1.3706827
3569699768135	-1.295008	-2.2297585	0.91556495
3569709777901	0.044765607	-2.5186036	0.6032707
3569719787667	0.5563735	-1.8247356	0.45192006
3569729766915	0.32295248	-1.429305	0.48176372
3569739746163	-0.0021321268	-1.6350139	0.38796905
3569749755928	-0.19078752	-1.8833572	0.20357683
3569759735176	-0.18652381	-1.9643618	0.050094593
3569769744942	-0.05542464	-1.6126314	-0.040502686
3569779724190	0.044765607	-0.7269101	-0.19291912
3569789764473	0.010658237	0.16414073	-0.4082208
3569799743721	-0.03090998	0.27072576	-0.5659667
3569809722969	0.4210106	-0.43486705	-0.75142473
3569819732735	1.148986	-0.5020157	-1.1830939
3569829742501	1.312061	0.2909767	-1.9163988
3569839721749	1.2150686	0.7993872	-2.887388
3569849731514	1.2353197	0.7343704	-3.928723
3569859710762	1.3898681	0.22702569	-4.662028
3569869720528	1.5060458	-0.76528066	-4.853882
3569879699776	1.3888023	-1.190555	-4.761152
3569889709541	1.1777638	-0.20784108	-4.536258
3569899719307	1.2022785	1.1425906	-4.0971274
3569909698555	1.1170102	1.8567103	-3.655866
3569919708321	1.4165144	0.9358159	-3.34144
3569929687569	2.0059295	-1.7202822	-3.050463
3569939666817	1.525231	-4.4040923	-2.2851827
3569949646065	0.5542419	-5.5711985	-1.4953879
3569959655830	-0.59474456	-4.20691	-1.0157552
3569969665596	-1.3621565	-1.1276698	-1.3866712
3569979675362	-1.0637188	0.34107184	-2.1178439
3569989654610	-0.4934891	0.30589867	-2.6560986
3569999664375	-0.10338764	-0.009593239	-3.0291457
3570009674141	0.12470385	0.07247766	-3.1186771
3570019653389	0.2494085	0.59261245	-2.7328396
3570029663155	0.4327349	1.6254207	-2.0325763
3570039642403	0.68534106	2.6006737	-1.6083677
3570049652169	0.86227244	3.1986156	-1.5177706
3570059631416	0.9336843	3.3894026	-1.5540093
3570069641182	0.90703803	3.4768026	-1.4431611
3570079650948	0.82709926	3.4171147	-1.1532502
3570089630196	0.70665836	3.1122816	-0.8697341
3570099609444	0.5808876	2.5750933	-0.5446495
3570109619210	0.4135495	1.9153322	-0.21636799
3570119659493	0.1897212	1.1713691	0.09272861
3570129608223	-0.12150726	0.49775147	0.4210106
3570139617989	-0.58088845	0.023448335	0.7333046
3570149627755	-0.95500183	-0.31868932	1.0903645
3570159607003	-0.9571337	-0.34320396	1.3248513
3570169616768	-0.5254643	0.15987702	1.4197117
3570179626534	0.67574865	1.8012862	1.5497457
3570189605782	3.0739107	5.8760304	1.1596445
3570199615547	3.272159	7.6336174	-1.131933
3570209594795	-0.97312117	4.0981927	-4.2644663
3570219574044	-3.2263284	0.088465154	-4.565036
3570229583809	-0.9720554	-0.74502945	-2.5260646
3570239563057	0.70878994	-0.44552556	-0.6938685
3570249603340	0.9336843	-1.7703774	0.13003337
3570259582589	0.58941454	-3.1304018	0.6832095
3570269592354	0.031975243	-4.466977	1.0903645
3570279571602	-1.1276698	-4.2324905	1.4847288
3570289550850	-2.3725824	-2.1423585	2.002732
3570299560616	-2.5431182	-0.86547035	2.051761
3570309539864	-1.430371	-2.6635594	0.27498895
3570319549629	-0.1961165	-1.7074921	-0.9891089
3570329559395	0.45618352	0.58195394	-0.81537575
3570339569161	0.6139292	1.5230994	-0.28245062
3570349609444	1.02215	1.7053595	0.25580356
3570359588692	1.3781438	1.7352036	0.864404
3570369567940	1.1894884	1.6254207	1.6456722
3570379547188	0.09912392	0.9571332	2.5601714
3570389556954	-1.2065427	0.38050818	3.4501565
3570399536202	-1.9579669	0.34959874	3.9948053
3570409545967	-1.9782178	0.12790178	4.1323
3570419525215	-1.6126314	-0.52013534	3.9500394
3570429504463	-1.2342548	-1.2907447	3.6228237
3570439514229	-0.9795165	-1.5625362	3.195418
3570449493477	-1.0765089	-1.1106162	2.8404899
3570459503243	-1.7320065	-0.034107372	2.7637486
3570469513009	-2.3544629	0.6810779	2.634781
3570479522774	-2.3768456	0.78553104	2.3491328
3570489502022	-2.0656178	0.5414515	2.0879998
3570499511787	-1.7309407	-0.026646258	1.8972127
3570509491036	-1.3408399	-0.66295904	1.6947012
3570519500801	-0.82177055	-1.1106162	1.5092432
3570529480049	-0.17586558	-1.2854152	1.4090532
3570539489815	0.35705933	-1.420778	1.4420948
3570549499581	0.54678077	-1.5614705	1.567865
3570559478829	0.39649594	-1.5934463	1.7042936
3570569488594	0.07674085	-1.4708732	1.7938251
3570579467842	-0.34746715	-1.401593	1.8162082
3570589477608	-0.8718657	-1.4623466	1.7245449
3570599456856	-1.3920002	-1.6126314	1.5305603
3570609466622	-1.5699974	-1.6243557	1.3141928
3570619445870	-1.3546957	-1.5007168	1.1415249
3570629455635	-1.0967598	-1.332313	1.0754426
3570639434883	-1.139394	-1.1223402	1.0967592
3570649444649	-1.202279	-0.9581995	1.0839691
3570659454415	-0.98484576	-1.0402699	0.9368817
3570669433663	-0.6523003	-1.4047909	0.6011391
3570679443428	-0.14815351	-1.8034184	0.23022309
3570689453194	0.46364436	-1.7852991	0.075675055
3570699432442	0.84735024	-1.3685519	0.054358315
3570709442207	0.8441528	-0.86866826	0.004263188
3570719421456	0.59367824	-0.23875053	-0.2153022
3570729431221	0.39862755	0.29524016	-0.5904814
3570739440987	0.3719813	0.022382537	-0.7503584
3570749420235	0.9027749	-0.5990083	-0.95180446
3570759430001	1.4538192	-0.23235548	-1.5838535
3570769439766	1.4953873	0.5542419	-2.6145303
3570779419014	1.3173904	0.65443164	-3.660129
3570789428780	1.2267932	0.27712083	-4.2900467
3570799408028	1.2875465	-0.44232816	-4.634316
3570809387276	1.2459782	-0.9358164	-4.663094
3570819427559	1.2928758	0.01705302	-4.63858
3570829406807	1.5017824	1.5497457	-4.5160065
3570839416573	1.5486798	2.1082506	-4.3817096
3570849395821	1.40479	1.2363856	-4.536258
3570859375069	1.2363856	-1.5753267	-4.215437
3570869384835	0.6043365	-4.9785857	-2.8479514
3570879333565	-0.32615042	-6.1840615	-1.6019729
3570889343330	-1.1660403	-3.9713576	-1.2598348
3570899383614	-1.7565212	0.4156811	-1.700031
3570909362862	-1.1340646	1.702162	-2.2052438
3570919342110	-0.56063724	1.0903645	-2.451455
3570929351875	-0.3378747	0.7141189	-2.5825546
3570939331124	-0.29310885	0.96033055	-2.512209
3570949340889	-0.21317007	1.8737639	-2.119976
3570959350655	0.075675055	2.8351607	-1.7138869
3570969329903	0.44978848	3.457617	-1.5124416
3570979339669	0.73117274	4.024649	-1.4282392
3570989349434	0.8910503	4.23249	-1.4111856
3570999328682	0.89318186	4.260202	-1.2779543
3571009338448	0.7418315	4.195185	-1.0861015
3571019317696	0.50841	4.0449004	-1.0061628
3571029327461	0.2451453	3.7763062	-0.8921166
3571039337227	0.0127898315	3.2572372	-0.6810787
3571049316475	-0.18439221	2.4525206	-0.40289178
3571059295723	-0.3751792	1.4346337	-0.099124454
3571069305489	-0.61179817	0.44872266	0.24621111
3571079315255	-0.98591155	-0.51906955	0.68534106
3571089294503	-1.3802762	-1.1202086	1.2278589
3571099304268	-1.4548855	-1.0999577	1.638211
3571109283516	-1.0775746	-0.41781348	1.9451758
3571119323799	0.32082036	1.896147	2.2190995
3571129303047	3.3083982	7.045268	1.7863641
3571139312813	3.3030686	6.7233815	-1.047731
3571149292061	-1.9046744	0.052226186	-4.8698688
3571159271309	-4.344405	-4.8581448	-4.8037868
3571169250557	-2.0528274	-3.170904	-2.5782914
3571179260323	0.4338007	-0.5275962	-0.7375686
3571189300606	0.8239019	-0.7844658	0.054358315
3571199279854	0.49881727	-1.7671794	0.48389584
3571209259102	-0.0852683	-3.29774	0.7993872
3571219268868	-0.8036509	-4.635382	0.8239019
3571229248116	-1.396264	-4.265532	0.83988935
3571239257881	-1.3109957	-2.451455	1.410119
3571249237129	-0.56916416	-0.9784507	2.1519508
3571259277413	-1.4783343	0.6480366	2.2585359
3571269226143	-2.191388	0.864404	1.2736903
3571279235909	-0.7844658	0.17799637	-0.14389032
3571289245675	-0.05649044	0.09166281	-0.57129574
3571299255440	0.4114179	0.381574	-0.014922224
3571309265206	1.1873565	0.32721567	0.77380675
3571319244454	1.7074916	-0.019185679	1.6424745
3571329223702	1.6851085	-0.38796985	2.4866278
3571339233467	0.879326	-0.6853419	3.3318465
3571349212715	-0.6640249	-0.4114187	3.970291
3571359252998	-1.83646	0.044765607	4.1067195
3571369201729	-2.157281	0.21530166	3.7347376
3571379211495	-2.010193	0.10765083	3.1208086
3571389190743	-1.644607	-0.3751792	2.677415
3571399200509	-1.1607108	-0.80898046	2.5473812
3571409179756	-0.6757492	-0.9795165	2.6049368
3571419189522	-0.3389405	-0.8835897	2.6241224
3571429168770	-0.17479977	-0.6363128	2.5729613
3571439178536	-0.18652381	-0.40182546	2.518603
3571449157784	-0.4146161	-0.3304136	2.4461255
3571459167549	-0.8239024	-0.4114187	2.3544624
3571469177315	-1.1617765	-0.42634013	2.208441
3571479187081	-1.281152	-0.3815745	1.9984683
3571489166329	-1.1628429	-0.34640136	1.7682447
3571499176094	-0.90917015	-0.3389405	1.595577
3571509155342	-0.71198815	-0.50947684	1.5284287
3571519165108	-0.71411973	-0.97312117	1.6350133
3571529144356	-0.89957774	-1.4644781	1.8332617
3571539154122	-1.1585792	-1.9441108	1.9888756
3571549133370	-1.6435409	-2.3725824	2.0347073
3571559143135	-2.3171582	-2.3501995	1.9345173
3571569152901	-2.366187	-1.7352042	1.7224133
3571579132149	-1.813011	-1.0626527	1.4996505
3571589141915	-1.0999577	-0.80045354	1.3291144
3571599151680	-0.5180032	-1.2001474	1.0679814
3571609130928	-0.0724782	-1.9313207	0.52120036
3571619171212	0.14602113	-2.224429	-0.10658503
3571629119942	0.14069188	-2.1274369	-0.4156819
3571639099190	0.13216496	-1.5881168	-0.4689744
3571649108956	0.15454803	-0.7375686	-0.561703
3571659118721	0.2238283	-0.19291912	-0.71305394
3571669097969	0.6501682	-0.4604475	-0.9635285
3571679107735	1.3578923	-0.7397002	-1.2491765
3571689117501	1.8822908	-0.24408005	-1.6104997
3571699676583	2.050695	0.6448389	-2.0826714
3571709106514	1.94411	1.1692369	-2.8202393
3571719116280	1.7437303	1.19162	-3.830665
3571729126046	1.5849185	0.8803918	-4.838959
3571739105293	1.5454819	0.48496163	-5.3260527
3571749084541	1.488992	0.24834271	-5.293011
3571759094307	1.46128	0.4284712	-4.9146347
3571769073555	1.5380213	1.1298008	-4.593814
3571779083321	1.6659231	1.13513	-4.412619
3571789093087	2.1530166	-0.6970659	-3.8189409
3571799072335	1.8950812	-3.825336	-2.3001046
3571809051583	0.72158	-5.735339	-1.1308671
3571819030830	-0.51693743	-5.4965887	-0.3986281
3571829040596	-1.4474243	-2.4429286	-0.4060892
3571839050362	-1.3419056	0.5158711	-1.323786
3571849029610	-0.3154919	0.5489124	-2.3779118
3571859069893	0.20144524	0.4924225	-2.7264447
3571869049141	0.36558598	0.77487254	-2.7083254
3571879058907	0.3666523	1.0946276	-2.5910816
3571889038155	0.3613228	1.4943216	-2.3054335
3571899047921	0.49668565	2.2542725	-1.8758961
3571909027169	0.8260335	3.067516	-1.5838535
3571919036934	1.1585786	3.4693415	-1.5135075
3571929016182	1.3067319	3.69317	-1.4271734
3571939025948	1.3355098	3.9660275	-1.2406496
3571949005196	1.2203978	3.9873447	-1.0050969
3571959014961	0.99337184	3.7347376	-0.842022
3571969024727	0.6245877	3.1250718	-0.72371215
3571979003975	0.2238283	2.2542725	-0.55850565
3571989013741	-0.1417582	1.3866707	-0.27712163
3571999023506	-0.47430366	0.68427527	0.15881123
3572009002755	-0.8036509	0.27392316	0.7023949
3572018982003	-1.1351306	0.14921851	1.2545052
3572028991768	-1.3248521	0.47110522	1.6115648
3572038971016	-1.202279	1.028545	1.77464
3572048980782	-0.62778616	1.7821008	1.9185295
3572058990547	1.4303705	4.244214	2.1764653
3572069000313	4.43287	8.293378	0.9294206
3572078979561	0.63098276	3.3531637	-3.4618812
3572088958809	-3.5450172	-2.7797372	-5.816344
3572098938057	-1.8332623	-2.2691948	-3.996938
3572108947823	-0.21423586	-0.95287025	-1.3994613
3572118957589	-0.031975776	-1.8556451	-0.20251183
3572128936836	-0.2685947	-3.3361108	0.112979814
3572138946602	-0.48069844	-4.0107937	0.11084822
3572148925850	-0.4039576	-3.6569316	-0.15774596
3572158966133	-0.7077249	-1.5625362	0.10232131
3572168975899	-1.0988914	0.26113307	1.2694272
3572178955147	-1.3664198	0.7908603	2.48343
3572188934395	-1.5262973	0.9315527	2.5175374
3572198913643	-1.6264873	1.2630318	1.106352
3572208953926	-0.058622036	0.48602742	-0.49775228
3572218933175	0.112979814	0.022382537	-0.37198183
3572228912422	0.779136	-0.280319	-0.073543996
3572238952706	1.4815311	-0.6011399	0.3336107
3572248931954	1.0274789	-1.3408399	1.1681712
3572258911202	-0.5158716	-1.9249253	2.362989
3572268920967	-2.0784078	-0.95393604	3.2050104
3572278930733	-2.559106	0.10765083	3.4363
3572288909981	-2.163676	0.53185886	3.2519078
3572298889229	-1.460215	0.6693533	2.8777947
3572308898995	-0.8025851	0.6235219	2.7594852
3572318908760	-0.36558676	0.5265293	2.9428117
3572328888009	-0.14495613	0.48282978	3.0771086
3572338897774	-0.2664626	0.7354362	3.2231297
3572348907540	-1.5273631	1.5390872	3.4672093
3572358886787	-2.7744076	1.413317	3.4405634
3572368896553	-2.9641292	0.63631225	3.0898986
3572378875801	-2.3171582	0.05116039	2.6315832
3572388885567	-1.2577031	-0.2685947	2.2233627
3572398864815	-0.10338764	-0.285648	1.9281223
3572408874581	0.57875603	-0.35599408	1.808747
3572418884346	0.53505623	-0.6469713	1.8918833
3572428863594	0.0948602	-0.8707999	2.0187194
3572438873360	-0.34533557	-1.0392041	2.1029217
3572448852608	-0.70665914	-1.0519942	2.0624194
3572458831856	-1.195884	-0.8729315	2.016588
3572468841622	-1.7842332	-0.577691	2.0187194
3572478851387	-1.9110693	-0.46471068	2.0048637
3572488830635	-1.3408399	-0.67788076	1.8268665
3572498840401	-0.48709375	-1.0072286	1.5337579
3572508850167	0.050094593	-1.1287355	1.2598342
3572518829415	0.19824784	-0.9773849	1.0274789
3572528839180	0.12150646	-0.7929927	0.83988935
3572538818428	-0.09059781	-0.99657005	0.5958099
3572548828194	-0.18119483	-1.5486804	0.30056942
3572558807442	-0.04263428	-1.9654275	0.10765083
3572568817207	0.12683597	-1.834328	0.044765607
3572578826973	0.19398439	-1.0210847	-0.021317273
3572588836739	0.27072576	0.16307494	-0.10871716
3572598815987	0.40928605	0.8771944	-0.2259607
3572608825752	0.6171269	0.6778802	-0.48496217
3572618805001	0.9134331	-0.0820709	-0.84308785
3572628784249	1.3525634	-0.5446495	-1.3014032
3572638794014	1.8343276	-0.46684283	-1.8055502
3572648834298	1.8353933	0.1065845	-2.461048
3572658813546	1.4516875	0.18226008	-3.2146037
3572668792793	1.1266031	-0.105519235	-3.960699
3572678772041	1.0328082	-0.51374	-4.5874186
3572688781807	1.156447	-1.0733114	-4.713189
3572698761055	1.3291144	-0.47536945	-4.455253
3572708801338	1.4495556	1.4271729	-4.2186346
3572718780587	1.4719385	2.894848	-4.03744
3572728759835	1.3429706	3.230591	-4.082206
3572738769600	1.426107	1.8492492	-4.2122397
3572748748848	1.8929491	-1.5817214	-3.8519824
3572758728096	1.6478038	-4.974322	-2.5910816
3572768737862	0.6011391	-5.71189	-1.4698074
3572778717110	-1.2470449	-2.2627997	-1.3003374
3572788757393	-1.800221	0.30589867	-1.9579669
3572798736641	-0.6981322	0.19398439	-2.7051275
3572808715889	-0.13216549	0.08313616	-2.9246929
3572818725655	-0.029844182	0.66295856	-2.8948486
3572828735421	-0.041568484	1.5113751	-2.6870081
3572838714669	-0.020251475	2.2809186	-2.289446
3572848724434	0.18332589	3.0632522	-1.8631063
3572858734200	0.46151277	3.8306646	-1.5614705
3572868713448	0.7002633	4.425409	-1.4484906
3572878723213	0.8313627	4.7526245	-1.3760124
3572888702461	0.84948236	4.9125023	-1.2310568
3572898712227	0.7439631	4.7547565	-1.0733114
3572908691475	0.48709324	4.1514854	-0.9006435
3572918701241	0.09272861	3.2391179	-0.74502945
3572928680489	-0.29417464	2.1977823	-0.54038626
3572938690255	-0.68427604	1.3131267	-0.1406924
3572948700020	-1.1010236	0.54464895	0.42953727
3572958679268	-1.5934463	-0.17693137	1.0114915
3572968658516	-1.9600985	-0.37837714	1.5220336
3572978698799	-1.8705671	0.004263188	1.9483737
3572988678047	-1.2299911	0.6810779	2.1551485
3572998687813	0.071411334	1.9483737	2.1285021
3573008667061	3.146389	6.718052	1.4911236
3573018676827	3.8882205	8.158015	-1.1681719
3573028656075	-1.1521839	0.20784055	-5.466745
3573038635323	-2.841556	-3.2337892	-5.0851707
3573048675606	-0.55850565	0.28884512	-2.2084415
3573058654854	0.5265293	0.2451453	-0.5425179
3573068634102	0.6800121	-1.5806556	-0.16627286
3573078674385	0.48496163	-3.198616	0.0063947826
3573088623116	0.059687298	-4.558641	0.07247766
3573098632881	-0.5894151	-4.413685	0.1918528
3573108612129	-1.3014032	-2.3171582	1.1788297
3573118621895	-1.6861749	-0.48069844	2.7573535
3573128631661	-2.291578	0.7887287	2.9619968
3573138610909	-2.0016665	-0.74396366	1.1777638
3573148590157	-0.12044146	-1.3259178	-1.1063524
3573158630440	0.29950362	-0.28991145	-1.3909345
3573168609688	0.402891	-0.029844182	-0.52120113
3573178619454	1.1607102	-0.06608315	0.25260615
3573188629219	1.4495556	-0.20570949	1.1724348
3573198608467	0.58728296	-0.5041473	2.4333353
3573208618233	-1.1617765	0.054358315	3.5311608
3573218627998	-2.2926438	1.3014024	3.8946154
3573228607247	-2.2819853	1.7437303	3.8359938
3573238586495	-1.7629162	1.441029	3.5311608
3573248596260	-1.1404599	0.693868	3.17943
3573258575509	-0.6544324	-0.11404615	3.017421
3573268554756	-0.4167477	-0.6650907	3.0430014
3573278564522	-0.36452097	-0.7897953	3.293476
3573288574287	-1.2076086	-0.13856082	3.7592523
3573298584053	-2.851149	0.67361706	3.9841468
3573308563301	-3.476803	0.9763183	3.654799
3573318573067	-2.952405	1.2790198	3.1378622
3573328582833	-1.8396573	1.4730042	2.6529002
3573338562081	-0.72371215	1.1212739	2.3160918
3573348571846	-0.11404615	0.30803028	2.1114488
3573358581612	0.118309066	-0.4636449	1.9249249
3573368560860	-0.025580462	-0.9059728	1.837525
3573378540108	-0.5180032	-0.8803923	1.8567103
3573388519356	-0.9880431	-0.34746715	1.8812248
