accelerometer_timestamp	accelerometer_x_data	accelerometer_y_data	accelerometer_z_data
1113010260413372	0.8640442	6.2814026	1.594101
1113010265540325	0.49414063	6.435837	2.14357
1113010270636761	0.412735	6.9254456	2.5027008
1113010275702679	0.008117676	7.285782	2.5793152
1113010280768597	-0.2636261	7.49646	2.3231354
1113010285834515	-0.38334656	7.789749	1.9400635
1113010290900433	-0.3139038	8.036362	1.7281647
1113010295996868	-0.28279114	8.24585	1.594101
1113010301062786	-0.5653076	8.328445	1.6647186
1113010306128704	-0.84303284	8.275772	1.7748566
1113010311225140	-0.90408325	8.40506	1.7305603
1113010316291058	-1.0644989	8.456543	1.4947357
1113010321356976	-1.3087006	8.282959	1.3283386
1113010326453411	-1.378128	8.144089	1.1799011
1113010331519329	-1.3625641	8.215927	1.1236267
1113010336585247	-1.6450806	8.237473	1.1990509
1113010341681683	-1.9311981	8.300919	1.191864
1113010346747601	-1.9311981	8.293732	1.1260223
1113010351813519	-1.8892975	8.2686	1.1332092
1113010356909954	-1.7516327	8.237473	1.1044769
1113010362097943	-1.6055756	8.136917	1.1846924
1113010367102825	-1.4284058	8.121353	1.2517242
1113010372107708	-1.2380676	8.04953	1.3726349
1113010377143109	-1.1734314	7.9010773	1.5366364
1113010382178509	-1.1734314	7.662857	1.8430939
1113010387244427	-1.1662445	7.4425964	2.1687012
1113010392310345	-1.0166016	7.200775	2.4512177
1113010397376263	-0.96513367	7.0798798	2.6942291
1113010402442181	-1.1219482	6.9398193	2.8151398
1113010407508099	-1.3589783	6.92305	2.7062073
1113010412604534	-1.7420502	7.1349335	2.4703674
1113010417670452	-2.274765	7.4701233	2.1160278
1113010422736370	-2.796692	7.887909	1.7640839
1113010427802288	-3.1510315	8.400269	1.4025574
1113010432868206	-3.5137634	8.877914	0.9716034
1113010437934124	-3.8776855	9.2729645	0.578949
1113010443000042	-4.2248383	9.59259	0.2521515
1113010448065960	-4.5408783	10.091782	0.061798096
1113010453162396	-4.8832397	10.675964	-0.036361694
1113010458228314	-5.0687866	11.2026825	-0.01600647
1113010463294232	-5.239975	11.650406	0.05342102
1113010468360150	-5.4638367	11.959259	0.30480957
1113010473426068	-5.6769257	12.208252	0.6759186
1113010478491986	-5.876831	12.286072	1.1020813
1113010483557904	-5.8504944	12.16037	1.4420624
1113010488623821	-5.6098785	11.7868805	1.539032
1113010493689739	-5.372864	11.260147	1.4624176
1113010498755657	-5.157379	10.729828	1.3307343
1113010503852093	-5.1154785	10.576599	1.2062378
1113010508918011	-5.085556	10.85553	1.1727142
1113010513983929	-5.1932983	11.510345	1.167923
1113010519049847	-5.1717377	12.169952	1.0853271
1113010524115765	-4.9802094	12.641602	0.77407837
1113010529181683	-4.7276154	12.840317	0.41973877
1113010534247601	-4.5229187	12.871445	0.112091064
1113010539313519	-4.4355316	12.724197	0.068984985
1113010544379437	-4.500168	12.39859	0.21981812
1113010549445355	-4.634247	12.112488	0.5095215
1113010554541790	-4.9251404	11.936508	0.8303375
1113010559607708	-5.0664063	11.694702	0.99435425
1113010564673626	-4.9921722	11.39183	0.87583923
1113010569739544	-4.7048798	10.982422	0.69506836
1113010574805462	-4.429535	10.614914	0.60528564
1113010579871380	-4.307434	10.375488	0.51431274
1113010584937298	-4.042877	10.170792	0.5083313
1113010590003216	-3.7879028	9.990021	0.72021484
1113010595099652	-3.6753693	9.579422	0.8674469
1113010600165570	-3.4658813	9.067062	0.86027527
1113010605231487	-3.1881409	8.610962	0.5226898
1113010610297405	-2.7583923	7.9561462	-0.34880066
1113010615363323	-1.8904877	7.647293	-1.4633026
1113010620429241	-0.68740845	7.919037	-2.6580048
1113010625495159	0.15415955	8.518784	-3.564209
1113010630561077	0.6593323	9.714691	-3.832367
1113010635626995	1.065155	11.457672	-3.4923859
1113010640723431	1.5763092	13.507111	-2.5107574
1113010645789349	2.4897003	15.187836	-0.7665863
1113010650855267	3.3743591	16.307129	1.5067139
1113010655921185	3.907074	17.00264	3.899704
1113010660987103	4.468506	17.274384	5.528961
1113010666053021	4.931793	17.30072	6.168213
1113010671118939	4.792923	17.153473	6.0030212
1113010676184857	4.5092163	16.832657	5.1818085
1113010681250775	4.042343	16.477112	3.9847107
1113010686316693	3.4078827	15.870178	2.5936737
1113010691382611	2.7758026	15.117203	0.9919586
1113010696479046	1.7307434	14.029037	-0.33084106
1113010701544964	1.0340271	13.468796	-1.2298737
1113010706610882	-0.09603882	13.285645	-1.876297
1113010711676800	-1.9527435	12.754135	-1.6703949
1113010716742718	-3.2420197	12.302826	-1.108963
1113010721808636	-3.1570282	12.038269	-1.1161346
1113010726874554	-2.5429077	11.802429	-1.2957001
1113010731940472	-1.630722	11.479218	-1.6273041
1113010737006390	-1.6115723	11.66597	-1.7637787
1113010742072308	-2.9978027	11.671951	-1.6153259
1113010747168743	-4.0404816	11.371475	-0.95692444
1113010752234661	-5.4398956	10.75737	0.19947815
1113010757300579	-5.5943146	10.565826	0.40896606
1113010762366497	-3.757965	10.540695	0.15518188
1113010767432415	-1.7875366	10.04509	-0.11895752
1113010772498333	-1.1423035	9.232254	-0.7007446
1113010777564251	-1.9707031	8.865952	-0.64089966
1113010782630169	-2.9020386	7.832855	-0.34042358
1113010787726605	-2.4028473	7.1265564	-0.089035034
1113010792792523	-2.3609467	6.444214	0.12286377
1113010797858441	-2.389679	5.657715	0.18270874
1113010802924359	-2.7069092	5.068741	0.23059082
1113010807990277	-2.702118	4.6054688	0.15278625
1113010813056195	-2.697342	4.1314087	0.2521515
1113010818122112	-2.875702	3.322174	0.12644958
1113010823188030	-3.1893463	2.740387	-0.20275879
1113010828284466	-2.9211884	2.8445282	-0.4709015
1113010833350384	-2.4830627	2.7990417	-0.69595337
1113010838416302	-2.171814	2.6960907	-0.56307983
1113010843482220	-1.6379089	2.6493988	-0.3212738
1113010848548138	-0.9687195	2.597931	-0.1776123
1113010853644573	-0.54016113	2.5691986	0.025894165
1113010858710491	-0.31629944	2.5069427	0.13124084
1113010863776409	-0.04815674	2.4135742	0.22102356
1113010868842327	0.17929077	2.2890778	0.36108398
1113010873908245	0.47257996	2.2172546	0.47839355
1113010878974163	0.8688202	2.207672	0.6292267
1113010884070599	1.0771179	2.1921082	0.7046509
1113010889136517	1.2698517	2.187317	0.65197754
1113010894202435	1.6493378	2.1609802	0.6591644
1113010899268353	1.9258728	2.175354	0.7106323
1113010904334271	1.9964905	2.2208405	0.74176025
1113010909400189	2.2047882	2.3010406	0.85069275
1113010914466107	2.263443	2.4195557	1.0434265
1113010919532025	2.1772614	2.448288	1.2050323
1113010924597943	2.0096588	2.381256	1.1954651
1113010929663861	1.8133392	2.4183655	1.088913
1113010934729779	1.5164642	2.599121	0.8087921
1113010939795696	1.3201294	2.930725	0.32756042
1113010944861614	1.2423248	3.337738	-0.2422638
1113010949958050	0.6796875	3.7160187	-0.98924255
1113010955023968	0.23675537	4.009308	-1.9026337
1113010960089886	-0.11758423	4.361252	-3.0039673
1113010965155804	-0.8382416	4.7155914	-4.232193
1113010970221722	-1.6031799	5.420685	-5.369446
1113010975287640	-2.7619781	6.42984	-6.69104
1113010980353558	-3.634674	7.939392	-7.7720184
1113010985419476	-4.4510956	9.747009	-8.502258
1113010990515911	-5.6493835	11.810822	-9.234879
1113010995581829	-6.947052	14.167908	-10.0525055
1113011000647747	-8.645737	16.854202	-11.074829
1113011005713665	-10.946564	19.66858	-11.972656
1113011010779583	-13.829178	22.02208	-12.109116
1113011015845501	-16.66391	23.540009	-11.262772
1113011020911419	-18.082474	23.451431	-10.178192
1113011025977337	-17.202606	21.56839	-9.038559
1113011031043255	-14.837143	18.669006	-8.035385
1113011036139691	-12.405823	15.794769	-7.3291016
1113011041205609	-10.205551	13.320358	-6.943634
1113011046271527	-7.9107056	11.300858	-6.7485046
1113011051337445	-5.69487	9.702728	-6.477951
1113011056403362	-3.8262024	8.40506	-6.0733337
1113011061469280	-2.3525696	7.207962	-5.5944977
1113011066535198	-1.093216	6.131775	-5.0091095
1113011071601116	-0.2516632	5.3332977	-4.247757
1113011076667034	0.048812866	5.334503	-3.6719513
1113011081763470	0.18408203	6.313736	-3.2230377
1113011086829388	0.28224182	7.693985	-2.6484375
1113011091895306	0.3983612	9.03952	-2.0235443
1113011096961224	0.5216675	10.400635	-1.1544495
1113011102027142	0.8891754	11.7916565	0.6004944
1113011107093060	1.338089	13.2066345	3.0282288
1113011112158978	1.6241913	14.798782	5.1231537
1113011117224896	1.0232544	16.401703	5.7360687
1113011122290814	-0.13075256	17.95433	5.2883453
1113011127387249	-0.5269928	18.964691	4.8885193
1113011132453167	0.2104187	18.67978	4.7209167
1113011137519085	1.3512573	16.503448	3.9607697
1113011142585003	2.0048828	12.253738	1.8406982
1113011147650921	1.772644	7.6951904	-0.80729675
1113011152716839	1.7870026	4.380417	-3.0566406
1113011157782757	2.547165	2.4039917	-4.1950836
1113011162848675	3.500061	1.397232	-3.7353973
1113011167914593	3.89151	1.3194275	-2.0642395
1113011173011029	2.7949677	2.017334	0.17074585
1113011178076946	0.6006775	2.9414978	2.1256104
1113011183142864	-0.48390198	3.918335	3.5884705
1113011188208782	-0.9794922	4.9214935	4.5688934
1113011193274700	-1.1901855	6.046768	5.0525208
1113011198340618	-0.93640137	7.385132	5.678604
1113011203406536	-0.93400574	8.497238	6.2639923
1113011208472454	-1.4188385	9.147263	6.3274384
1113011213538372	-2.1813812	9.440552	6.2615967
1113011218604290	-2.5991821	9.786514	6.295105
1113011223700726	-2.5225677	10.268951	6.3561554
1113011228766644	-2.563263	10.640045	6.4028473
1113011233832562	-2.7476196	10.819611	6.3836975
1113011238898480	-2.9451294	10.93573	5.970688
1113011243964398	-3.1641998	11.068619	4.93161
1113011249030316	-3.294693	11.031509	3.5657196
1113011254096234	-3.0480804	10.841171	2.00589
1113011259162152	-2.5345306	10.857925	0.6076813
1113011264228070	-2.2603912	10.73941	-0.66004944
1113011269293987	-2.0652618	10.559845	-1.2418365
1113011274390423	-2.1981506	10.313248	-0.96769714
1113011279456341	-2.1766052	10.061844	-0.30929565
1113011284522259	-1.3865051	9.681168	0.0390625
1113011289588177	-0.69099426	9.165222	0.00793457
1113011294654095	-0.49346924	8.533157	-0.108184814
1113011299720013	-1.0297699	7.8496094	-0.01361084
1113011304785931	-1.4463654	7.3252716	0.33714294
1113011309851849	-1.2272949	6.9601593	0.62564087
1113011314948284	-0.7317047	6.8141174	0.8997803
1113011320014202	-0.6167755	6.891922	1.3008118
1113011325080120	-0.2241211	7.3468323	1.4552307
1113011330146038	-0.3905182	7.682022	1.539032
1113011335211956	-0.591629	7.8172913	1.5665588
1113011340277874	-0.52459717	7.9250336	1.523468
1113011345343792	-0.468338	8.012421	1.5174866
1113011350409710	-0.5341797	8.06868	1.523468
1113011355475628	-0.86576843	8.023193	1.6527557
1113011360572064	-1.191391	7.8783417	1.7341614
1113011365637982	-1.2404633	7.947769	1.6874695
1113011370703900	-1.4679108	8.057907	1.5917053
1113011375769818	-1.7288818	8.051926	1.594101
1113011380835736	-2.0951996	8.041138	1.6443787
1113011385901654	-2.3011017	8.078262	1.6695099
1113011390967571	-2.219696	8.181213	1.5701599
1113011396033489	-2.2639923	8.269791	1.5330353
1113011401099407	-2.432785	8.20993	1.5174866
1113011406195843	-2.5357208	8.194382	1.4504395
1113011411261761	-2.6291046	8.172821	1.302002
1113011416327679	-2.5225677	8.138107	1.136795
1113011421393597	-2.4974213	8.105789	1.1463776
1113011426459515	-2.5153809	7.9753113	1.3079834
1113011431525433	-2.441162	7.8651733	1.5402222
1113011436591351	-2.3789063	7.7873535	1.7401428
1113011441657269	-2.2675781	7.685608	1.9927368
1113011446723187	-2.123932	7.666458	2.2728577
1113011451789105	-1.9970398	7.677231	2.3793945
1113011456885540	-1.903656	7.7310944	2.409317
1113011461951458	-1.9048615	7.7239075	2.3973541
1113011467017376	-1.9850616	7.6760254	2.183075
1113011472083294	-2.068863	7.642517	1.899353
1113011477149212	-2.2173004	7.8125	1.681488
1113011482215130	-2.358551	8.12854	1.4516449
1113011487281048	-2.4782715	8.546326	1.2780609
1113011492346966	-2.6853638	9.025162	1.1212463
1113011497443402	-2.8122559	9.530334	0.87583923
1113011502509320	-2.9690857	10.017563	0.6591644
1113011507575237	-3.1582184	10.453308	0.4508667
1113011512641155	-3.4275665	10.8663025	0.44128418
1113011517707073	-3.6203003	11.126068	0.45565796
1113011522772991	-3.8226166	11.272125	0.6938782
1113011527838909	-4.0524597	11.436127	0.9320984
1113011532904827	-4.2966614	11.499573	1.2002411
1113011537970745	-4.5025635	11.539078	1.3953705
1113011543036663	-4.611496	11.563019	1.5509949
1113011548102581	-4.639038	11.541473	1.6108551
1113011553168499	-4.618683	11.466049	1.4803772
1113011558234417	-4.6605835	11.377472	1.1846924
1113011563300335	-4.6653748	11.303238	0.79322815
1113011568366253	-4.773117	11.291275	0.49874878
1113011573432171	-4.8748627	11.451691	0.31678772
1113011578528607	-4.9227448	11.709061	0.25453186
1113011583594525	-4.7802887	11.955658	0.27009583
1113011588660443	-4.5863647	12.138824	0.30480957
1113011593726361	-4.3493347	12.215439	0.32876587
1113011598792279	-4.259552	12.278885	0.47480774
1113011603858196	-4.208084	12.3363495	0.8734436
1113011608924114	-4.3050385	12.463242	1.460022
1113011613990032	-4.5013733	12.709839	1.9963226
1113011619055950	-4.6019287	13.024673	2.3638306
1113011624121868	-4.737198	13.283249	2.5398102
1113011629187786	-4.6055145	13.36824	2.4392548
1113011634284222	-4.1470337	13.131226	2.1854553
1113011639350140	-3.6203003	12.541046	1.7389374
1113011644416058	-3.1199188	11.820389	1.0721588
1113011649481976	-2.65065	11.136841	0.61247253
1113011654547894	-2.2005463	10.632874	0.32276917
1113011659613812	-1.7552185	10.221069	-0.0076293945
1113011664679730	-1.2380676	9.742218	-0.40626526
1113011669745648	-0.6455078	9.538712	-0.91622925
1113011674842083	0.020080566	9.579422	-1.6859589
1113011679908001	0.61624146	9.775742	-2.729828
1113011684973919	0.96699524	9.909821	-3.8347626
1113011690039837	1.1692963	10.108536	-4.532669
1113011695105755	1.3967438	10.71666	-4.6799164
1113011700171673	1.590683	11.656387	-4.057419
1113011705237591	2.1964111	12.797226	-2.6687775
1113011710303509	2.721939	14.148758	-0.59420776
1113011715369427	3.3276672	15.161499	1.6599426
1113011720435345	4.045929	15.61879	3.5214233
1113011725531780	4.791733	15.718155	4.892105
1113011730597698	5.231064	15.573303	5.8665466
1113011735663616	5.089798	15.151932	6.1347046
1113011740760052	4.5379333	14.5581665	5.625931
1113011745825970	3.8855133	13.790817	4.638321
1113011750891888	3.1876068	12.903763	3.2999573
1113011755957806	2.6297607	11.941299	1.8622437
1113011761023724	1.8516388	11.121292	0.58732605
1113011766089642	0.90234375	10.784897	-0.38949585
1113011771155560	-0.66586304	10.570618	-0.7546234
1113011776221478	-1.769577	10.486816	-1.4680939
1113011781287396	-2.0365448	10.5383	-2.1851501
1113011786353314	-1.9718933	11.165573	-2.6891327
1113011791419232	-1.709732	12.17952	-2.7154694
1113011796485150	-2.5309448	12.327957	-2.401825
1113011801551068	-3.5820007	12.120865	-2.058258
1113011806616986	-3.6502228	11.986786	-1.7003326
1113011811682904	-4.464264	11.33197	-1.0131836
1113011816779339	-5.627838	10.590973	-0.91981506
1113011821845257	-4.6043243	10.465271	-1.0227661
1113011826911175	-3.0672455	10.270142	-0.8491821
1113011831977093	-2.8529663	9.754196	-0.535553
1113011837043011	-3.176178	9.100586	-0.38232422
1113011842108929	-3.623886	8.290146	-0.09980774
1113011847174847	-4.0967407	7.492874	-0.024383545
1113011852240765	-3.7819061	6.8069305	-0.05909729
1113011857337200	-3.4179993	6.149719	0.095321655
1113011862403118	-2.7751465	5.4901276	0.078567505
1113011867469036	-2.2520142	4.922699	-0.13452148
1113011872534954	-2.2065277	4.413925	-0.25064087
1113011877600872	-2.2065277	4.0679626	-0.34161377
1113011882666790	-2.2544098	3.8010101	-0.5032196
1113011887732708	-1.927597	3.5137024	-0.60617065
1113011892798626	-1.3051147	3.2718964	-0.83003235
1113011897864544	-1.1842041	2.7978363	-0.9712982
1113011902930462	-1.0944214	2.6709442	-0.6253357
1113011908026898	-0.6850128	2.7583466	-0.14170837
1113011913092816	-0.3031311	2.7942505	0.24375916
1113011918158734	0.048812866	2.8014374	0.60528564
1113011923224652	0.491745	2.7451782	0.59690857
1113011928290570	0.84368896	2.7128448	0.39819336
1113011933356487	1.0495911	2.6793365	0.32276917
1113011938422405	1.1130371	2.6194763	0.25813293
1113011943488323	1.2614746	2.5679932	0.18031311
1113011948584759	1.3979492	2.5560303	0.07496643
1113011953650677	1.4589996	2.5404663	0.04385376
1113011958716595	1.611023	2.5871582	0.06300354
1113011963782513	1.7594757	2.630249	0.08454895
1113011968878948	1.8384857	2.5632172	0.12286377
1113011973944866	1.8552399	2.5500488	0.17791748
1113011979010784	1.7702484	2.551239	0.20785522
1113011984076702	1.6636963	2.542862	0.15278625
1113011989142620	1.5643463	2.566803	0.01272583
1113011994208538	1.3871765	2.5835571	-0.16564941
1113011999274456	1.1621094	2.6793365	-0.4122467
1113012004340374	1.0687408	2.8301697	-0.7450409
1113012009406292	0.8197479	3.0312805	-1.0862122
1113012014472210	0.48934937	3.3018188	-1.500412
1113012019568646	0.23077393	3.6202545	-2.0307312
1113012024634564	-0.18821716	3.9315033	-2.6663818
1113012029700482	-0.52459717	4.259506	-3.3678894
1113012034766400	-1.1506805	4.7000427	-4.129242
1113012039832318	-2.089203	5.5092773	-5.0522156
1113012044898236	-2.9858398	6.6046295	-6.184662
1113012049964154	-4.027313	8.007629	-7.508667
1113012055030071	-5.1717377	9.724274	-8.600418
1113012060126507	-5.8876038	11.748566	-9.255234
1113012065192425	-7.1278076	13.942856	-9.525772
1113012070258343	-8.508072	16.272415	-9.523376
1113012075324261	-10.300125	18.42839	-9.783157
1113012080390179	-13.013947	20.16658	-9.9339905
1113012085456097	-14.959244	21.3134	-9.395294
1113012090522015	-15.89418	21.678513	-8.3298645
1113012095587933	-15.83313	21.045258	-7.5469666
1113012100653851	-14.60968	19.485428	-7.042984
1113012105750286	-12.939728	17.407257	-6.6132355
1113012110816204	-11.145279	15.335083	-6.2409363
1113012115882122	-9.453781	13.314377	-6.093689
1113012120948040	-7.666504	11.479218	-6.237335
1113012126013958	-5.796631	9.978058	-6.4600067
1113012131079876	-3.9171753	8.847992	-6.4240875
1113012136145794	-2.266388	7.868759	-6.11763
1113012141211712	-1.1231537	7.06192	-5.46521
1113012146277630	-0.4755249	6.618988	-4.6727295
1113012151374066	-0.2013855	6.8787537	-3.887436
1113012156439984	-0.030197144	8.231491	-3.212265
1113012161505902	0.079940796	9.828415	-2.9944
1113012166571820	0.16014099	11.34874	-3.0494537
1113012171637737	0.24154663	13.370636	-2.4580994
1113012176703655	0.35047913	15.75885	-0.4086609
1113012181769573	0.29063416	18.162628	3.3227081
1113012186835491	-0.10800171	19.975037	7.251587
1113012191901409	-0.7795868	20.689713	8.5672
1113012196967327	-1.6582489	19.894836	7.4981995
1113012202063763	-1.1434937	17.216919	5.507416
1113012207129681	0.39356995	13.113266	3.7823944
1113012212195599	1.5691376	8.486465	2.6032562
1113012217261517	2.5256195	4.9011536	0.80999756
1113012222327435	3.7191162	2.5249023	-1.2597961
1113012227393353	4.8384094	0.77593994	-3.160797
1113012232459271	5.998398	-0.25117493	-3.9652405
1113012237525189	6.6376495	-0.5408783	-3.2529602
1113012242621624	6.590973	-0.36608887	-1.4417572
1113012247687542	5.2693634	0.4563141	1.0278625
1113012252753460	3.2103577	1.5408936	3.0701141
1113012257819378	2.2442932	2.7499542	4.509033
1113012262885296	2.243103	4.29422	5.3206635
1113012267951214	2.1964111	5.9881134	5.357773
1113012273017132	1.6649017	7.6496887	5.3051147
1113012278083050	1.0819092	9.120926	5.361374
1113012283148968	0.48934937	10.193527	5.8031006
1113012288214886	-0.34742737	10.909393	6.4232025
1113012293311321	-1.3254547	11.416977	6.9571075
1113012298377239	-1.9228058	11.950882	7.1151276
1113012303443157	-2.4124298	12.442886	7.0768127
1113012308509075	-3.0839996	12.769699	6.8218384
1113012313574993	-3.7950745	12.99115	6.044922
1113012318640911	-4.4953766	12.919327	4.6407166
1113012323706829	-5.062805	12.553024	2.879776
1113012328772747	-5.3441315	12.129242	0.8447113
1113012333838665	-5.4901733	11.664764	-0.7486267
1113012338935101	-5.37764	11.068619	-1.7721558
1113012344001019	-5.02211	10.53949	-1.9349518
1113012349066937	-4.52771	9.721878	-1.5662537
1113012354132855	-3.8154297	8.949738	-0.7546234
1113012359198773	-3.3353882	8.353592	-0.014816284
1113012364264691	-2.805069	7.9681244	0.27848816
1113012369330609	-2.2771606	7.7442627	0.4915619
1113012374396527	-2.2005463	7.464142	0.61128235
1113012379462445	-2.1263123	7.084656	0.7333832
1113012384528362	-1.9707031	6.950592	0.8303375
1113012389624798	-1.7899323	6.9206543	0.8542938
1113012394694385	-1.4463654	7.0607147	0.8171692
1113012399760303	-0.9064789	7.4030914	0.68310547
1113012404826221	-0.88612366	7.666458	0.9392853
1113012409892139	-1.0513306	7.8172913	1.1990509
1113012414958057	-0.9986572	8.074661	1.2613068
1113012420023975	-1.0549164	8.225494	1.3319244
1113012425089893	-0.883728	8.327255	1.3091888
1113012430155811	-0.9747162	8.215927	1.3762207
1113012435252246	-1.112381	8.06868	1.468399
1113012440318164	-1.0836487	8.06868	1.3474884
1113012445384082	-1.1782227	8.090225	1.1463776
1113012450450000	-1.5133972	8.103394	0.8734436
1113012455515918	-1.730072	8.200363	0.6591644
1113012460581836	-1.6534576	8.476883	0.48677063
1113012465647754	-1.6426849	8.650467	0.37664795
1113012470713672	-1.8078918	8.625336	0.32637024
1113012475810108	-2.0125885	8.569061	0.2964325
1113012480876026	-2.1933594	8.541534	0.30361938
1113012485941944	-2.2915192	8.519989	0.3718567
1113012491007862	-2.3453827	8.420624	0.49516296
1113012496073780	-2.207718	8.282959	0.5993042
1113012501139698	-2.0544891	8.211136	0.776474
1113012506205615	-1.9252014	8.106979	1.0422363
1113012511271533	-1.7552185	7.887909	1.2816467
1113012516337451	-1.5984039	7.603012	1.4396667
1113012521403369	-1.5349579	7.354004	1.6048737
1113012526469287	-1.4750977	7.089447	1.7185974
1113012531565723	-1.4679108	6.9481964	1.7389374
1113012536631641	-1.4607391	6.9134827	1.6802826
1113012541697559	-1.6055756	6.8428497	1.519867
1113012546763477	-1.7264862	6.9362183	1.3929749
1113012551829395	-1.848587	7.1504974	1.286438
1113012556895313	-2.0449219	7.3755646	1.1511688
1113012561961231	-2.2328644	7.646103	1.0206909
1113012567027149	-2.3968658	7.9765015	0.9249115
1113012572093067	-2.444748	8.321274	0.89378357
1113012577189502	-2.4638977	8.621735	0.8267517
1113012582255420	-2.4638977	8.840805	0.815979
1113012587321338	-2.456726	8.950943	0.7501373
1113012592387256	-2.4255981	9.052689	0.74176025
1113012597453174	-2.49263	9.129303	0.71661377
1113012602519092	-2.5177765	9.252609	0.6902771
1113012607585010	-2.5620575	9.463303	0.6567688
1113012612650928	-2.635086	9.738632	0.6208496
1113012617716846	-2.6841736	10.0199585	0.6495819
1113012622782764	-2.947525	10.250992	0.6878967
1113012627848682	-3.291092	10.409012	0.77767944
1113012632914600	-3.646637	10.484421	0.9356842
1113012637980518	-3.892044	10.563431	1.112854
1113012643046436	-4.017746	10.535904	1.1451874
1113012648112354	-4.0871735	10.394638	1.0709686
1113012653178272	-4.4223633	10.364716	1.0745544
1113012658274707	-4.829376	10.50238	1.1583557
1113012663340625	-5.2938538	10.765747	1.3510895
1113012668406543	-5.730789	11.176346	1.5952911
1113012673472461	-5.978592	11.548645	1.5952911
1113012678538379	-6.0947113	11.741379	1.2876434
1113012683604297	-6.133011	11.76413	0.8650665
1113012688670215	-5.939087	11.591751	0.48916626
1113012693736133	-5.705658	11.329575	0.18031311
1113012698832569	-5.623047	11.0327	-0.0806427
1113012703898487	-5.6577606	10.814835	-0.21472168
1113012708964405	-5.681717	10.792084	-0.3368225
1113012714030323	-5.7511444	10.91539	-0.5427246
1113012719096240	-5.7643127	11.189514	-0.66244507
1113012724162158	-5.5272827	11.827576	-0.5247803
1113012729228076	-5.1154785	12.274094	-0.6097717
1113012734293994	-4.7599487	12.2621155	-0.950943
1113012739359912	-4.3134155	12.057419	-1.2645874
1113012744456348	-3.504181	11.917358	-1.3495789
1113012749522266	-2.6602325	11.352325	-1.3603516
1113012754588184	-1.7959137	10.752579	-1.4549255
1113012759654102	-0.7113495	10.477249	-1.6596222
1113012764720020	0.41513062	10.5299225	-2.0307312
1113012769785938	1.2926025	10.6879425	-2.4748535
1113012774851856	1.8468628	11.1548	-2.820816
1113012779917774	2.211975	11.9891815	-2.7585602
1113012784983692	2.302948	13.151566	-1.9181976
1113012790080127	2.5890656	14.365433	-0.22669983
1113012795146045	3.6365204	15.436829	1.756897
1113012800211963	4.9796753	16.004257	3.2089844
1113012805277881	5.8786926	16.058136	4.056534
1113012810343799	6.0678406	15.962357	4.634735
1113012815409717	5.8188324	16.061722	4.9328156
1113012820475635	5.5889893	16.249664	4.77359
1113012825541553	5.049103	16.174255	4.001465
1113012830637989	3.97052	15.906097	2.8259125
1113012835703906	2.4166718	15.18425	1.4827576
1113012840769824	0.37442017	13.963196	0.45205688
1113012845835742	-1.1698303	12.833145	-0.23866272
1113012850901660	-1.3230591	13.029465	-1.2454224
1113012855967578	-1.5373535	13.718994	-2.2414093
1113012861033496	-2.1347046	13.4664	-2.0642395
1113012866099414	-2.963089	12.705048	-1.8068695
1113012871165332	-3.8573303	12.056229	-1.5231628
1113012876231250	-4.7276154	12.050232	-1.0730438
1113012881297168	-4.983795	12.436905	-1.132904
1113012886393604	-5.41835	12.810394	-1.6093445
1113012891459522	-5.081955	13.173111	-2.2498016
1113012896525440	-4.828171	13.159943	-2.504776
1113012901591358	-4.2152557	12.847504	-2.1719818
1113012906657276	-2.7787323	12.207062	-1.5279388
1113012911723194	-1.6127625	11.135651	-0.9246063
1113012916789112	-1.1458893	10.0439	-0.44696045
1113012921855030	-1.2069397	9.0203705	-0.117752075
1113012926920948	-1.5014343	8.278168	0.20066833
1113012932017383	-1.4739075	7.63533	0.29045105
1113012937083301	-1.4200287	6.991287	0.21502686
1113012942149219	-1.5002289	6.342453	0.6495819
1113012947215137	-1.5732574	5.7403107	1.3115845
1113012952281055	-1.6522675	5.139374	1.420517
1113012957346973	-1.7540283	4.546814	0.96562195
1113012962412891	-1.843811	3.847702	0.4329071
1113012967478809	-1.7767639	3.04924	0.07019043
1113012972544727	-1.4236145	2.3704834	-0.18359375
1113012977610645	-1.1650543	1.9036102	-0.37753296
1113012982707080	-0.8957062	1.6390533	-0.51519775
1113012987772998	-0.48869324	1.3194275	-0.77975464
1113012992838916	-0.08526611	1.0297241	-0.79052734
1113012997904834	0.3660431	0.9112091	-0.48886108
1113013002970752	0.5635681	0.76875305	-0.14888
1113013008036670	0.8664398	0.5975647	0.068984985
1113013013102588	1.1716919	0.5101776	0.059417725
1113013018168506	1.4003448	0.52215576	-0.13691711
1113013023264942	1.737915	0.61912537	-0.43499756
1113013028330860	2.0874786	0.7615814	-0.64328
1113013033396778	2.4382324	0.8429718	-0.7953186
1113013038493213	2.847641	1.036911	-0.737854
1113013043559131	3.0056458	1.4020233	-0.579834
1113013048625049	3.0679016	1.8066406	-0.40266418
1113013053690967	3.314499	2.226822	-0.20753479
1113013058756885	3.5180054	2.6230621	0.080963135
1113013063822803	3.5850525	2.97023	0.3754425
1113013068888721	3.5072327	3.2850647	0.5993042
1113013073954639	3.3743591	3.5532074	0.6962738
1113013079020557	3.1241608	3.863266	0.6304321
1113013084086475	2.9170685	4.2882385	0.43649292
1113013089152393	2.6991882	4.757492	0.119262695
1113013094248828	2.3233032	5.1860657	-0.27337646
1113013099314746	1.7989807	5.5930786	-0.8156738
1113013104380664	1.1776733	5.880371	-1.4190063
1113013109446582	0.33851624	6.207184	-2.1851501
1113013114512500	-0.5341797	6.574692	-2.9680634
1113013119578418	-1.4954529	7.1026154	-3.715042
1113013124644336	-2.6937408	7.764618	-4.721817
1113013129710254	-3.677765	8.559494	-5.738144
1113013134776172	-4.6952972	9.6093445	-6.5461884
1113013139842090	-5.7834625	10.989609	-7.2848053
1113013144938526	-6.8991547	12.705048	-7.93602
1113013150004444	-8.056763	14.438446	-8.592041
1113013155070362	-9.304138	16.377762	-9.036163
1113013160136280	-11.033951	18.197342	-9.427612
1113013165202198	-12.457306	19.558456	-9.947159
1113013170268115	-13.103729	20.18454	-10.165024
1113013175334033	-13.420959	19.823013	-9.737656
1113013180430469	-13.533493	18.67978	-8.838638
1113013185496387	-12.999588	17.08165	-7.7373047
1113013190562305	-11.737839	15.573303	-6.6958313
1113013195628223	-10.397095	14.171494	-5.97876
1113013200694141	-8.821701	12.87265	-5.508301
1113013205760059	-7.0607758	11.682724	-5.0761566
1113013210825977	-5.4027863	10.510757	-4.4500732
1113013215891895	-4.0871735	9.3364105	-3.4995728
1113013220957813	-2.9439392	8.145294	-2.7453918
1113013226023731	-2.1945496	6.8979187	-2.2138824
1113013231120166	-1.6965637	6.0012817	-2.1899414
1113013236186084	-1.1782227	5.6589203	-2.2126923
1113013241252002	-0.4970703	5.906708	-1.797287
1113013246317920	0.06437683	6.677643	-1.4309845
1113013251383838	0.6617279	8.442169	-1.4597168
1113013256449756	1.2902069	11.021927	-1.484848
1113013261515674	1.5140686	13.947647	-0.83721924
1113013266581592	1.5547638	17.04573	0.8626709
1113013271647510	1.6038513	19.371704	2.958786
1113013276743946	1.8336945	20.556839	4.4791107
1113013281809864	2.2287292	20.816605	4.6203613
1113013286875781	2.8859406	19.934341	3.3753815
1113013291941699	3.6006165	17.707733	1.6132507
1113013297007617	3.5814514	13.993134	0.815979
1113013302073535	2.642929	9.814056	1.0386353
1113013307139453	1.4338531	6.377182	1.2361603
1113013312205371	1.2147827	4.132614	0.8566742
1113013317301807	1.44104	2.7152405	0.29045105
1113013322367725	1.5643463	1.9323425	0.15397644
1113013327433643	1.3632355	1.9586792	0.79922485
1113013332499561	0.18647766	2.621872	2.199829
1113013337565479	-0.641922	3.6465912	3.551361
1113013342631397	-0.8693695	4.61145	4.5892334
1113013347697315	-1.0381622	5.6433563	5.5612793
1113013352763233	-0.9507599	6.5447693	6.588394
1113013357829151	-0.68740845	7.472519	7.512558
1113013362895069	-0.59043884	8.572662	7.971054
1113013367960987	-0.6921997	9.556671	7.658615
1113013373057422	-0.9687195	10.278534	6.880493
1113013378123340	-1.3661652	10.825607	6.1394806
1113013383189258	-1.8964691	11.300858	5.6295166
1113013388255176	-2.2615967	11.722229	5.16864
1113013393321094	-2.3597565	11.977219	4.6874084
1113013398387012	-2.1550446	12.1627655	4.3162994
1113013403452930	-1.9910431	12.178329	3.6674805
1113013408518848	-2.2101135	11.802429	2.9240723
1113013413615283	-2.6207275	11.533081	1.9412537
1113013418681201	-3.1199188	11.015945	0.10848999
1113013423747119	-2.4818573	10.456894	-1.7506104
1113013428813037	-1.2476501	10.100159	-2.6017456
1113013433878955	-0.528183	9.645264	-2.1276855
1113013438944873	-0.41207886	8.984467	-0.9712982
1113013444010791	-0.67663574	8.322464	-0.04953003
1113013449076709	-0.6945801	7.8304596	0.33953857
1113013454142627	-0.19419861	7.3767548	0.58374023
1113013459208545	0.32295227	6.899109	0.7728882
1113013464304981	0.4953308	6.733917	0.9320984
1113013469370899	0.80537415	6.8224945	0.8662567
1113013474436817	1.056778	7.033188	0.80400085
1113013479502735	0.47018433	6.9637604	1.2984161
1113013484568653	0.24034119	6.793762	1.7676697
1113013489634571	1.096283	7.096634	1.7245789
1113013494700489	1.4661865	7.6592712	1.8562622
1113013499766406	0.5252533	7.895096	2.2836304
1113013504832324	-0.2803955	7.860382	2.5936737
1113013509928760	-0.35221863	7.7670135	2.6116333
1113013514994678	-0.10083008	7.7466583	2.6367645
1113013520060596	-0.10920715	7.7239075	2.7157745
1113013525126514	-0.33665466	7.607788	2.6403656
1113013530192432	-0.5856476	7.5144196	2.4859314
1113013535258350	-0.9531555	7.532379	2.3195343
1113013540324268	-1.378128	7.6688538	1.9903412
1113013545390186	-1.7372589	7.828064	1.5725403
1113013550456104	-1.9467621	8.196762	1.0578003
1113013555552539	-2.0820313	8.502029	0.6819
1113013560618457	-2.3693237	8.728287	0.49874878
1113013565684375	-2.532135	8.892288	0.45326233
1113013570750293	-2.6482544	8.81926	0.5490265
1113013575816211	-2.7990875	8.534348	0.6471863
1113013580882129	-2.7440186	8.24585	0.9057617
1113013585948047	-2.6302948	8.026779	1.2349701
1113013591013965	-2.468689	7.9250336	1.6587372
1113013596079883	-2.295105	7.792145	2.211792
1113013601176319	-2.108368	7.686798	2.6283875
1113013606242237	-1.9778748	7.7275085	2.8486633
1113013611308155	-1.9467621	7.939392	2.792389
1113013616374073	-1.9623108	8.285355	2.6188202
1113013621439990	-2.0844269	8.688782	2.3231354
1113013626505908	-2.2520142	9.153259	1.9017487
1113013631571826	-2.4076385	9.664413	1.4528351
1113013636637744	-2.5381165	10.187546	0.9847717
1113013641703662	-2.7440186	10.631668	0.5849457
1113013646800098	-3.0636444	11.049454	0.14440918
1113013651866016	-3.354538	11.480423	-0.13931274
1113013656931934	-3.7292328	11.879044	-0.17282104
1113013661997852	-4.1470337	12.238174	-0.00642395
1113013667063770	-4.4391174	12.535065	0.41375732
1113013672129688	-4.70607	12.640411	1.0158997
1113013677195606	-4.986191	12.57457	1.6467743
1113013682261524	-5.0233	12.268112	1.9867401
1113013687327442	-4.9371185	11.724625	1.9221039
1113013692393360	-4.8928223	11.1548	1.6156464
1113013697489795	-4.9538727	10.804047	1.1463776
1113013702555713	-4.9011993	10.9453125	0.78964233
1113013707621631	-4.926346	11.535477	0.6280365
1113013712687549	-4.963455	12.236984	0.49993896
1113013717753467	-4.891617	12.950455	0.41015625
1113013722819385	-4.678543	13.568161	0.2916565
1113013727885303	-4.556427	13.865036	0.25813293
1113013732981739	-4.488205	13.911728	0.26411438
1113013738047656	-4.560028	13.8423	0.42811584
1113013743113574	-4.424759	13.8901825	0.776474
1113013748179492	-4.0548553	13.820755	1.2050323
1113013753245410	-3.4826355	13.5190735	1.6850739
1113013758311328	-3.1594238	13.041443	2.0274506
1113013763377246	-3.1857605	12.61647	2.4188995
1113013768443164	-3.3078613	12.286072	2.63797
1113013773509082	-3.4562988	11.974823	2.756485
1113013778575000	-3.2683563	11.561813	2.6439514
1113013783671436	-2.6039581	10.989609	2.172287
1113013788737354	-1.7600098	10.259369	1.5450134
1113013793803272	-0.93281555	9.6332855	0.7549286
1113013798869190	-0.28637695	9.195145	-0.3260498
1113013803935108	0.35047913	8.949738	-1.7122955
1113013809001026	0.90115356	9.064667	-3.148819
1113013814066944	1.2100067	9.730255	-4.070587
1113013819132862	1.4242859	10.814835	-4.177124
1113013824198780	2.0659332	12.041855	-3.6013184
1113013829264698	2.9996643	13.025879	-2.2210693
1113013834361133	3.8615723	13.742935	-0.18838501
1113013839427051	4.82045	14.330719	1.7078247
1113013844492969	5.8104553	14.797577	3.1299744
1113013849558887	6.2617645	15.104034	4.088852
1113013854624805	6.0486755	15.209381	4.6131897
1113013859690723	5.481262	15.113617	4.619171
1113013864756641	4.7546234	14.797577	4.078079
1113013869822559	4.123749	14.403732	3.2520752
1113013874918994	3.7430725	13.868637	2.199829
1113013879984912	3.1014252	12.9097595	1.1667328
1113013885050830	2.658493	12.074173	0.28086853
1113013890116748	2.6513062	11.691101	-0.6720123
1113013895182666	1.3859711	11.962845	-1.3040924
1113013900248584	-1.0106201	11.954468	-1.0227661
1113013905314502	-1.622345	12.126846	-1.1137543
1113013910380420	-0.8334503	12.156784	-2.2426147
1113013915446338	-0.31750488	12.055023	-3.086563
1113013920512256	-1.3446198	11.630051	-2.2605743
1113013925578174	-2.5812225	11.3211975	-1.4884338
1113013930644092	-3.8154297	11.276901	-1.2980957
1113013935740528	-5.1154785	10.9944	-0.5786438
1113013940806446	-5.967819	10.820816	0.400589
1113013945872364	-5.4590454	10.710678	1.0326538
1113013950938281	-3.8884583	10.405426	0.5801544
1113013956004199	-3.2767334	10.18515	0.3574829
1113013961070117	-3.0959778	9.308868	0.07496643
1113013966136035	-2.9451294	8.302109	0.11088562
1113013971201953	-2.7727509	7.595825	0.45684814
1113013976267871	-2.5441132	6.912277	0.57177734
1113013981364307	-1.8306427	6.1545105	0.72380066
1113013986430225	-1.4894562	5.5296326	0.62564087
1113013991496143	-2.2484283	4.7670746	0.01272583
1113013996562061	-1.9934387	4.459427	0.0031433105
1113014001627979	-1.7384644	4.1302185	0.0055389404
1113014006693897	-2.123932	3.7734833	-0.045928955
1113014011759815	-1.9072571	3.4095612	-0.27218628
1113014016825733	-1.3374329	3.109085	-0.43737793
1113014021922168	-0.88253784	2.9486847	-0.5870209
1113014026988086	-0.64430237	2.7128448	-0.5786438
1113014032054004	-0.6490936	2.424347	-0.2925415
1113014037119922	-0.3785553	2.3166046	-0.14648438
1113014042185840	0.09790039	2.2878723	-0.2649994
1113014047251758	0.27626038	2.2411957	-0.35598755
1113014052317676	0.412735	2.2759094	-0.18000793
1113014057383594	0.60905457	2.298645	0.04624939
1113014062449512	0.9550171	2.2723236	0.16474915
1113014067545948	1.3309021	2.2220306	0.22819519
1113014072611865	1.6924286	2.2040863	0.23658752
1113014077677783	2.0467682	2.2639313	0.16355896
1113014082743701	2.4490051	2.3668823	0.088134766
1113014087809619	2.7937622	2.503357	0.09413147
1113014092875537	3.057129	2.65419	0.1695404
1113014097941455	3.16008	2.7655182	0.25932312
1113014103007373	3.1433105	2.8170013	0.40538025
1113014108073291	3.017624	2.858902	0.46403503
1113014113169727	2.788971	2.8265686	0.42692566
1113014118235645	2.5184326	2.8205872	0.37664795
1113014123301563	2.1940155	2.9570618	0.20904541
1113014128367481	1.9605865	3.2611237	-0.057907104
1113014133433399	1.7546844	3.6394043	-0.322464
1113014138499317	1.5763092	3.9853668	-0.66004944
1113014143565235	1.3081665	4.277466	-1.1999359
1113014148631153	0.8604431	4.5623627	-1.8775024
1113014153697071	0.09310913	4.7658844	-2.8184204
1113014158793506	-1.117157	5.393158	-3.919754
1113014163859424	-2.39328	6.393936	-5.121643
1113014168925342	-3.4467163	7.9010773	-6.3331146
1113014173991260	-4.3684845	9.586609	-7.399719
1113014179057178	-5.286667	11.207474	-8.162277
1113014184123096	-6.0875244	13.153961	-8.675827
1113014189189014	-7.0607758	15.621185	-9.452759
1113014194254932	-8.8671875	18.273956	-10.892868
1113014199320850	-11.26738	20.876465	-12.14743
1113014204386768	-13.886642	22.922302	-11.963074
1113014209483203	-15.995926	24.091873	-10.906036
1113014214549121	-16.801575	23.90512	-9.647873
1113014219615039	-16.073746	22.378815	-8.044968
1113014224680957	-13.991989	19.885254	-6.69104
1113014229746875	-11.375122	17.085236	-6.0170746
1113014234812793	-9.383148	14.318741	-5.8542633
1113014239878711	-7.1589355	11.876663	-5.903351
1113014244944629	-4.745575	9.877502	-5.7393494
1113014250010547	-2.7703552	8.390701	-5.3490906
1113014255106983	-1.1698303	7.264221	-4.678711
1113014260172901	0.13140869	6.4322357	-3.8467255
1113014265238819	0.7993927	5.784607	-3.1272736
1113014270304737	1.3165436	5.883972	-2.5562592
1113014275370655	1.9761505	6.962555	-2.144455
1113014280436573	2.4035034	7.8304596	-2.0798035
1113014285502490	2.697998	8.652863	-1.9277802
1113014290568408	2.9266357	9.573441	-1.1700134
1113014295634326	3.350418	10.567032	0.33114624
1113014300700244	3.9130554	11.335571	2.088501
1113014305796680	4.2230988	11.925735	3.7009888
1113014310862598	4.0315704	12.857086	4.677826
1113014315928516	3.2199402	14.05777	5.2129364
1113014320994434	2.6632843	15.240509	5.625931
1113014326060352	2.6405334	15.734909	5.515793
1113014331126270	3.0164185	14.888565	4.971115
1113014336192188	3.1337433	12.530273	3.6806488
1113014341258106	2.7063751	9.300491	1.1068726
1113014346354541	2.2574615	6.595047	-1.6548309
1113014351420459	2.290985	4.907135	-3.595337
1113014356486377	2.4514008	4.033249	-4.1232605
1113014361552295	2.4897003	4.168518	-2.820816
1113014366618213	1.6577148	5.0124817	-0.6396942
1113014371684131	0.29182434	5.77623	1.4169312
1113014376750049	-0.63713074	6.369995	3.05336
1113014381815967	-1.0010376	6.8392487	4.341446
1113014386912403	-1.2680054	6.9960785	5.132721
1113014391978321	-1.4691162	7.08107	5.757614
1113014397044239	-1.6438904	7.2893677	6.433975
1113014402110156	-1.9551392	7.5694885	6.7117004
1113014407176074	-2.421997	7.7825775	6.6841736
1113014412241992	-2.4722748	8.14769	6.7679596
1113014417307910	-2.231659	8.559494	6.6698
1113014422373828	-2.3358154	9.034744	6.65184
1113014427439746	-2.4088287	9.55188	6.398056
1113014432505664	-2.6015625	10.0199585	5.871338
1113014437571582	-2.860138	10.531113	4.899292
1113014442668018	-3.109146	11.035095	3.807541
1113014447733936	-3.5029907	11.31282	2.536209
1113014452799854	-3.962677	11.167969	1.325943
1113014457865772	-4.180542	10.873489	0.51431274
1113014462931690	-4.4487	10.607727	-0.1560669
1113014467997608	-4.0883636	10.358734	-0.7881317
1113014473063526	-2.3561707	10.088181	-1.1496582
1113014478129444	-0.9136505	9.555481	-1.1819763
1113014483195362	-0.17384338	8.767792	-1.1616364
1113014488291797	-0.2624359	7.8567963	-0.619339
1113014493357715	-0.47073364	7.1074066	-0.13092041
1113014498423633	-0.26841736	6.701584	0.12644958
1113014503489551	0.108673096	6.6788483	0.25334167
1113014508555469	0.06317139	6.761444	0.46522522
1113014513621387	-0.092453	6.935028	0.70225525
1113014518687305	0.14578247	7.203171	0.80999756
1113014523753223	0.7395325	7.626953	0.79203796
1113014528819141	1.0292358	7.89151	0.90934753
1113014533915576	0.6413727	8.043533	1.4660034
1113014538981494	0.0907135	8.388306	1.9975128
1113014544047412	-0.32946777	8.715118	2.1148376
1113014549113330	-0.641922	8.637299	2.0753326
1113014554179248	-0.9316101	8.463715	2.0394135
1113014559245166	-1.0285797	8.44577	2.088501
1113014564311084	-1.0692749	8.4709015	2.0789185
1113014569377002	-1.2608185	8.263809	2.148346
1113014574473438	-1.4798889	7.9334106	2.2501068
1113014579539356	-1.7157135	7.765808	2.1256104
1113014584605274	-1.7791595	7.6832123	1.8179474
1113014589671192	-1.9754791	7.6832123	1.4755859
1113014594737110	-2.2651825	7.761017	1.152359
1113014599803028	-2.274765	7.97052	0.8674469
1113014604868946	-2.3549652	8.2135315	0.87942505
1113014609934864	-2.3860931	8.352386	1.0278625
1113014615000781	-2.2723694	8.390701	1.2613068
1113014620066699	-2.0149841	8.413437	1.5007172
1113014625163135	-1.7432404	8.32486	1.7640839
1113014630229053	-1.488266	8.136917	2.0717316
1113014635294971	-1.2380676	7.9369965	2.4536133
1113014640360889	-0.9902649	7.8579865	2.7073975
1113014645426807	-0.99147034	7.8891144	2.8115387
1113014650492725	-1.0716705	7.8651733	2.772049
1113014655558643	-1.2727814	8.063889	2.7002106
1113014660624561	-1.4044647	8.457733	2.5469818
1113014665690479	-1.68219	8.910248	2.2836304
1113014670756397	-2.0832214	9.410629	1.8969574
1113014675852832	-2.3334198	9.939743	1.4540405
1113014680918750	-2.5752258	10.492813	1.0170898
1113014685984668	-2.8110657	11.023117	0.7046509
1113014691050586	-3.033722	11.50676	0.52867126
1113014696116504	-3.1905365	11.979614	0.5334625
1113014701182422	-3.294693	12.3411255	0.6567688
1113014706248340	-3.3689117	12.621246	0.7944336
1113014711314258	-3.449112	12.73378	0.9644165
1113014716380176	-3.584381	12.724197	1.1272278
1113014721476612	-3.6047363	12.705048	1.2960205
1113014726542530	-3.5736084	12.59491	1.3115845
1113014731608448	-3.6083374	12.511124	1.1763
1113014736674365	-3.6430511	12.4201355	0.92611694
1113014741740283	-3.8716888	12.444077	0.6196594
1113014746806201	-4.074005	12.513519	0.34910583
1113014751872119	-4.234421	12.737366	0.23658752
1113014756938037	-4.216461	13.089325	0.124053955
1113014762003955	-4.0476685	13.369446	0.035476685
1113014767069873	-3.8633118	13.38501	0.035476685
1113014772166309	-3.8178253	13.309586	0.071380615
1113014777232227	-3.8190155	13.089325	0.16835022
1113014782298145	-3.9519043	12.849899	0.30361938
1113014787364063	-4.0596313	12.780472	0.36827087
1113014792429981	-4.074005	12.75293	0.39938354
1113014797495899	-3.935135	12.743362	0.33354187
1113014802561817	-3.701706	12.545837	0.3538971
1113014807627735	-3.6023407	12.244171	0.60409546
1113014812724170	-3.5221405	11.9496765	0.9452667
1113014817790088	-3.286316	11.571396	1.108078
1113014822856006	-3.208496	10.95369	1.2002411
1113014827921924	-3.0468903	10.150436	1.1978607
1113014832987842	-2.8409882	9.415421	1.1380005
1113014838053760	-2.5991821	8.606171	0.8662567
1113014843119678	-2.33461	7.887909	0.2964325
1113014848185596	-1.6929626	7.4258423	-0.7809601
1113014853251514	-0.8418274	7.413864	-2.1887512
1113014858347949	0.055999756	8.010025	-3.6025238
1113014863413867	0.6138458	8.9605255	-4.5590057
1113014868479785	0.8819885	10.335983	-4.5817413
1113014873545703	1.274643	11.871872	-3.5307007
1113014878611621	1.9929047	13.285645	-1.6763916
1113014883677539	2.8392487	14.310364	0.44726563
1113014888743457	3.9729156	15.118408	2.5374146
1113014893809375	5.0371246	15.840256	4.3605957
1113014898875293	5.859543	16.25087	5.4870605
1113014903971729	6.3132477	16.30832	5.831833
1113014909037647	6.160019	16.083267	5.6199493
1113014914103565	5.9612885	15.955185	5.0956116
1113014919169483	5.149658	15.348251	4.3593903
1113014924235401	3.8855133	14.203827	3.2712402
1113014929301319	3.010437	13.085724	2.096878
1113014934367237	2.6118011	12.748138	0.8878021
1113014939433155	1.5152588	12.8307495	-0.2853546
1113014944499073	-0.3199005	12.474014	-1.0550842
1113014949564990	-1.4571381	11.894608	-1.8511658
1113014954661426	-2.089203	11.47084	-2.144455
1113014959727344	-2.1143494	11.917358	-2.1240997
1113014964793262	-1.8940887	12.088547	-2.1013489
1113014969859180	-2.0425262	12.069397	-1.852356
1113014974925098	-2.4974213	12.072983	-1.7889099
1113014979991016	-3.2659607	11.431335	-1.5255432
1113014985056934	-3.789093	10.626877	-0.37034607
1113014990122852	-4.089569	10.148041	-0.043533325
1113014995219287	-2.8661346	10.175583	-0.5678711
1113015000285205	-1.0908203	9.978058	-1.144867
1113015005351123	-0.29595947	9.757782	-1.3531647
1113015010417041	-1.0525208	9.37471	-0.72828674
1113015015482959	-1.8952789	8.426605	0.31199646
1113015020548877	-2.0832214	7.7825775	0.95843506
1113015025614795	-1.785141	7.120575	0.83154297
1113015030680713	-1.0070343	6.440628	0.7680969
1113015035746631	-1.2057495	6.028824	0.6399994
1113015040843067	-1.7336731	5.4542084	0.34910583
1113015045908985	-2.6410675	5.4661865	0.43888855
1113015050974903	-2.2939148	4.923889	0.0055389404
1113015056040821	-1.8066864	4.4977264	-0.124938965
1113015061106739	-1.6031799	4.0751495	-0.6157532
1113015066172656	-1.5397339	3.617859	-1.0167847
1113015071238574	-1.6007996	3.1665497	-0.8862915
1113015076304492	-1.3553925	2.879242	-0.41822815
1113015081370410	-0.87893677	2.6661682	-0.1847992
1113015086436328	-0.2743988	2.503357	-0.117752075
1113015091502246	0.1709137	2.4590607	-0.05430603
1113015096598682	0.4378662	2.3884277	0.03666687
1113015101664600	0.6988373	2.2531586	0.02468872
1113015106730518	0.9574127	2.182541	-0.06388855
1113015111796436	1.1501465	2.1190948	-0.17163086
1113015116862354	1.417099	2.0532532	-0.35598755
1113015121928272	1.6313782	2.1226807	-0.5570984
1113015126994190	1.7786255	2.1562042	-0.7366638
1113015132060108	2.0359955	2.15979	-0.80848694
1113015137126026	2.2502747	2.1957092	-0.72828674
1113015142222461	2.2969666	2.2926636	-0.57385254
1113015147288379	2.2897797	2.3632965	-0.42660522
1113015152354297	2.2526703	2.3680878	-0.34161377
1113015157420215	2.1377563	2.4303284	-0.27218628
1113015162486133	1.9522095	2.5261078	-0.32844543
1113015167552051	1.8552399	2.748764	-0.5977936
1113015172617969	1.654129	3.0731812	-0.9724884
1113015177683887	1.5308228	3.4981537	-1.4202118
1113015182749805	1.322525	3.8907928	-1.9924164
1113015187846240	1.1094513	4.1948547	-2.6915283
1113015192912158	0.7084198	4.503708	-3.5618134
1113015197978076	0.11584473	5.001709	-4.4668274
1113015203043994	-0.7735901	5.702011	-5.5226746
1113015208109912	-2.0125885	6.6608887	-6.738922
1113015213175830	-3.2252655	8.04953	-7.9503937
1113015218241748	-4.5695953	9.774551	-9.322266
1113015223307666	-5.9295044	12.020309	-10.672592
1113015228373584	-7.045212	14.780823	-11.670975
1113015233470020	-8.737915	18.151855	-12.477829
1113015238535938	-11.488846	21.283478	-12.772308
1113015243601856	-14.84671	23.018066	-11.80864
1113015248667774	-16.941635	22.946243	-10.100388
1113015253733692	-17.044586	21.953857	-8.307129
1113015258799610	-16.945236	20.463455	-6.5042877
1113015263865528	-15.173523	18.612747	-5.334732
1113015268931446	-12.355545	16.738083	-5.0689697
1113015274027881	-10.407867	14.833496	-5.5813293
1113015279093799	-8.865997	12.839127	-6.370224
1113015284159717	-7.1206207	11.196701	-7.003479
1113015289225635	-5.126251	9.991226	-7.446411
1113015294291553	-3.248001	9.192749	-7.0489807
1113015299357471	-1.7588043	8.883911	-5.9895325
1113015304423389	-0.7041626	9.311264	-4.6655426
1113015309489307	0.12782288	10.940521	-3.6420288
1113015314585742	1.0783234	13.266495	-2.714264
1113015319651660	1.6792603	14.6766815	-1.7673645
1113015324717578	1.7917938	15.153122	-1.132904
1113015329783496	2.1293793	15.08728	0.02230835
1113015334849414	2.2837982	14.299591	2.0669556
1113015339915332	2.1353607	12.962433	4.2444763
1113015344981250	1.7965851	11.071014	4.698181
1113015350047168	1.2375336	8.806091	2.9683685
1113015355113086	1.2614746	6.569916	1.2493286
1113015360179004	2.069519	4.8496704	0.479599
1113015365244922	3.3528137	3.5053253	0.8590698
1113015370310840	4.768982	2.3549194	2.4859314
1113015375407276	6.0367126	1.3816681	3.3885498
1113015380473194	6.7561646	0.6634064	1.9807587
1113015385539112	6.927353	0.010986328	-0.4122467
1113015390605030	6.9812164	-0.4367218	-1.8822937
1113015395670948	6.7561646	-0.59832764	-1.955307
1113015400736865	6.355133	-0.31941223	-0.77975464
1113015405802783	5.895447	0.81903076	1.25531
1113015410868701	5.0191803	2.784668	3.1946259
1113015415934619	3.978897	4.795807	4.2576447
1113015421031055	2.9733276	6.840454	4.7676086
1113015426096973	1.9641724	9.041916	5.196167
1113015431162891	1.3787842	11.29007	5.5936127
1113015436228809	1.0723267	13.254517	6.070053
1113015441294727	0.39596558	14.601257	6.3753204
1113015446360645	-0.95436096	15.338669	6.472275
1113015451426563	-2.736847	15.760056	6.1634216
1113015456492481	-4.4079895	15.910889	6.041321
1113015461588916	-5.7439575	15.767227	5.9443665
1113015466654834	-6.7483215	15.162704	5.4355927
1113015471720752	-7.5982666	14.251709	4.2887726
1113015476786670	-8.184845	12.958832	2.5302277
1113015481852588	-8.326111	11.451691	0.7405548
1113015486918506	-8.196823	9.926575	-0.81806946
1113015491984424	-7.536026	8.552307	-1.9421387
1113015497050342	-6.5651703	7.613785	-2.3323975
1113015502116260	-5.157379	7.1301575	-2.0618439
1113015507182178	-3.5448914	6.8344727	-1.4010468
1113015512278614	-2.405243	6.7985535	-0.52238464
1113015517344531	-1.6762085	6.938614	0.4544525
1113015522410449	-1.0501251	7.084656	1.4157257
1113015527476367	-0.66586304	7.084656	2.096878
1113015532542285	-0.42164612	6.8943176	2.409317
1113015537608203	-0.36657715	6.6872253	2.4440308
1113015542674121	-0.008651733	6.732712	2.06456
1113015547740039	0.72875977	6.8260803	1.5869141
1113015552805957	1.3811798	6.912277	1.444458
1113015557902393	1.1417694	6.8380585	2.0705414
1113015562968311	0.9550171	7.017624	2.3279114
1113015568034229	0.8664398	7.343231	2.1962433
1113015573100147	0.6808777	7.7119446	2.2345428
1113015578166065	0.48335266	8.06868	2.1890564
1113015583231983	0.25350952	8.32486	1.8933716
1113015588297901	-0.075683594	8.555893	1.3283386
1113015593363819	-0.24328613	8.9605255	0.8626709
1113015598460254	-0.6431122	9.326828	0.598114
1113015603526172	-1.1889954	9.439362	0.47001648
1113015608592090	-1.6091766	9.43338	0.44607544
1113015613658008	-1.6546631	9.428589	0.5119171
1113015618723926	-1.8078918	9.366333	0.6399994
1113015623789844	-1.9395752	9.114944	0.8914032
1113015628855762	-2.037735	8.652863	1.0613861
1113015633921680	-1.9934387	8.2135315	1.2146149
1113015638987598	-1.8497925	7.7825775	1.3211517
1113015644053516	-1.6929626	7.41745	1.559372
1113015649149951	-1.5253754	7.121765	1.8191528
1113015654215869	-1.3721466	6.9290314	2.0070953
1113015659281787	-1.3098907	6.915863	2.0442047
1113015664347705	-1.3170776	7.199585	1.9640045
1113015669413623	-1.3087006	7.708359	1.8526611
1113015674479541	-1.2105408	8.199158	1.6659241
1113015679545459	-1.1004028	8.64209	1.4169312
1113015684611377	-1.057312	9.013184	1.1499634
1113015689707813	-1.1865997	9.2957	1.0158997
1113015694773731	-1.3482056	9.567444	1.1092682
1113015699839649	-1.7181091	9.705109	1.4264984
1113015704905567	-2.2340546	9.6883545	1.6802826
1113015709971485	-2.6614227	9.544708	1.8813934
1113015715037403	-3.0073853	9.362747	2.1052551
1113015720103321	-3.3114471	9.1772	2.0872955
1113015725169239	-3.5353088	9.053894	2.167511
1113015730235156	-3.8621216	9.069458	2.1651154
1113015735301074	-4.188919	9.171204	2.104065
1113015740366992	-4.318207	9.399857	1.8418884
1113015745463428	-4.4379272	9.778137	1.4492493
1113015750529346	-4.5851593	10.265366	1.0877228
1113015755595264	-4.5588226	10.742996	0.7250061
1113015760661182	-4.4067993	11.266129	0.53944397
1113015765727100	-4.1625824	11.771317	0.5310669
1113015770793018	-3.8788757	12.219025	0.6064911
1113015775858936	-3.5233307	12.568588	0.8243561
1113015780924854	-3.1306915	12.737366	1.1020813
1113015786021289	-2.8374023	12.736176	1.3223572
1113015791087207	-2.4555206	12.567383	1.428894
1113015796153125	-2.226883	12.272903	1.3594666
1113015801219043	-2.1777954	12.028687	1.1248322
1113015806284961	-2.3836975	11.948486	0.89378357
1113015811350879	-2.5488892	12.035873	0.5993042
1113015816416797	-2.712906	12.33754	0.49516296
1113015821482715	-2.8505707	12.624847	0.47001648
1113015826548633	-2.8816833	12.865463	0.36227417
1113015831614551	-3.1270905	13.007919	0.15278625
1113015836680469	-3.4778442	13.003128	0.083358765
1113015841776905	-3.662201	12.962433	0.057022095
1113015846842823	-3.9543	12.790039	0.1408081
1113015851908740	-4.124283	12.463242	0.26531982
1113015856974658	-4.0799866	12.04306	0.36227417
1113015862040576	-3.9961853	11.537872	0.5813446
1113015867106494	-3.9375305	10.987213	0.70584106
1113015872172412	-3.852539	10.558655	0.6100769
1113015877268848	-3.6957245	10.229446	0.5406494
1113015882334766	-3.4694672	10.018753	0.5705719
1113015887400684	-3.2899017	9.706314	0.6855011
1113015892466602	-3.0145721	9.2574005	0.9332886
1113015897532520	-2.5153809	8.897079	0.9237213
1113015902598438	-1.7276917	8.652863	0.44966125
1113015907664356	-0.8741455	8.626526	-0.5822296
1113015912730274	-0.054138184	8.904251	-1.8547516
1113015917796192	0.53723145	9.465698	-2.9644623
1113015922862110	1.1812744	10.513153	-3.512741
1113015927958545	1.7510834	12.266907	-3.2146606
1113015933024463	2.4813232	14.075729	-1.9900208
1113015938090381	3.5467377	15.509857	0.05821228
1113015943156299	4.449356	16.54535	2.3686218
1113015948222217	5.4668884	17.234879	4.2767944
1113015953288135	6.1863556	17.364166	5.6043854
1113015958354053	6.2450104	17.092422	6.125122
1113015963419971	6.1276855	16.680618	5.8773193
1113015968516406	5.914612	16.297546	5.295532
1113015973582324	5.35437	15.58049	4.35701
1113015978648242	4.46611	14.634781	3.116806
1113015983714160	3.3587952	13.417328	1.9640045
1113015988780078	2.6728516	12.174728	0.8961792
1113015993845996	2.689621	11.9832	0.08215332
1113015998911914	1.2722473	12.190292	-0.5966034
1113016003977832	-0.35101318	12.038269	-1.4130249
1113016009043750	-0.6167755	11.967636	-2.489212
1113016014109668	-0.5521393	12.3207855	-2.5957642
1113016019206104	-0.38453674	12.705048	-2.0965729
1113016024272022	-0.6754303	12.210648	-1.7158966
1113016029337940	-1.2488403	11.917358	-1.7111053
1113016034403858	-2.1418762	11.750961	-1.6716003
1113016039469776	-2.872116	11.361908	-1.187973
1113016044535694	-3.7771149	11.310425	-0.19436646
1113016049601612	-3.5772095	11.2421875	0.42092896
1113016054667530	-2.3944702	10.926163	0.33235168
1113016059733448	-2.0161896	10.419785	0.061798096
1113016064799365	-2.3489838	9.764969	-0.2757721
1113016069895801	-2.657837	9.149658	-0.27337646
1113016074961719	-2.8469696	8.3368225	-0.17163086
1113016080027637	-2.9463348	7.47612	0.2772827
1113016085093555	-2.7248688	6.6920166	0.7968292
1113016090159473	-2.0820313	5.9294586	0.71661377
1113016095225391	-1.7049408	5.3033752	0.46522522
1113016100291309	-1.4188385	4.694046	0.27848816
1113016105357227	-1.5205841	4.0942993	0.24375916
1113016110423145	-2.3070831	3.8297424	0.6136627
1113016115519580	-2.108368	3.2228088	0.112091064
1113016120585498	-1.5648804	2.8050232	-0.1847992
1113016125651416	-1.338623	2.5237122	-0.3907013
1113016130717334	-1.3087006	2.2723236	-0.39907837
1113016135783252	-0.91485596	2.032898	-0.23866272
1113016140849170	-0.23849487	1.8724823	-0.02079773
1113016145915088	0.3540802	1.6689758	0.124053955
1113016150981006	0.6138458	1.58638	0.15757751
1113016156046924	0.76586914	1.6402435	0.25334167
1113016161112842	0.90592957	1.6546173	0.2772827
1113016166209278	1.1262054	1.5899658	0.27848816
1113016171275196	1.417099	1.5097656	0.26411438
1113016176341114	1.5571594	1.4546967	0.2629242
1113016181407031	1.7355347	1.4235687	0.19708252
1113016186472949	2.0276184	1.4080048	0.107299805
1113016191538867	2.3687897	1.4654694	0.11088562
1113016196604785	2.7159576	1.5384979	0.2341919
1113016201670703	3.0319824	1.704895	0.4257202
1113016206736621	3.235489	1.8210144	0.5047302
1113016211833057	3.2606354	1.8796692	0.55500793
1113016216898975	3.1936035	1.8317871	0.52508545
1113016221964893	3.0666962	1.8617096	0.3945923
1113016227030811	2.9050903	2.1059265	0.16355896
1113016232096729	2.7111664	2.5069427	-0.055511475
1113016237162647	2.5746918	3.001358	-0.3799286
1113016242228565	2.4047089	3.5101166	-0.8156738
1113016247294483	2.1688843	4.0392303	-1.405838
1113016252390918	1.7582703	4.5647583	-2.1492462
1113016257456836	1.0902863	5.113037	-3.0566406
1113016262522754	0.12423706	5.7834167	-4.1088867
1113016267588672	-1.0525208	6.8859406	-5.2892303
1113016272654590	-2.3082733	8.22789	-6.659912
1113016277720508	-3.6502228	9.772156	-7.876175
1113016282786426	-4.958664	11.636032	-8.747665
1113016287852344	-6.0324554	14.015869	-9.316284
1113016292918262	-7.0487976	16.96434	-9.632324
1113016298014698	-8.54039	20.280304	-10.308685
1113016303080615	-11.24942	23.5029	-10.964691
1113016308146533	-13.993179	26.05632	-10.795898
1113016313212451	-15.299225	27.078644	-9.937576
1113016318278369	-15.16275	25.542755	-9.006241
1113016323344287	-14.218231	22.227982	-8.352615
1113016328410205	-13.001984	18.417618	-7.4356384
1113016333476123	-11.42659	14.805969	-6.8299103
1113016338542041	-9.459763	12.099319	-6.679062
1113016343638477	-7.4953156	10.012772	-6.7413177
1113016348704395	-5.539261	8.32486	-6.723358
1113016353770313	-3.710083	6.9577637	-6.4791565
1113016358836231	-1.9635162	5.7702484	-5.9883423
1113016363902149	-0.63352966	4.5803223	-5.1120605
1113016368968067	0.041625977	3.658554	-3.9700317
1113016374033985	0.5899048	3.210846	-2.8303833
1113016379099903	1.1082458	2.8924103	-2.1731873
1113016384165821	1.3811798	2.8840332	-1.8870697
1113016389231739	1.5260315	3.736374	-1.6488495
1113016394297656	1.6553192	5.1896515	-1.0155792
1113016399394092	2.3125305	6.681244	0.22581482
1113016404460010	2.9661407	7.916641	1.2912292
1113016409525928	3.4856873	9.028748	3.0078735
1113016414591846	4.242264	10.210297	5.5229797
1113016419657764	4.784546	11.783279	7.449112
1113016424723682	4.3356323	14.282822	8.338562
1113016429789600	3.4988556	17.427612	8.187729
1113016434855518	3.271408	20.597534	7.493408
1113016439951953	3.1493073	22.97139	6.602768
1113016445017871	2.6572876	23.062363	5.101593
1113016450083789	1.9701538	20.42157	2.2106018
1113016455149707	0.020080566	15.864197	-2.374298
1113016460215625	-1.5768433	11.056641	-4.8068085
1113016465281543	-1.4571381	7.480896	-4.1280518
1113016470347461	-1.0381622	5.4673767	-2.6221008
1113016475413379	-1.3194733	4.5336456	-1.8403931
1113016480479297	-1.8461914	4.2571106	-1.3795013
1113016485575733	-1.7983093	4.7898254	-0.4637146
1113016490641651	-1.6139679	5.457794	0.7980194
1113016495707569	-1.5876312	5.666092	1.9029541
1113016500773487	-1.2632141	5.4781494	2.8414764
1113016505839405	-0.6957855	5.2842255	3.6950073
1113016510905323	0.15655518	5.3165436	4.2337036
1113016515971240	0.8867798	5.44104	4.811905
1113016521037158	1.3608398	5.6684875	5.479889
1113016526103076	1.7798157	5.8672028	6.029358
1113016531168994	2.2850037	6.110214	6.4543304
1113016536265430	2.5818787	6.7279205	6.803879
1113016541331348	3.1720428	7.630539	7.093582
1113016546397266	3.3611908	8.46492	7.2049103
1113016551463184	2.8057404	9.264587	7.06604
1113016556529102	1.3057709	10.318024	6.405243
1113016561595020	-0.30073547	11.221848	5.6355133
1113016566660938	-1.8916931	11.584564	4.6239624
1113016571726856	-3.2120972	11.604919	2.8211212
1113016576792774	-3.555664	11.637238	0.90097046
1113016581858692	-3.2767334	11.717438	-0.02319336
1113016586924610	-3.670578	11.345139	0.24136353
1113016591990528	-3.87648	10.499985	0.07736206
1113016597056446	-3.370102	9.751801	-0.60139465
1113016602122364	-3.38208	8.891083	-0.9317932
1113016607218799	-3.200119	8.035156	-1.0443115
1113016612284717	-2.6099548	7.424637	-0.6648407
1113016617350635	-2.0341492	7.216339	0.17912292
1113016622416553	-1.4355927	7.349228	0.8267517
1113016627482471	-0.93640137	7.5623016	1.044632
1113016632548389	-0.6490936	7.780182	1.1356049
1113016637614307	-0.4767151	7.8939056	1.2337646
1113016642680225	-0.310318	8.0794525	1.2816467
1113016647746143	-0.27679443	8.334442	1.3127747
1113016652812061	0.3552704	8.626526	1.3175659
1113016657908496	0.9765625	8.863556	1.3905945
1113016662974414	0.8460846	8.741455	1.4755859
1113016668040332	0.6581421	8.56308	1.6144409
1113016673106250	0.591095	8.278168	1.7581024
1113016678172168	0.7850342	8.407455	1.8586578
1113016683238086	0.6581421	8.48288	2.0082855
1113016688304004	0.38160706	8.361969	2.0717316
1113016693369922	0.29901123	8.345215	1.8299255
1113016698435840	-0.03617859	8.394287	1.559372
1113016703501758	-0.3785553	8.379929	1.349884
1113016708567676	-0.646698	8.430206	1.3079834
1113016713633594	-0.8741455	8.511612	1.3043976
1113016718730030	-1.1638489	8.515198	1.4636078
1113016723795948	-1.3745422	8.467316	1.681488
1113016728861865	-1.5971985	8.323654	1.8538666
1113016733927783	-1.7875366	8.00882	1.9256897
1113016738993701	-1.8665466	7.8017273	1.9999084
1113016744059619	-1.9683075	7.690399	2.0286407
1113016749156055	-2.0963898	7.642517	2.0513916
1113016754221973	-2.1706085	7.717926	2.0956726
1113016759287891	-2.2149048	7.8783417	2.128006
1113016764353809	-2.2795563	8.056702	2.0633545
1113016769419727	-2.3238373	8.302109	1.8849945
1113016774485645	-2.3705292	8.553497	1.5797272
1113016779551563	-2.4638977	8.751022	1.1786957
1113016784617481	-2.432785	9.055084	0.8914032
1113016789683399	-2.250824	9.385483	0.6064911
1113016794749317	-2.2184906	9.650055	0.30361938
1113016799845752	-2.1430817	9.871506	0.11567688
1113016804911670	-2.2579956	10.081009	-0.036361694
1113016809977588	-2.3465881	10.36113	-0.122543335
1113016815043506	-2.3633423	10.715469	0.066589355
1113016820109424	-2.578827	11.09256	0.35150146
1113016825175342	-2.990631	11.361908	0.72021484
1113016830241260	-3.5197449	11.555832	1.1846924
1113016835307178	-3.9483032	11.64682	1.5749359
1113016840403614	-4.216461	11.621674	1.725769
1113016845469531	-4.2775116	11.365494	1.622818
1113016850535449	-4.3134155	10.986008	1.3211517
1113016855601367	-4.2942657	10.663986	0.7872467
1113016860667285	-4.37088	10.547867	0.3359375
1113016865733203	-4.476227	10.763351	0.10848999
1113016870799121	-4.4702454	11.273315	-0.0040283203
1113016875865039	-4.394821	11.7916565	-0.14289856
1113016880930957	-4.1422424	12.252548	-0.30810547
1113016886027393	-3.7555695	12.706253	-0.3763275
1113016891093311	-3.4706573	13.18988	-0.22549438
1113016896159229	-3.3078613	13.407745	-0.01361084
1113016901225147	-3.1390686	13.550201	0.3826294
1113016906291065	-3.1929321	13.693863	0.82196045
1113016911356983	-3.1246948	13.534637	1.3008118
1113016916422901	-2.8230286	13.065384	1.6922607
1113016921488819	-2.6003723	12.49675	2.0466003
1113016926554737	-2.6219177	11.892212	2.0442047
1113016931651172	-2.9068298	11.36908	1.8502808
1113016936717090	-3.073227	11.364304	1.875412
1113016941783008	-2.923584	11.323593	1.7149963
1113016946848926	-2.6865692	10.899826	1.4779816
1113016951914844	-2.1574402	10.471252	1.2744751
1113016957011280	-1.3218689	10.213882	0.9129486
1113016962077198	-0.30792236	10.151627	0.2844696
1113016967143115	0.42829895	10.017563	-0.95692444
1113016972209033	0.89276123	9.998398	-2.5311127
1113016977274951	1.4649811	10.331192	-3.967636
1113016982340869	2.1174011	11.0746	-4.7050476
1113016987406787	2.6082153	12.357895	-4.448868
1113016992472705	3.441391	13.945251	-2.9010162
1113016997538623	4.433792	15.530212	-0.480484
1113017002635059	5.811661	16.739273	1.8574524
1113017007700977	7.126068	17.33664	3.7799988
1113017012766895	7.7473755	17.283966	5.1913757
1113017017832813	7.6958923	16.959549	5.879715
1113017022898731	7.636032	16.744064	5.757614
1113017027964649	7.0159454	16.45317	5.003433
1113017033030567	6.0091705	15.800751	3.9715424
1113017038096485	5.0586853	14.724564	2.7744293
1113017043162403	4.437378	13.477173	1.6132507
1113017048258838	4.0878296	12.598511	0.578949
1113017053324756	2.7817993	12.381836	-0.5690613
1113017058390674	-0.094833374	11.798843	-0.7007446
1113017063456592	-1.9850616	11.193115	-1.208313
1113017068522510	-1.2703857	11.248184	-3.0171356
1113017073588428	-0.507843	11.840744	-3.7952576
1113017078654346	-1.127945	11.90538	-3.1368408
1113017083720264	-1.9850616	11.96405	-2.3934479
1113017088786182	-3.112732	12.211838	-2.207901
1113017093852100	-4.386444	12.244171	-1.9624939
1113017098948535	-5.18013	12.372253	-1.0658569
1113017104014453	-4.3960266	12.482391	-0.52597046
1113017109080371	-3.1474457	12.053833	-0.36436462
1113017114146289	-3.2659607	11.147629	0.1300354
1113017119212207	-3.3868713	10.197128	0.5454407
1113017124278125	-2.9618988	9.45372	0.78845215
1113017129344043	-3.0145721	8.52597	1.2373657
1113017134409961	-2.499817	7.2761993	0.96681213
1113017139475879	-2.1514587	6.366394	1.1882782
1113017144572315	-2.7595825	5.5392	1.6563416
1113017149638233	-2.3417969	4.9993134	1.662323
1113017154704151	-1.9108429	4.3397064	1.1559601
1113017159770069	-2.147873	3.744751	0.92611694
1113017164835987	-2.0904083	3.1509857	0.79322815
1113017169901905	-2.3513794	2.7679138	0.9356842
1113017174967823	-2.290329	2.1609802	0.519104
1113017180033740	-1.2739868	1.7826996	0.17433167
1113017185130176	-0.5593109	1.6366577	-0.13331604
1113017190196094	-0.37734985	1.4929962	-0.2649994
1113017195262012	-0.08287048	1.4319458	-0.24824524
1113017200327930	0.47857666	1.3828735	-0.27218628
1113017205393848	0.89276123	1.3002777	-0.2817688
1113017210459766	1.0555725	1.3014679	-0.2865448
1113017215525684	1.26268	1.3876648	-0.22789001
1113017220591602	1.5128632	1.4319458	-0.20275879
1113017225657520	1.7702484	1.5013885	-0.2709961
1113017230753955	2.0515594	1.6067352	-0.40745544
1113017235819873	2.282608	1.7096863	-0.49005127
1113017240885791	2.4968872	1.7898865	-0.5642853
1113017245951709	2.6764526	1.8868561	-0.6181488
1113017251017627	2.9481964	2.0604248	-0.4230194
1113017256083545	3.1660614	2.2555542	-0.07826233
1113017261149463	3.2773895	2.4746246	0.25453186
1113017266215381	3.286972	2.6015167	0.58255005
1113017271281299	3.2438812	2.700882	0.8016205
1113017276347217	3.0152283	2.6721497	0.934494
1113017281443653	2.705185	2.717636	0.8447113
1113017286509571	2.3747864	2.9331207	0.6136627
1113017291575489	2.2203522	3.22641	0.20425415
1113017296641406	2.0012817	3.5053253	-0.24943542
1113017301707324	1.729538	3.777069	-0.66244507
1113017306773242	1.3799896	4.0188904	-1.2561951
1113017311839160	0.98973083	4.2092285	-2.0127716
1113017316935596	0.43907166	4.4270935	-2.8854523
1113017322001514	-0.37974548	4.8568573	-3.9185486
1113017327067432	-1.3661652	5.590683	-5.0917206
1113017332133350	-2.520172	6.8057404	-6.3773956
1113017337199268	-3.7232513	8.333237	-7.7373047
1113017342265186	-4.7982483	10.101349	-8.721329
1113017347331104	-5.7128296	12.329163	-9.4767
1113017352397022	-6.508911	15.193817	-10.010605
1113017357462940	-7.9957123	18.441559	-10.939545
1113017362528858	-10.617355	21.76471	-11.996597
1113017367594776	-13.725037	24.55275	-12.0767975
1113017372691211	-15.605682	26.318481	-10.86055
1113017377757129	-16.361053	26.325668	-9.541336
1113017382823047	-15.738556	24.628174	-8.873352
1113017387888965	-15.057404	21.971802	-7.8498383
1113017392954883	-13.555038	18.481064	-7.0370026
1113017398020801	-10.624542	15.20459	-6.6455536
1113017403086719	-8.080704	12.602097	-6.555771
1113017408152637	-6.18808	10.42218	-6.493515
1113017413218555	-4.297867	8.608566	-6.349869
1113017418314990	-2.5189667	7.113388	-6.014679
1113017423380908	-1.0237885	5.879181	-5.5430145
1113017428446826	0.051208496	4.9609985	-4.738571
1113017433512744	0.9574127	4.5767365	-3.7114563
1113017438578662	1.6888428	4.3313293	-2.8531342
1113017443644580	1.9701538	3.95784	-2.4592896
1113017448710498	2.25148	4.206833	-2.3192291
1113017453776416	2.282608	4.8652344	-2.2581787
1113017458842334	2.6513062	5.6924286	-1.6835632
1113017463938770	3.3707733	6.699188	-0.47808838
1113017469004688	3.7322845	7.479706	1.0386353
1113017474070606	4.444565	8.2973175	3.2616577
1113017479136524	5.1149445	9.657227	5.967102
1113017484202442	5.1460724	11.935318	8.000977
1113017489268360	4.3488007	14.67189	8.437927
1113017494334278	3.381546	17.330643	8.227234
1113017499400196	3.7143402	19.320236	7.353348
1113017504466114	3.638916	19.49141	5.6881866
1113017509562549	2.9565735	17.480286	4.073288
1113017514628467	1.2686615	13.993134	1.4660034
1113017519694385	-0.6826172	10.325211	-1.9301758
1113017524760303	-1.251236	7.500061	-3.8144073
1113017529826221	-1.0189972	5.591873	-3.5977325
1113017534892139	-1.033371	4.7993927	-2.3910522
1113017539958057	-1.6343079	4.993332	-1.0682526
1113017545023975	-2.0173798	5.8408813	0.17912292
1113017550120410	-2.1670227	6.76503	1.5893097
1113017555186328	-2.401657	7.124161	2.7816162
1113017560252246	-2.6243134	7.0702972	3.6399384
1113017565318164	-2.5644531	6.915863	4.151108
1113017570384082	-2.2484283	6.9649506	4.519806
1113017575450000	-1.6786041	7.119385	4.7029724
1113017580515918	-1.0213928	7.4318237	4.9340057
1113017585581836	-0.2516632	7.998047	5.2811584
1113017590647754	0.39717102	8.609772	5.555298
1113017595713672	0.93107605	9.143677	5.7229004
1113017600779590	1.5475769	9.6716	5.816269
1113017605876026	1.9055176	10.146851	5.607971
1113017610941944	1.7654572	10.468872	5.26799
1113017616007862	1.4889221	10.63765	4.661072
1113017621073780	0.87361145	10.922562	4.0481567
1113017626139698	-0.15350342	10.794479	3.3670044
1113017631205615	-1.093216	10.44133	2.6451416
1113017636271533	-1.9850616	9.956512	2.0609589
1113017641367969	-1.9419708	9.344788	1.2684784
1113017646433887	-1.9371796	8.791733	0.7178192
1113017651499805	-1.5804443	8.393097	0.4915619
1113017656565723	-1.0297699	7.994461	0.14559937
1113017661631641	-0.6239624	7.5180054	-0.10220337
1113017666697559	-0.20976257	7.048752	-0.16923523
1113017671763477	-0.2636261	6.7351074	0.19468689
1113017676829395	-0.4012909	6.554352	0.7106323
1113017681895313	-0.06251526	6.6800385	0.96562195
1113017686961231	-0.08885193	7.0523376	1.2756653
1113017692027149	-0.5700836	7.4713287	1.5462036
1113017697123584	-0.44558716	8.13092	1.5282593
1113017702189502	0.21401978	8.928192	1.515091
1113017707255420	0.39717102	9.337601	1.7545013
1113017712321338	0.24513245	9.371124	2.172287
1113017717387256	0.05000305	9.363937	2.3841858
1113017722453174	-0.06611633	8.94136	2.251297
1113017727519092	0.028457642	8.4313965	2.1842651
1113017732585010	0.33372498	8.229095	2.0346222
1113017737650928	0.64497375	8.115372	1.7102203
1113017742747364	0.46780396	7.9094696	1.7425385
1113017747813281	0.079940796	7.6437073	1.8179474
1113017752879199	-0.15110779	7.460556	1.6204376
1113017757945117	-0.4515686	7.5227966	1.3953705
1113017763011035	-0.741272	7.729904	1.2529144
1113017768076953	-0.8885193	7.9609375	0.9907532
1113017773142871	-1.0309753	8.280563	0.7285919
1113017778208789	-1.2272949	8.534348	0.6675415
1113017783274707	-1.3242645	8.666031	0.84710693
1113017788371143	-1.4032745	8.60498	1.1439819
1113017793437061	-1.4463654	8.407455	1.4815674
1113017798502979	-1.5612946	8.24704	1.8239441
1113017803568897	-1.591217	8.043533	2.2177887
1113017808634815	-1.6438904	7.963333	2.582901
1113017813700733	-1.7995148	8.029175	2.7480927
1113017818766651	-2.0149841	8.20874	2.8031616
1113017823832569	-2.1179352	8.535553	2.713379
1113017828898487	-2.3358154	8.859955	2.3805847
1113017833964405	-2.5704498	9.131699	1.9627991
1113017839060840	-2.7859192	9.523163	1.5689545
1113017844126758	-2.8649292	9.870316	1.0757446
1113017849192676	-2.8589478	10.148041	0.69148254
1113017854258594	-2.7033234	10.544281	0.40776062
1113017859324512	-2.7200775	10.81842	0.14320374
1113017864390430	-2.8529663	11.110519	0.01991272
1113017869456348	-2.8146515	11.485199	0.07258606
1113017874522266	-2.875702	11.734207	0.18151855
1113017879588184	-3.0014038	11.944885	0.4113617
1113017884684619	-3.0229492	12.175934	0.7285919
1113017889750537	-3.074417	12.29924	0.989563
1113017894816455	-3.1187134	12.351898	1.207428
1113017899882373	-3.0612488	12.211838	1.3115845
1113017904948291	-2.8816833	11.817993	1.1966553
1113017910014209	-2.8469696	11.286484	0.94885254
1113017915080127	-3.0145721	10.880661	0.65197754
1113017920146045	-3.2839203	10.742996	0.48797607
1113017925242481	-3.5257263	11.008759	0.41015625
1113017930308399	-3.6741638	11.559418	0.4293213
1113017935374317	-3.634674	12.166351	0.42811584
1113017940440235	-3.5460815	12.641602	0.23059082
1113017945506153	-3.38208	12.961227	0.057022095
1113017950572071	-3.2767334	13.180298	-0.07347107
1113017955637989	-3.2336426	13.355072	0.021102905
1113017960703906	-3.207306	13.5035095	0.2521515
1113017965769824	-3.1462555	13.614853	0.53227234
1113017970866260	-2.994217	13.571747	1.0027313
1113017975932178	-2.7895203	13.314377	1.5928955
1113017980998096	-2.6494598	12.842712	1.993927
1113017986064014	-2.6530457	12.428513	2.2920074
1113017991129932	-2.8146515	12.052628	2.3434753
1113017996195850	-2.9918213	11.62886	1.9771729
1113018001261768	-2.8122559	11.263748	1.5354309
1113018006327686	-2.5070038	10.819611	1.005127
1113018011393604	-1.927597	10.079803	0.44847107
1113018016459522	-1.2320862	9.738632	0.0965271
1113018021555957	-0.69099426	9.507599	-0.51161194
1113018026621875	-0.023010254	9.43457	-1.4321747
1113018031687793	0.7227783	9.614136	-2.552658
1113018036753711	1.3799896	9.896652	-3.4756317
1113018041819629	1.8181305	10.436539	-3.9077759
1113018046885547	2.234726	11.294861	-3.6551971
1113018051951465	3.073883	12.384232	-2.5430908
1113018057017383	4.1153564	13.599289	-0.7462311
1113018062113819	5.1077576	14.722168	1.5569916
1113018067179737	6.0295258	15.355438	3.769226
1113018072245655	6.685547	15.548172	5.1470947
1113018077311573	6.8579254	15.525421	5.5971985
1113018082377490	6.800461	15.313538	5.196167
1113018087443408	6.3922424	14.886169	4.289963
1113018092509326	5.677582	14.210999	3.3705902
1113018097575244	4.8420105	13.538239	2.4667816
1113018102641162	3.8555908	12.63681	1.5378265
1113018107737598	2.8536224	11.468445	0.59690857
1113018112803516	2.6357422	11.1188965	-0.3942871
1113018117869434	1.5607452	11.315216	-0.9102478
1113018122935352	-0.29356384	10.932144	-1.0239716
1113018128001270	-1.4786835	10.969254	-1.4561157
1113018133067188	-1.2895508	11.950882	-2.0594635
1113018138133106	-0.09603882	12.912155	-2.7453918
1113018143199024	-0.37615967	13.424515	-2.1827545
1113018148264942	-1.0549164	13.662735	-1.5758209
1113018153330860	-1.6319122	13.570557	-1.2980957
1113018158427295	-2.7583923	12.787643	-0.59420776
1113018163493213	-4.070404	12.0215	0.6208496
1113018168559131	-4.124283	11.422958	1.4540405
1113018173625049	-3.1833649	11.025513	0.8147888
1113018178690967	-2.6219177	10.495209	0.19587708
1113018183756885	-2.5919952	9.812851	0.121658325
1113018188822803	-2.8673248	8.970093	0.43649292
1113018193888721	-2.8493652	7.7586365	0.74295044
1113018198954639	-2.1969452	6.651306	0.8746338
1113018204020557	-1.9802704	5.6361694	0.7621155
1113018209116992	-2.3417969	4.903549	0.39938354
1113018214182910	-2.0868225	4.3038025	0.054626465
1113018219248828	-2.0449219	3.8309479	0.10609436
1113018224314746	-2.405243	3.2395782	-0.050720215
1113018229380664	-2.4698944	2.966629	0.18870544
1113018234446582	-2.1394806	2.4710388	-0.22190857
1113018239512500	-1.6091766	2.0664215	-0.45533752
1113018244608936	-0.9579468	1.7467957	-0.74983215
1113018249674854	-0.37257385	1.6270752	-0.86834717
1113018254740772	-0.08766174	1.4846191	-0.61335754
1113018259806690	0.23077393	1.4068146	-0.21472168
1113018264872608	0.6473694	1.3565369	-0.067474365
1113018269938526	0.90953064	1.318222	-0.012420654
1113018275004444	1.2088013	1.3469543	0.08454895
1113018280070362	1.3512573	1.2811127	0.18510437
1113018285136280	1.4913177	1.2260437	0.40298462
1113018290202198	1.5523682	1.2033081	0.55381775
1113018295268115	1.5846863	1.151825	0.46522522
1113018300364551	1.709198	1.2021027	0.33235168
1113018305430469	1.7917938	1.3050537	0.17193604
1113018310496387	1.8935394	1.412796	-0.03036499
1113018315562305	2.0120544	1.5660248	-0.18240356
1113018320628223	2.0958557	1.7695313	-0.19796753
1113018325694141	2.1449432	1.9742432	-0.17163086
1113018330760059	2.1449432	2.1095123	-0.10697937
1113018335825977	2.0623322	2.2160492	-0.084243774
1113018340922412	1.9091034	2.401596	-0.091430664
1113018345988330	1.737915	2.6134949	-0.2135315
1113018351054248	1.5451813	2.9127655	-0.38232422
1113018356120166	1.3428802	3.3975983	-0.64089966
1113018361186084	1.1669006	3.981781	-0.9724884
1113018366252002	0.97058105	4.5815277	-1.4285889
1113018371317920	0.6306	5.1657104	-2.1013489
1113018376383838	0.06556702	5.910309	-3.0398865
1113018381449756	-0.61917114	6.7159576	-4.156784
1113018386546192	-1.5373535	7.8939056	-5.389786
1113018391612110	-2.7260742	9.456116	-6.737732
1113018396678028	-3.9171753	11.377472	-7.7792053
1113018401743946	-4.9490814	13.52507	-8.31192
1113018406809864	-6.144989	15.839066	-8.5429535
1113018411875781	-7.2427216	18.783936	-8.847015
1113018416941699	-8.735519	22.028076	-9.506622
1113018422007617	-10.7526245	25.14891	-10.19136
1113018427073535	-12.390259	27.271378	-10.494232
1113018432139453	-13.598145	27.476074	-10.284744
1113018437205371	-14.245773	25.71753	-9.682602
1113018442301807	-13.525116	22.736755	-8.96434
1113018447367725	-12.243027	18.850967	-8.07489
1113018452433643	-9.932617	15.2309265	-7.4392242
1113018457499561	-7.594681	12.223816	-7.0729218
1113018462565479	-5.43631	9.804474	-6.667099
1113018467631397	-3.571228	7.998047	-6.0673523
1113018472697315	-1.9216156	6.725525	-5.256912
1113018477763233	-0.602417	5.7391205	-4.5218964
1113018482829151	0.12184143	4.92749	-3.8682709
1113018487925586	0.40315247	4.3205566	-3.0434723
1113018492991504	0.81495667	4.0392303	-2.5813904
1113018498057422	0.9358673	3.535263	-2.4521027
1113018503123340	0.89515686	3.5173035	-2.0917816
1113018508189258	1.1094513	4.163742	-1.5231628
1113018513255176	1.4242859	4.764679	-0.5068207
1113018518321094	2.0228271	5.5404053	0.8231659
1113018523387012	2.8775635	6.6010284	2.0442047
1113018528452930	3.49646	7.3324585	2.8510437
1113018533549365	4.196762	8.256622	3.9655457
1113018538615283	4.952133	9.782928	5.397278
1113018543681201	5.0407257	11.98439	6.6566315
1113018548747119	4.7953186	14.512665	7.0684357
1113018553813037	4.745041	16.718933	6.8888702
1113018558878955	4.773773	18.25122	5.4750977
1113018563944873	4.8072815	18.659424	3.420868
1113018569010791	4.615753	17.937576	-0.108184814
1113018574107227	3.3671722	15.904907	-4.9576416
1113018579173145	1.5332184	13.073761	-6.6251984
1113018584239063	1.061554	10.81842	-4.584137
1113018589304981	0.41990662	8.979675	-1.642868
1113018594370899	-0.8274689	7.6018066	0.4544525
1113018599436817	-1.8869019	6.7973633	1.6886597
1113018604502735	-2.456726	6.563919	2.5302277
1113018609568653	-2.6171265	6.4980774	3.0306091
1113018614634571	-2.738037	6.19162	3.496292
1113018619700489	-2.915207	5.7750397	4.0996246
1113018624796924	-2.793106	5.496109	4.827469
1113018629862842	-2.389679	5.4183044	5.5421295
1113018634928760	-1.8629608	5.638565	6.0197754
1113018639994678	-1.314682	6.2287292	6.444748
1113018645060596	-0.7520447	6.9721375	6.733246
1113018650126514	0.077545166	7.8017273	6.8158417
1113018655192432	0.5563812	8.585831	6.638672
1113018660258350	0.86283875	9.417816	6.354965
1113018665354785	0.7802429	10.28212	5.8773193
1113018670420703	0.4809723	10.911789	5.141098
1113018675486621	0.25830078	11.199097	4.0900574
1113018680552539	-0.068496704	11.25177	3.179062
1113018685618457	-0.8154907	11.13446	2.3315125
1113018690684375	-1.5289612	10.69751	1.618042
1113018695750293	-2.168213	10.10614	1.2361603
1113018700816211	-1.4619293	9.581818	0.49635315
1113018705882129	-0.5928345	9.186768	0.100112915
1113018710948047	-0.30673218	8.638504	0.07975769
1113018716044483	-0.22532654	7.9645233	-0.072265625
1113018721110401	-0.14033508	7.326477	-0.26141357
1113018726176319	-0.10441589	6.9026947	-0.20036316
1113018731242237	0.15655518	6.7111664	0.07975769
1113018736308155	0.46180725	6.793762	0.4688263
1113018741374073	0.615036	7.0702972	0.83154297
1113018746439990	0.64616394	7.4030914	1.033844
1113018751505908	0.62461853	7.7155304	1.270874
1113018756571826	0.412735	8.023193	1.7724609
1113018761668262	0.23196411	8.300919	2.297989
1113018766734180	0.7515106	8.676804	2.388977
1113018771800098	0.69525146	8.760605	2.294403
1113018776866016	0.16014099	8.476883	2.2177887
1113018781931934	-0.03857422	8.11058	2.333908
1113018786997852	0.18528748	7.9142456	2.6834564
1113018792063770	0.17929077	7.764618	2.9528046
1113018797129688	-0.07209778	7.5611115	2.8785858
1113018802195606	-0.349823	7.6496887	2.582901
1113018807292041	-0.7149353	7.8651733	2.1447601
1113018812357959	-1.1482849	8.139313	1.5222626
1113018817423877	-1.5565033	8.534348	0.7621155
1113018822489795	-1.8270416	8.934189	0.12763977
1113018827555713	-2.0987854	9.253815	-0.20155334
1113018832621631	-2.1275177	9.464493	-0.19796753
1113018837687549	-1.9766846	9.51358	0.078567505
1113018842753467	-1.9874573	9.253815	0.43171692
1113018847819385	-1.864151	8.870743	0.86865234
1113018852885303	-1.721695	8.438583	1.4277039
1113018857981739	-1.6941681	8.132126	1.9244995
1113018863047656	-1.5361481	7.98967	2.3255157
1113018868113574	-1.4296112	7.9765015	2.7073975
1113018873179492	-1.5062256	8.047134	2.9456177
1113018878245410	-1.5636749	8.355988	3.05336
1113018883311328	-1.5241852	8.766586	2.927658
1113018888377246	-1.66185	9.198746	2.5565643
1113018893443164	-1.8378143	9.581818	2.033432
1113018898509082	-1.9299927	9.942139	1.4887543
1113018903605518	-1.9707031	10.240219	0.8985748
1113018908671436	-1.9970398	10.486816	0.42332458
1113018913737354	-1.8617554	10.793274	0.1300354
1113018918803272	-1.8318329	11.114105	-0.09262085
1113018923869190	-1.9910431	11.401413	-0.19317627
1113018928935108	-2.2544098	11.688705	-0.11895752
1113018934001026	-2.6686096	12.003555	0.14559937
1113018939066944	-2.9068298	12.305222	0.46403503
1113018944163379	-3.2216644	12.564987	0.8662567
1113018949229297	-3.7519836	12.676315	1.3307343
1113018954295215	-4.1865234	12.738571	1.7281647
1113018959361133	-4.263138	12.642807	1.7736664
1113018964427051	-4.276306	12.143616	1.5186768
1113018969492969	-4.4474945	11.548645	1.0913086
1113018974558887	-4.7276154	11.194305	0.5741577
1113018979624805	-4.989792	11.182343	0.13363647
1113018984690723	-5.0556183	11.616882	-0.072265625
1113018989756641	-4.9490814	12.252548	-0.21472168
1113018994853076	-4.6857147	12.79364	-0.34042358
1113018999918994	-4.4115906	13.2221985	-0.55589294
1113019004984912	-4.0764008	13.442459	-0.6684265
1113019010050830	-3.7268372	13.438873	-0.52597046
1113019015116748	-3.520935	13.399368	-0.17402649
1113019020182666	-3.3054657	13.410141	0.16595459
1113019025248584	-3.1474457	13.370636	0.50354004
1113019030314502	-2.7595825	12.928909	0.63401794
1113019035380420	-2.4938354	12.137619	0.42092896
1113019040476856	-2.3848877	11.213455	0.17553711
1113019045542774	-2.326233	10.51915	0.27848816
1113019050608692	-2.1933594	10.276138	0.5621948
1113019055674610	-2.1610413	10.113327	0.8363342
1113019060740528	-2.0915985	9.847565	0.9069519
1113019065806446	-1.8521881	9.164032	0.33714294
1113019070872364	-1.338623	8.652863	-0.50083923
1113019075938281	-0.5174103	8.540329	-1.484848
1113019081034717	0.48216248	8.9257965	-2.3874664
1113019086100635	1.3716125	9.912216	-2.8100433
1113019091166553	1.895935	11.256561	-2.702301
1113019096232471	2.3233032	12.805603	-1.8451691
1113019101298389	3.1744385	14.141571	-0.3440094
1113019106364307	3.942978	15.095657	1.6120453
1113019111430225	4.5487213	15.558945	3.6543121
1113019116496143	5.3531647	15.691818	4.9842834
1113019121562061	6.0642395	15.67984	5.4152374
1113019126627979	6.393448	15.654709	5.101593
1113019131724414	6.551468	15.392548	4.291168
1113019136790332	6.504776	15.117203	3.4160767
1113019141856250	5.9050293	14.972366	2.378189
1113019146922168	4.9497375	14.482742	1.5485992
1113019151988086	4.196762	13.616043	0.99554443
1113019157054004	3.5694885	12.805603	0.63401794
1113019162119922	2.674057	12.968414	-0.045928955
1113019167185840	0.61624146	12.842712	-0.29133606
1113019172251758	-1.0704803	12.427322	-0.49604797
1113019177317676	-0.8562012	11.979614	-1.7314453
1113019182414112	0.030853271	11.736603	-2.4796448
1113019187480030	0.014099121	12.038269	-1.781723
1113019192545948	-1.0369568	12.087341	-1.1065674
1113019197611865	-1.543335	12.3758545	-1.0371399
1113019202677783	-2.2627869	12.2573395	-0.8851013
1113019207743701	-3.2432098	11.88504	0.17193604
1113019212809619	-3.512558	11.584564	0.8076019
1113019217875537	-2.6889648	11.142838	0.45803833
1113019222941455	-1.7420502	10.646042	-0.2745819
1113019228037891	-1.0692749	9.982849	-0.47450256
1113019233103809	-1.230896	9.4752655	0.071380615
1113019238169727	-1.8473969	8.735458	0.62324524
1113019243235645	-2.1622314	7.860382	0.82914734
1113019248301563	-2.0149841	7.1301575	0.9440613
1113019253367481	-1.1183624	6.0359955	0.74894714
1113019258433399	-1.3206635	5.626587	1.3319244
1113019263499317	-1.4834747	4.796997	0.061798096
1113019268565235	-1.9132385	4.404358	0.3431244
1113019273661670	-2.9355621	4.3444977	0.6280365
1113019278727588	-1.9264069	3.6298218	-0.18240356
1113019283793506	-1.1051941	3.0995178	-0.32844543
1113019288859424	-0.87654114	2.6398315	-0.48287964
1113019293925342	-0.73768616	2.2675323	-0.38710022
1113019298991260	-0.44918823	2.087967	-0.33084106
1113019304057178	0.005722046	1.9215698	-0.559494
1113019309123096	0.3361206	1.7431946	-0.47450256
1113019314189014	0.654541	1.5576477	-0.2638092
1113019319285449	1.0687408	1.5408936	-0.17881775
1113019324351367	1.3548431	1.562439	-0.21832275
1113019329417285	1.5212402	1.5672302	-0.14529419
1113019334483203	1.7055969	1.522934	-0.13691711
1113019339549121	1.863617	1.50737	-0.2470398
1113019344615039	1.9653778	1.4630737	-0.38471985
1113019349680957	2.045578	1.4020233	-0.47927856
1113019354746875	2.2203522	1.4415283	-0.56666565
1113019359812793	2.4885101	1.443924	-0.5463257
1113019364909229	2.6800385	1.4331512	-0.35957336
1113019369975147	2.7327118	1.4702606	-0.21232605
1113019375041065	2.6333466	1.5109558	-0.017196655
1113019380106983	2.4477997	1.5013885	0.20785522
1113019385172901	2.267044	1.4858246	0.3251648
1113019390238819	1.9917145	1.6701813	0.38742065
1113019395304737	1.7810211	1.962265	0.29284668
1113019400370655	1.6876373	2.3920288	0.066589355
1113019405436573	1.650528	2.8780518	-0.1560669
1113019410502490	1.4589996	3.428711	-0.36915588
1113019415598926	1.1262054	4.0117035	-0.7701721
1113019420664844	0.71798706	4.6126556	-1.3088684
1113019425730762	0.08950806	5.2363434	-2.0438995
1113019430796680	-0.82865906	5.918686	-3.0482635
1113019435862598	-2.0317535	6.827286	-4.311203
1113019440928516	-3.22406	8.098602	-5.9536285
1113019445994434	-4.187729	9.780533	-7.5852814
1113019451060352	-5.1035156	11.839554	-9.030182
1113019456156787	-5.8026123	14.379791	-10.120728
1113019461222705	-6.6920624	17.506622	-10.548096
1113019466288623	-7.4701843	20.741196	-10.683365
1113019471354541	-9.250259	23.836884	-10.998215
1113019476420459	-11.749817	26.21434	-10.701324
1113019481486377	-13.1875305	27.219894	-9.871735
1113019486552295	-13.288086	26.229889	-8.9978485
1113019491618213	-13.4951935	23.927872	-8.0329895
1113019496684131	-13.379074	20.61908	-7.2620544
1113019501750049	-12.73024	17.073273	-6.778427
1113019506846485	-10.404266	14.210999	-6.607239
1113019511912403	-7.9406433	11.837158	-6.8538513
1113019516978321	-5.8732452	9.778137	-7.1040344
1113019522044239	-3.701706	8.073471	-7.0298157
1113019527110156	-1.8342285	6.6680756	-6.731735
1113019532176074	-0.3390503	5.6241913	-5.9655914
1113019537241992	0.70961	4.840103	-4.81279
1113019542307910	1.2255554	4.29303	-3.4684448
1113019547373828	1.6074371	4.277466	-2.6987152
1113019552439746	1.8193207	5.1178284	-2.28331
1113019557536182	1.9677582	6.1197968	-2.3551483
1113019562602100	1.9569855	7.103821	-2.6891327
1113019567668018	2.0814972	8.235077	-2.7238464
1113019572733936	2.1018372	8.8815155	-1.6548309
1113019577799854	2.140152	9.129303	0.598114
1113019582865772	2.6010284	9.105362	2.9863281
1113019587931690	2.9900818	8.836014	4.3151093
1113019593028125	3.017624	8.988052	4.5365753
1113019598094043	2.5543518	9.785324	4.0361786
1113019603159961	2.2095795	11.006363	3.6555023
1113019608225879	2.2526703	12.209457	3.8865356
1113019613291797	2.5112457	13.155167	4.6287384
1113019618357715	3.2043762	13.4640045	4.3127136
1113019623423633	3.4234467	12.95285	2.2872162
1113019628489551	3.2498627	11.700684	-1.0957947
1113019633555469	3.2259216	10.046295	-3.5366821
1113019638621387	3.373169	8.773773	-3.5845642
1113019643717823	2.9134674	8.047134	-1.7553864
1113019648783740	1.3273163	7.4593506	0.16236877
1113019653849658	-0.26602173	7.0032654	1.5881042
1113019658915576	-1.259613	6.9877014	2.5230408
1113019663981494	-1.9850616	7.3635864	3.2149658
1113019669047412	-2.7332458	7.607788	3.7632446
1113019674113330	-3.6035461	7.618576	4.329468
1113019679179248	-4.2451935	7.6963806	4.7664185
1113019684275684	-4.390045	7.9525604	5.0465393
1113019689341602	-4.1147003	8.28894	5.24765
1113019694407520	-3.69812	8.579834	5.2775726
1113019699473438	-3.1474457	8.697159	5.112381
1113019704539356	-2.6075592	8.818069	4.8382416
1113019709605274	-2.0054169	8.934189	4.4120636
1113019714671192	-1.488266	9.167618	3.934433
1113019719737110	-0.83584595	9.478867	3.3705902
1113019724803028	-0.07688904	9.878693	2.9575958
1113019729868946	0.37083435	10.219864	2.6475372
1113019734965381	0.6605377	10.495209	2.3913574
1113019740031299	0.79460144	10.77533	2.0825043
1113019745097217	0.77186584	11.012344	1.9005585
1113019750163135	0.39717102	11.127274	2.0513916
1113019755229053	-0.014633179	10.896225	2.2058105
1113019760294971	-0.49946594	10.249802	2.306366
1113019765360889	-0.17744446	9.623718	2.1459656
1113019770426807	0.046417236	9.068253	1.969986
1113019775492725	-0.24328613	8.395493	1.7221832
1113019780589160	-0.20378113	7.8496094	1.3678436
1113019785655078	-0.08287048	7.479706	0.6938782
1113019790720996	-0.12835693	7.224716	0.080963135
1113019795786914	0.09310913	7.283386	-0.16204834
1113019800852832	0.12063599	7.455765	0.02947998
1113019805918750	0.1194458	7.6640625	0.27249146
1113019810984668	0.1529541	8.098602	0.45205688
1113019816050586	-0.41207886	8.34761	0.8195648
1113019821116504	-0.804718	8.454147	1.1643372
1113019826182422	-0.7544403	8.648071	1.3642578
1113019831278858	-0.1151886	8.919815	1.2996063
1113019836314258	0.34210205	8.934189	1.1248322
1113019841410694	0.06916809	8.746231	1.3726349
1113019846476612	-0.20736694	8.612167	1.5019226
1113019851542530	-0.18461609	8.456543	1.3786163
1113019856608448	-0.1151886	8.298523	1.2732697
1113019861674365	0.072753906	8.239868	1.3426971
1113019866740283	0.11584473	8.280563	1.3331299
1113019871806201	0.19845581	8.243454	1.2732697
1113019876872119	0.18647766	8.106979	1.2828522
1113019881968555	0.053604126	7.9046783	1.4181213
1113019887034473	-0.075683594	7.685608	1.7664795
1113019892100391	-0.09843445	7.4856873	1.8562622
1113019897166309	-0.08766174	7.2738037	1.8406982
1113019902232227	-0.11399841	7.16127	1.8634491
1113019907298145	-0.058929443	7.0906525	1.9735718
1113019912364063	-0.13673401	7.0164337	2.1627197
1113019917429981	-0.23849487	6.9769287	2.3865814
1113019922495899	-0.31750488	7.0164337	2.7349243
1113019927561817	-0.5018616	7.172043	2.9300537
1113019932658252	-0.7077484	7.429428	2.888153
1113019937724170	-0.9818878	7.7035675	2.6020508
1113019942790088	-1.220108	8.006424	2.2501068
1113019947856006	-1.4739075	8.273376	1.8885803
1113019952921924	-1.7935333	8.567871	1.4707947
1113019957987842	-2.0664673	8.87912	1.0314636
1113019963053760	-2.4495392	9.2178955	0.5909271
1113019968119678	-2.578827	9.61055	0.1982727
1113019973216114	-2.7883148	9.951721	-0.14170837
1113019978282031	-2.9810486	10.32402	-0.33444214
1113019983347949	-3.1725922	10.655609	-0.33802795
1113019988413867	-3.4120026	10.896225	-0.15965271
1113019993479785	-3.4455261	11.219452	0.24855042
1113019998545703	-3.5245361	11.50676	0.7082367
1113020003611621	-3.7064972	11.736603	1.0386353
1113020008677539	-3.9291534	12.00116	1.2433472
1113020013743457	-4.045273	12.193893	1.2637024
1113020018839893	-4.0991364	12.324371	1.2517242
1113020023905811	-3.9064026	12.386627	1.211029
1113020028971729	-3.5149536	12.304016	1.1739197
1113020034037647	-3.2061005	11.930527	0.95484924
1113020039103565	-3.2420197	11.511536	0.73217773
1113020044169483	-3.404831	11.324799	0.52867126
1113020049235401	-3.5855865	11.416977	0.32276917
1113020054301319	-3.607132	11.729416	0.14559937
1113020059367237	-3.5065765	12.108887	-0.04473877
1113020064463672	-3.3796844	12.485977	-0.12973022
1113020069529590	-3.2144775	12.763702	-0.01361084
1113020074595508	-3.1342773	12.954041	0.20904541
1113020079661426	-3.1510315	13.140793	0.49754333
1113020084727344	-3.2695465	13.310776	0.78845215
1113020089793262	-3.38208	13.504715	1.0865173
1113020094859180	-3.306656	13.776459	1.3822021
1113020099925098	-3.1354828	13.762085	1.6695099
1113020104991016	-2.8577423	13.3802185	1.8550568
1113020110087451	-2.6829681	12.809204	1.9903412
1113020115153369	-2.6470642	12.22142	1.8311157
1113020120219287	-2.8146515	11.755753	1.4851532
1113020125285205	-2.7679596	11.592941	1.1858826
1113020130351123	-2.460312	11.5342865	0.9332886
1113020135417041	-2.0341492	11.34874	0.68429565
1113020140482959	-1.354187	10.932144	0.3718567
1113020145548877	-0.6431122	10.453308	-0.22909546
1113020150645313	0.30140686	9.865524	-1.0945892
1113020155711231	1.0005035	9.876297	-2.089386
1113020160777149	1.393158	10.339584	-3.1200867
1113020165843067	1.7762299	10.867508	-3.801239
1113020170908985	2.1664886	11.54985	-3.8730621
1113020175974903	2.7015839	12.306412	-3.1128998
1113020181040821	3.5958252	13.352676	-1.5722351
1113020186106739	4.5175934	14.493515	0.53466797
1113020191172656	5.3124695	15.314728	2.6044464
1113020196269092	6.114517	15.778015	4.0996246
1113020201335010	6.561035	15.943207	4.847809
1113020206400928	6.640045	15.885742	4.882538
1113020211466846	6.468857	15.731323	4.499466
1113020216532764	6.1947327	15.428452	3.807541
1113020221598682	5.5267487	14.685059	2.9791412
1113020226664600	4.555893	13.501129	2.3829803
1113020231730518	4.1788177	12.387817	1.9520264
1113020236796436	3.9262238	11.90538	0.9320984
1113020241862354	2.8739777	11.873062	-0.2470398
1113020246958789	1.223175	11.580978	-0.39309692
1113020252024707	-0.06011963	11.117691	-0.65644836
1113020257090625	-1.290741	10.902222	-1.4477386
1113020262156543	-0.34503174	12.321976	-2.4940033
1113020267222461	0.082336426	12.843918	-2.7681427
1113020272288379	-0.523407	13.052216	-2.3431702
1113020277354297	-1.1375122	12.9696045	-1.5722351
1113020282420215	-2.0556946	12.415344	-0.75701904
1113020287516651	-3.4275665	11.928131	0.17074585
1113020292582569	-3.9602814	11.557037	0.73217773
1113020297648487	-3.3246155	11.114105	0.15039063
1113020302714405	-2.3118744	10.498795	-0.52716064
1113020307780323	-2.2184906	9.882294	-0.19796753
1113020312846240	-2.6805725	8.910248	0.69866943
1113020317912158	-2.9858398	7.994461	1.2732697
1113020322978076	-2.7703552	7.105011	1.167923
1113020328074512	-2.5500946	6.286194	0.9356842
1113020333140430	-3.2228699	5.46019	0.6088867
1113020338206348	-2.8864746	4.8221436	0.21742249
1113020343272266	-2.3334198	4.3840027	0.43769836
1113020348338184	-2.4674988	3.7387695	0.12763977
1113020353404102	-2.7512054	3.5053253	0.30003357
1113020358470020	-2.4483337	3.107895	-0.13331604
1113020363535938	-2.1143494	2.827774	-0.23626709
1113020368601856	-1.7073364	2.6182709	-0.41464233
1113020373667774	-1.2488403	2.439911	-0.5822296
1113020378733692	-0.9962616	2.1813354	-0.35957336
1113020383830127	-0.528183	2.0951385	-0.041137695
1113020388896045	-0.24568176	1.9754333	0.076171875
1113020393961963	0.039230347	1.8425598	0.114471436
1113020399027881	0.29063416	1.8748779	0.08454895
1113020404093799	0.51927185	1.9455109	0.02947998
1113020409159717	0.8377075	2.0305023	-0.07107544
1113020414225635	1.0639496	2.0867615	-0.093811035
1113020419291553	1.2698517	2.072403	-0.18000793
1113020424357471	1.59906	2.0628204	-0.23268127
1113020429423389	1.8109436	2.0400848	-0.2638092
1113020434519824	2.0599365	2.0843658	-0.3260498
1113020439585742	2.35083	2.127472	-0.27937317
1113020444651660	2.5459595	2.1645813	-0.14170837
1113020449717578	2.6237793	2.2340088	0.033081055
1113020454783496	2.5339966	2.2531586	0.24136353
1113020459849414	2.3316803	2.2962646	0.39579773
1113020464915332	2.0982513	2.314209	0.44607544
1113020470011768	1.8755951	2.3525238	0.38861084
1113020475077686	1.6852417	2.5093384	0.26890564
1113020480143604	1.4553986	2.7751007	-0.02079773
1113020485209522	1.2866211	3.100708	-0.361969
1113020490275440	1.0531769	3.452652	-0.77256775
1113020495341358	0.72398376	3.7854462	-1.4142151
1113020500407276	0.32055664	4.041626	-2.1636047
1113020505473194	-0.034988403	4.381607	-3.1033325
1113020510539112	-0.61917114	4.915512	-4.2058563
1113020515605030	-1.275177	5.642151	-5.5035095
1113020520701465	-2.2125092	6.617798	-6.8119507
1113020525767383	-3.2108917	8.0004425	-8.2065735
1113020530833301	-3.9052124	9.672791	-9.420425
1113020535899219	-4.405594	11.7521515	-10.102783
1113020540965137	-5.207657	14.2146	-10.408035
1113020546031055	-6.440674	17.027786	-10.731262
1113020551096973	-8.274628	19.92836	-11.292694
1113020556162891	-10.698761	22.34291	-11.578796
1113020561259326	-12.602142	23.987732	-11.184952
1113020566325244	-13.473633	24.37918	-10.250015
1113020571391162	-13.341965	23.452621	-9.024185
1113020576457080	-12.397446	21.515717	-7.9336243
1113020581522998	-10.486877	19.032928	-7.0441895
1113020586588916	-8.460175	16.345428	-6.45401
1113020591654834	-7.070343	13.745331	-6.2217712
1113020596720752	-5.341736	11.414581	-6.069748
1113020601786670	-3.2994843	9.511185	-5.884201
1113020606852588	-1.5193939	7.919037	-5.593292
1113020611918506	-0.25645447	6.528015	-5.2533264
1113020617014942	0.63420105	5.499695	-4.667938
1113020622080860	1.0364227	4.963394	-3.9616547
1113020627146778	1.227951	5.018463	-3.4636536
1113020632212696	1.4230804	4.9753723	-3.3810577
1113020637278614	1.5020905	5.2052155	-3.4432983
1113020642344531	1.5882874	6.198807	-3.0326996
1113020647410449	1.9282532	7.2845764	-1.8379974
1113020652476367	2.5687103	8.615753	0.31678772
1113020657542285	3.192398	10.079803	3.2915802
1113020662638721	3.6592712	11.443298	5.883301
1113020667704639	3.6401215	13.161148	7.124695
1113020672770557	3.2103577	15.50148	7.201309
1113020677836475	2.7817993	17.760406	6.7751465
1113020682902393	3.2211304	18.757599	5.9539337
1113020687968311	4.0327606	18.127914	5.2248993
1113020693034229	4.1943665	15.386551	3.5501556
1113020698100147	3.6808167	11.484009	0.030685425
1113020703166065	3.2091522	8.231491	-4.039459
1113020708262500	3.3635864	5.7905884	-6.608444
1113020713328418	3.709549	4.5444183	-6.512665
1113020718394336	3.4090729	4.45343	-4.216629
1113020723460254	1.9402313	4.721588	-1.3232422
1113020728526172	0.5348358	5.2327423	1.0817413
1113020733592090	-0.3246765	5.9055176	2.967163
1113020738658008	-0.94358826	6.4897003	4.02182
1113020743723926	-1.6355133	6.5926514	4.6598663
1113020748789844	-2.5249481	6.6644745	5.4188385
1113020753886280	-3.1785736	6.840454	6.1191406
1113020758952198	-3.3353882	7.248657	6.8613434
1113020764018115	-3.389267	7.8974915	7.3916473
1113020769084033	-3.2336426	8.746231	7.7005005
1113020774149951	-2.8673248	9.587799	7.5652313
1113020779215869	-2.3046875	10.448517	7.14505
1113020784281787	-1.9922485	11.0793915	6.520172
1113020789347705	-2.1430817	11.541473	5.7348633
1113020794413623	-2.3884888	11.822784	4.787964
1113020799479541	-2.5213623	11.919754	3.3921356
1113020804575977	-2.5860138	11.926941	2.1459656
1113020809641895	-2.3669434	11.737793	0.88061523
1113020814707813	-1.9455566	11.254166	-0.27337646
1113020819773731	-1.7576141	10.533508	-0.4984436
1113020824839649	-1.9874573	9.873901	-0.18000793
1113020829905567	-1.6127625	9.263382	0.32995605
1113020834971485	-0.8909149	8.64209	0.7800598
1113020840037403	-0.24208069	8.002838	0.95484924
1113020845133838	0.31336975	7.369568	0.9572296
1113020850199756	0.1374054	6.8189087	0.8818207
1113020855265674	-0.16546631	6.4980774	0.8662567
1113020860331592	0.12184143	6.341263	0.7561188
1113020865397510	0.1637268	6.234726	0.7860565
1113020870463428	0.26190186	6.4585724	0.75372314
1113020875529346	0.5815277	7.058319	0.6651459
1113020880595264	0.43667603	7.4821014	0.75372314
1113020885661182	0.2104187	7.781372	0.94885254
1113020890727100	0.49293518	8.13092	1.1511688
1113020895823535	0.91192627	8.438583	1.2780609
1113020900889453	0.94184875	8.496048	1.5414276
1113020905955371	0.7742615	8.494843	1.8490753
1113020911021289	0.6258087	8.487671	1.9125214
1113020916087207	0.5503998	8.424225	1.8035889
1113020921153125	0.41752625	8.2973175	1.7724609
1113020926219043	0.44265747	8.261414	1.8215485
1113020931284961	0.53004456	8.318878	1.8155518
1113020936350879	0.27027893	8.220703	1.677887
1113020941416797	-0.22293091	8.071075	1.6886597
1113020946513233	-0.29714966	7.8819275	1.7281647
1113020951579151	-0.22053528	7.8412323	1.4324799
1113020956645069	-0.270813	7.9202423	1.0637817
1113020961710987	-0.33067322	7.9956512	1.0206909
1113020966776905	-0.31629944	8.047134	1.073349
1113020971842823	-0.28637695	8.089035	1.1499634
1113020976908740	-0.34742737	8.001648	1.3929749
1113020981974658	-0.43362427	7.8615875	1.8394928
1113020987071094	-0.4575653	7.705963	2.2596893
1113020992137012	-0.44319153	7.5934296	2.5469818
1113020997202930	-0.44200134	7.508438	2.73732
1113021002268848	-0.5593109	7.4258423	2.8151398
1113021007334766	-0.71014404	7.4988556	2.646347
1113021012400684	-1.0189972	7.642517	2.3267212
1113021017466602	-1.294342	7.99086	1.8957672
1113021022532520	-1.6259308	8.485275	1.4109344
1113021027598438	-2.0904083	8.928192	0.8339386
1113021032694873	-2.4495392	9.350769	0.31678772
1113021037760791	-2.468689	9.915802	0.0055389404
1113021042826709	-2.5057983	10.449707	-0.19676208
1113021047892627	-2.6997375	10.978836	-0.17163086
1113021052958545	-2.9140167	11.540268	0.042648315
1113021058024463	-3.1989288	11.991577	0.31199646
1113021063090381	-3.3593292	12.41655	0.7154236
1113021068156299	-3.4167938	12.717026	1.2050323
1113021073252735	-3.5664368	12.836731	1.5976868
1113021078318653	-3.7232513	12.728989	1.8813934
1113021083384571	-3.7855072	12.362686	1.9029541
1113021088450489	-3.6729736	11.855103	1.6359863
1113021093516406	-3.552063	11.432526	1.2816467
1113021098582324	-3.5807953	11.315216	0.8818207
1113021103648242	-3.7041016	11.54985	0.642395
1113021108714160	-3.8273926	12.029892	0.51431274
1113021113780078	-3.8070526	12.543442	0.37065125
1113021118845996	-3.6801605	12.95166	0.16714478
1113021123942432	-3.543686	13.231781	-0.08303833
1113021129008350	-3.4179993	13.334732	-0.089035034
1113021134074268	-3.3473663	13.377823	0.12046814
1113021139140186	-3.373703	13.350281	0.3945923
1113021144206104	-3.504181	13.317963	0.65437317
1113021149272022	-3.5424957	13.408951	0.86865234
1113021154337940	-3.366516	13.513092	1.0254669
1113021159403858	-3.0229492	13.346695	1.0853271
1113021164469776	-2.7188873	12.939682	1.136795
1113021169535694	-2.760788	12.501541	1.2253876
1113021174632129	-2.9092255	12.225006	1.2816467
1113021179698047	-3.002594	12.046646	1.2840424
1113021184763965	-2.8517609	11.926941	1.1140594
1113021189829883	-2.5369263	11.630051	0.894989
1113021194895801	-1.9467621	11.169174	0.6208496
1113021199961719	-1.2057495	10.596954	0.14320374
1113021205027637	-0.18821716	10.34436	-0.5104065
1113021210093555	1.0603638	10.133682	-1.5028076
1113021215159473	1.9019318	10.20192	-2.5730133
1113021220255908	1.9797363	10.823212	-3.2816925
1113021225321826	2.1509247	11.557037	-3.7006836
1113021230387744	2.777008	12.280075	-3.5821686
1113021235453662	3.614975	12.963623	-2.6687775
1113021240519580	4.3116913	13.581329	-1.1652222
1113021245585498	4.9928436	14.238541	0.7070465
1113021250651416	5.8427734	14.919693	2.709793
1113021255717334	6.5574493	15.232132	4.160675
1113021260813770	6.813629	15.223755	4.9962616
1113021265879688	6.6891327	15.050171	5.192581
1113021270945606	6.3922424	14.711395	4.811905
1113021276011524	5.8715057	14.264877	4.1618805
1113021281077442	5.0634613	13.701035	3.432846
1113021286143360	4.239868	13.095306	2.6523285
1113021291209278	3.539566	12.102905	2.033432
1113021296275196	3.1325378	11.600128	0.989563
1113021301341114	1.1130371	11.302048	-0.1381073
1113021306437549	-0.7352905	10.901016	-1.192749
1113021311503467	-0.6826172	10.747787	-2.6592102
1113021316569385	0.31217957	11.6132965	-3.6168823
1113021321635303	0.20323181	12.308807	-3.0913544
1113021326701221	-0.59402466	12.649979	-2.1827545
1113021331767139	-1.2536316	12.756531	-2.001999
1113021336833057	-2.3944702	12.430908	-1.5327301
1113021341898975	-3.8465576	11.944885	-0.57385254
1113021346964893	-4.409195	11.512741	-0.05670166
1113021352030811	-3.5724182	11.244583	-0.2638092
1113021357127246	-1.6977539	10.977631	-0.7258911
1113021362193164	-1.5002289	10.551468	-0.21711731
1113021367259082	-2.4591064	9.486053	0.30960083
1113021372325000	-2.7823334	8.286545	0.7250061
1113021377390918	-2.9319763	7.568283	1.0781403
1113021382456836	-2.7093048	6.800949	1.1487732
1113021387522754	-2.116745	6.021637	1.0960999
1113021392588672	-1.9108429	5.2483063	0.8878021
1113021397654590	-2.8098602	4.795807	0.9069519
1113021402751026	-2.9918213	4.0476227	0.40177917
1113021407816944	-3.4036255	3.8931885	0.6639404
1113021412882862	-2.7703552	3.2419739	-0.09022522
1113021417948780	-1.7540283	2.7523499	-0.41583252
1113021423014698	-1.3374329	2.436325	-0.40026855
1113021428080615	-1.156662	2.1897125	-0.11656189
1113021433146533	-0.6431122	1.9826202	0.28207397
1113021438212451	-0.097229004	1.8880463	0.52627563
1113021443278369	0.33970642	1.8365784	0.49516296
1113021448344287	0.70961	1.8449554	0.42692566
1113021453440723	1.0447998	1.8964233	0.3646698
1113021458506641	1.2327423	2.0041656	0.24136353
1113021463572559	1.4518127	2.103531	0.02708435
1113021468638477	1.7463074	2.15979	-0.28775024
1113021473704395	2.0515594	2.245987	-0.72828674
1113021478770313	2.3843536	2.4518738	-1.1436768
1113021483836231	2.7015839	2.606308	-1.4776611
1113021488902149	2.9182587	2.709259	-1.6500549
1113021493968067	3.207962	2.8086243	-1.6261139
1113021499033985	3.4581604	2.9546661	-1.5303345
1113021504130420	3.4832916	3.1102905	-1.4190063
1113021509196338	3.354004	3.2994232	-1.2167053
1113021514262256	3.1109924	3.3952026	-0.9317932
1113021519328174	2.7518616	3.4430847	-0.76179504
1113021524394092	2.4310455	3.6070862	-0.7414551
1113021529460010	2.1976013	3.8764343	-0.94496155
1113021534525928	1.9953003	4.2415466	-1.2526093
1113021539591846	1.6397552	4.595886	-1.5674438
1113021544657764	1.1824646	4.887985	-1.9696808
1113021549754199	0.6329956	5.1297913	-2.472458
1113021554820117	-0.0864563	5.417099	-3.0123444
1113021559886035	-0.81788635	5.709198	-3.6528015
1113021564951953	-1.6043854	6.0982513	-4.4045715
1113021570017871	-2.4339752	6.6800385	-5.2700806
1113021575083789	-3.0085907	7.5527344	-6.121216
1113021580149707	-3.69812	8.648071	-7.017853
1113021585215625	-4.1075287	9.939743	-7.904907
1113021590281543	-4.4199677	11.260147	-8.551331
1113021595377979	-5.188507	12.323181	-8.961945
1113021600443897	-6.3484955	13.320358	-9.249252
1113021605509815	-7.41391	14.444443	-9.374939
1113021610575733	-8.528412	15.593658	-9.544922
1113021615641651	-9.150909	16.580063	-9.382126
1113021620707569	-9.659668	17.244461	-9.246857
1113021625773487	-10.030777	17.400085	-9.067291
1113021630839405	-9.937408	17.267197	-8.451981
1113021635905323	-9.427444	16.819489	-7.6762543
1113021641001758	-8.490112	16.185028	-6.765259
1113021646067676	-7.477356	15.218964	-6.0254517
1113021651133594	-6.6369934	13.985947	-5.4113464
1113021656199512	-5.7403717	12.699066	-4.8391266
1113021661265430	-4.666565	11.445694	-4.446472
1113021666331348	-3.5927734	10.404221	-4.2106476
1113021671397266	-2.6949463	9.544708	-4.327957
1113021676463184	-1.9024658	8.788132	-4.512314
1113021681559619	-1.2488403	7.950165	-4.749344
1113021686625537	-0.57128906	7.191208	-4.8666534
1113021691691455	0.011703491	6.811722	-4.709839
1113021696757373	0.5539856	6.657303	-4.4919586
1113021701823291	0.95022583	6.4813232	-4.49675
1113021706889209	1.3045654	6.7913666	-4.383026
1113021711955127	1.9282532	7.6915894	-3.6551971
1113021717021045	2.6596832	9.09819	-1.9804535
1113021722086963	3.2606354	10.796875	0.35150146
1113021727183399	3.4437866	12.451263	2.9683685
1113021732249317	3.1864166	14.383392	4.9806976
1113021737315235	2.7422943	16.504654	6.0868073
1113021742381153	2.4322357	18.275162	6.4112244
1113021747447071	3.4270325	18.770767	5.7396545
1113021752512989	4.3799286	17.506622	4.9280243
1113021757578906	4.5139923	14.193039	3.321518
1113021762644824	3.8292542	9.903839	0.9560394
1113021767710742	3.137329	6.4154816	-1.3076782
1113021772807178	3.0451508	4.088318	-2.9441223
1113021777873096	3.4797058	2.8768463	-3.3439484
1113021782939014	3.5227966	2.5380707	-2.5538635
1113021788004932	2.2933807	2.9283295	-1.0263519
1113021793070850	0.8496704	3.8464966	0.7046509
1113021798136768	0.17330933	4.8329163	2.2692566
1113021803202686	-0.2624359	5.7068024	3.456787
1113021808268604	-0.51023865	6.3687897	4.342636
1113021813334522	-0.8693695	6.736313	5.034561
1113021818430957	-1.3230591	7.064316	5.7671814
1113021823496875	-1.7947235	7.488083	6.4638977
1113021828562793	-2.128708	7.99086	6.951126
1113021833628711	-2.250824	8.521179	7.101959
1113021838664112	-2.2735596	9.168808	6.96669
1113021843760547	-1.8856964	10.127686	6.5859985
1113021848826465	-1.4056702	11.057846	6.192154
1113021853892383	-1.4535522	11.847931	5.823456
1113021858988819	-1.4798889	12.410568	5.096817
1113021864054737	-1.864151	12.63562	3.8207092
1113021869120655	-2.4818573	12.615265	2.2872162
1113021874186573	-2.6147308	12.430908	0.67710876
1113021879252490	-2.271164	12.032272	-0.23747253
1113021884318408	-2.149063	11.433731	-0.52716064
1113021889384326	-2.085617	10.513153	-0.2865448
1113021894450244	-1.9120331	9.681168	0.5155029
1113021899516162	-1.8689423	8.904251	1.3869934
1113021904582080	-1.1985626	8.263809	1.8239441
1113021909647998	-0.6490936	7.5922394	1.9556122
1113021914744434	-0.23370361	7.073883	1.8011932
1113021919810352	-0.1331482	6.7710266	1.4061432
1113021924876270	-0.17984009	6.535187	1.0146942
1113021929942188	0.05000305	6.3592224	0.7190094
1113021935008106	0.24633789	6.464569	0.7250061
1113021940074024	0.62461853	6.974533	0.8076019
1113021945139942	0.7000427	7.4461823	0.87223816
1113021950205860	0.28703308	7.7682037	1.1224365
1113021955271778	0.318161	8.057907	1.4468536
1113021960337696	0.70721436	8.352386	1.7796478
1113021965434131	1.1082458	8.457733	1.8885803
1113021970500049	0.97416687	8.275772	1.899353
1113021975565967	0.61026	8.0004425	1.9640045
1113021980631885	0.70362854	8.060303	1.720993
1113021985697803	0.56596375	8.133316	1.3762207
1113021990763721	0.42948914	8.14888	1.3462982
1113021995829639	0.14099121	8.259018	1.5246582
1113022000926074	-0.20257568	8.304504	1.6216278
1113022005991992	-0.19898987	8.382324	1.3774261
1113022011057910	-0.41326904	8.487671	1.2996063
1113022016123828	-0.8418274	8.460129	1.3271484
1113022021189746	-1.0549164	8.504425	1.262497
1113022026255664	-1.151886	8.569061	1.1068726
1113022031321582	-1.2632141	8.555893	0.95962524
1113022036387500	-1.1087799	8.533157	0.90934753
1113022041483936	-1.0345612	8.425415	0.96562195
1113022046549854	-1.0740662	8.199158	1.1248322
1113022051615772	-1.1602631	7.9753113	1.4253082
1113022056681690	-1.2093353	7.7478485	1.7485199
1113022061747608	-1.1901855	7.5024567	1.9963226
1113022066813526	-1.1554718	7.429428	2.1615143
1113022071879444	-1.1794128	7.456955	2.203415
1113022076945362	-1.3158875	7.611389	2.1842651
1113022082011280	-1.6402893	7.867569	1.9975128
1113022087077198	-1.9874573	8.20874	1.6707153
1113022092143115	-2.329834	8.698349	1.2744751
1113022097239551	-2.7009277	9.141281	0.90097046
1113022102305469	-2.9056396	9.670395	0.73217773
1113022107371387	-2.978653	10.168396	0.6136627
1113022112437305	-3.0480804	10.559845	0.48558044
1113022117503223	-3.0588684	10.798065	0.38861084
1113022122569141	-3.1043549	10.956085	0.30480957
1113022127635059	-3.1510315	11.069809	0.26052856
1113022132700977	-3.1426544	11.239792	0.31678772
1113022137766895	-3.002594	11.548645	0.42453003
1113022142832813	-2.9762573	11.810822	0.56459045
1113022147929248	-3.112732	12.027496	0.8016205
1113022152995166	-3.2575836	12.14241	1.0075226
1113022158061084	-3.1031494	11.948486	1.112854
1113022163157520	-2.8469696	11.60611	1.1799011
1113022168223438	-2.7751465	11.178741	1.1356049
1113022173289356	-2.8888702	10.81842	1.0781403
1113022178355274	-2.923584	10.788498	0.9428711
1113022183421192	-3.010971	11.157196	0.8770294
1113022188487110	-3.1342773	11.715042	0.9716034
1113022193553028	-3.2647552	12.298035	0.99435425
1113022198618946	-3.3078613	12.756531	0.8746338
1113022203684864	-3.2803192	12.99115	0.70344543
1113022208750781	-3.2516022	13.139603	0.44607544
1113022213816699	-3.263565	13.183884	0.2736969
1113022218882617	-3.358139	13.243744	0.29045105
1113022223948535	-3.3868713	13.306	0.33833313
1113022229014453	-3.3928528	13.395782	0.48797607
1113022234080371	-3.1067505	13.44725	0.7621155
1113022239146289	-2.7224731	13.193466	0.99913025
1113022244242725	-2.405243	12.763702	1.2122192
1113022249308643	-2.39328	12.367462	1.2792511
1113022254374561	-2.5285492	12.110092	1.1595459
1113022259440479	-2.7464142	11.930527	1.0218811
1113022264506397	-2.6721954	11.754547	0.75971985
1113022269572315	-2.4902344	11.480423	0.4688263
1113022274638233	-2.1394806	11.115295	0.116867065
1113022279704151	-1.6558533	10.462875	-0.1776123
1113022284770069	-0.938797	10.00798	-0.44577026
1113022289866504	-0.008651733	9.879898	-0.9796753
1113022294932422	1.0531769	9.978058	-1.8739014
1113022299998340	1.7163696	10.235428	-2.7322235
1113022305064258	1.9869232	10.650818	-3.3595123
1113022310130176	2.1964111	11.340363	-3.291275
1113022315196094	2.7470703	12.198669	-2.4664764
1113022320262012	3.852005	13.243744	-1.0095978
1113022325327930	4.4697113	14.15593	0.8195648
1113022330393848	5.1939545	14.834686	2.7109833
1113022335490283	6.1911316	15.347046	4.19899
1113022340556201	6.75737	15.570908	4.9675293
1113022345622119	6.738205	15.512253	4.9830933
1113022350688037	6.642441	15.284805	4.5186157
1113022355753955	6.216278	14.693436	3.9140778
1113022360819873	5.1628265	13.902145	3.247284
1113022365885791	4.365555	13.120438	2.511078
1113022370951709	3.2953491	11.912567	1.8083801
1113022376048145	2.784195	11.248184	0.9524536
1113022381114063	1.2327423	11.157196	0.11567688
1113022386179981	-0.7293091	10.871094	-0.47329712
1113022391245899	-1.0118256	10.971649	-1.5447083
1113022396296301	-0.25764465	12.065796	-2.6448364
1113022401362219	-0.24926758	12.688293	-2.7825012
1113022406428137	-0.9962616	12.762512	-1.9301758
1113022411494055	-1.4667206	13.095306	-1.381897
1113022416559973	-2.0496979	12.8307495	-1.1161346
1113022421625890	-2.8122559	12.16037	-0.28775024
1113022426722326	-3.7052917	11.472031	0.38742065
1113022431788244	-3.8788757	10.970444	0.4329071
1113022436854162	-2.5345306	10.807648	-0.02558899
1113022441920080	-1.5852356	10.36232	-0.18000793
1113022446985998	-1.6127625	9.828415	0.09173584
1113022452051916	-2.15625	8.883911	0.67233276
1113022457117834	-2.3944702	7.8184814	1.0853271
1113022462214269	-2.4255981	7.034378	1.1535645
1113022467280187	-2.2627869	6.421463	0.9787903
1113022472346105	-1.8689423	5.7355347	0.70944214
1113022477412023	-1.2608185	5.065155	0.5226898
1113022482477941	-1.5971985	4.45343	0.33354187
1113022487543859	-2.0078125	3.9243164	0.15397644
1113022492609777	-2.0724487	3.4239197	0.0067443848
1113022497675695	-1.6881866	3.0791626	-0.27816772
1113022502741613	-1.2871552	2.7499542	-0.43618774
1113022507807531	-1.0561066	2.4674377	-0.6277313
1113022512873449	-0.60479736	2.3405457	-0.8025055
1113022517969885	-0.15708923	2.2794952	-0.80848694
1113022523035803	-0.03617859	2.245987	-0.52716064
1113022528101721	0.0619812	2.2375946	-0.21113586
1113022533167639	0.33132935	2.2639313	-0.14648438
1113022538233557	0.7969971	2.3010406	-0.37034607
1113022543299474	1.0088806	2.353714	-0.5523071
1113022548365392	1.3033752	2.4554749	-0.46492004
1113022553431310	1.5775146	2.499771	-0.28414917
1113022558497228	1.8372803	2.5332794	-0.1847992
1113022563563146	2.01326	2.6087036	-0.093811035
1113022568659582	2.1437378	2.6338348	-0.17642212
1113022573725500	2.3568268	2.6841125	-0.1273346
1113022578791418	2.5962372	2.779892	-0.0040283203
1113022583857336	2.8979187	2.9331207	0.14920044
1113022588923254	2.9661407	3.052826	0.3527069
1113022593989172	2.9170685	3.1665497	0.5298767
1113022599055090	2.725525	3.1761322	0.61605835
1113022604121008	2.4633636	3.1031036	0.6352234
1113022609217443	2.25148	3.0181122	0.5957184
1113022614283361	2.0862732	3.093521	0.35150146
1113022619349279	1.9545898	3.2850647	0.049835205
1113022624415197	1.8612213	3.5687714	-0.24943542
1113022629481115	1.8372803	3.859665	-0.638504
1113022634547033	1.7750244	4.160141	-1.1759949
1113022639612951	1.6469421	4.512085	-1.8356018
1113022644678869	1.4913177	4.8939667	-2.702301
1113022649744787	1.041214	5.318939	-3.66716
1113022654810705	0.16851807	6.131775	-4.6894836
1113022659876623	-0.83703613	7.321686	-5.8698273
1113022664942541	-1.6917725	8.900665	-7.34346
1113022670008459	-2.8577423	10.8112335	-8.722519
1113022675074377	-3.6825562	12.924118	-9.597595
1113022680170812	-4.330185	15.427261	-9.9184265
1113022685236730	-5.327362	18.591202	-10.481064
1113022690302648	-6.903946	22.126236	-11.886459
1113022695368566	-9.475327	25.04956	-12.937515
1113022700434484	-11.592987	26.682404	-12.59993
1113022705500402	-12.770935	26.395096	-11.807449
1113022710566320	-13.581375	24.67247	-10.279953
1113022715632238	-14.610886	21.6055	-8.375366
1113022720698156	-13.419769	18.01419	-7.1160126
1113022725764074	-11.195557	14.61084	-6.729355
1113022730860510	-8.9414215	11.800049	-6.9735565
1113022735926428	-6.7291718	9.578217	-7.1279755
1113022740992346	-4.4798126	7.7071533	-6.8622284
1113022746058264	-2.4267883	6.101837	-6.2409363
1113022751124182	-0.85020447	4.9957275	-5.235367
1113022756190099	0.1481781	4.587509	-3.916153
1113022761256017	0.6713104	4.761093	-2.7226563
1113022766321935	0.79460144	4.6832733	-2.326416
1113022771387853	0.93107605	5.1106415	-2.3407745
1113022776453771	1.3656158	6.4166718	-2.136078
1113022781550207	1.6170197	8.091431	-1.4154205
1113022786616125	1.8612213	9.865524	0.121658325
1113022791682043	2.0910645	11.713852	2.3470764
1113022796747961	2.4729462	13.083328	4.59523
1113022801813879	2.5974426	14.347473	6.59079
1113022806879797	2.4394226	16.068909	7.629883
1113022811945715	1.7834167	17.57965	7.670578
1113022817011633	1.7654572	18.314667	7.1749725
1113022822108068	2.3652039	17.59999	6.2651825
1113022827173986	2.7626343	14.94603	4.7747955
1113022832239904	2.9673462	10.99678	2.7576752
1113022837305822	2.7901764	7.373169	-0.26739502
1113022842371740	2.8691864	4.6234283	-3.203888
1113022847437658	3.3528137	2.89122	-4.9504547
1113022852503576	4.1225433	2.0640259	-5.1000977
1113022857600012	4.571457	2.0316925	-3.7581482
1113022862665930	4.0315704	2.558426	-1.5973816
1113022867731848	2.476532	3.0276794	0.598114
1113022872797765	1.2016144	3.4993439	2.412918
1113022877863683	1.0136719	4.203247	3.7345123
1113022882929601	1.180069	5.018463	4.7628174
1113022887995519	1.2794342	5.986923	5.678604
1113022893061437	1.144165	6.9421997	6.43277
1113022898127355	0.71798706	7.7825775	6.717682
1113022903193273	0.19366455	8.571457	6.863739
1113022908259191	-0.037384033	9.5147705	6.8852844
1113022913355627	-0.20018005	10.417389	6.9678802
1113022918421545	-0.3570099	11.2026825	7.0708313
1113022923487463	-0.4587555	11.697098	7.0241394
1113022928553381	-0.71733093	11.956863	6.507004
1113022933619299	-0.8897095	12.074173	5.1913757
1113022938685217	-1.0824432	12.138824	3.6710663
1113022943751135	-1.4858704	12.08017	2.1627197
1113022948817053	-2.2496185	11.926941	0.776474
1113022953882971	-3.488617	11.381058	-0.04953003
1113022958948889	-4.297867	10.44133	-0.4996338
1113022964014807	-4.3996124	9.620117	-0.4421692
1113022969111242	-3.1582184	9.111359	-0.30810547
1113022974177160	-1.3003235	8.792923	-0.22070313
1113022979243078	-0.8382416	8.215927	0.27130127
1113022984308996	-0.9112549	7.6042023	0.92970276
1113022989374914	-0.8490143	7.145706	1.2277832
1113022994440832	-0.5174103	6.946991	1.1954651
1113022999506750	0.034454346	6.9206543	1.1942596
1113023004572668	0.239151	6.8763733	1.4013672
1113023009638586	0.40673828	6.9877014	1.3845978
1113023014735021	0.5456085	7.369568	1.428894
