gyroscope_timestamp	gyroscope_x_data	gyroscope_y_data	gyroscope_z_data
255146231044104	0.38713074	-0.12541199	-0.028656006
255146237819006	0.3773346	0.25453186	-0.049423218
255146242732336	0.36756897	0.15556335	-0.06774902
255146247767736	0.35046387	0.024856567	-0.08607483
255146253169348	0.31381226	-0.10340881	-0.104400635
255146257869055	0.25151062	-0.20603943	-0.120269775
255146262721350	0.15620422	-0.28300476	-0.12882996
255146267909338	0.030380249	-0.3453064	-0.12882996
255146273036291	-0.1174469	-0.39663696	-0.11172485
255146278010656	-0.27259827	-0.4393921	-0.072631836
255146283015539	-0.42042542	-0.4784851	-0.010345459
255146288539221	-0.54382324	-0.5175781	0.067855835
255146293086340	-0.6317749	-0.56399536	0.14726257
255146298121740	-0.6830902	-0.6128845	0.21322632
255146303523352	-0.7002106	-0.6580658	0.26332092
255146308223059	-0.6830902	-0.6873932	0.30241394
255146312495520	-0.6830902	-0.6849518	0.30241394
255146318263342	-0.63423157	-0.6849518	0.33418274
255146323298742	-0.55358887	-0.6372986	0.36105347
255146328334143	-0.44363403	-0.53712463	0.37937927
255146333369543	-0.3055725	-0.39663696	0.38671875
255146338679602	-0.13821411	-0.23902893	0.38427734
255146343531897	0.057250977	-0.088760376	0.37205505
255146348475744	0.27105713	0.04685974	0.35372925
255146354213049	0.4897461	0.16656494	0.32685852
255146358546545	0.69621277	0.2826233	0.29508972
255146363246252	0.8868103	0.3974762	0.2572174
255146368617346	1.0590668	0.51231384	0.2193451
255146373683264	1.2142181	0.6137085	0.18025208
255146378688147	1.3449554	0.68214417	0.13871765
255146383784582	1.4414673	0.7041168	0.08618164
255146389155676	1.4964447	0.6711426	0.022659302
255146393794348	1.5123291	0.58929443	-0.04574585
255146398829748	1.495224	0.46954346	-0.11782837
255146404109289	1.456131	0.3217163	-0.18869019
255146408931066	1.4072571	0.15190125	-0.2619934
255146412318518	1.4072571	-0.032562256	-0.2619934
255146419062902	1.3009644	-0.032562256	-0.40737915
255146424006750	1.2362213	-0.40763855	-0.47091675
255146429042150	1.1494751	-0.56889343	-0.517334
255146434077551	1.0248566	-0.6971741	-0.53445435
255146439540197	0.8574829	-0.7875824	-0.51368713
255146444148352	0.65467834	-0.85842896	-0.45259094
255146449183752	0.4384308	-0.93174744	-0.36462402
255146454615881	0.228302	-1.0307007	-0.26811218
255146459285070	0.228302	-1.1626587	-0.18380737
255146464076330	0.03892517	-1.1626587	-0.18380737
255146469355871	-0.12232971	-1.3190308	-0.12516785
255146474391272	-0.24571228	-1.4778595	-0.09461975
255146479396154	-0.32025146	-1.6220093	-0.08729553
255146484431555	-0.3373413	-1.7490845	-0.09461975
255146489741613	-0.3031311	-1.859024	-0.108062744
255146494563391	-0.22862244	-1.9531097	-0.12272644
255146499537756	-0.12843323	-2.026413	-0.13493347
255146504969885	-0.020935059	-2.0728302	-0.14227295
255146509608557	0.082901	-2.0875092	-0.13983154
255146514399816	0.1806488	-2.0752716	-0.12760925
255146519679357	0.26861572	-2.039856	-0.095840454
255146524714758	0.35046387	-1.9860992	-0.042099
255146529780676	0.4274292	-1.9152374	0.03364563
255146534846594	0.4970703	-1.8297272	0.111831665
255146540156652	0.5557251	-1.7344208	0.17536926
255146544917395	0.60336304	-1.6366882	0.21202087
255146549922277	0.63879395	-1.5462646	0.21810913
255146555598547	0.6607971	-1.4656372	0.19490051
255146559962561	0.6717682	-1.3984375	0.14848328
255146564906408	0.6693268	-1.3483429	0.092285156
255146570063879	0.65223694	-1.3202515	0.04219055
255146575373938	0.62290955	-1.2994843	0.009216309
255146580134680	0.5813751	-1.2750549	-0.0030212402
255146585170080	0.5337219	-1.2384033	0.0018920898
255146590663244	0.4775238	-1.1944275	0.02142334
255146595210363	0.41522217	-1.1479797	0.04953003
255146600245764	0.34802246	-1.0978851	0.07762146
255146605677893	0.27716064	-1.0417023	0.10206604
255146610316564	0.27716064	-0.98062134	0.10206604
255146613673498	0.20265198	-0.98062134	0.11795044
255146620448400	0.12931824	-0.91342163	0.12283325
255146625453283	0.06581116	-0.8437805	0.11671448
255146630458166	0.023040771	-0.7765808	0.09838867
255146635493566	0.0010528564	-0.7130585	0.07640076
255146640986731	0.0022735596	-0.65197754	0.051971436
255146645564367	0.020599365	-0.59088135	0.03364563
255146650630285	0.05114746	-0.5322418	0.023864746
255146656337072	0.089019775	-0.4760437	0.026306152
255146660701086	0.12687683	-0.4247284	0.038528442
255146664058020	0.16108704	-0.38075256	0.055633545
255146670741369	0.19041443	-0.34165955	0.07029724
255146675776770	0.21485901	-0.30621338	0.083740234
255146680812170	0.23440552	-0.27079773	0.095947266
255146685847570	0.2441864	-0.23658752	0.108169556
255146691157629	0.24050903	-0.20359802	0.119155884
255146695948889	0.22462463	-0.17427063	0.13137817
255146700953772	0.1965332	-0.1486206	0.14848328
255146706446936	0.15988159	-0.1327362	0.16925049
255146711055090	0.11590576	-0.1278534	0.1900177
255146714503576	0.11590576	-0.1302948	0.1900177
255146721125891	0.030380249	-0.1302948	0.2193451
255146726130773	-0.0062713623	-0.13885498	0.2217865
255146731196691	-0.036819458	-0.14129639	0.21446228
255146736232092	-0.05758667	-0.14250183	0.19978333
255146742060949	-0.062469482	-0.1461792	0.18025208
255146746302893	-0.062469482	-0.15106201	0.15460205
255146751307775	-0.049041748	-0.15718079	0.15460205
255146756617834	-0.019714355	-0.15718079	0.120391846
255146761378576	0.018157959	-0.16082764	0.080062866
255146764796545	0.05847168	-0.1620636	0.034866333
255146771449377	0.097579956	-0.15718079	-0.010345459
255146776515295	0.13787842	-0.15106201	-0.051864624
255146781520178	0.17941284	-0.14738464	-0.09095764
255146786738684	0.22341919	-0.14985657	-0.12272644
255146793666174	0.32115173	-0.16082764	-0.15325928
255146796626379	0.32115173	-0.1962738	-0.15325928
255146801661779	0.3638916	-0.1962738	-0.14593506
255146807063391	0.3773346	-0.21704102	-0.12516785
255146811732580	0.33580017	-0.25001526	-0.092178345
255146815089514	0.23194885	-0.29644775	-0.056747437
255146821833898	0.089019775	-0.33432007	-0.023773193
255146826838781	-0.04660034	-0.33921814	0.0055389404
255146831874182	-0.13575745	-0.30500793	0.03730774
255146836909582	-0.16142273	-0.25001526	0.07640076
255146842372229	-0.13575745	-0.1962738	0.11061096
255146847010900	-0.083236694	-0.15350342	0.12771606
255146852046301	-0.030715942	-0.11929321	0.11795044
255146857692053	0.007171631	-0.08631897	0.083740234
255146862117102	0.029144287	-0.04598999	0.03364563
255146865443518	0.029144287	-0.0020141602	0.03364563
255146872157385	0.07191467	-0.0020141602	-0.072631836
255146877192785	0.11100769	0.07249451	-0.10928345
255146882228186	0.15988159	0.088378906	-0.13127136
255146887263586	0.20385742	0.087142944	-0.13737488
255146892634680	0.23194885	0.0712738	-0.13127136
255146897517492	0.23194885	0.043182373	-0.11294556
255146902430822	0.23318481	0.043182373	-0.11294556
255146908076574	0.15620422	0.0077667236	-0.049423218
255146912501623	0.15620422	-0.06187439	-0.049423218
255146915797522	0.09024048	-0.06187439	-0.012786865
255146922511389	0.016937256	-0.08996582	0.020202637
255146927577307	-0.050247192	-0.108291626	0.044631958
255146932582189	-0.09788513	-0.1144104	0.060516357
255146937648107	-0.1174469	-0.11317444	0.07273865
255146943080236	-0.107666016	-0.11317444	0.08618164
255146947688391	-0.07711792	-0.11808777	0.103271484
255146952723791	-0.034362793	-0.12541199	0.12159729
255146958430578	0.0132751465	-0.124176025	0.13137817
255146962794592	0.05480957	-0.11317444	0.13015747
255146966151525	0.082901	-0.0973053	0.11671448
255146972987463	0.09146118	-0.0826416	0.09472656
255146977931311	0.08413696	-0.071640015	0.06663513
255146982936193	0.064575195	-0.0667572	0.034866333
255146987971594	0.031600952	-0.060653687	0.007980347
255146993464758	-0.008712769	-0.052108765	-0.009109497
255146998103430	-0.049041748	-0.036224365	-0.0152282715
255147003077795	-0.08444214	-0.01423645	-0.012786865
255147009028723	-0.11010742	0.012649536	-0.0054626465
255147013148596	-0.12477112	0.040740967	0.0030975342
255147016505529	-0.12477112	0.06762695	0.0030975342
255147023249914	-0.12477112	0.06762695	0.012863159
255147028254797	-0.11010742	0.11036682	0.010421753
255147033290197	-0.08934021	0.11891174	0.0055389404
255147038356115	-0.08934021	0.11647034	0.0055389404
255147043635656	-0.062469482	0.11647034	0.004333496
255147048671057	-0.031921387	0.104263306	0.004333496
255147053462316	-0.002609253	0.083496094	0.0067749023
255147058741857	0.015716553	0.057861328	0.009216309
255147063533117	0.008377075	0.027297974	0.012863159
255147066859533	-0.027038574	-0.0068969727	0.011657715
255147073573400	-0.08079529	-0.039886475	0.0018920898
255147078608801	-0.13697815	-0.064315796	-0.0152282715
255147083644201	-0.17608643	-0.07409668	-0.034744263
255147088923742	-0.18951416	-0.07287598	-0.04574585
255147093959143	-0.17240906	-0.0667572	-0.048187256
255147099055578	-0.13331604	-0.06187439	-0.043304443
255147103785803	-0.08811951	-0.060653687	-0.034744263
255147109706213	-0.050247192	-0.055770874	-0.023773193
255147113856604	-0.02947998	-0.043548584	-0.012786865
255147117244055	-0.022155762	-0.025222778	-0.0030212402
255147123927404	-0.024597168	-0.0056762695	0.0067749023
255147128962805	-0.027038574	0.011428833	0.020202637
255147133998205	-0.024597168	0.021209717	0.039749146
255147139369299	-0.01727295	0.027297974	0.059295654
255147144496252	-0.0099487305	0.027297974	0.07640076
255147149287512	-0.008712769	0.022415161	0.08496094
255147154139807	-0.019714355	0.012649536	0.08496094
255147160182287	-0.044158936	0.0053253174	0.07518005
255147164210607	-0.08444214	0.0028686523	0.06173706
255147172114660	-0.13697815	0.0065307617	0.04953003
255147179713537	-0.2640381	0.023651123	0.039749146
255147184352209	-0.2640381	0.033416748	0.039749146
255147189418127	-0.32269287	0.033416748	0.038528442
255147194911291	-0.37522888	0.04197693	0.038528442
255147199702551	-0.42286682	0.04562378	0.038528442
255147204524328	-0.47172546	0.048065186	0.03730774
255147210719397	-0.5902405	0.05418396	0.03364563
255147214564611	-0.5902405	0.09326172	0.03364563
255147217921545	-0.662323	0.09326172	0.028747559
255147224665930	-0.7441864	0.12747192	0.02142334
255147229670813	-0.8309326	0.17022705	0.009216309
255147234706213	-0.91522217	0.22154236	-5.645752E-4
255147239833166	-0.9909668	0.27897644	-0.0042266846
255147245051672	-1.0496216	0.34127808	6.5612793E-4
255147250300695	-1.0887146	0.4035797	0.016540527
255147254847814	-1.1070404	0.46710205	0.044631958
255147260920813	-1.0997009	0.5318756	0.08618164
255147264918615	-1.06427	0.59661865	0.1399231
255147268275549	-0.9970856	0.6528168	0.20469666
255147274989416	-0.90545654	0.687027	0.2731018
255147280055334	-0.80036926	0.6882477	0.3390808
255147285060217	-0.6977539	0.6576996	0.39526367
255147290461828	-0.6073456	0.6039429	0.4367981
255147295375158	-0.53526306	0.5391998	0.46247864
255147300227453	-0.4815216	0.47444153	0.47836304
255147305171301	-0.4473114	0.4121399	0.48568726
255147311000158	-0.4338684	0.35836792	0.48812866
255147315242102	-0.44119263	0.31195068	0.48568726
255147318629553	-0.44119263	0.2716217	0.48568726
255147325373938	-0.47172546	0.2716217	0.46736145
255147330470373	-0.5291443	0.23986816	0.46736145
255147335414221	-0.6110077	0.21543884	0.45759583
255147340571691	-0.7185364	0.20199585	0.4526825
255147345851232	-0.846817	0.19589233	0.45391846
255147351100256	-0.98976135	0.19833374	0.46124268
255147355555822	-1.138794	0.21299744	0.46980286
255147361048986	-1.284195	0.24597168	0.47712708
255147365626623	-1.4210205	0.30462646	0.48080444
255147368983557	-1.5444183	0.39013672	0.47346497
255147375697424	-1.650711	0.49520874	0.44659424
255147380915930	-1.7374573	0.6039429	0.39405823
255147385737707	-1.8058624	0.70047	0.31707764
255147390986731	-1.8547363	0.77742004	0.22666931
255147396205236	-1.8840485	0.83239746	0.1399231
255147401606848	-1.8901672	0.87394714	0.067855835
255147405909826	-1.8706055	0.91181946	0.016540527
255147411464025	-1.8315125	0.94236755	-0.016433716
255147415980627	-1.7887573	0.94847107	-0.037200928
255147419368078	-1.7545471	0.91304016	-0.04698181
255147426051428	-1.7301025	0.81651306	-0.035980225
255147431269934	-1.7130127	0.6528168	0.0067749023
255147436122229	-1.6958923	0.44023132	0.08984375
255147441523840	-1.6751251	0.22399902	0.20713806
255147446437170	-1.6445923	0.059066772	0.3390808
255147452082922	-1.6103821	-0.022781372	0.4661255
255147456263830	-1.5761871	-0.024002075	0.5773163
255147461787512	-1.5517426	0.037078857	0.6677246
255147466334631	-1.5395355	0.13723755	0.73246765
255147469722082	-1.5395355	0.25941467	0.73246765
255147476374914	-1.540741	0.25941467	0.76911926
255147481807043	-1.5578613	0.39257813	0.77279663
255147486476232	-1.5896149	0.5318756	0.74468994
255147492274572	-1.6335907	0.6625824	0.6151886
255147496882727	-1.6812439	0.76397705	0.6151886
255147502284338	-1.7301025	0.82507324	0.5357666
255147506617834	-1.7741089	0.85440063	0.4551239
255147513057043	-1.8107452	0.86660767	0.37329102
255147516688635	-1.8351746	0.86172485	0.2914276
255147520045568	-1.8473969	0.8263092	0.21322632
255147526759436	-1.8461761	0.74076843	0.1399231
255147532100012	-1.829071	0.6051636	0.07762146
255147536799719	-1.7960815	0.4341278	0.027542114
255147542506506	-1.7496643	0.2508545	-0.0054626465
255147547267248	-1.6922455	0.0712738	-0.018875122
255147552913000	-1.620163	-0.0973053	-0.016433716
255147556971838	-1.5370941	-0.25369263	0.0030975342
255147562770178	-1.4442291	-0.39419556	0.032424927
255147567042639	-1.3440552	-0.5126953	0.06907654
255147570399572	-1.3440552	-0.6055298	0.06907654
255147577113439	-1.1375732	-0.6055298	0.14360046
255147582850744	-1.0300598	-0.72650146	0.17901611
255147587245275	-0.9164429	-0.74360657	0.21322632
255147592982580	-0.79304504	-0.70939636	0.24867249
255147597895910	-0.6574402	-0.6104431	0.28408813
255147603511145	-0.50593567	-0.45161438	0.31707764
255147607356359	-0.3287964	-0.25979614	0.3390808
255147613215734	-0.114990234	-0.06309509	0.34762573
255147617366125	-0.114990234	0.11282349	0.34762573
255147620753576	0.14276123	0.11282349	0.34028625
255147627467443	0.43966675	0.25209045	0.31951904
255147633265783	1.0920563	0.34127808	0.2669983
255147637538244	1.0920563	0.30827332	0.2669983
255147643916418	1.678482	0.30827332	0.28408813
255147647822668	1.678482	0.0028686523	0.28408813
255147653682043	1.8666382	0.0028686523	0.34396362
255147657679846	1.9179382	-0.1144104	0.46003723
255147663173010	1.7908783	-0.080200195	0.63716125
255147667750647	1.4976654	0.14457703	0.861969
255147671107580	1.1103821	0.50375366	1.094101
255147677821447	0.7194214	0.86050415	1.2956848
255147683680822	0.39445496	1.0914154	1.4545135
255147687892248	0.14764404	1.1634979	1.5852356
255147694148352	-0.034362793	1.1353912	1.7159576
255147698298742	-0.17729187	1.0901947	1.8711243
255147703913977	-0.29336548	1.075531	2.0531616
255147708033850	-0.3801117	1.087738	2.251068
255147713618566	-0.4363098	1.0987396	2.4526672
255147718135168	-0.4680786	1.0743103	2.6432343
255147721461584	-0.4680786	0.99490356	2.6432343
255147728205969	-0.49493408	0.99490356	2.8643646
255147733790686	-0.48640442	0.6638031	2.806961
255147738246252	-0.45095825	0.4365692	2.6016998
255147744044592	-0.38987732	0.20077515	2.2706146
255147748713781	-0.3165741	4.272461E-4	1.8760071
255147754481604	-0.24815369	-0.10952759	1.4899292
255147758387854	-0.24815369	-0.08996582	1.1661682
255147764369299	-0.16630554	-0.08996582	0.9255066
255147768458654	-0.16630554	0.22888184	0.9255066
255147771815588	-0.13821411	0.22888184	0.75935364
255147785243322	-0.013595581	0.40602112	0.5418854
255147788630773	-0.013595581	0.6393738	0.5418854
255147797480871	0.06213379	0.6393738	0.5528717
255147804957678	0.07191467	0.56362915	0.61395264
255147808711340	0.056030273	0.49520874	0.71902466
255147814662268	0.010818481	0.46099854	0.8607483
255147818812658	-0.058792114	0.49642944	1.019577
255147822169592	-0.14553833	0.6137085	1.1674042
255147828883459	-0.24450684	0.792099	1.2785797
255147834986975	-0.35690308	0.9997864	1.3359985
255147838954260	-0.47660828	1.206253	1.3359985
255147845423986	-0.5926819	1.3943939	1.2834625
255147849208166	-0.6830902	1.5458832	1.1918488
255147855037023	-0.7307434	1.643631	1.080658
255147859126379	-0.728302	1.6766205	0.9719238
255147864161779	-0.6721039	1.6534119	0.8827362
255147869197180	-0.5633545	1.5862122	0.8289795
255147872523596	-0.5633545	1.4713745	0.8289795
255147879237463	-0.21150208	1.4713745	0.83143616
255147885279943	-0.011154175	1.1072998	0.8668518
255147889308264	0.162323	0.90937805	0.91082764
255147895564367	0.28694153	0.753006	0.96336365
255147899775793	0.3614502	0.6564789	1.0269012
255147904414465	0.3614502	0.60762024	1.107544
255147909449865	0.38957214	0.60762024	1.107544
255147914820959	0.3748932	0.58073425	1.2028503
255147919520666	0.32235718	0.54776	1.3005676
255147922877600	0.24662781	0.50619507	1.3872986
255147929621984	0.17576599	0.4658966	1.4496307
255147935694982	0.13423157	0.43901062	1.4874878
255147939662268	0.13911438	0.44023132	1.5082703
255147946009924	0.18432617	0.48786926	1.5204773
255147949916174	0.2441864	0.60762024	1.5265961
255147954768469	0.29426575	0.81651306	1.5180359
255147959803869	0.32235718	1.0999756	1.4850464
255147965235998	0.34068298	1.4127197	1.4239807
255147969874670	0.36878967	1.6851807	1.3445587
255147973231604	0.41886902	1.8647614	1.265152
255147979945471	0.4958496	1.9270782	1.2003784
255147986110022	0.5948181	1.8818665	1.1551971
255147990016272	0.71087646	1.7572479	1.1209869
255147995051672	0.83547974	1.5886536	1.0916595
255148000270178	0.9601135	1.4139557	1.0659943
255148005122473	1.0724945	1.2661285	1.0403442
255148010157873	1.1592407	1.1586151	1.0085754
255148015406897	1.2068939	1.0804138	0.9658203
255148020228674	1.2117767	1.0083466	0.9120636
255148023555090	1.2117767	0.92648315	0.9120636
255148030299475	1.1665955	0.92648315	0.79722595
255148035304357	1.150711	0.7810974	0.74591064
255148040339758	1.150711	0.7505646	0.6994934
255148045405676	1.1665955	0.75177	0.6542816
255148050746252	1.2020111	0.778656	0.61151123
255148055476477	1.2020111	0.82263184	0.61151123
255148060481359	1.2557678	0.82263184	0.5724182
255148065760900	1.3229523	0.86660767	0.5345459
255148070582678	1.3901672	0.89227295	0.49545288
255148073970129	1.4365845	0.88739014	0.45635986
255148080683996	1.4500275	0.86416626	0.4209137
255148085780432	1.4353485	0.83729553	0.39038086
255148090693762	1.4121399	0.81163025	0.36228943
255148095790197	1.39505	0.7700958	0.33784485
255148101191809	1.3852539	0.6980133	0.31829834
255148105860998	1.3718414	0.60150146	0.3060913
255148110896398	1.3473969	0.50987244	0.29875183
255148116389563	1.3180695	0.45611572	0.29508972
255148120936682	1.2924194	0.45611572	0.2877655
255148124263098	1.2716522	0.50375366	0.27676392
255148131038000	1.2533264	0.5721741	0.25967407
255148136042883	1.2276611	0.63327026	0.23522949
255148141078283	1.1934509	0.6748047	0.20713806
255148146144201	1.1592407	0.6980133	0.18025208
255148151393225	1.1372681	0.7200012	0.16436768
255148156184484	1.1372681	0.7554474	0.16313171
255148161219885	1.1580353	0.8153076	0.17292786
255148166713049	1.1958923	0.90327454	0.18881226
255148171290686	1.2423248	1.0156708	0.20101929
255148174708654	1.2423248	1.1488342	0.20101929
255148181361486	1.3510437	1.1488342	0.20469666
255148186366369	1.4096985	1.4591522	0.19613647
255148191432287	1.4096985	1.6094208	0.1875763
255148196467688	1.4634552	1.7230377	0.1875763
255148201716711	1.4903412	1.7230377	0.18269348
255148206538488	1.4720154	1.7731323	0.18145752
255148211573889	1.39505	1.7450409	0.18881226
255148216883947	1.2655334	1.6460724	0.19978333
255148221644689	1.1018219	1.5031433	0.20957947
255148225032141	0.92466736	1.3491974	0.21078491
255148231715490	0.7499695	1.2087097	0.20101929
255148236781408	0.58625793	1.0914154	0.1875763
255148241786291	0.44210815	0.99246216	0.16925049
255148246821691	0.32847595	0.89837646	0.14848328
255148252253820	0.25273132	0.8079834	0.12649536
255148256892492	0.21485901	0.7334442	0.11305237
255148261958410	0.2099762	0.6967926	0.12159729
255148267329504	0.22950745	0.7200012	0.16069031
255148271998693	0.26739502	0.8128662	0.23155212
255148275355627	0.32115173	0.96313477	0.32929993
255148282069494	0.38833618	1.14151	0.44291687
255148287135412	0.46652222	1.3223114	0.5614319
255148292170813	0.5483856	1.4872589	0.67749023
255148297175695	0.6290283	1.6411896	0.7898865
255148302638342	0.703537	1.8012238	0.9035034
255148307246496	0.7731781	1.9820557	1.0244598
255148312281897	0.8391571	2.189743	1.1441956
255148317775061	0.89901733	2.4169922	1.2455902
255148322352697	0.9417877	2.6601105	1.3127899
255148325740148	0.9417877	2.9154358	1.3127899
255148332454016	0.96377563	2.9154358	1.3518829
255148337458898	0.96377563	3.427353	1.3531036
255148342494299	0.9552307	3.427353	1.3531036
255148347560217	0.94299316	3.6313782	1.36409
255148352778723	0.92466736	3.7425537	1.3848572
255148357631018	0.9002533	3.7181091	1.4068604
255148362635900	0.8660431	3.5483093	1.4117432
255148367915441	0.8208313	3.2624207	1.390976
255148372706701	0.75975037	2.9129944	1.3470001
255148376063635	0.68156433	2.5513763	1.2956848
255148382777502	0.58503723	2.2105103	1.2529144
255148387782385	0.4763031	1.9124146	1.2272644
255148392878820	0.36512756	1.6766205	1.2223816
255148397883703	0.27105713	1.5336761	1.238266
255148403346350	0.20509338	1.5153503	1.2749176
255148407985022	0.17697144	1.6472931	1.33844
255148412989904	0.19041443	1.9380798	1.4361877
255148418727209	0.24050903	2.3803406	1.5717926
255148423060705	0.32115173	2.9557648	1.7440643
255148426387121	0.41522217	3.6252747	1.9493103
255148433162023	0.5092926	4.3350983	2.177765
255148438197424	0.58503723	5.0192566	2.4196625
255148443232824	0.6314697	5.6154633	2.664032
255148448268225	0.6399994	6.0723877	2.8876038
255148453730871	0.60946655	6.3570404	3.064743
255148458339025	0.5435028	6.452347	3.1637115
255148463343908	0.45187378	6.3717194	3.1697998
255148469233801	0.34924316	6.150589	3.0806122
255148473414709	0.25395203	5.8329315	2.9120178
255148476771643	0.25395203	5.4615173	2.9120178
255148483516027	0.17697144	5.4615173	2.417221
255148488490393	0.12931824	5.0754547	2.417221
255148493586828	0.117111206	4.729706	2.1447906
255148498591711	0.13911438	4.4816895	1.9004517
255148504115393	0.18553162	4.380295	1.7147369
255148508693029	0.24295044	4.4389496	1.6096649
255148513697912	0.31259155	4.611206	1.6072235
255148519587805	0.42134094	4.8054657	1.7147369
255148523738195	0.5997009	4.9398346	1.9236603
255148527156164	0.8489227	5.0058136	2.2058716
255148533839514	1.1397095	5.065689	2.5259552
255148538874914	1.4280243	5.1646423	2.854599
255148543940832	1.6858063	5.27948	3.1771545
255148548945715	1.898407	5.3588867	3.4813538
255148554286291	2.0547638	5.394333	3.7550201
255148559047033	2.1451874	5.4126587	3.9846954
255148564082434	2.1610718	5.44075	4.1643066
255148569392492	2.1048584	5.484741	4.301132
255148574122717	1.9777985	5.545822	4.4086456
255148577510168	1.9777985	5.6240234	4.499054
255148584193518	1.5294342	5.7058716	4.5735626
255148589289953	1.2398834	5.77063	4.621216
255148594294836	0.94299316	5.804825	4.623657
255148599330236	0.66812134	5.803604	4.5662384
255148605250647	0.44210815	5.760849	4.4526215
255148609401037	0.28450012	5.672882	4.298691
255148614405920	0.20629883	5.5482635	4.1288605
255148620326330	0.20874023	5.413864	3.9614868
255148624476721	0.28450012	5.306366	3.8063354
255148627833654	0.28450012	5.2526093	3.8063354
255148634608557	0.4139862	5.2526093	3.663391
255148639613439	0.57525635	5.258713	3.5351105
255148644679357	0.74142456	5.3039246	3.423935
255148649684240	0.8892517	5.3576813	3.3383942
255148655543615	1.00531	5.3821106	3.293213
255148659785559	1.0834961	5.3430176	3.2846527
255148664790441	1.1311493	5.23674	3.2956543
255148670710852	1.1519165	5.0998993	3.2980957
255148674830725	1.1494751	4.978958	3.269989
255148678187658	1.1225891	4.9056244	3.2076874
255148684962561	1.0676117	4.87265	3.1221771
255148689906408	0.98576355	4.8543243	3.0268707
255148694972326	0.8806915	4.834778	2.9401398
255148700038244	0.7646332	4.811569	2.8766022
255148705287268	0.6424713	4.7883606	2.8362732
255148710078527	0.52149963	4.770035	2.803299
255148715144445	0.40422058	4.7614746	2.7495422
255148720637609	0.28816223	4.765152	2.6517944
255148725215246	0.1647644	4.763916	2.505188
255148728541662	0.1647644	4.732147	2.505188
255148735255529	-0.13575745	4.732147	2.0849152
255148740290930	-0.3006897	4.5183563	1.8039246
255148745356848	-0.44607544	4.3558655	1.482605
255148750392248	-0.55358887	4.1896973	1.158844
255148755702307	-0.6195679	4.0394287	0.888855
255148760432531	-0.6537781	3.9221497	0.7153778
255148765467932	-0.6598816	3.8439636	0.63716125
255148770808508	-0.636673	3.7950897	0.62739563
255148775538732	-0.636673	3.7608795	0.62739563
255148778895666	-0.58169556	3.7608795	0.6591644
255148785670568	-0.497406	3.7364502	0.7239075
255148790675451	-0.39353943	3.7266693	0.81921387
255148795741369	-0.2738037	3.7352295	0.92915344
255148800715734	-0.14797974	3.751114	1.0232391
255148806636145	-0.022155762	3.751114	1.0757751
255148810786535	0.09024048	3.7266693	1.0708923
255148815821936	0.17208862	3.685135	1.0110168
255148821284582	0.2099762	3.6374817	0.90838623
255148825892736	0.19285583	3.5947266	0.7764435
255148829249670	0.12199402	3.5629578	0.6335144
255148835994055	0.0010528564	3.5592957	0.49913025
255148840998938	-0.16508484	3.597168	0.39282227
255148846034338	-0.37277222	3.6863708	0.32929993
255148851100256	-0.60002136	3.815857	0.31097412
255148856379797	-0.80892944	3.9465942	0.32685852
255148861171057	-0.945755	4.022339	0.37083435
255148866175939	-0.97387695	4.008896	0.44291687
255148871699621	-0.88835144	3.9209137	0.5504303
255148876246740	-0.7160797	3.8012085	0.6921387
255148879634191	-0.7160797	3.6826935	0.6921387
255148886317541	-0.2738037	3.6826935	1.0073547
255148891352941	-0.06123352	3.43956	1.1356354
255148896388342	0.12687683	3.2917328	1.2272644
255148901423742	0.27960205	3.1268005	1.2846832
255148906733801	0.393219	2.9655304	1.3042297
255148911494543	0.46043396	2.8348236	1.2846832
255148916560461	0.46043396	2.7517242	1.2297058
255148922236731	0.472641	2.7517242	1.1515198
255148926600744	0.472641	2.6991882	1.1515198
255148929957678	0.43110657	2.6991882	1.0696564
255148936702063	0.36756897	2.7016602	1.0012512
255148941676428	0.28572083	2.7114258	0.9487152
255148946772863	0.19165039	2.7285156	0.9059448
255148951777746	0.0987854	2.7492828	0.8607483
255148957301428	0.015716553	2.7688446	0.8082123
255148961879064	-0.04536438	2.783493	0.74713135
255148966883947	-0.086883545	2.7932892	0.68237305
255148972224523	-0.11010742	2.7993774	0.6225128
255148976985266	-0.12477112	2.8042755	0.5711975
255148980281164	-0.13697815	2.8115997	0.5345459
255148987056066	-0.15286255	2.8262634	0.51989746
255148992091467	-0.16630554	2.8519135	0.5369873
255148997096350	-0.17729187	2.8824615	0.59198
255149002131750	-0.18096924	2.911789	0.6811676
255149007594397	-0.17729187	2.9472046	0.7947693
255149012233068	-0.16874695	2.9960938	0.9181824
255149017298986	-0.15530396	3.054718	1.03302
255149023036291	-0.13331604	3.1109314	1.1173096
255149027308752	-0.099121094	3.1475677	1.1576385
255149030665686	-0.099121094	3.1585693	1.1576385
255149037410070	0.019378662	3.1585693	1.0879822
255149042414953	0.09024048	3.1133728	0.9963684
255149047450354	0.16108704	3.0669403	0.8864136
255149052485754	0.23194885	3.0046234	0.77279663
255149057826330	0.30526733	2.9264374	0.66648865
255149062587072	0.30526733	2.832367	0.66648865
255149067591955	0.3773346	2.832367	0.5711975
255149073451330	0.4921875	2.7224274	0.37693787
255149077662756	0.4921875	2.4695282	0.37693787
255149081050207	0.53616333	2.4695282	0.2535553
255149087733557	0.57769775	2.330246	0.10450745
255149092768957	0.6131439	2.1921844	-0.059188843
255149097804357	0.637558	2.063919	-0.2277832
255149102839758	0.6473541	1.9551697	-0.38539124
255149108149816	0.6473541	1.8684235	-0.5222168
255149112910559	0.64123535	1.7975769	-0.6260681
255149117976477	0.63391113	1.7377167	-0.6896057
255149123286535	0.6265869	1.6900635	-0.70669556
255149128016760	0.62046814	1.6558533	-0.68348694
255149131373693	0.62535095	1.6387482	-0.6248474
255149138087561	0.6473541	1.6363068	-0.53445435
255149143153479	0.6876526	1.6424103	-0.42082214
255149148188879	0.74142456	1.6509705	-0.29008484
255149153193762	0.8073883	1.6595154	-0.15325928
255149158686926	0.88313293	1.6643982	-0.022537231
255149163264563	0.97109985	1.6595154	0.08862305
255149168299963	1.0627289	1.6375275	0.1716919
255149173640539	1.1616821	1.5996552	0.24134827
255149178370764	1.2423248	1.552002	0.31219482
255149181727697	1.2423248	1.5666656	0.31219482
255149188441564	0.77685547	1.5666656	0.08984375
255149193507482	0.04624939	1.8904266	-0.36828613
255149198512365	-0.7698364	1.8134613	-0.8753052
255149203578283	-1.3562622	1.2978973	-1.1453094
255149208979895	-1.5297394	0.56729126	-1.0341339
255149213649084	-1.5297394	0.1360321	-1.0341339
255149218684484	-1.256073	0.1360321	-0.6199646
255149224177648	-0.6549988	0.29241943	-0.09095764
255149228755285	-0.079559326	0.84095764	0.39038086
255149232051184	0.04624939	1.3528595	0.73490906
255149238795568	-0.37522888	1.5703278	0.9035034
255149243830969	-0.9970856	1.4884644	0.874176
255149248866369	-1.4149017	1.2478027	0.631073
255149253901770	-1.540741	1.0059052	0.21810913
255149259181311	-1.5419769	0.8629608	-0.2571106
255149263972570	-1.5603027	0.83239746	-0.69081116
255149269038488	-1.6274872	0.84339905	-1.0475769
255149274531652	-1.7117767	0.8336334	-1.3358917
255149279078772	-1.7435455	0.8079834	-1.5582428
255149282435705	-1.6372681	0.77986145	-1.6828766
255149289149572	-1.3636017	0.7358856	-1.6889648
255149294154455	-0.9909668	0.6796875	-1.5948944
255149299220373	-0.6317749	0.6381531	-1.453186
255149304255773	-0.3642273	0.63082886	-1.3224487
255149309565832	-0.18707275	0.646698	-1.2418213
255149314357092	-0.05392456	0.6650238	-1.2173767
255149319361975	0.07801819	0.6809082	-1.2247314
255149325099279	0.23074341	0.6967926	-1.2173767
255149329493811	0.41278076	0.70047	-1.1489563
255149332759191	0.41278076	0.6796875	-1.1489563
255149339503576	0.8257141	0.6796875	-0.78245544
255149344569494	1.00531	0.5929413	-0.5527649
255149349574377	1.00531	0.56973267	-0.35240173
255149354640295	1.1311493	0.56973267	-0.35240173
255149360072424	1.2044525	0.55752563	-0.108062744
255149364741613	1.2447662	0.48298645	-0.108062744
255149369746496	1.2728729	0.48298645	-0.050628662
255149375605871	1.289978	0.42800903	-0.0042266846
255149379786779	1.2924194	0.3986969	0.055633545
255149383143713	1.2740936	0.4121399	0.13627625
255149389857580	1.2386627	0.45977783	0.23155212
255149394892981	1.1910095	0.520874	0.3231964
255149399958898	1.1311493	0.57585144	0.39770508
255149404963781	1.0541687	0.6222687	0.44291687
255149410304357	0.96255493	0.6564789	0.45635986
255149415034582	0.8709259	0.6748047	0.44171143
255149420100500	0.7963867	0.6699219	0.41358948
255149425959875	0.74264526	0.6381531	0.38427734
255149430140783	0.69132996	0.586853	0.36839294
255149433528234	0.59846497	0.53552246	0.37817383
255149440211584	0.42866516	0.5135498	0.42338562
255149445246984	0.20019531	0.53063965	0.49301147
255149450343420	-0.0099487305	0.56729126	0.5565338
255149455317785	-0.12721252	0.586853	0.5883026
255149461055090	-0.14675903	0.57341003	0.5809784
255149465388586	-0.12843323	0.5391998	0.5455475
255149470454504	-0.12843323	0.5025482	0.48812866
255149475703527	-0.16752625	0.47322083	0.41238403
255149480494787	-0.23594666	0.45489502	0.3231964
255149483882238	-0.23594666	0.45489502	0.3231964
255149490596106	-0.42042542	0.45489502	0.12771606
255149495570471	-0.42042542	0.49398804	0.12771606
255149500636389	-0.5022888	0.49398804	0.027542114
255149505671789	-0.549942	0.5049896	-0.06895447
255149511134436	-0.55114746	0.4976654	-0.15325928
255149515742590	-0.51449585	0.47198486	-0.22290039
255149520777990	-0.44607544	0.4353485	-0.2742157
255149526118566	-0.3495636	0.3974762	-0.29988098
255149530909826	-0.23350525	0.35472107	-0.29864502
255149534175207	-0.10644531	0.3058319	-0.26931763
255149540950109	0.019378662	0.2532959	-0.22290039
255149545985510	0.124435425	0.20077515	-0.16426086
255149550990393	0.19285583	0.14945984	-0.09461975
255149556056311	0.21485901	0.104263306	-0.0152282715
255149561457922	0.19285583	0.07249451	0.06539917
255149566127111	0.1464386	0.063949585	0.12893677
255149571193029	0.09512329	0.07493591	0.16192627
255149576625158	0.05847168	0.09082031	0.16680908
255149581202795	0.045028687	0.1018219	0.16313171
255149584559729	0.048706055	0.10548401	0.16680908
255149591273596	0.04624939	0.10548401	0.18513489
255149596308996	0.019378662	0.10058594	0.21322632
255149601338727	-0.023391724	0.09326172	0.24867249
255149606374127	-0.06123352	0.088378906	0.2877655
255149611684186	-0.0856781	0.08959961	0.33418274
255149616444928	-0.10520935	0.095703125	0.38549805
255149621510846	-0.13087463	0.10670471	0.43559265
255149626912457	-0.15530396	0.12991333	0.4710083
255149631551129	-0.16874695	0.15802002	0.48080444
255149634908062	-0.16874695	0.17022705	0.48080444
255149641591412	-0.16630554	0.17022705	0.46003723
255149646657330	-0.16020203	0.15190125	0.42214966
255149651692730	-0.16752625	0.111587524	0.38427734
255149656728131	-0.20661926	0.07373047	0.35861206
255149662007672	-0.28604126	0.056625366	0.35372925
255149666798932	-0.39231873	0.06518555	0.36961365
255149671864850	-0.50717163	0.09449768	0.40382385
255149677144391	-0.61468506	0.13113403	0.44779968
255149681935650	-0.7002106	0.16900635	0.48324585
255149685231549	-0.7441864	0.20687866	0.4868927
255149692006451	-0.7160797	0.24964905	0.4367981
255149697011334	-0.6110077	0.28874207	0.33174133
255149702046734	-0.4656372	0.3009491	0.2034607
255149707082135	-0.3397827	0.26185608	0.08618164
255149712453228	-0.2738037	0.18244934	-0.006668091
255149717152936	-0.2664795	0.107925415	-0.088516235
255149722188336	-0.2896881	0.08226013	-0.15081787
255149727620465	-0.31169128	0.11282349	-0.15815735
255149732259137	-0.3190155	0.16900635	-0.09828186
255149735616070	-0.3190155	0.22154236	0.0018920898
255149742329937	-0.34346008	0.22154236	0.092285156
255149747395855	-0.40698242	0.34127808	0.15092468
255149752400738	-0.49861145	0.47566223	0.18269348
255149757466656	-0.5767975	0.6980133	0.19490051
255149762715680	-0.61468506	1.0022278	0.19125366
255149767506939	-0.6220093	1.3553162	0.18025208
255149772511822	-0.6317749	1.7279205	0.17781067
255149777974469	-0.6721039	2.115219	0.19734192
255149782582623	-0.6721039	2.5245056	0.2364502
255149785970074	-0.74783325	2.5245056	0.2364502
255149792836529	-0.83213806	2.9520874	0.2828827
255149797688824	-0.87734985	3.361374	0.3231964
255149802754742	-0.84436035	3.707138	0.35617065
255149807790143	-0.7441864	3.9612427	0.38549805
255149813039166	-0.6415558	4.1286316	0.41603088
255149817860943	-0.6073456	4.2239075	0.44779968
255149822896344	-0.6647644	4.260559	0.47836304
255149828297955	-0.7857208	4.2459106	0.512558
255149832967144	-0.9408722	4.17749	0.5540924
255149836354596	-1.1326904	4.0382233	0.5895233
255149843007428	-1.3440552	3.8134155	0.578537
255149848042828	-1.5028839	3.5104218	0.48568726
255149853108746	-1.5199738	3.1500092	0.31829834
255149858144146	-1.3587036	2.7370758	0.14480591
255149863362652	-1.0728302	2.2532806	0.03730774
255149868245465	-0.76371765	1.6949463	0.022659302
255149873250348	-0.5047302	1.1085205	0.056854248
255149878529889	-0.31292725	0.58073425	0.08128357
255149883321148	-0.17608643	0.19467163	0.07395935
255149886678082	-0.17608643	-0.019119263	0.07395935
255149893422467	-0.0062713623	-0.019119263	0.038528442
255149898457867	0.027938843	-0.08631897	0.039749146
255149903462750	0.032821655	-0.07043457	0.04219055
255149908528668	0.016937256	-0.05821228	0.038528442
255149913899762	-0.011154175	-0.016677856	0.032424927
255149918599469	-0.05392456	0.11891174	0.028747559
255149923634869	-0.11010742	0.3620453	0.02998352
255149929372174	-0.15530396	0.62838745	0.03364563
255149933644635	-0.15530396	0.7713318	0.03364563
255149937032086	-0.15164185	0.7713318	0.027542114
255149943745953	-0.0697937	0.673584	-0.007904053
255149948781353	0.09024048	0.34371948	-0.076293945
255149953786236	0.31259155	-0.08143616	-0.16059875
255149958852154	0.57159424	-0.42596436	-0.23022461
255149964131695	0.8293915	-0.58599854	-0.27175903
255149968922955	1.0541687	-0.59576416	-0.2913208
255149973927838	1.232544	-0.55911255	-0.3023224
255149979421002	1.3718414	-0.55911255	-0.3108673
255149983998639	1.4781189	-0.600647	-0.31697083
255149987386090	1.5502014	-0.64097595	-0.31697083
255149994099957	1.5795288	-0.63974	-0.3108673
255149999104840	1.559967	-0.57987976	-0.30352783
255150004201275	1.4891205	-0.4699402	-0.29864502
255150009206158	1.3718414	-0.32089233	-0.29988098
255150014485699	1.2203369	-0.13761902	-0.29743958
255150019276959	1.0505219	0.08959961	-0.28276062
255150024312359	0.8794861	0.37670898	-0.25587463
255150029561383	0.730423	0.7236786	-0.22657776
255150034352643	0.6241455	1.101181	-0.19845581
255150037740094	0.6241455	1.4530487	-0.19845581
255150044423443	0.58625793	1.4530487	-0.12516785
255150049458844	0.66567993	1.8073425	-0.05796814
255150054524762	0.8073883	1.7169342	0.031188965
255150059529644	1.0028687	1.4481659	0.13137817
255150064931256	1.2252197	1.0596466	0.22302246
255150069630963	1.4329071	0.6381531	0.27798462
255150074696881	1.4329071	0.26185608	0.27798462
255150079976422	1.5782928	0.26185608	0.18145752
255150084737164	1.6235046	-0.0056762695	0.18145752
255150088094098	1.5587616	-0.12297058	0.04219055
255150094777447	1.3974915	-0.0667572	-0.12272644
255150099873883	1.1653595	0.15556335	-0.29008484
255150104878766	0.8953705	0.48666382	-0.45259094
255150109944684	0.61434937	0.8348541	-0.6040802
255150115254742	0.33947754	1.1072998	-0.7323761
255150120015484	0.080459595	1.2478027	-0.82276917
255150125081402	-0.15776062	1.2490082	-0.8618622
255150130544049	-0.3715515	1.1427307	-0.8496399
255150135091168	-0.55358887	0.97657776	-0.7934418
255150138448102	-0.7002106	0.805542	-0.70913696
255150145161969	-0.8126068	0.6723633	-0.6053009
255150150197369	-0.89079285	0.59906006	-0.48680115
255150155263287	-0.93966675	0.5904999	-0.36340332
255150160298687	-0.9640808	0.63204956	-0.24734497
255150166005475	-0.9665222	0.7029114	-0.15447998
255150170308453	-0.9494324	0.7713318	-0.08483887
255150175374371	-0.91400146	0.8031006	-0.031097412
255150180837018	-0.86634827	0.77986145	0.015319824
255150185445172	-0.8126068	0.7187958	0.06173706
255150188802105	-0.8126068	0.6576996	0.06173706
255150195577008	-0.6855316	0.6576996	0.16925049
255150200520855	-0.6049042	0.61860657	0.2376709
255150205586773	-0.51449585	0.6137085	0.31707764
255150210622174	-0.42042542	0.60272217	0.40994263
255150215871197	-0.3324585	0.61616516	0.5076752
255150220692975	-0.3324585	0.6980133	0.5076752
255150225728375	-0.25427246	0.6980133	0.5944214
255150231038434	-0.18463135	0.86050415	0.656723
255150235860211	-0.11376953	1.0608826	0.69581604
255150239156109	-0.030715942	1.2257996	0.71902466
255150245931012	0.07435608	1.29422	0.73735046
255150250905377	0.20629883	1.2526855	0.75323486
255150255940777	0.35656738	1.1244049	0.75691223
255150260976178	0.49829102	0.9386902	0.7153778
255150266377789	0.60458374	0.71635437	0.5993042
255150271046978	0.6632385	0.5001068	0.42826843
255150276112896	0.67544556	0.363266	0.27676392
255150281575543	0.651001	0.3657074	0.20469666
255150286153180	0.5997009	0.49275208	0.2034607
255150289510113	0.5349426	0.6552582	0.21810913
255150296254498	0.4738617	0.7762146	0.20713806
255150301320416	0.432312	0.8360748	0.17048645
255150306294781	0.4091034	0.86172485	0.12159729
255150311360699	0.3981018	0.87394714	0.071517944
255150316640240	0.38833618	0.87638855	0.027542114
255150321400982	0.37245178	0.86416626	-0.009109497
255150326466900	0.35046387	0.8360748	-0.039657593
255150331868512	0.32725525	0.8018646	-0.06530762
255150336476666	0.30892944	0.77986145	-0.088516235
255150339864117	0.30892944	0.77986145	-0.088516235
255150346577984	0.29548645	0.77986145	-0.14103699
255150351613385	0.35168457	0.7676544	-0.16304016
255150356679303	0.5031738	0.63204956	-0.16304016
255150361684186	0.5031738	0.35836792	-0.12394714
255150366994244	0.96377563	0.35836792	-0.044540405
255150371754986	0.96377563	-0.15350342	-0.044540405
255150376820904	1.0664063	-0.15350342	0.056854248
255150382283551	1.0114136	-0.10585022	0.14848328
255150386861187	0.8758087	0.12625122	0.20713806
255150390248639	0.7634125	0.3791504	0.2217865
255150396993023	0.72798157	0.534317	0.20469666
255150401936871	0.7475281	0.58439636	0.17901611
255150407002789	0.7682953	0.59906006	0.16069031
255150412038189	0.75730896	0.63571167	0.15704346
255150417287213	0.7133179	0.7102356	0.15948486
255150422139508	0.6583557	0.80062866	0.14970398
255150427205426	0.61190796	0.87638855	0.10572815
255150432484967	0.5923767	0.91426086	0.01776123
255150437276227	0.6216736	0.89227295	-0.11538696
255150440572125	0.71821594	0.79086304	-0.2754364
255150447316510	0.88557434	0.61006165	-0.43426514
255150452351910	1.1079407	0.3876953	-0.5625458
255150457326275	1.3461609	0.20443726	-0.6431732
255150462422711	1.5526428	0.16656494	-0.69081116
255150467702252	1.6723633	0.3241577	-0.73114014
255150472493512	1.6858063	0.6051636	-0.77879333
255150477528912	1.6186218	0.8654022	-0.82398987
255150482930523	1.5257568	1.0046692	-0.8606415
255150487569195	1.4524689	1.0291138	-0.893631
255150490926129	1.4524689	1.0022278	-0.893631
255150497609478	1.3742828	1.0022278	-0.9449463
255150502644879	1.3388367	0.94480896	-0.9315033
255150507710797	1.3388367	0.93748474	-0.9315033
255150512746197	1.2960815	0.93748474	-0.8838501
255150518208844	1.2521057	0.9618988	-0.7189331
255150522816998	1.2130127	1.0205536	-0.7189331
255150527852398	1.1775665	1.1060638	-0.6248474
255150533254010	1.1409149	1.206253	-0.5381012
255150537923199	1.1042633	1.3052216	-0.46723938
255150541310650	1.0676117	1.3809662	-0.41958618
255150547994000	1.0370789	1.4188385	-0.40493774
255150552998883	1.0199738	1.4200592	-0.43302917
255150558095318	1.0224152	1.4029541	-0.51123047
255150563130719	1.0456238	1.385849	-0.635849
255150568379742	1.0920563	1.3797455	-0.7958832
255150573171002	1.1604767	1.3870697	-0.9705963
255150578175885	1.2484283	1.4005127	-1.1416321
255150583485943	1.3510437	1.4163971	-1.2943573
255150588307721	1.4671173	1.4359283	-1.4201813
255150591634137	1.5905151	1.4603729	-1.5106049
255150598378521	1.7187958	1.4933472	-1.5606995
255150603352887	1.845871	1.5324707	-1.5716858
255150608388287	1.9643707	1.5605621	-1.5570221
255150613454205	2.0743256	1.5581207	-1.5313721
255150618794781	2.1708374	1.5043488	-1.5032806
255150623525006	2.2502441	1.3931732	-1.4776001
255150628590924	2.3101044	1.241684	-1.4543915
255150633870465	2.3504333	1.0840912	-1.4360657
255150638600689	2.373642	0.96313477	-1.4226227
255150641957623	2.373642	0.9008179	-1.4226227
255150648671490	2.3846436	0.9008179	-1.3835297
255150653737408	2.3834076	0.91426086	-1.3835297
255150658742291	2.3650818	0.91426086	-1.3407745
255150663838727	2.3321075	0.93136597	-1.2809143
255150669331891	2.2844543	0.92526245	-1.2112885
255150673879010	2.224594	0.88983154	-1.13797
255150678914410	2.154953	0.82751465	-1.0622253
255150684407574	2.0718842	0.74565125	-0.98524475
255150688954693	1.9765778	0.6479187	-0.9082947
255150692342144	1.8654022	0.53552246	-0.83865356
255150699056012	1.7334595	0.4182434	-0.78611755
255150704060894	1.5721893	0.30706787	-0.7580261
255150709187848	1.3828125	0.22154236	-0.7580261
255150714192730	1.1702423	0.16778564	-0.78123474
255150719807965	0.94299316	0.14457703	-0.82032776
255150724233014	0.7133179	0.13847351	-0.8679657
255150729268414	0.4885254	0.13235474	-0.9229431
255150734700543	0.27349854	0.11526489	-0.9767151
255150739369732	0.07069397	0.088378906	-1.0255737
255150742696148	-0.1174469	0.059066772	-1.0658875
255150749471051	-0.28604126	0.035858154	-1.1062164
255150754445416	-0.4289856	0.024856567	-1.1501923
255150759480816	-0.5389404	0.032196045	-1.1941681
255150764516217	-0.61224365	0.055419922	-1.2247314
255150769826275	-0.6537781	0.0859375	-1.2271729
255150774587018	-0.6696472	0.107925415	-1.2027283
255150779622418	-0.6635437	0.104263306	-1.1526337
255150784871441	-0.636673	0.0688324	-1.0817719
255150789876324	-0.5902405	0.012649536	-0.9925995
255150793019635	-0.5902405	-0.047210693	-0.9925995
255150802327496	-0.45829773	-0.047210693	-0.77511597
255150809926373	-0.3837738	-0.15594482	-0.6688385
255150814870221	-0.30924988	-0.2121582	-0.5796509
255150820760113	-0.24327087	-0.26101685	-0.47579956
255150824941021	-0.19073486	-0.29278564	-0.47579956
255150830251080	-0.15530396	-0.30377197	-0.4537964
255150835408551	-0.13087463	-0.30133057	-0.44526672
255150840169293	-0.10644531	-0.29034424	-0.44158936
255150843373639	-0.075912476	-0.26957703	-0.43547058
255150850240094	-0.031921387	-0.24024963	-0.42326355
255150855183941	0.018157959	-0.2097168	-0.40005493
255150860524518	0.06947327	-0.18771362	-0.37072754
255150865224225	0.11100769	-0.18405151	-0.3414154
255150871297223	0.13543701	-0.20115662	-0.3243103
255150875295025	0.13911438	-0.24024963	-0.3279724
255150880513531	0.117111206	-0.29522705	-0.35484314
255150885793072	0.06581116	-0.3587494	-0.39761353
255150890645367	-0.018493652	-0.42352295	-0.44647217
255150893788678	-0.018493652	-0.48458862	-0.44647217
255150900899273	-0.23594666	-0.48458862	-0.5295563
255150905476910	-0.31781006	-0.6153259	-0.5613098
255150911031109	-0.35934448	-0.68130493	-0.5918579
255150915608746	-0.37277222	-0.7240448	-0.6248474
255150921681744	-0.378891	-0.72772217	-0.661499
255150925649029	-0.3801117	-0.69595337	-0.69325256
255150930775982	-0.35934448	-0.6507416	-0.70669556
255150935994488	-0.3006897	-0.61164856	-0.69081116
255150941640240	-0.20785522	-0.58232117	-0.6529541
255150951711041	-0.042922974	-0.55422974	-0.6028595
255150955861432	-0.042922974	-0.4601593	-0.6028595
255150961629254	-0.02947998	-0.4601593	-0.67248535
255150965932232	-0.070999146	-0.41007996	-0.67248535
255150971394879	-0.15530396	-0.3770752	-0.73358154
255150980214459	-0.39353943	-0.36730957	-0.8643036
255150986073834	-0.51205444	-0.4002838	-0.94859314
255150991719586	-0.60002136	-0.474823	-1.0585632
255150994466168	-0.6427765	-0.60432434	-1.1831665
255151002034527	-0.6427765	-0.7570343	-1.2870331
255151006245953	-0.62323	-0.86698914	-1.3261261
255151012044293	-0.609787	-0.87431335	-1.2638245
255151016286236	-0.6281128	-0.7594757	-1.1013184
255151021931988	-0.6794281	-0.53590393	-0.8753052
255151026357037	-0.7307434	-0.26101685	-0.6553955
255151032307965	-0.7380676	-0.016677856	-0.51612854
255151036885602	-0.6794281	0.12991333	-0.49780273
255151042348248	-0.5719147	0.17756653	-0.59552
255151052327496	-0.3165741	0.17390442	-0.9571533
255151056569439	-0.19805908	0.20565796	-1.1184235
255151062642437	-0.09788513	0.26065063	-1.2137299
255151066640240	-0.01727295	0.32539368	-1.2308197
255151072408062	0.05114746	0.38891602	-1.1697235
255151076741559	0.120788574	0.4500122	-1.0451202
255151082478863	0.20385742	0.5001068	-0.8704071
255151087239605	0.29914856	0.5245209	-0.661499
255151092732769	0.3981018	0.5159912	-0.43914795
255151102864605	0.55326843	0.4793396	-0.06286621
255151106892926	0.55326843	0.3974762	-0.06286621
255151113087994	0.5581665	0.3974762	0.08128357
255151116994244	0.5581665	0.4121399	0.08128357
255151122701031	0.4787445	0.4121399	0.07884216
255151127095562	0.3455658	0.468338	0.06295776
255151133290631	0.16352844	0.54408264	0.04953003
255151137837750	-0.060028076	0.6222687	0.03730774
255151143330914	-0.31169128	0.6943512	0.012863159
255151153432232	-0.7918396	0.77253723	-0.10684204
255151157277447	-0.97875977	0.7468872	-0.19236755
255151163197857	-1.1314697	0.673584	-0.28764343
255151167348248	-1.2621918	0.57585144	-0.39761353
255151173146588	-1.3770294	0.48666382	-0.5319977
255151177388531	-1.4759979	0.42800903	-0.6871643
255151183736187	-1.5615082	0.40724182	-0.83132935
255151187672955	-1.6397095	0.4145813	-0.93270874
255151193318707	-1.7154541	0.4329071	-0.9767151
255151195851666	-1.7154541	0.44145203	-0.9767151
255151203572613	-1.8388519	0.44145203	-0.9290619
255151207631451	-1.8828278	0.3938141	-0.85453796
255151213765484	-1.9231415	0.32907104	-0.75434875
255151217732769	-1.9646759	0.23620605	-0.6370697
255151223622662	-2.0086823	0.11282349	-0.530777
255151227742535	-2.0086823	-0.039886475	-0.46479797
255151233632428	-2.0941925	-0.20727539	-0.46359253
255151238210064	-2.0941925	-0.35754395	-0.5283356
255151243886334	-2.1687164	-0.46138	-0.6468353
255151254140240	-2.1858063	-0.5090332	-0.9632721
255151257954937	-2.1858063	-0.4809265	-0.9632721
255151264241559	-2.1552734	-0.4809265	-1.2577057
255151268056256	-2.0856323	-0.42840576	-1.2577057
255151273732525	-1.961029	-0.329422	-1.3859863
255151278096539	-1.7814331	-0.108291626	-1.5313721
255151284291607	-1.5981598	0.29730225	-1.6865234
255151288411480	-1.501648	0.81651306	-1.7977142
255151294484478	-1.5468597	1.2465668	-1.7940369
255151304585797	-1.8473969	1.333313	-1.466629
255151308308941	-1.9133759	1.1683807	-1.2601471
255151314839703	-1.8828278	1.1085205	-1.0878906
255151318440777	-1.7997589	1.2478027	-0.9583893
255151324147564	-1.7154541	1.5703278	-0.85697937
255151328481061	-1.6555939	1.9710541	-0.75434875
255151335011822	-1.6152649	2.3180237	-0.6199646
255151338765484	-1.5712891	2.512268	-0.45014954
255151344960553	-1.4992065	2.5037384	-0.27911377
255151353658062	-1.243866	2.281372	-0.11416626
255151358693463	-1.0789337	1.3455353	-0.15203857
255151363728863	-0.906662	0.78230286	-0.2436676
255151368764264	-0.7307434	0.24841309	-0.35362244
255151374165875	-0.5450287	-0.22436523	-0.46359253
255151378865582	-0.5450287	-0.62265015	-0.46359253
255151383870465	-0.3483429	-0.62265015	-0.5674286
255151389272076	-0.14920044	-0.9292908	-0.6627197
255151393971783	0.032821655	-1.1260071	-0.7507019
255151397267682	0.19041443	-1.2102966	-0.8264313
255151405202252	0.4579773	-1.2066345	-0.9266205
255151409047467	0.4579773	-1.1211243	-0.9266205
255151414082867	0.59602356	-1.1211243	-0.9718323
255151419118268	0.7475281	-1.0612488	-1.0390167
255151424580914	0.9051361	-0.9366455	-1.1306458
255151429219586	1.0554047	-0.7240448	-1.2283783
255151435841900	1.1898041	-0.4809265	-1.3004608
255151439656598	1.3131866	-0.31111145	-1.3297882
255151444295269	1.4317017	-0.28668213	-1.3248901
255151447621686	1.546524	-0.38807678	-1.309021
255151455678326	1.6479492	-0.52124023	-1.295578
255151459370953	1.7200165	-0.5921173	-1.2833557
255151464406353	1.7517853	-0.5652313	-1.2650299
255151469472271	1.744461	-0.48214722	-1.2454987
255151474721295	1.7041321	-0.4161682	-1.2381439
255151479543072	1.6357117	-0.42352295	-1.2625885
255151486256939	1.546524	-0.5163574	-1.3200073
255151489827496	1.4451447	-0.67274475	-1.3994141
255151494649273	1.3400726	-0.8547821	-1.4837189
255151498006207	1.3400726	-1.0392609	-1.4837189
255151504720074	1.1128235	-1.0392609	-1.6254425
255151509755475	0.96131897	-1.3752289	-1.684082
255151514790875	0.7682953	-1.4827423	-1.7256165
255151519826275	0.7682953	-1.5035095	-1.7256165
255151525105816	0.5435028	-1.5035095	-1.7170868
255151529897076	0.31991577	-1.4302063	-1.7170868
255151534932477	0.13543701	-1.2884827	-1.6743164
255151540181500	0.010818481	-1.1284485	-1.6230011
255151545033795	-0.049041748	-0.98672485	-1.5753479
255151548360211	-0.049041748	-0.85842896	-1.5374756
255151555104596	0.025482178	-0.69595337	-1.5081635
255151560078961	0.21485901	-0.41496277	-1.480072
255151565175396	0.55693054	0.044418335	-1.4470673
255151570149762	1.0285187	0.63449097	-1.4018555
255151575978619	1.5318756	1.1867065	-1.348114
255151580251080	1.9423828	1.5092316	-1.295578
255151585286480	2.1916046	1.5239105	-1.2601471
255151590749127	2.285675	1.306427	-1.2552643
255151595387799	2.2807922	0.99490356	-1.2821503
255151598683697	2.2404785	0.66748047	-1.3285675
255151605458600	2.2050476	0.3351593	-1.3835297
255151610463482	2.195282	0.0053253174	-1.4299774
255151615498883	2.2172546	-0.28788757	-1.4507446
255151620564801	2.260025	-0.5078125	-1.4311829
255151626057965	2.3027802	-0.6556244	-1.3688812
255151630635602	2.3259888	-0.758255	-1.2638245
255151635671002	2.3101044	-0.83522034	-1.1269836
255151641133648	2.246582	-0.8706665	-0.9718323
255151645741803	2.1354218	-0.84254456	-0.82398987
255151649068219	2.1354218	-0.7594757	-0.82398987
255151655782086	1.7908783	-0.7594757	-0.6370697
255151660817486	1.7908783	-0.59088135	-0.59552
255151665852887	1.5807343	-0.4699402	-0.59552
255151670918805	1.3718414	-0.4699402	-0.5637665
255151676198346	1.2020111	-0.19015503	-0.5283356
255151680959088	1.1091461	0.31806946	-0.48068237
255151685994488	1.1140289	0.99246216	-0.40982056
255151691274029	1.1898041	1.6790619	-0.30108643
255151696034771	1.2753143	2.2312775	-0.15692139
255151699452740	1.3095093	2.5831451	-0.006668091
255151706136090	1.2655334	2.7492828	0.10450745
255151711171490	1.1470337	2.783493	0.13871765
255151716206891	0.9759979	2.7297516	0.08862305
255151721242291	0.77685547	2.5953522	-0.023773193
255151726735455	0.5838165	2.3461304	-0.16792297
255151731313092	0.44210815	1.9282837	-0.31575012
255151736348492	0.37368774	1.3565216	-0.44526672
255151741689068	0.38345337	0.75177	-0.5527649
255151746449811	0.4555359	0.2716217	-0.6395111
255151749776227	0.57769775	-0.0032348633	-0.71525574
255151756520611	0.7328644	-0.1144104	-0.78367615
255151761556012	0.89289856	-0.15962219	-0.83377075
255151766560894	1.0285187	-0.21092224	-0.85331726
255151771596295	1.1140289	-0.29644775	-0.8264313
255151777119977	1.1457977	-0.41007996	-0.74946594
255151781636578	1.1348267	-0.5298004	-0.6211853
255151786733014	1.0969391	-0.6446533	-0.46235657
255151793874127	1.0309601	-0.771698	-0.3182068
255151796773297	0.9320221	-0.9256439	-0.24490356
255151800160748	0.9320221	-1.0881195	-0.24490356
255151806844098	0.808609	-1.0881195	-0.31697083
255151811848980	0.68888855	-1.2225189	-0.31697083
255151816914898	0.60336304	-1.3092499	-0.36218262
255151821980816	0.5520477	-1.3532257	-0.36950684
255151827290875	0.511734	-1.371582	-0.35728455
255151831990582	0.46287537	-1.3849945	-0.3414154
255151837087018	0.4091034	-1.4167633	-0.31575012
255151842458111	0.366333	-1.4803009	-0.2619934
255151847127301	0.3455658	-1.5572662	-0.18380737
255151850484234	0.3431244	-1.6122437	-0.11782837
255151857198102	0.34924316	-1.6098022	-0.11904907
255151862233502	0.35412598	-1.5377197	-0.22413635
255151867299420	0.35412598	-1.4131165	-0.40982056
255151872304303	0.34068298	-1.2762756	-0.6114044
255151877644879	0.30648804	-1.1467743	-0.761673
255151882375103	0.24295044	-1.0160522	-0.8447571
255151887441021	0.14520264	-0.8572235	-0.9021759
255151892690045	0.010818481	-0.6556244	-0.9864807
255151897481305	-0.14797974	-0.4271698	-1.1281891
255151900868756	-0.30801392	-0.19992065	-1.3163452
255151907552105	-0.43875122	-0.0056762695	-1.5216064
255151912587506	-0.5242615	0.14213562	-1.709732
255151917622906	-0.56459045	0.2532959	-1.8612366
255151922688824	-0.56825256	0.3461609	-1.9711914
255151928181988	-0.54870605	0.44023132	-2.0518188
255151932729107	-0.5181732	0.53063965	-2.1128998
255151937733990	-0.48272705	0.60272217	-2.1410217
255151943196637	-0.44119263	0.63327026	-2.1165771
255151947835309	-0.38987732	0.6112671	-2.0542603
255151951161725	-0.38987732	0.5404053	-2.0542603
255151957936627	-0.3397827	0.5404053	-2.0139618
255151962972027	-0.30924988	0.42556763	-2.034729
255151967976910	-0.30192566	0.25453186	-2.0909271
255151973012311	-0.29460144	-0.010559082	-2.1031342
255151978535992	-0.24327087	-0.4112854	-2.029831
255151983113629	-0.12232971	-0.9415283	-1.8966522
255151988118512	0.05847168	-1.5145111	-1.7561798
255151993581158	0.26983643	-2.0068665	-1.6388702
255151998189312	0.48484802	-2.3196106	-1.5435791
255152001607281	0.6852112	-2.4234772	-1.4653931
255152008260113	0.8550415	-2.335495	-1.412857
255152013295514	0.98332214	-2.0899506	-1.3920898
255152018330914	1.0676117	-1.7258606	-1.3945313
255152023366314	1.1079407	-1.2884827	-1.4067535
255152028645855	1.1079407	-0.824234	-1.4299774
255152033437115	1.0627289	-0.3746338	-1.4690704
255152038472516	0.97109985	0.013870239	-1.5252533
255152043752057	0.8403778	0.29118347	-1.5777893
255152048543316	0.69255066	0.4109192	-1.6022339
255152051961285	0.69255066	0.3681488	-1.6022339
255152058614117	0.41522217	0.3681488	-1.5106049
255152063619000	0.28938293	-0.07897949	-1.4104156
255152068684918	0.16964722	-0.43084717	-1.2967987
255152073720318	0.06335449	-0.8450165	-1.1856079
255152079060894	-0.018493652	-1.2835999	-1.085434
255152083791119	-0.06611633	-1.6867828	-0.9974823
255152088826519	-0.07711792	-2.004425	-0.9253845
255152094167096	-0.0526886	-2.2084503	-0.8765259
255152098897320	-0.0526886	-2.2915192	-0.8765259
255152102315289	0.007171631	-2.2915192	-0.85209656
255152108968121	0.09512329	-2.2426605	-0.841095
255152114003521	0.18676758	-2.0545044	-0.8288727
255152119038922	0.25028992	-1.7270813	-0.80078125
255152124074322	0.25395203	-1.2872772	-0.7531433
255152129567486	0.20019531	-0.7985687	-0.69569397
255152134145123	0.11955261	-0.33921814	-0.6382904
255152139180523	0.059692383	0.019973755	-0.5869751
255152144643170	0.048706055	0.23864746	-0.54177856
255152149281842	0.08169556	0.30827332	-0.49900818
255152152608258	0.1281128	0.25209045	-0.45991516
255152159352643	0.15620422	0.10548401	-0.42694092
255152164357525	0.1464386	-0.080200195	-0.3927307
255152169392926	0.10610962	-0.26589966	-0.338974
255152174458844	0.059692383	-0.43328857	-0.2546692
255152179890973	0.02670288	-0.5945587	-0.14715576
255152184529644	0.019378662	-0.7765808	-0.03842163
255152189534527	0.040145874	-1.0013885	0.050750732
255152195027691	0.092681885	-1.2579498	0.111831665
255152199635846	0.15988159	-1.5035095	0.14115906
255152202962262	0.15988159	-1.6794434	0.14115906
255152209676129	0.21730042	-1.6794434	0.08128357
255152214681012	0.16600037	-1.641571	-0.009109497
255152219746930	0.07435608	-1.4082336	-0.11782837
255152224782330	-0.036819458	-1.0783539	-0.21434021
255152230061871	-0.15042114	-0.7167206	-0.26811218
255152234853131	-0.26039124	-0.39419556	-0.25834656
255152239888531	-0.26039124	-0.15106201	-0.1776886
255152245168072	-0.41064453	4.272461E-4	-0.035980225
255152249928814	-0.41064453	0.06518555	-0.035980225
255152253346783	-0.42042542	0.06518555	0.13383484
255152260030133	-0.37522888	0.056625366	0.29631042
255152265065533	-0.2823639	-0.011795044	0.42214966
255152270100934	-0.15042114	-0.11685181	0.4978943
255152275136334	0.0022735596	-0.22070313	0.53822327
255152280598980	0.16108704	-0.28178406	0.5663147
255152285237652	0.31015015	-0.27690125	0.6054077
255152290212018	0.4384308	-0.20481873	0.6628418
255152295583111	0.53738403	-0.08508301	0.72880554
255152300343853	0.60702515	0.056625366	0.79600525
255152303700787	0.6485596	0.19711304	0.8729706
255152310414654	0.67544556	0.3192749	0.9963684
255152315480572	0.70843506	0.40846252	1.2150574
255152320454937	0.75730896	0.4353485	1.5522461
255152325520855	0.808609	0.34983826	1.9615173
255152331014019	0.83792114	0.11036682	2.3365936
255152335591656	0.83792114	-0.26712036	2.5723877
255152340596539	0.83792114	-0.68130493	2.6285858
255152346455914	0.88313293	-0.99160767	2.522293
255152350667340	0.99308777	-1.0905609	2.2913818
255152354085309	0.99308777	-0.9390869	2.2913818
255152360707623	1.298523	-0.9390869	1.6169891
255152365773541	1.3840485	-0.108291626	1.2871246
255152370778424	1.3779297	0.31562805	1.0464478
255152375874859	1.2875366	0.5587311	0.927948
255152382314068	1.1409149	0.55752563	0.92915344
255152385915143	1.1409149	0.3486023	1.0220184
255152390981061	0.97476196	0.3486023	1.0220184
255152396291119	0.8281555	0.039535522	1.1637268
255152401021344	0.72798157	-0.25247192	1.324997
255152404408795	0.6852112	-0.44673157	1.4948273
255152411092144	0.69621277	-0.5163574	1.6768494
255152416127545	0.7499695	-0.48458862	1.8711243
255152421193463	0.8403778	-0.381958	2.064148
255152426167828	0.96131897	-0.23048401	2.2327423
255152431538922	1.1152649	-0.031341553	2.3549194
255152436299664	1.302185	0.20199585	2.4233398
255152441304547	1.5147705	0.4365692	2.4477844
255152447041852	1.7261353	0.6271515	2.445343
255152451344830	1.884964	0.7505646	2.4257813
255152454762799	1.9472656	0.8079834	2.3854523
255152461476666	1.8898468	0.7994232	2.3109436
255152466481549	1.7236938	0.7187958	2.186325
255152471516949	1.4720154	0.5721741	2.0079498
255152476613385	1.1604767	0.3974762	1.7868195
255152481984478	0.8037262	0.26185608	1.5534668
255152486623150	0.41278076	0.23376465	1.3396759
255152491658551	-0.008712769	0.3486023	1.1747284
255152497151715	-0.45463562	0.5794983	1.0708923
255152501729352	-0.9042206	0.84828186	1.0256805
255152505055768	-0.9042206	1.0682068	1.0256805
255152511830670	-1.6958923	1.0682068	1.0684509
255152516805035	-1.9707947	1.2648926	1.107544
255152521870953	-2.1235046	1.307663	1.1148682
255152526936871	-2.127182	1.3736267	1.0757751
255152532399518	-1.9756775	1.4786987	1.0012512
255152537007672	-1.9756775	1.6130981	1.0012512
255152542043072	-1.6849213	1.6130981	0.9230652
255152547505719	-1.2939606	1.7499237	0.8717346
255152552083355	-0.85414124	1.8513184	0.8570862
255152555470807	-0.42164612	1.8696442	0.86808777
255152562154156	-0.05758667	1.7658081	0.88397217
255152567189557	0.18676758	1.5299988	0.887619
255152572224957	0.27960205	1.206253	0.8705292
255152577290875	0.22096252	0.86906433	0.8326416
255152582600934	0.025482178	0.60272217	0.77279663
255152587331158	-0.2713623	0.46710205	0.6860504
255152592366559	-0.6305542	0.47322083	0.5711975
255152597646100	-1.0031738	0.5746155	0.42459106
255152602437359	-1.3391724	0.699234	0.25231934
255152605794293	-1.5908356	0.792099	0.06907654
255152612538678	-1.7276611	0.84584045	-0.11172485
255152617574078	-1.7313385	0.88983154	-0.27175903
255152622578961	-1.6018372	0.94480896	-0.40249634
255152627614361	-1.3477173	0.9985504	-0.50024414
255152633046490	-0.9775238	1.0205536	-0.5662079
255152637685162	-0.52182007	0.9912262	-0.6016388
255152642720562	-0.04171753	0.92648315	-0.6028595
255152648030621	0.37857056	0.8470764	-0.57598877
255152652791363	0.67544556	0.75665283	-0.542984
255152656148297	0.67544556	0.63327026	-0.542984
255152662862164	0.8684845	0.63327026	-0.5857544
255152667928082	0.8452759	0.21420288	-0.68104553
255152672932965	0.8452759	-0.07043457	-0.7983246
255152677968365	0.7976227	-0.35386658	-0.7983246
255152683400494	0.61802673	-0.35386658	-0.9950409
255152688039166	0.61802673	-0.6898346	-0.9950409
255152693044049	0.44210815	-0.6898346	-1.0646667
255152698537213	0.20141602	-0.6788635	-1.1355286
255152703145367	-0.079559326	-0.57133484	-1.2161713
255152706532818	-0.3678894	-0.422287	-1.3029175
255152713216168	-0.6281128	-0.27690125	-1.3823242
255152718282086	-0.8358154	-0.16571045	-1.4421844
255152723286969	-0.97143555	-0.09364319	-1.4837189
255152728352887	-1.026413	-0.04966736	-1.5179291
255152733785016	-0.999527	-0.01789856	-1.5558014
255152738393170	-0.89567566	0.018753052	-1.5985718
255152743428570	-0.7209778	0.06518555	-1.6339874
255152748738629	-0.5022888	0.10670471	-1.6523132
255152753499371	-0.2896881	0.12625122	-1.657196
255152756886822	-0.13331604	0.1177063	-1.6547546
255152763570172	-0.050247192	0.0859375	-1.6486664
255152768575055	-0.027038574	0.03463745	-1.6413116
255152773640973	-0.049041748	-0.039886475	-1.6388702
255152778706891	-0.119888306	-0.12173462	-1.6523132
255152783955914	-0.24571228	-0.17427063	-1.684082
255152788747174	-0.4131012	-0.16082764	-1.723175
255152793752057	-0.59635925	-0.064315796	-1.7573853
255152799519879	-0.7857208	0.103027344	-1.776947
255152803883893	-0.9812012	0.3241577	-1.7818298
255152807271344	-0.9812012	0.5794983	-1.7818298
255152813954693	-1.3916931	0.5794983	-1.7525024
255152818990094	-1.3916931	1.088974	-1.7134094
255152824025494	-1.5773926	1.088974	-1.7134094
255152829060894	-1.7288971	1.2844543	-1.6559906
255152834523541	-1.8449554	1.424942	-1.5777893
255152839131695	-1.9292603	1.5153503	-1.478836
255152844136578	-1.9927979	1.5617676	-1.3591003
255152849446637	-2.044098	1.5593262	-1.2198181
255152854237896	-2.0880737	1.4970245	-1.0695496
255152857564312	-2.125946	1.3821869	-0.91929626
255152864339215	-2.1589355	1.2441254	-0.7763519
255152869313580	-2.1772766	1.1170654	-0.6395111
255152874348980	-2.1674805	1.0083466	-0.50268555
255152879384381	-2.1186218	0.89227295	-0.3585205
255152884877545	-2.030655	0.7346802	-0.21434021
255152889455182	-1.9194794	0.53552246	-0.092178345
255152894490582	-1.8083038	0.32783508	-0.01399231
255152899922711	-1.6983337	0.12869263	0.01776123
255152904591900	-1.5480652	-0.09120178	0.014099121
255152907948834	-1.2951813	-0.35510254	-0.006668091
255152914632184	-0.91278076	-0.60676575	-0.0262146
255152919667584	-0.45707703	-0.72650146	-0.011550903
255152924702984	-0.036819458	-0.6287689	0.08496094
255152929768902	0.25761414	-0.34410095	0.29631042
255152935017926	0.3956604	0.013870239	0.6066284
255152939809186	0.41278076	0.31318665	0.96092224
255152944844586	0.37001038	0.48298645	1.3066864
255152950185162	0.30892944	0.5294342	1.6389923
255152954915387	0.23318481	0.5233154	1.9835205
255152958272320	0.23318481	0.5391998	1.9835205
255152964955670	0.1329956	0.5391998	2.364685
255152970021588	0.0022735596	0.60028076	2.7690887
255152975056988	-0.15286255	0.6796875	3.164917
255152984639508	-0.45951843	0.7285614	3.8393097
255152990163189	-0.5450287	0.32051086	4.122772
255152995198590	-0.52305603	0.32051086	4.3817596
255153000508648	-0.35690308	0.04562378	4.616333
255153005269391	-0.049041748	-0.21948242	4.830139
255153008626324	0.35536194	-0.45037842	5.0427094
255153015340191	0.7963867	-0.6690674	5.35791
255153020406109	1.1763611	-0.9183197	5.5582733
255153025410992	1.3852539	-1.2946014	4.948639
255153030507428	1.3754883	-1.8162842	3.0940552
255153035939557	1.2423248	-2.2438812	0.77523804
255153040517193	1.1250305	-2.1620178	-0.46359253
255153045552594	1.0065308	-1.5120697	0.059295654
255153051015240	0.7548523	-0.8657837	1.5107117
255153055623394	0.38589478	-0.8291321	2.7348785
255153059041363	0.16600037	-1.2909241	3.4471436
255153065724713	0.30526733	-1.5853577	4.029907
255153070729596	0.6791229	-1.3801117	4.6260986
255153075764996	0.98820496	-1.0490265	5.09404
255153080800396	1.0871735	-1.0319366	5.3786926
255153086293561	1.0431824	-1.2774963	5.6120453
255153090871197	0.94299316	-1.3984375	5.9296875
255153095906598	0.7902832	-1.1589813	6.325531
255153101216656	0.5764923	-0.6080017	6.7335815
255153105977398	0.32235718	0.11526489	7.12088
255153109334332	0.32235718	0.9191437	7.12088
255153116017682	0.06213379	0.9191437	7.5020447
255153121083600	-0.18096924	1.7499237	7.899109
255153126119000	-0.3862152	2.5159454	8.293716
255153131154400	-0.549942	3.0926056	8.662689
255153136464459	-0.7075348	3.3943634	8.994995
255153141286236	-0.906662	3.4346771	9.290665
255153146230084	-1.1534576	3.3112946	9.533768
255153151997906	-1.3978119	3.1243591	9.684036
255153156331402	-1.5908356	2.9398804	9.684036
255153159718853	-1.7178955	2.7908325	9.509354
255153166402203	-1.7875366	2.7016602	9.1892395
255153171407086	-1.8046417	2.6637726	8.792191
255153176473004	-1.7679901	2.6393433	8.382919
255153181538922	-1.6690369	2.5868073	7.989517
255153186971051	-1.5089722	2.4927368	7.6132355
255153192891461	-1.3318329	2.369339	7.2491455
255153196614605	-1.1901093	2.215393	6.900955
255153201680523	-1.0581665	1.9734955	6.577194
255153206685406	-0.81137085	1.5666656	6.280319
255153210286480	-0.81137085	1.0059052	6.013977
255153216786725	0.24050903	0.42800903	5.7867584
255153221791607	0.7976227	0.016311646	5.6071625
255153226827008	1.1592407	-0.11685181	5.473984
255153231862408	1.2887421	0.035858154	5.3677063
255153237386090	1.2276611	0.3803711	5.229645
255153241933209	1.0309601	0.739563	4.965744
255153246968609	0.7890625	0.9338074	4.4733887
255153252431256	0.5972595	0.89837646	3.6755981
255153257039410	0.5972595	0.7187958	3.6755981
255153260701519	0.5019684	0.7187958	2.5552826
255153267110211	0.4738617	0.53063965	1.1649628
255153272145611	0.45187378	0.4316864	-0.37805176
255153277181012	0.4139862	0.46954346	-1.902771
255153282246930	0.40301514	0.6564789	-3.1977997
255153287709576	0.46043396	0.970459	-4.074997
255153292287213	0.57769775	1.3186646	-4.434204
255153297322613	0.70965576	1.5226746	-4.3315735
255153302693707	0.8135071	1.4640503	-3.9528198
255153307393414	0.8611603	1.2306824	-3.5032349
255153310963971	0.83547974	1.0694122	-3.0915222
255153317464215	0.7218628	1.1341705	-2.7054443
255153322499615	0.5141754	1.3553162	-2.2863922
255153327535016	0.23684692	1.569107	-1.7940369
255153332600934	-0.0697937	1.6949463	-1.2296143
255153337880475	-0.3532257	1.7474823	-0.6285095
255153342702252	-0.5719147	1.7340393	-0.056747437
255153347676617	-0.702652	1.635086	0.39649963
255153353444439	-0.7466278	1.4359283	0.6787262
255153357777936	-0.72706604	1.1402893	0.79966736
255153361379010	-0.72706604	0.7737732	0.79966736
255153367818219	-0.6036835	0.7737732	0.7911072
255153372884137	-0.5389404	-0.03866577	0.73735046
255153377889019	-0.483963	-0.4296112	0.66404724
255153382985455	-0.44485474	-0.7900238	0.5797577
255153388417584	-0.42530823	-1.1064453	0.49423218
255153392995221	-0.42774963	-1.3740234	0.41603088
255153398030621	-0.42774963	-1.589035	0.41603088
255153403340680	-0.4497528	-1.589035	0.32685852
255153408131939	-0.48884583	-1.8700256	0.32685852
255153412312848	-0.536499	-1.8700256	0.33418274
255153418202740	-0.5877991	-1.9335632	0.36717224
255153423207623	-0.6391144	-1.9567719	0.4025879
255153428243023	-0.689209	-1.9543304	0.4209137
255153433278424	-0.7380676	-1.9421234	0.41726685
255153438710553	-0.78204346	-1.9201202	0.4025879
255153443349225	-0.82359314	-1.88591	0.38305664
255153448384625	-0.86146545	-1.8370514	0.36351013
255153453816754	-0.89201355	-1.7783966	0.34028625
255153458424908	-0.90789795	-1.7099915	0.3060913
255153462758404	-0.9005585	-1.6378937	0.2511139
255153468526227	-0.8675842	-1.5670319	0.17536926
255153473531109	-0.81993103	-1.5035095	0.080062866
255153478566510	-0.7710724	-1.4424286	-0.02986145
255153483601910	-0.7368622	-1.3776703	-0.14715576
255153488911969	-0.7221832	-1.3019257	-0.2619934
255153493733746	-0.7234192	-1.2102966	-0.35484314
255153498738629	-0.7331848	-1.1027985	-0.41226196
255153504079205	-0.7393036	-0.98428345	-0.42694092
255153508809430	-0.7331848	-0.8645477	-0.40859985
255153512624127	-0.7331848	-0.7533722	-0.40859985
255153518880230	-0.6782074	-0.7533722	-0.33163452
255153523885113	-0.6268921	-0.58232117	-0.29988098
255153528951031	-0.5633545	-0.5249176	-0.29864502
255153534016949	-0.48760986	-0.48458862	-0.3426361
255153539296490	-0.4008789	-0.45037842	-0.43547058
255153544026715	-0.4008789	-0.4112854	-0.43547058
255153549092633	-0.30680847	-0.4112854	-0.5649872
255153554311139	-0.20906067	-0.3611908	-0.71157837
255153559193951	-0.1174469	-0.30744934	-0.85331726
255153563069684	-0.04660034	-0.25613403	-0.9742737
255153569203717	-0.0062713623	-0.21092224	-1.0720062
255153574269635	-0.005065918	-0.16938782	-1.1526337
255153579335553	-0.050247192	-0.12661743	-1.2149353
255153584370953	-0.15042114	-0.08387756	-1.2528229
255153589833600	-0.3141327	-0.04598999	-1.2540283
255153594411236	-0.5425873	-0.013000488	-1.2198181
255153599446637	-0.8260498	0.018753052	-1.1611938
255153604848248	-1.1436768	0.06150818	-1.090332
255153609517437	-1.4723206	0.12869263	-1.0133667
255153614064557	-1.7863159	0.22399902	-0.93026733
255153619588238	-2.0587616	0.34248352	-0.83743286
255153624593121	-2.2627869	0.45855713	-0.7397003
255153629659039	-2.3764038	0.5367584	-0.6395111
255153634694439	-2.3910675	0.53796387	-0.5405426
255153640248639	-2.3055573	0.44267273	-0.44158936
255153644765240	-2.1283875	0.2557373	-0.3414154
255153649800641	-1.8681641	4.272461E-4	-0.24490356
255153655171734	-1.5358582	-0.28912354	-0.16059875
255153659901959	-1.1412354	-0.5835571	-0.10195923
255153664327008	-0.7062988	-0.8633423	-0.07385254
255153669942242	-0.2554779	-1.1284485	-0.07507324
255153674977643	0.1806488	-1.3886719	-0.08973694
255153680013043	0.57769775	-1.6427917	-0.095840454
255153685048443	0.57769775	-1.873703	-0.079956055
255153690389019	1.2203369	-2.0593872	-0.035980225
255153695119244	1.2203369	-2.1901245	-0.035980225
255153700154644	1.4732361	-2.1901245	0.028747559
255153705434186	1.6882477	-2.2756348	0.11061096
255153710225445	1.8678436	-2.3281708	0.19978333
255153714711529	2.0120087	-2.3526154	0.2889862
255153720265728	2.1244202	-2.3562927	0.37083435
255153725362164	2.2099304	-2.3404083	0.44171143
255153730397564	2.2661285	-2.3061981	0.50157166
255153735463482	2.2966614	-2.2524261	0.551651
255153740865094	2.3052216	-2.184021	0.59562683
255153745442730	2.2930145	-2.1131592	0.631073
255153750508648	2.2612457	-2.0435028	0.66160583
255153755696637	2.207489	-1.9799805	0.6884918
255153760579449	2.1219788	-1.9274445	0.7104645
255153765309674	1.9985809	-1.8944702	0.72514343
255153770650250	1.831192	-1.8785858	0.73246765
255153775807721	1.6247406	-1.8663788	0.72880554
255153780751568	1.3889313	-1.8419342	0.7178192
255153785756451	1.1348267	-1.795517	0.69581604
255153792958600	0.87457275	-1.7148743	0.6652832
255153796040875	0.6155853	-1.6012421	0.6286316
255153800893170	0.36268616	-1.458313	0.59562683
255153806447369	0.10122681	-1.2994843	0.5687561
255153810933453	-0.16508484	-1.1394501	0.5406647
255153815572125	-0.3471222	-0.98794556	0.48568726
255153821034771	-0.34346008	-0.8474579	0.37329102
255153826039654	-0.16996765	-0.7423706	0.18025208
255153831075055	-0.16996765	-0.7374878	-0.08729553
255153836110455	0.04748535	-0.7374878	-0.08729553
255153841573102	0.22218323	-0.88775635	-0.68348694
255153846211773	0.38957214	-1.1663055	-0.68348694
255153851216656	0.60214233	-1.1663055	-0.9241791
255153856587750	0.8269348	-0.86698914	-1.0915527
255153861287457	0.98210144	-0.22314453	-1.1758423
255153864644391	1.0163116	0.5904999	-1.1782837
255153871358258	0.87213135	1.4041748	-1.1049805
255153876363141	0.42378235	2.1420898	-0.9791565
255153881429059	-0.4656372	2.7920532	-0.827652
255153886433941	-1.811966	3.3772583	-0.6761627
255153891744000	-3.4185333	3.9233856	-0.53445435
255153896535260	-4.9444885	4.3949585	-0.39881897
255153901540143	-6.1148834	4.70282	-0.2705536
255153906819684	-6.847931	4.7761383	-0.15692139
255153911641461	-7.214432	4.620987	-0.06286621
255153914998394	-7.3256073	4.292328	0.009216309
255153921712262	-7.2608643	3.8366241	0.06173706
255153926747662	-7.073944	3.2685242	0.095947266
255153931783062	-6.7929535	2.5843658	0.10572815
255153936848980	-6.42276	1.7719269	0.07762146
255153941975934	-5.9267426	0.80674744	-0.0017852783
255153946858746	-5.2535706	-0.32209778	-0.12150574
255153951894146	-4.37027	-1.5939178	-0.23634338
255153956990582	-3.3122406	-2.9170532	-0.2742157
255153962025982	-2.1821594	-4.120453	-0.18746948
255153965291363	-2.1821594	-4.992752	-0.18746948
255153972096783	-0.2640381	-4.992752	0.22058105
255153977101666	-0.2640381	-5.1833496	0.22058105
255153982137066	0.31381226	-5.1833496	0.37449646
255153987141949	0.60458374	-4.5138397	0.44779968
255153992299420	0.6668854	-3.490036	0.49179077
255153997212750	0.5838165	-2.271988	0.5626526
255154002278668	0.43354797	-1.0307007	0.6750488
255154007649762	0.27716064	0.07861328	0.80210876
255154012349469	0.15499878	0.9496918	0.91082764
255154015675885	0.07923889	1.5434418	0.9853668
255154022450787	0.048706055	1.865982	1.0207977
255154027425152	0.053588867	1.9478455	1.0256805
255154032491070	0.08169556	1.8342285	1.0171356
255154037495953	0.12322998	1.5788879	1.019577
255154042683941	0.16720581	1.2380066	1.0403442
255154047627789	0.20629883	0.85440063	1.0635529
255154052663189	0.23562622	0.46221924	1.0696564
255154058095318	0.25517273	0.088378906	1.041565
255154062703473	0.26739502	-0.24880981	0.97680664
255154066029889	0.27471924	-0.5469055	0.8827362
255154072743756	0.27838135	-0.8120117	0.78134155
255154077779156	0.27716064	-1.0514679	0.7019348
255154082845074	0.26983643	-1.2677155	0.6604004
255154087880475	0.25395203	-1.4631958	0.65548706
255154093037945	0.23074341	-1.6378937	0.6750488
255154097920758	0.20385742	-1.7979584	0.70069885
255154103017193	0.1806488	-1.9482269	0.71902466
255154108479840	0.16964722	-2.091156	0.72514343
255154113026959	0.17697144	-2.223114	0.71658325
255154116414410	0.17697144	-2.3330536	0.71658325
255154123128277	0.20874023	-2.3330536	0.6921387
255154128163678	0.26739502	-2.406372	0.656723
255154133199078	0.34680176	-2.4405823	0.6103058
255154138203961	0.42866516	-2.4430237	0.5492096
255154143666607	0.4897461	-2.4210358	0.47224426
255154148274762	0.5129547	-2.37706	0.37693787
255154153310162	0.49951172	-2.3000793	0.2731018
255154159169537	0.46531677	-2.1889038	0.1716919
255154163380963	0.42622375	-2.0484009	0.08618164
255154166768414	0.3907776	-1.899353	0.022659302
255154173512799	0.3638916	-1.7600708	-0.020095825
255154178517682	0.34680176	-1.6391296	-0.048187256
255154183553082	0.33580017	-1.5426178	-0.064071655
255154188588482	0.31747437	-1.4692993	-0.06895447
255154194051129	0.27593994	-1.4241028	-0.060424805
255154198720318	0.20753479	-1.4167633	-0.034744263
255154203694684	0.124435425	-1.4534149	0.0067749023
255154209767682	0.029144287	-1.5426178	0.071517944
255154213765484	-0.086883545	-1.6904297	0.15948486
255154217122418	-0.086883545	-1.9079132	0.2559967
255154223836285	-0.3703308	-1.9079132	0.3244171
255154228871686	-0.48028564	-2.6103973	0.33174133
255154233907086	-0.5108185	-3.1015167	0.25967407
255154238942486	-0.42164612	-3.6806335	0.099609375
255154244130475	-0.20173645	-4.3415833	-0.15571594
255154249348980	0.1134491	-5.0440826	-0.503891
255154254048687	0.45063782	-5.6732635	-0.9229431
255154260030133	0.7463074	-6.050766	-1.3701019
255154264119488	0.7463074	-6.0141144	-1.8074799
255154267537457	0.99186707	-6.0141144	-1.8074799
255154274220807	1.2142181	-5.5107574	-2.2192078
255154279347760	1.442688	-4.6335754	-2.6211395
255154284261090	1.6735992	-3.5718994	-3.026764
255154289662701	1.8886108	-2.516327	-3.41893
255154294820172	2.0670013	-1.5902405	-3.7475739
255154299428326	2.1977234	-0.82177734	-3.9662628
255154304402691	2.285675	-0.19259644	-4.066452
255154310262066	2.3382263	0.31195068	-4.0847626
255154314473492	2.3712006	0.6882477	-4.066452
255154317830426	2.3944092	0.94236755	-4.0298004
255154324574811	2.413971	1.0962982	-3.9674988
255154329610211	2.4298553	1.1781464	-3.8648682
255154334615094	2.443283	1.2050323	-3.7219238
255154339681012	2.451828	1.1879272	-3.542328
255154345174176	2.4469452	1.1353912	-3.3297424
255154349904400	2.426178	1.0596466	-3.0927277
255154354726178	2.387085	0.9655762	-2.8410645
255154360829693	2.334549	0.85806274	-2.5832825
255154364827496	2.26857	0.7334442	-2.3206024
255154368153912	2.26857	0.59417725	-2.3206024
255154374898297	2.0999756	0.59417725	-1.7696075
255154379964215	1.9985809	0.33151245	-1.4983978
255154384969098	1.883728	0.24476624	-1.2479401
255154390065533	1.7554474	0.20199585	-1.0365753
255154395284039	1.6186218	0.20077515	-0.8814087
255154400533062	1.4744568	0.2349701	-0.7922363
255154405110699	1.3241882	0.29606628	-0.7763519
255154411305768	1.1678009	0.39257813	-0.8288727
255154415150982	1.1678009	0.54164124	-0.8288727
255154418538434	1.001648	0.54164124	-0.9412689
255154425252301	0.8281555	0.76397705	-1.0915527
255154430379254	0.6473541	1.0596466	-1.2577057
255154435292584	0.46775818	1.4041748	-1.414093
255154441090924	0.29548645	1.7584839	-1.5435791
255154445607525	0.13911438	2.0907898	-1.6364288
255154451222760	0.005935669	2.3901062	-1.6865234
255154455464703	-0.102767944	2.6588898	-1.6999664
255154460683209	-0.18707275	2.8971252	-1.6816406
255154465535504	-0.24815369	3.090149	-1.6413116
255154468892437	-0.2896881	3.220871	-1.5851288
255154475606305	-0.3214569	3.278305	-1.5154877
255154480824811	-0.3507843	3.2685242	-1.4385071
255154485677105	-0.3862152	3.2049866	-1.3542175
255154491475445	-0.431427	3.0962677	-1.2662659
255154496114117	-0.48884583	2.9459991	-1.181961
255154501393658	-0.5560303	2.745636	-1.1098785
255154505818707	-0.6305542	2.4817352	-1.0622253
255154511128766	-0.7002106	2.1494293	-1.0402374
255154515920025	-0.755188	1.7645721	-1.0426788
255154519246441	-0.755188	1.358963	-1.0426788
255154525960309	-0.7832794	1.358963	-1.1000977
255154531270367	-0.755188	0.63204956	-1.1416321
255154536031109	-0.7099762	0.3657074	-1.1782837
255154541707379	-0.6574402	0.17756653	-1.1978455
255154546529156	-0.6036835	0.07006836	-1.1917267
255154551839215	-0.549942	0.040740967	-1.1648407
255154556142193	-0.549942	0.088378906	-1.1648407
255154562581402	-0.46195984	0.088378906	-1.0793304
255154566212994	-0.46195984	0.3718109	-1.0793304
255154569569928	-0.44241333	0.3718109	-1.037796
255154576344830	-0.44485474	0.56240845	-1.0011292
255154581990582	-0.46928406	0.7493286	-0.96939087
255154586385113	-0.50961304	0.90815735	-0.9412689
255154592061383	-0.56214905	1.0278778	-0.9168396
255154596669537	-0.6207886	1.1085205	-0.8887329
255154602437359	-0.6843262	1.1561584	-0.85331726
255154606496197	-0.7515106	1.1744995	-0.80566406
255154612264019	-0.81993103	1.1647186	-0.7397003
255154616597516	-0.8846741	1.1219482	-0.6590576
255154619954449	-0.945755	1.0462036	-0.5637665
255154626668316	-1.0007324	0.9411316	-0.45747375
255154632375103	-1.0496216	0.8189697	-0.3450775
255154636739117	-1.0923767	0.6882477	-0.22657776
255154642659527	-1.1326904	0.5562897	-0.10562134
255154647084576	-1.169342	0.43045044	0.015319824
255154652577740	-1.2059784	0.32295227	0.12893677
255154656880719	-1.24263	0.24108887	0.23522949
255154663228375	-1.2793121	0.18855286	0.33174133
255154666921002	-1.3171692	0.15924072	0.42214966
255154670308453	-1.3171692	0.14579773	0.42214966
255154677052838	-1.4039154	0.14579773	0.5944214
255154682546002	-1.4539948	0.15190125	0.6811676
255154687093121	-1.5102081	0.17634583	0.76789856
255154692891461	-1.5725098	0.22032166	0.8558655
255154697621686	-1.6287079	0.2850647	0.9462738
255154703175885	-1.659256	0.3644867	1.0464478
255154707234723	-1.659256	0.4329071	1.0464478
255154713185650	-1.5554199	0.4329071	1.2749176
255154717305523	-1.5554199	0.39137268	1.2749176
255154720631939	-1.4002533	0.39137268	1.3983002
255154727406842	-1.1888885	0.24232483	1.509491
255154733327252	-0.945755	0.023651123	1.5913391
255154737447125	-0.7050934	-0.23168945	1.6292267
255154743367535	-0.5022888	-0.4919281	1.6133423
255154747853619	-0.365448	-0.7362671	1.5437012
255154753865582	-0.31047058	-0.95251465	1.4154205
255154757588727	-0.32633972	-1.1370087	1.2297058
255154763692242	-0.3837738	-1.2799377	0.99024963
255154767659527	-0.44851685	-1.3679047	0.7043762
255154771046978	-0.4998474	-1.3642273	0.38427734
255154777760846	-0.5389404	-1.234726	0.05319214
255154783742291	-0.57559204	-0.97084045	-0.2546692
255154787831646	-0.6256714	-0.6080017	-0.50756836
255154796803814	-0.8016052	-0.22070313	-0.78123474
255154804372174	-0.91156006	0.39257813	-0.80200195
255154807942730	-1.0080872	0.58195496	-0.7531433
255154813985211	-1.06427	0.7114563	-0.6407318
255154818013531	-1.0618286	0.80674744	-0.48312378
255154821370465	-1.0618286	0.88739014	-0.48312378
255154828084332	-0.84069824	0.88739014	-0.11050415
255154834340436	-0.6244507	1.0291138	0.08862305
255154838155133	-0.3556671	1.0828552	0.29631042
255154843190533	-0.3556671	1.1231842	0.50645447
255154848653180	0.22706604	1.1231842	0.7019348
255154853291852	0.22706604	1.1524963	0.7019348
255154858296734	0.4738617	1.1524963	0.875412
255154863667828	0.6449127	1.1109619	1.0183563
255154868367535	0.70721436	0.9802246	1.106308
255154871693951	0.6485596	0.70047	1.0989838
255154878499371	0.48364258	0.21788025	0.9597168
255154884663922	0.26249695	-0.4723816	0.70558167
255154888509137	0.05480957	-1.300705	0.39282227
255154894948346	-0.08444214	-2.1498108	0.09106445
255154899037701	-0.12965393	-2.8999481	-0.15815735
255154903645855	-0.09300232	-3.476593	-0.35118103
255154908650738	-0.002609253	-3.866333	-0.503891
255154914540631	0.108551025	-4.0752563	-0.6297455
255154918721539	0.20874023	-4.119232	-0.72869873
255154922047955	0.26615906	-4.0092773	-0.79711914
255154928822857	0.24662781	-3.7722626	-0.83621216
255154935017926	0.120788574	-3.4375	-0.85697937
255154938863141	-0.11621094	-3.0208893	-0.8704071
255154945393902	-0.44241333	-2.515091	-0.8826294
255154949208600	-0.80892944	-1.9017944	-0.8899689
255154953999859	-1.1546783	-1.1907501	-0.88508606
255154959035260	-1.4259033	-0.42106628	-0.85453796
255154964558941	-1.5896149	0.34371948	-0.78733826
255154969106061	-1.6360321	1.0425568	-0.6761627
255154972462994	-1.6360321	1.635086	-0.6761627
255154979146344	-1.4344635	1.635086	-0.33529663
255154985463482	-1.2316589	2.4780579	-0.13493347
255154989247662	-1.2316589	2.757843	-0.13493347
255154994252545	-0.9812012	2.757843	0.071517944
255154999623639	-0.6928711	2.9789734	0.27798462
255155004323346	-0.3715515	3.1634521	0.47592163
255155009358746	-0.031921387	3.3283844	0.6591644
255155014729840	0.30770874	3.4774475	0.81799316
255155019429547	0.63023376	3.6167145	0.9499512
255155022816998	0.92222595	3.751114	1.0513458
255155029500348	1.1763611	3.8830566	1.1258698
255155034566266	1.3913727	4.0113373	1.1771698
255155039571148	1.5672913	4.135956	1.212616
255155044606549	1.705368	4.2556763	1.2345886
255155050130230	1.8031006	4.368088	1.2468262
255155054707867	1.8592834	4.4645996	1.2565918
255155059712750	1.8751678	4.5354614	1.2663574
255155065236432	1.858078	4.5745544	1.2810211
255155069783551	1.817749	4.572113	1.2993469
255155073140484	1.7640076	4.5256805	1.3213348
255155079884869	1.705368	4.4303894	1.3421173
255155084920269	1.6479492	4.293564	1.3531036
255155089925152	1.5978546	4.129837	1.3445587
255155094991070	1.5563049	3.9612427	1.3017883
255155100484234	1.5184326	3.807312	1.2223816
255155105061871	1.4744568	3.679016	1.1136475
255155110097271	1.4121399	3.5764008	0.99269104
255155115620953	1.3253937	3.4957733	0.8778534
255155120107037	1.2142181	3.4297943	0.77890015
255155123494488	1.2142181	3.374817	0.77890015
255155130238873	0.9576721	3.374817	0.6359558
255155135243756	0.9576721	3.3064117	0.6359558
255155140279156	0.8305969	3.3064117	0.5883026
255155145345074	0.70721436	3.303955	0.551651
255155150655133	0.58869934	3.3320618	0.5272217
255155155385357	0.4738617	3.3894806	0.512558
255155160451275	0.35780334	3.467682	0.5052185
255155165974957	0.23928833	3.5556335	0.5003357
255155170491559	0.1146698	3.641159	0.5027771
255155173909527	-0.012390137	3.724228	0.5137787
255155180562359	-0.13575745	3.7999725	0.5357666
255155185597760	-0.24938965	3.872055	0.5699768
255155190633160	-0.3483429	3.936798	0.6103058
255155195699078	-0.43263245	3.995453	0.6518402
255155201009137	-0.50593567	4.043106	0.6884918
255155205769879	-0.57315063	4.0797577	0.7178192
255155210774762	-0.636673	4.1054077	0.7385864
255155216176373	-0.6989746	4.116394	0.74713135
255155220845562	-0.7576294	4.100525	0.7422333
255155224233014	-0.8101654	4.0455475	0.7239075
255155230946881	-0.85658264	3.9429169	0.68969727
255155236012799	-0.89445496	3.7950897	0.6420593
255155241017682	-0.9225464	3.5996094	0.5821991
255155246022564	-0.94210815	3.3589325	0.5149994
255155251576764	-0.9506531	3.077942	0.44779968
255155256123883	-0.9494324	2.7664032	0.38671875
255155261128766	-0.9384308	2.4316406	0.33662415
255155267079693	-0.9188843	2.0822296	0.29875183
255155271199566	-0.89933777	1.7218323	0.2743225
255155274525982	-0.89933777	1.360199	0.2743225
255155281300885	-0.88101196	1.360199	0.25967407
255155286305768	-0.86268616	0.996109	0.24867249
255155291341168	-0.84313965	0.62838745	0.23522949
255155296407086	-0.81625366	0.2532959	0.21446228
255155301900250	-0.780838	-0.13397217	0.18637085
255155306477887	-0.7331848	-0.5261383	0.15092468
255155311482769	-0.6733246	-0.90852356	0.108169556
255155317433697	-0.59880066	-1.2616119	0.06295776
255155321553570	-0.5157318	-1.5682678	0.015319824
255155324941021	-0.42774963	-1.8174896	-0.032302856
255155331624371	-0.34346008	-2.0154114	-0.07751465
255155336659771	-0.26771545	-2.1717987	-0.120269775
255155341695172	-0.20539856	-2.3012848	-0.15692139
255155346761090	-0.15776062	-2.416153	-0.18257141
255155352101666	-0.12477112	-2.5212097	-0.19113159
255155356831891	-0.104003906	-2.6189575	-0.18257141
255155361867291	-0.09788513	-2.7069092	-0.1593628
255155367207867	-0.107666016	-2.781433	-0.12638855
255155371907574	-0.13453674	-2.8461761	-0.09095764
255155375264508	-0.13453674	-2.9023895	-0.09095764
255155381978375	-0.2347107	-2.9023895	-0.023773193
255155387013775	-0.3055725	-3.0037994	0.004333496
255155392079693	-0.3947754	-3.044098	0.032424927
255155397084576	-0.4998474	-3.0746613	0.059295654
255155402608258	-0.61834717	-3.0941925	0.08618164
255155407155377	-0.74539185	-3.105194	0.11427307
255155412190777	-0.87490845	-3.1027527	0.14115906
255155417592389	-1.0056458	-3.0819855	0.16680908
255155422261578	-1.0056458	-3.0380096	0.16680908
255155425618512	-1.138794	-3.0380096	0.18269348
255155432362896	-1.2768555	-2.9646912	0.18389893
255155437428814	-1.4222412	-2.8559723	0.1741333
255155442403180	-1.5957184	-2.7191315	0.16313171
255155447438580	-1.855957	-2.5578613	0.16192627
255155452931744	-2.279892	-2.3513794	0.19490051
255155457539898	-2.8699799	-2.0410614	0.28044128
255155462575299	-3.442978	-1.5585022	0.40014648
255155468098980	-3.6592255	-0.8682251	0.4844513
255155472646100	-3.2474976	0.0040893555	0.46124268
255155475941998	-2.2285767	0.9533539	0.3244171
255155482716900	-0.89445496	1.8183441	0.13383484
255155487721783	0.41766357	2.4499664	-0.035980225
255155492757184	1.5062256	2.7676086	-0.14593506
255155497792584	2.3113403	2.7871704	-0.20089722
255155503102643	2.8269043	2.578247	-0.22413635
255155507863385	3.0688019	2.2373962	-0.24002075
255155512929303	3.076126	1.865982	-0.2754364
255155518452984	2.9136505	1.5471191	-0.35728455
255155523000103	2.6607513	1.3394318	-0.5124512
255155526326519	2.6607513	1.2758942	-0.5124512
255155533070904	2.154953	1.2758942	-1.0353394
255155538045269	1.9949036	1.5129089	-1.3187866
255155543141705	1.9264984	1.6705017	-1.5558014
255155548146588	1.9423828	1.7303619	-1.7317352
255155553517682	2.0120087	1.6424103	-1.850235
255155558217389	2.102417	1.4212799	-1.9308624
255155563283307	2.1891632	1.1170654	-1.9944
255155568593365	2.2636871	0.7847748	-2.060379
255155573323590	2.2636871	0.45977783	-2.060379
255155576711041	2.3235474	0.45977783	-2.1312256
255155583424908	2.3650818	0.15068054	-2.1947632
255155588460309	2.3919678	-0.14985657	-2.2338562
255155593465191	2.4102936	-0.45161438	-2.2375336
255155598500592	2.4237366	-0.7570343	-2.2069702
255155604024273	2.4359436	-1.0624695	-2.148346
255155608571393	2.4408417	-1.3544617	-2.060379
255155613606793	2.4249573	-1.628128	-1.956543
255155619069439	2.3638763	-1.8822632	-1.8539124
255155623677594	2.238037	-2.119278	-1.7708282
255155627034527	2.0352325	-2.3306122	-1.7146149
255155633778912	1.7542267	-2.4955597	-1.685318
255155638814312	1.4060516	-2.5835114	-1.6779633
255155643849713	1.015091	-2.5749512	-1.6914063
255155648854596	0.6131439	-2.467453	-1.723175
255155654378277	0.23440552	-2.2695313	-1.763504
255155658925396	-0.09788513	-2.0019684	-1.8001556
255155663960797	-0.365448	-1.6867828	-1.8221436
255155669453961	-0.55970764	-1.3507843	-1.8172455
255155674031598	-0.687973	-1.0123749	-1.7830353
255155677358014	-0.687973	-0.69107056	-1.7830353
255155684132916	-0.807724	-0.69107056	-1.6119995
255155689137799	-0.8309326	-0.13641357	-1.4849548
255155694173199	-0.83703613	0.104263306	-1.348114
255155699208600	-0.8260498	0.34248352	-1.2186127
255155704488141	-0.79792786	0.586853	-1.1000977
255155709279400	-0.79792786	0.82751465	-0.9864807
255155714345318	-0.7515106	1.0437622	-0.9864807
255155719624859	-0.687973	1.0437622	-0.8704071
255155724385602	-0.61468506	1.202591	-0.7555847
255155727742535	-0.5340576	1.2832184	-0.6553955
255155734425885	-0.45339966	1.2783356	-0.583313
255155739491803	-0.37522888	1.1989136	-0.5466614
255155744527203	-0.30192566	1.0596466	-0.5503235
255155749562603	-0.23594666	0.87882996	-0.59552
255155754872662	-0.17974854	0.6784668	-0.6786041
255155759633404	-0.13697815	0.4793396	-0.78855896
255155764668805	-0.111328125	0.29974365	-0.9046173
255155769917828	-0.10888672	0.15556335	-1.0084839
255155774739605	-0.12843323	0.04562378	-1.090332
255155778127057	-0.16874695	-0.039886475	-1.1477509
255155784810406	-0.22494507	-0.104644775	-1.1807251
255155789845807	-0.2896881	-0.15106201	-1.1831665
255155794911725	-0.35810852	-0.17915344	-1.156311
255155799947125	-0.4192047	-0.19015503	-1.1025391
255155805409771	-0.46684265	-0.19139099	-1.0268097
255155809987408	-0.49128723	-0.18283081	-0.9388275
255155815022809	-0.49372864	-0.164505	-0.8471985
255155820485455	-0.47906494	-0.12905884	-0.75923157
255155825124127	-0.45584106	-0.07409668	-0.6847229
255155828450543	-0.45584106	0.0028686523	-0.6847229
255155835194928	-0.40454102	0.0028686523	-0.5710907
255155840169293	-0.3849945	0.19223022	-0.5246582
255155845204693	-0.3691101	0.29362488	-0.48068237
255155850270611	-0.35690308	0.3950348	-0.43670654
255155855550152	-0.3495636	0.48786926	-0.3927307
255155860341412	-0.3495636	0.56484985	-0.3927307
255155865376812	-0.3495636	0.56484985	-0.34873962
255155870869977	-0.35934448	0.6198273	-0.30108643
255155875447613	-0.378891	0.6613617	-0.2436676
255155878835064	-0.4033203	0.7041168	-0.17524719
255155885518414	-0.4289856	0.7578888	-0.09706116
255155890553814	-0.45584106	0.8287506	-0.012786865
255155895589215	-0.47906494	0.91426086	0.07273865
255155900655133	-0.50105286	1.0059052	0.15704346
255155905904156	-0.5206146	1.0901947	0.23890686
255155910725934	-0.5389404	1.1488342	0.31341553
255155915730816	-0.5584717	1.1683807	0.37573242
255155921071393	-0.58413696	1.1500549	0.42582703
255155925801617	-0.61712646	1.101181	0.4685669
255155929219586	-0.6611023	1.0278778	0.5113373
255155935841900	-0.7160797	0.93258667	0.5589905
255155940877301	-0.7832794	0.8201904	0.6066284
255155945943219	-0.86146545	0.6931305	0.64816284
255155950978619	-0.9481964	0.55140686	0.6787262
255155956380230	-1.0410614	0.3938141	0.7019348
255155961079937	-1.1436768	0.21910095	0.72880554
255155966084820	-1.256073	0.035858154	0.76179504
255155971394879	-1.3819275	-0.14494324	0.79722595
255155976155621	-1.513855	-0.31233215	0.8240967
255155979543072	-1.513855	-0.46626282	0.8240967
255155986195904	-1.7398987	-0.46626282	0.86564636
255155991292340	-1.7924347	-0.7936859	0.9059448
255155996297223	-1.7814331	-1.0160522	0.97924805
255156001363141	-1.7814331	-1.31781	0.97924805
255156006764752	-1.5725098	-1.31781	1.1771698
255156011433941	-1.5725098	-2.2829742	1.1771698
255156016438824	-1.4039154	-2.2829742	1.2419281
255156021962506	-1.2316589	-2.9549255	1.2663574
255156026540143	-1.0972595	-3.6769714	1.2663574
255156029805523	-1.0398407	-4.324478	1.2614746
255156036549908	-1.0801544	-4.7704163	1.2541504
255156041585309	-1.203537	-4.9524536	1.2358246
255156046651227	-1.3636017	-4.8815765	1.199173
255156051686627	-1.5004425	-4.6201324	1.1356354
255156056935650	-1.567627	-4.238968	1.0366821
255156061787945	-1.5419769	-3.7905884	0.90838623
255156066792828	-1.4185791	-3.3153229	0.76789856
255156072316510	-1.2108917	-2.8303223	0.631073
255156076863629	-0.94210815	-2.336731	0.5027771
255156080220562	-0.6427765	-1.8150482	0.38182068
255156086903912	-0.34222412	-1.2579498	0.2706604
255156091939312	-0.06123352	-0.6825104	0.17781067
255156096974713	0.19285583	-0.1437378	0.11061096
255156102040631	0.41766357	0.30218506	0.07640076
255156107289654	0.6155853	0.61860657	0.08128357
255156112111432	0.7841797	0.80062866	0.13259888
255156117146832	0.9100189	0.8629608	0.23278809
255156122395855	0.96987915	0.8104248	0.38671875
255156127217633	0.9344635	0.621048	0.59562683
255156130605084	0.9344635	0.2667389	0.59562683
255156137318951	0.5520477	0.2667389	1.0843353
255156142384869	0.25028992	-0.8474579	1.2407074
255156147359234	0.25028992	-1.4717407	1.2407074
255156152425152	-0.06491089	-1.4717407	1.290802
255156157887799	-0.3446808	-2.0593872	1.197937
255156162465436	-0.54626465	-2.5749512	1.197937
255156167500836	-0.6525574	-2.9781342	1.1014252
255156172963482	-0.66600037	-3.2298126	0.9597168
255156177541119	-0.6085663	-3.3177643	0.77523804
255156180928570	-0.50717163	-3.25914	0.578537
255156187611920	-0.38865662	-3.092987	0.40138245
255156192677838	-0.27015686	-2.8645172	0.26455688
255156197682721	-0.15652466	-2.6116333	0.17536926
255156202779156	-0.047805786	-2.3538208	0.13137817
255156207997662	0.06213379	-2.092392	0.13137817
255156212788922	0.1782074	-1.8150482	0.16925049
255156217824322	0.29548645	-1.5145111	0.22911072
255156223286969	0.40789795	-1.1968689	0.2902069
255156227925641	0.5056305	-0.8731079	0.33052063
255156231313092	0.57281494	-0.55667114	0.34762573
255156237996441	0.59846497	-0.25369263	0.34762573
255156243001324	0.57525635	0.027297974	0.33662415
255156248067242	0.49951172	0.2875061	0.31951904
255156253102643	0.35536194	0.52575684	0.2889862
255156258382184	0.120788574	0.738327	0.24134827
255156263173443	-0.20785522	0.9167023	0.17292786
255156268208844	-0.6085663	1.0572052	0.08862305
255156273457867	-1.0361786	1.1659393	-0.0042266846
255156278249127	-1.4393463	1.2514496	-0.09706116
255156281606061	-1.4393463	1.3113251	-0.09706116
255156288350445	-1.7716675	1.3113251	-0.25222778
255156293355328	-1.9976807	1.3491974	-0.25222778
255156298421246	-2.0941925	1.3675232	-0.29864502
255156303548199	-2.052658	1.3687439	-0.3206482
255156308705670	-1.8693848	1.3455353	-0.31330872
255156313527447	-1.5566254	1.2868958	-0.2778778
255156318532330	-1.1363525	1.2001495	-0.21557617
255156323842389	-0.64888	1.1097412	-0.13493347
255156328664166	-0.13087463	1.049881	-0.050628662
255156332021100	0.38101196	1.048645	0.027542114
255156338734967	0.8660431	1.1158447	0.09716797
255156343709332	1.311966	1.2441254	0.15336609
255156348744732	1.7114716	1.4151611	0.19857788
255156353810650	2.0547638	1.5972137	0.23155212
255156359212262	2.334549	1.7706909	0.2535553
255156363881451	2.5495605	1.9270782	0.26455688
255156368916852	2.7035065	2.0724487	0.25967407
255156374379498	2.7988129	2.2093048	0.24255371
255156378987652	2.83667	2.3351288	0.2193451
255156382344586	2.81958	2.4402008	0.19369507
255156389058453	2.7511597	2.5220642	0.16680908
255156394063336	2.6411896	2.578247	0.13383484
255156399098736	2.500702	2.6173553	0.09350586
255156404164654	2.3382263	2.644226	0.051971436
255156409383160	2.156189	2.6686554	0.01776123
255156414235455	1.9570313	2.6979828	-5.645752E-4
255156419270855	1.7432251	2.730957	-0.0030212402
255156424702984	1.5184326	2.7615204	0.007980347
255156429311139	1.2887421	2.7798462	0.023864746
255156432698590	1.2887421	2.788391	0.023864746
255156439381939	1.0578461	2.788391	0.043426514
255156444417340	0.8342743	2.788391	0.06663513
255156449483258	0.6216736	2.7810516	0.092285156
255156454518658	0.42622375	2.7651672	0.11671448
255156459737164	0.25028992	2.7333984	0.13627625
255156464558941	0.09024048	2.6820984	0.14726257
255156469624859	-0.05392456	2.6100159	0.15704346
255156474873883	-0.18463135	2.5208282	0.1741333
255156479665143	-0.30680847	2.4243164	0.2034607
255156483052594	-0.42042542	2.3290253	0.24255371
255156489796978	-0.5291443	2.2337189	0.2853241
255156494771344	-0.6354523	2.1347656	0.32929993
255156499837262	-0.7307434	2.0199127	0.37083435
255156504903180	-0.80892944	1.8782043	0.41238403
255156510274273	-0.86146545	1.7022705	0.4551239
255156514912945	-0.8846741	1.486023	0.4978943
255156520009381	-0.87246704	1.2343597	0.5394287
255156525258404	-0.8284912	0.9618988	0.5736389
255156530019146	-0.755188	0.685791	0.5968628
255156533376080	-0.755188	0.4182434	0.5968628
255156540089947	-0.54748535	0.4182434	0.59198
255156545155865	-0.4289856	-0.10096741	0.565094
255156550160748	-0.30801392	-0.36730957	0.5272217
255156555226666	-0.19561768	-0.63974	0.4820099
255156560536725	-0.09788513	-0.9122009	0.44047546
255156565297467	-0.018493652	-1.1773071	0.41482544
255156570332867	0.041366577	-1.4253235	0.40750122
255156575856549	0.08169556	-1.6513367	0.41970825
255156580403668	0.08169556	-1.8504944	0.41970825
255156583760602	0.108551025	-1.8504944	0.44047546
255156590474469	0.124435425	-2.0227356	0.46368408
255156595509869	0.13423157	-2.170578	0.48568726
255156600575787	0.13543701	-2.2890778	0.5052185
255156605580670	0.12687683	-2.37706	0.5235443
255156610951764	0.10978699	-2.4344788	0.5406647
255156615651471	0.08413696	-2.4650116	0.5553131
255156620686871	0.048706055	-2.4747925	0.5663147
255156626637799	0.004714966	-2.4686737	0.5736389
255156630757672	-0.042922974	-2.4515686	0.5809784
255156634175641	-0.09422302	-2.4185944	0.5931854
255156640858990	-0.14431763	-2.3660583	0.6103058
255156645833355	-0.19317627	-2.2890778	0.63471985
255156650929791	-0.24082947	-2.1901245	0.6677246
255156655965191	-0.2872467	-2.066742	0.70925903
255156661275250	-0.3324585	-1.9201202	0.75691223
255156666005475	-0.37522888	-1.7564087	0.8069916
255156671040875	-0.4167633	-1.5792694	0.8546448
255156676411969	-0.45584106	-1.3911133	0.8937378
255156681203228	-0.49128723	-1.1846466	0.9230652
255156684438092	-0.49128723	-0.95861816	0.9230652
255156691243512	-0.55726624	-0.95861816	0.953598
255156696248394	-0.5877991	-0.4723816	0.9523926
255156701253277	-0.6195679	-0.23292542	0.9340668
255156706288678	-0.6549988	0.0028686523	0.901062
255156711751324	-0.6953125	0.23864746	0.8558655
255156716359478	-0.7380676	0.47198486	0.8069916
255156721455914	-0.780838	0.6967926	0.7605591
255156726949078	-0.8260498	0.90693665	0.72514343
255156731465680	-0.8260498	1.102417	0.72514343
255156734822613	-0.87490845	1.102417	0.70069885
255156741536480	-0.9249878	1.2820129	0.683609
255156746602398	-0.97631836	1.4481659	0.66893005
255156751607281	-1.0300598	1.6008759	0.6518402
255156756642682	-1.08992	1.7413635	0.6286316
255156762044293	-1.1583557	1.8684235	0.59562683
255156766744000	-1.2377472	1.9808197	0.5492096
255156771718365	-1.3269348	2.0736847	0.49057007
255156777303082	-1.4259033	2.146988	0.42338562
255156781819684	-1.532196	2.1946259	0.34762573
255156785207135	-1.6384888	2.2141876	0.26332092
255156792378766	-1.7398987	2.2007446	0.17536926
255156796925885	-1.8315125	2.1494293	0.083740234
255156802022320	-1.9072571	2.063919	-0.009109497
255156807027203	-1.9720001	1.9564056	-0.104400635
255156812764508	-2.0599823	1.8281097	-0.19969177
255156817067486	-2.2346954	1.6228638	-0.2937622
255156822102887	-2.5437775	1.1915894	-0.38417053
255156827412945	-2.938385	0.32295227	-0.46115112
255156832173687	-3.2254944	-1.1919861	-0.5283356
255156835530621	-3.2254944	-3.4460602	-0.5283356
255156842244488	-2.5059204	-3.4460602	-0.74702454
255156847249371	-1.3452759	-9.467957	-0.9913635
255156852345807	0.053588867	-12.343872	-1.3407745
255156857350689	1.2618713	-14.324295	-1.737854
255156862691266	1.9533691	-14.869186	-2.0970306
255156867452008	1.9533691	-13.783081	-2.3645935
255156872456891	2.0840912	-13.783081	-2.3645935
255156877797467	1.870285	-11.375046	-2.550293
255156882527691	1.5831757	-8.328079	-2.6920013
255156885884625	1.3840485	-5.343399	-2.8141785
255156892690045	1.3046265	-2.853531	-2.9241333
255156897664410	1.3302765	-0.99038696	-3.0292053
255156902669293	1.4512329	0.28630066	-3.1428223
255156907704693	1.6479492	1.0816498	-3.25766
255156913075787	1.8910522	1.5153503	-3.3431854
255156917806012	2.1378632	1.7022705	-3.3602905
255156922841412	2.3577576	1.7511597	-3.2857666
255156928365094	2.534912	1.7413635	-3.1403809
255156932881695	2.6680756	1.7267151	-2.9669037
255156936238629	2.7462769	1.7254791	-2.8105164
255156942983014	2.753601	1.7303619	-2.685913
255156947987896	2.6741943	1.7193909	-2.5918274
255156953053814	2.4994812	1.6851807	-2.5270844
255156958058697	2.2306976	1.6411896	-2.4928741
255156963429791	1.8812866	1.6082001	-2.4781952
255156968129498	1.4854431	1.5874329	-2.4598694
255156973164898	1.0920563	1.564209	-2.418335
255156978627545	0.75730896	1.5373535	-2.3413696
255156983235699	0.5166168	1.5080261	-2.226532
255156986592633	0.5166168	1.4713745	-2.226532
255156993275982	0.32847595	1.4713745	-1.8697968
255156998311383	0.3431244	1.3027802	-1.6437683
255157003407818	0.4005432	1.1317291	-1.4152985
255157008412701	0.48484802	0.88127136	-1.2100525
255157013722760	0.5838165	0.56484985	-1.0390167
255157018483502	0.5838165	0.22520447	-1.0390167
255157023488385	0.68400574	0.22520447	-0.9082947
255157028767926	0.7743988	-0.07775879	-0.82398987
255157033620221	0.8403778	-0.30010986	-0.78245544
255157036916119	0.8684845	-0.4296112	-0.7763519
255157043691021	0.85624695	-0.4760437	-0.7922363
255157048665387	0.8073883	-0.4638214	-0.81788635
255157053700787	0.730423	-0.41007996	-0.8447571
255157058797223	0.63635254	-0.3269806	-0.8643036
255157064168316	0.5337219	-0.22070313	-0.8765259
255157068837506	0.43354797	-0.09240723	-0.880188
255157073903424	0.34068298	0.05418396	-0.880188
255157079182965	0.26127625	0.21299744	-0.8789673
255157083913189	0.19897461	0.37060547	-0.8789673
255157087270123	0.15620422	0.50743103	-0.8777466
255157094014508	0.12567139	0.6039429	-0.87286377
255157099049908	0.104904175	0.6479187	-0.8606415
255157104054791	0.092681885	0.6381531	-0.841095
255157109120709	0.089019775	0.58195496	-0.81666565
255157114369732	0.09146118	0.48666382	-0.7897949
255157119191510	0.09512329	0.3693695	-0.761673
255157124196393	0.09146118	0.24108887	-0.7323761
255157129750592	0.07557678	0.10670471	-0.7006073
255157134297711	0.04624939	-0.028884888	-0.6688385
255157137654644	0.04624939	-0.164505	-0.6688385
255157144337994	-0.04536438	-0.164505	-0.6016388
255157149373394	-0.10520935	-0.408844	-0.5613098
255157154469830	-0.17608643	-0.5078125	-0.51612854
255157159474713	-0.17608643	-0.59088135	-0.51612854
255157164784771	-0.25671387	-0.59088135	-0.46235657
255157169545514	-0.3446808	-0.6605377	-0.40127563
255157174550396	-0.43507385	-0.72039795	-0.33163452
255157180013043	-0.5267029	-0.7753601	-0.2571106
255157184621197	-0.61712646	-0.8266754	-0.18136597
255157188008648	-0.702652	-0.8792267	-0.104400635
255157194753033	-0.7783966	-0.93540955	-0.027420044
255157199727398	-0.84558105	-0.9952698	0.04953003
255157204793316	-0.906662	-1.0612488	0.12771606
255157209828717	-0.9640808	-1.1296539	0.20957947
255157215077740	-1.0190582	-1.1944275	0.29753113
255157219869000	-1.0728302	-1.2469482	0.39282227
255157224934918	-1.1290283	-1.2835999	0.49423218
255157230214459	-1.19133	-1.300705	0.604187
255157235066754	-1.2597504	-1.29216	0.7178192
255157238332135	-1.3330536	-1.2567291	0.83631897
255157245107037	-1.4112396	-1.1968689	0.9597168
255157250142437	-1.4967651	-1.1223297	1.0879822
255157255116803	-1.584732	-1.0417023	1.2187042
255157260182721	-1.6714783	-0.9574127	1.3518829
255157265584332	-1.7533417	-0.8706665	1.4887238
255157270284039	-1.8180847	-0.7802429	1.6304321
255157275319439	-1.8388519	-0.69473267	1.7733765
255157280721051	-1.7692108	-0.62753296	1.916336
255157285329205	-1.567627	-0.6055298	2.0494843
255157288716656	-1.567627	-0.66174316	2.0494843
255157295430523	-0.8126068	-0.66174316	2.260849
255157300496441	-0.8126068	-1.0624695	2.3317108
255157305501324	-0.35934448	-1.0624695	2.3317108
255157310536725	0.073135376	-1.3459015	2.3695679
255157315968853	0.43966675	-1.5658264	2.352478
255157320607525	0.69744873	-1.6220093	2.260849
255157325612408	0.8073883	-1.4631958	2.0849152
255157331075055	0.7511902	-1.1260071	1.8344727
255157335683209	0.5300598	-0.7154999	1.535141
255157339101178	0.16844177	-0.35754395	1.2187042
255157345784527	-0.28115845	-0.1461792	0.9218292
255157350789410	-0.7441864	-0.11808777	0.66893005
255157355855328	-1.1339111	-0.26101685	0.47836304
255157360890728	-1.3782501	-0.513916	0.35740662
255157366139752	-1.4381104	-0.7912445	0.29997253
255157370992047	-1.3196106	-1.00383	0.29264832
255157376027447	-1.0606079	-1.1052399	0.33052063
255157381368023	-0.7221832	-1.1125641	0.42214966
255157386098248	-0.3678894	-1.0783539	0.5724182
255157389424664	-0.055130005	-1.0551453	0.77033997
255157396169049	0.17208862	-1.0710297	0.9890442
255157401173932	0.28816223	-1.1455383	1.186966
255157406239850	0.28816223	-1.2982635	1.3176727
255157411275250	0.18797302	-1.549942	1.3470001
255157416737896	0.024261475	-1.91156	1.2700348
255157421346051	-0.15652466	-2.3599396	1.1160889
255157426381451	-0.3141327	-2.8327637	0.9193878
255157432088238	-0.42652893	-3.2505798	0.7068176
255157436421734	-0.49493408	-3.5584564	0.4893341
255157439778668	-0.49493408	-3.7466125	0.4893341
255157446553570	-0.53770447	-3.7466125	0.06907654
255157451558453	-0.57559204	-3.8431244	0.06907654
255157456563336	-0.6305542	-3.8895416	-0.116607666
255157461598736	-0.7221832	-3.927414	-0.2754364
255157467641217	-1.0483856	-3.992157	-0.49412537
255157471669537	-1.0483856	-4.219406	-0.49412537
255157476827008	-1.2670746	-4.219406	-0.5710907
255157482259137	-1.4967651	-4.3147125	-0.65415955
255157486806256	-1.7093353	-4.3281555	-0.76290894
255157490132672	-1.8852692	-4.225525	-0.8924103
255157496877057	-2.0111237	-3.9982758	-1.019455
255157501881939	-2.083191	-3.6513062	-1.1172028
255157507130963	-2.1027374	-3.2090454	-1.1685181
255157511983258	-2.052658	-2.7350159	-1.1709595
255157517201764	-1.8938293	-2.3294067	-1.129425
255157522054059	-1.579834	-2.078949	-1.0487823
255157527058941	-1.0997009	-1.9958649	-0.93518066
255157532979352	-0.5083771	-2.004425	-0.8093262
255157537190777	0.096343994	-1.9946442	-0.69569397
255157540517193	0.096343994	-1.8749084	-0.6211853
255157547414166	1.040741	-1.6073608	-0.59552
255157552205426	1.3363953	-1.1980743	-0.6040802
255157557576519	1.5306549	-0.67762756	-0.6211853
255157562306744	1.6515961	-0.088760376	-0.6150818
255157567464215	1.7212372	0.52207947	-0.5674286
255157572408062	1.7578888	1.1195068	-0.4721222
255157577504498	1.7737732	1.6802826	-0.33529663
255157583211285	1.7749939	2.1921844	-0.16548157
255157587788922	1.7615662	2.652771	0.023864746
255157590810162	1.7615662	3.0620575	0.023864746
255157597829205	1.7297974	3.0620575	0.40626526
255157602620465	1.6833649	3.427353	0.40626526
255157607777936	1.6296234	3.758438	0.5663147
255157612660748	1.5795288	4.060211	0.6884918
255157618764264	1.5416412	4.3302	0.8069916
255157622762066	1.5233154	4.7614746	0.8069916
255157628133160	1.5220947	4.7614746	0.80332947
255157633168561	1.5269928	4.921509	0.75935364
255157637868268	1.5282135	5.0498047	0.68481445
255157641194684	1.5123291	5.1475525	0.5883026
255157648183209	1.481781	5.213516	0.48568726
255157653004986	1.4414673	5.2465057	0.38793945
255157658406598	1.4011383	5.2477264	0.3060913
255157663014752	1.3644867	5.2208557	0.24499512
255157668446881	1.329071	5.174408	0.20957947
255157673116070	1.289978	5.1121063	0.19978333
255157678151471	1.2398834	5.0326996	0.21322632
255157683705670	1.1763611	4.9288635	0.24499512
255157688496930	1.0993805	4.803009	0.2902069
255157691518170	1.0993805	4.658844	0.2902069
255157698750836	0.9051361	4.658844	0.41238403
255157703297955	0.782959	4.348526	0.48080444
255157708852154	0.6399994	4.1933746	0.5455475
255157713368756	0.4750824	4.046768	0.6017456
255157718739850	0.29060364	3.912384	0.6420593
255157723470074	0.09024048	3.790207	0.66404724
255157728597027	-0.114990234	3.6729279	0.66404724
255157734029156	-0.30924988	3.5519714	0.64816284
255157739430768	-0.47906494	3.4114685	0.6249542
255157749440533	-0.70874023	3.2404327	0.590744
255157753621441	-0.70874023	2.796936	0.590744
255157758839947	-0.7698364	2.796936	0.5809784
255157763722760	-0.7991638	2.5501556	0.5736389
255157769704205	-0.79792786	2.3033752	0.5638733
255157773793561	-0.7698364	2.063919	0.551651
255157779652936	-0.7185364	1.8305511	0.5345459
255157784169537	-0.65133667	1.6033173	0.5113373
255157789815289	-0.57315063	1.3846283	0.48324585
255157802266461	-0.3348999	0.9912262	0.36839294
255157809834820	-0.26283264	0.6552582	0.31585693
255157814076764	-0.19561768	0.49887085	0.2584381
255157819569928	-0.13209534	0.3376007	0.20101929
255157824147564	-0.06855774	0.16656494	0.14726257
255157829976422	0.0034942627	-0.01789856	0.10694885
255157834584576	0.08534241	-0.2121582	0.08250427
255157839864117	0.17332458	-0.4137268	0.07395935
255157842580182	0.17332458	-0.6189728	0.07395935
255157849995953	0.35656738	-0.6189728	0.09106445
255157854329449	0.4433136	-1.0563507	0.11305237
255157860249859	0.5239563	-1.29216	0.1423645
255157864430768	0.59358215	-1.5401611	0.17901611
255157870046002	0.6485596	-1.8016052	0.21690369
255157874501568	0.68888855	-2.0740662	0.2559967
255157879811627	0.7145386	-2.348938	0.29264832
255157884999615	0.72065735	-2.6152802	0.3244171
255157890309674	0.7059784	-2.8596191	0.34518433
255157892964703	0.7059784	-3.078308	0.34518433
255157900441510	0.6693268	-3.078308	0.35617065
255157904683453	0.61434937	-3.2652283	0.35617065
255157910664898	0.5410614	-3.420395	0.35250854
255157914784771	0.4555359	-3.5401306	0.34762573
255157920338971	0.3614502	-3.6280975	0.35006714
255157924855572	0.2649536	-3.6818542	0.36717224
255157930531842	0.16964722	-3.7038422	0.39649963
255157935139996	0.07557678	-3.696518	0.4343567
255157940877301	-0.019714355	-3.6623077	0.47346497
255157950856549	-0.20051575	-3.529129	0.5431061
255157955037457	-0.28359985	-3.4240723	0.5687561
255157960927350	-0.3556671	-3.2945557	0.5870819
255157965108258	-0.4167633	-3.144287	0.5993042
255157970754010	-0.46440125	-2.9769135	0.6090698
255157975209576	-0.497406	-2.7887573	0.6151886
255157981129986	-0.51693726	-2.5761871	0.6188507
255157985494000	-0.5206146	-2.3342896	0.6225128
255157991322857	-0.50961304	-2.0581818	0.6286316
255158001271588	-0.44851685	-1.7441864	0.6420593
255158005452496	-0.4033203	-1.0221558	0.6420593
255158011311871	-0.3532257	-0.6312103	0.6335144
255158015462262	-0.30192566	-0.23168945	0.6127472
255158021993023	-0.2554779	0.17266846	0.5797577
255158025563580	-0.2554779	0.5746155	0.5797577
255158031789166	-0.18707275	0.5746155	0.48568726
255158036031109	-0.18707275	1.3540802	0.48568726
255158041554791	-0.18829346	1.3540802	0.36351013
255158051839215	-0.27871704	2.0688019	0.23399353
255158055745465	-0.27871704	2.6882172	0.23399353
255158061940533	-0.352005	2.6882172	0.16925049
255158065846783	-0.43753052	2.949646	0.10206604
255158071767193	-0.53526306	3.173233	0.028747559
255158075887066	-0.6427765	3.352829	-0.05430603
255158081715924	-0.7625122	3.4835663	-0.14837646
255158086385113	-0.88835144	3.5641937	-0.25099182
255158092183453	-1.0105286	3.60083	-0.36340332
255158102284771	-1.4918823	3.4982147	-0.6004181
255158106099469	-2.0954132	3.0278473	-0.6737213
255158112202984	-2.851654	1.8183441	-0.6871643
255158116200787	-3.3171387	-0.3843994	-0.6822815
255158121846539	-3.017807	-3.5095978	-0.7507019
255158126271588	-1.8864899	-7.1552124	-0.96447754
255158132649762	-0.3642273	-10.7030945	-1.3041229
255158136586529	0.91490173	-13.436111	-1.6755219
255158142629010	1.561203	-14.762909	-1.9907532
255158152699811	1.2826385	-14.473358	-2.4647827
255158156514508	0.9454346	-10.353683	-2.7103271
255158162709576	0.7463074	-7.6487885	-2.974228
255158166524273	0.7463074	-5.1711273	-3.2283478
255158172627789	0.8367157	-5.1711273	-3.4494934
255158176625592	0.8367157	-1.7454224	-3.4494934
255158183156353	1.3657227	-1.7454224	-3.7207031
255158186910016	1.3657227	-0.10340881	-3.7207031
255158192708355	2.0254517	-0.10340881	-3.610733
255158203023297	2.3052216	0.57829285	-3.0682983
255158206837994	2.514145	0.75665283	-3.0682983
255158213216168	2.6375427	0.88861084	-2.7103271
255158216908795	2.6693115	1.010788	-2.357254
255158221944195	2.5960083	1.1500549	-2.046936
255158226979596	2.4054108	1.3272095	-1.8001556
255158233266217	2.0865326	1.5507965	-1.6278839
255158237538678	1.6515961	1.8110199	-1.5276947
255158242116314	1.1299133	2.081009	-1.4837189
255158245412213	0.57525635	2.3192444	-1.4739532
255158252187115	0.043807983	2.4939423	-1.4727173
255158257191998	-0.41186523	2.5941315	-1.4568329
255158262227398	-0.7576294	2.627121	-1.4152985
255158267262799	-0.9812012	2.601471	-1.3432312
255158272542340	-1.091156	2.5196228	-1.2467041
255158277333600	-1.1058044	2.377884	-1.1318665
255158283711773	-1.0459442	2.1799774	-1.0121307
255158287648541	-0.933548	1.9392853	-0.9021759
255158292439801	-0.78816223	1.6815033	-0.81910706
255158295796734	-0.78816223	1.4298401	-0.81910706
255158302510602	-0.45951843	1.4298401	-0.74946594
255158307546002	-0.2982483	0.98757935	-0.74090576
255158312611920	-0.2982483	0.80918884	-0.7348175
255158317647320	-0.15164185	0.80918884	-0.7348175
255158322957379	-0.02947998	0.6589203	-0.7262573
255158327718121	0.064575195	0.534317	-0.72013855
255158332723004	0.12567139	0.4329071	-0.72502136
255158338063580	0.15620422	0.3486023	-0.74458313
255158342763287	0.15864563	0.27897644	-0.7775574
255158346150738	0.13787842	0.22276306	-0.81910706
255158352864605	0.0987854	0.18733215	-0.8630829
255158357900006	0.045028687	0.18244934	-0.9009552
255158362996441	-0.023391724	0.20565796	-0.9253845
255158368001324	-0.111328125	0.24841309	-0.9363861
255158373616559	-0.21762085	0.3033905	-0.9315033
255158378072125	-0.3324585	0.3657074	-0.9119415
255158383077008	-0.44363403	0.4353485	-0.8826294
255158389058453	-0.5389404	0.50743103	-0.8447571
255158393178326	-0.6049042	0.5721741	-0.80444336
255158396504742	-0.636673	0.6198273	-0.76290894
255158403249127	-0.636673	0.6479187	-0.72502136
255158408254010	-0.61712646	0.6613617	-0.6920471
255158413319928	-0.5877991	0.6699219	-0.6639557
255158418355328	-0.55970764	0.6784668	-0.6395111
255158423940045	-0.53770447	0.685791	-0.6199646
255158428395611	-0.5291443	0.685791	-0.6028595
255158433461529	-0.5316162	0.6748047	-0.5906372
255158438954693	-0.54382324	0.6528168	-0.5784302
255158443532330	-0.5584717	0.6247101	-0.5662079
255158446889264	-0.5584717	0.5929413	-0.5662079
255158453572613	-0.58291626	0.5929413	-0.5246582
255158458638531	-0.58291626	0.5318756	-0.5246582
255158463673932	-0.5902405	0.5318756	-0.49168396
255158468709332	-0.5951233	0.50131226	-0.45259094
255158474507672	-0.58413696	0.47077942	-0.35484314
255158478749615	-0.58413696	0.40968323	-0.35484314
255158483815533	-0.56703186	0.40968323	-0.29988098
255158489125592	-0.54626465	0.37060547	-0.24734497
255158493886334	-0.52793884	0.32539368	-0.19725037
255158497243268	-0.5181732	0.27774048	-0.14959717
255158503957135	-0.5181732	0.23008728	-0.10316467
255158508962018	-0.52549744	0.18122864	-0.059188843
255158514027936	-0.536499	0.12869263	-0.01399231
255158519063336	-0.55358887	0.07006836	0.036087036
255158524587018	-0.5743561	0.008972168	0.08984375
255158529134137	-0.6036835	-0.04966736	0.14848328
255158534169537	-0.6415558	-0.10585022	0.21202087
255158539510113	-0.687973	-0.15838623	0.2853241
255158544240338	-0.7441864	-0.20848083	0.37449646
255158547566754	-0.80648804	-0.25491333	0.47712708
255158554341656	-0.87490845	-0.30010986	0.5834198
255158559316021	-0.9481964	-0.35386658	0.6787262
255158564381939	-1.025177	-0.422287	0.7605591
255158569417340	-1.104599	-0.5114746	0.8387604
255158574971539	-1.1840057	-0.6263275	0.9303894
255158579488141	-1.2499847	-0.7655945	1.0488892
255158584493023	-1.2866364	-0.93418884	1.186966
255158590016705	-1.2756348	-1.1418915	1.324997
255158594594342	-1.2133331	-1.397232	1.4410706
255158597920758	-1.2133331	-1.6879883	1.4410706
255158604695660	-1.1143646	-1.6879883	1.5302582
255158609670025	-1.0044098	-1.9812012	1.6011047
255158614735943	-0.9005585	-2.235321	1.6597595
255158619771344	-0.80036926	-2.4197998	1.7037354
255158625142437	-0.6940918	-2.5126495	1.7257385
255158629842144	-0.5743561	-2.5077667	1.7184143
255158634877545	-0.44363403	-2.4051514	1.674408
255158640401227	-0.31536865	-2.223114	1.5937805
255158644978863	-0.20295715	-1.9897614	1.4801636
255158648305279	-0.114990234	-1.7283173	1.3372192
255158655019146	-0.06367493	-1.4522095	1.1649628
255158660054547	-0.056350708	-1.1614227	0.953598
255158665059430	-0.10032654	-0.8498993	0.7068176
255158670094830	-0.19073486	-0.5236969	0.44659424
255158675496441	-0.30924988	-0.2097168	0.2083435
255158680165631	-0.42774963	0.049301147	0.032424927
255158685201031	-0.5132904	0.22399902	-0.05796814
255158690511090	-0.5425873	0.31562805	-0.05430603
255158695271832	-0.5108185	0.3510437	0.04096985
255158698659283	-0.5108185	0.35836792	0.21690369
255158705342633	-0.32757568	0.35836792	0.45391846
255158710408551	-0.24571228	0.3143921	0.7337036
255158715413434	-0.2188263	0.22399902	1.0269012
255158720448834	-0.26039124	0.05418396	1.2895813
255158725941998	-0.3666687	-0.20359802	1.4630737
255158730519635	-0.50593567	-0.53834534	1.5033722
255158735555035	-0.6403351	-0.91342163	1.404419
255158741078717	-0.728302	-1.2664948	1.199173
255158745656353	-0.728302	-1.5254974	0.9303894
255158748952252	-0.7490692	-1.5254974	0.9303894
255158755727154	-0.6989746	-1.6488953	0.631073
255158760793072	-0.58413696	-1.6403351	0.31951904
255158765767437	-0.417984	-1.5340576	0.009216309
255158770802838	-0.22128296	-1.3740234	-0.2888794
255158776723248	-0.01727295	-1.1907501	-0.5625458
255158780843121	0.17576599	-1.0099335	-0.80688477
255158785939557	0.3455658	-0.85110474	-1.0121307
255158792989117	0.5618286	-0.72650146	-1.2772522
255158796010357	0.5618286	-0.57255554	-1.2772522
255158799367291	0.58747864	-0.57255554	-1.3444519
