linearaccelerometer_timestamp	linearaccelerometer_x_data	linearaccelerometer_y_data	linearaccelerometer_z_data
1451387078816525682	2.1433597	-2.3527632	4.486488
1451387078821408495	2.076086	-2.2994204	4.3725634
1451387078831448778	2.2540846	-3.5798626	4.6714005
1451387078836911425	2.479457	-4.8227396	5.016836
1451387078841550096	2.4082584	-4.7211323	4.898194
1451387078846951708	2.0042095	-5.1641817	5.3465786
1451387078852139696	1.9442537	-5.056755	5.219791
1451387078856595262	1.6320522	-4.2090635	5.9349265
1451387078861691698	1.5889738	-4.122037	5.793722
1451387078867367967	2.2447958	-2.84371	4.1676726
1451387078871762499	2.199001	-2.7848854	4.0625916
1451387078875149950	2.1557639	-2.7286081	3.9671512
1451387078881833300	1.6576891	-1.0259237	-0.7737601
1451387078887509569	-0.59395504	1.682601	-5.14534
1451387078891904100	-0.58806014	1.6507187	-5.039142
1451387078896817430	-3.4107215	4.5077667	-6.707869
1451387078901761278	-3.3517444	4.418517	-6.5287247
1451387078906888231	-5.886281	7.77571	-5.8582816
1451387078443453497	-5.77325	7.6264706	-5.661092
1451387078449038214	-6.3633823	7.2206182	0.08028698
1451387078453524298	-6.2346587	7.086651	0.15192091
1451387078463564581	-4.706182	1.3041229	5.826239
1451387078468477911	-3.5234249	-4.152025	6.8510723
1451387078473635382	-3.4415321	-4.083399	6.7140555
1451387078478548712	-2.8334196	-7.343752	4.1018486
1451387078484286016	-2.7732465	-7.2174187	3.9742978
1451387078488650030	-2.0004747	-8.185073	1.1603359
1451387078493685430	-1.9595447	-8.048987	1.106558
1451387078499544805	-1.8138713	-7.537876	-1.7101636
1451387078503847784	-1.7681814	-7.419615	-1.6852291
1451387078513949102	-1.354232	-5.7994556	-4.9497075
1451387078518862432	-0.045990705	-3.3250933	-7.9396076
1451387078524050421	1.8565822	-0.79409313	-6.8066454
1451387078528933233	1.8787596	-0.7939806	-6.627895
1451387078535494512	3.5455828	1.3093309	-3.148234
1451387078539126104	3.5310369	1.2824869	-3.0427585
1451387078545077032	4.9333878	2.0181808	-0.41831082
1451387078549929327	4.9124746	1.9808407	-0.34714818
1451387078554201788	6.1285233	1.4554253	0.7840404
1451387078557589239	6.076342	1.4294577	0.810486
1451387078564333624	7.032685	0.5328646	0.98971224
1451387078569124884	6.9816837	0.51883125	1.0253015
1451387078574251837	5.858386	-0.5191717	1.4668041
1451387078579287237	5.8232555	-0.51830864	1.5028446
1451387078584719366	4.2462716	-1.7459002	1.2305404
1451387078589510626	4.2253933	-1.7270727	1.2791626
1451387078594423956	1.8613435	-2.8980007	0.52458405
1451387078600222296	1.8761386	-2.863511	0.6140286
1451387078604464239	0.12777507	-4.009447	0.14379586
1451387078607943243	0.1494013	-3.9574394	0.20783901
1451387078614535040	-1.0101793	-4.5676394	-0.60220337
1451387078619570440	-0.9584727	-4.508073	-0.4952921
1451387078624605841	-1.4117161	-4.7610273	-0.9865923
1451387078629641241	-1.3472424	-4.698248	-0.87977
1451387078635348028	-1.3039036	-4.5784435	-0.7790044
1451387078639834112	-1.2395245	-4.5177555	-0.6940595
1451387078644747442	-0.8690713	-3.7954874	-0.25295103
1451387078649691290	-0.80118763	-3.7445993	-0.17721504
1451387078654818243	0.17238337	-3.1249542	0.54977226
1451387078664980596	1.4057806	-2.3103142	1.4836403
1451387078669924444	1.443591	-2.2767868	1.5311048
1451387078675051397	2.3540773	-1.4798107	1.9612879
1451387078679995245	2.3726788	-1.4555607	2.004017
1451387078685640997	2.8551092	-0.79080296	1.9875021
1451387078690188116	2.8561122	-0.7744322	2.0267134
1451387078695101446	3.0353413	-0.55996037	1.9354037
1451387078700075811	2.6820054	-0.9363451	2.0991163
1451387078705172247	2.6811523	-0.9164543	2.1446614
1451387078708529180	2.6683893	-0.8997288	2.164629
1451387078715334600	2.0532398	-1.3561287	1.5655974
1451387078720766729	1.6014826	-1.8604708	1.2666534
1451387078725466436	1.6073259	-1.830492	1.30976
1451387078730684942	1.3551545	-2.1302233	1.6072661
1451387078735323614	1.3650225	-2.0977182	1.6414531
1451387078740420050	1.3206152	-2.1741552	2.2834501
1451387078745577520	1.3360703	-2.1411467	2.310105
1451387078751162237	1.3965912	-2.1404505	2.689007
1451387078755526251	1.4085413	-2.110053	2.6980882
1451387078758974737	1.4147342	-2.0814714	2.697804
1451387078765719122	1.6276073	-1.9874392	2.6420956
1451387078770662970	1.7148123	-1.6820631	2.1654544
1451387078775789923	1.7331259	-1.6568737	2.1814947
1451387078780703253	2.1007159	-1.495265	1.4943209
1451387078785647100	2.116887	-1.4726686	1.5146587
1451387078790774053	2.4752722	-1.4099817	1.3072711
1451387078795931524	2.490871	-1.3881073	1.3302795
1451387078801638311	2.6331093	-1.2723198	1.7542505
1451387078806032843	2.6410525	-1.2529945	1.766151
1451387078816073126	2.6105409	-1.1328707	2.0513296
1451387078820986456	2.4809973	-1.0764694	1.6804428
1451387078826143927	2.4989898	-1.0580673	1.697464
1451387078831057257	2.1998665	-0.956089	1.1812546
1451387078836001104	2.221332	-0.93904114	1.2020714
1451387078841128057	2.0690887	-0.59862995	1.1216908
1451387078846132940	2.0946655	-0.5851097	1.1424038
1451387078851870245	1.9039547	-0.023535728	1.2245853
1451387078856356329	1.9273916	-0.01670456	1.2390504
1451387078866457647	1.8902721	0.6024103	1.4748573
1451387078871340460	1.9362036	1.0656366	1.9061017
1451387078876406378	2.0597072	1.3326111	2.0901425
1451387078881502813	2.0852754	1.3267059	2.0947235
1451387078887850470	2.4014955	1.2229366	1.6262603
1451387078891604132	2.410281	1.2159233	1.6265659
1451387078897402471	3.0645509	1.168581	1.1393902
1451387078902102178	3.073001	1.1625538	1.1446292
1451387078906893438	3.5503347	1.1562033	1.0719748
1451387078909945196	3.5394123	1.147747	1.0690219
1451387078916659063	3.9122677	1.2540665	1.4535012
1451387078921694464	3.9099512	1.2448454	1.4454262
1451387078926729864	4.050826	1.2587194	2.038966
1451387078931856817	4.044581	1.2480202	2.0196123
1451387078937563604	3.985935	1.4016018	2.5356402
1451387078941958136	3.973336	1.3883495	2.5072916
1451387078946901983	3.8798747	1.8168678	2.936296
1451387078952700323	3.8733127	1.7984419	2.8971415
1451387078956942266	3.8465292	2.1860056	2.955656
1451387078960421270	3.8277946	2.1646805	2.9196854
1451387078967013067	4.103192	2.1867676	2.4978867
1451387078972017950	4.0881786	2.1638613	2.4566255
1451387078977083868	4.2685976	2.318551	1.9168524
1451387078982119268	4.2504716	2.2934284	1.8743683
1451387078987856573	4.254064	2.6006613	1.7028545
1451387078992281622	4.230916	2.572733	1.6592779
1451387078997225470	3.5896916	3.5425644	1.9645123
1451387079003023809	3.5707576	3.5035477	1.8995329
1451387079007418341	2.66465	4.3299417	2.192316
1451387079017458624	2.0574906	4.0412645	2.0208678
1451387079022402471	2.0296376	3.9977198	1.942915
1451387079027559942	1.5612959	3.0396261	2.1248739
1451387079032473272	1.5235922	3.0044994	2.0334918
1451387079037447637	1.16594	2.34334	2.2187886
1451387079042666143	1.1165149	2.3138695	2.1046119
1451387079047579473	0.7395689	1.9631453	1.8896945
1451387079052553839	0.10778625	1.493083	1.5034721
1451387079057650274	0.05556622	1.4740973	1.3789487
1451387079067812628	-0.73114264	1.3116503	1.0419761
1451387079073000616	-1.7178446	1.6480093	0.13550271
1451387079077944464	-1.7684704	1.6350279	-0.0042308792
1451387079083010382	-2.9158835	2.4839077	-0.96898955
1451387079088656134	-2.9735513	2.4698868	-1.121974
1451387079092898077	-3.5322328	3.014225	-1.1859795
1451387079098025030	-3.5806427	2.999549	-1.3143549
1451387079103640264	-3.556433	3.2397223	-0.8462209
1451387079108095831	-3.5937438	3.2250948	-0.9504737
1451387079112185186	-3.0156622	2.30863	0.26414633
1451387079118197149	-3.0772624	2.3083725	0.121468425
1451387079123140997	-2.2833836	1.0304546	1.0881547
1451387079128267950	-2.337484	1.0406637	0.9657773
1451387079133181280	-1.5997823	0.37960148	1.4761262
1451387079138888067	-1.670816	0.40048695	1.3441716
1451387079143252081	-0.9932425	0.37541962	1.5673724
1451387079148440069	-1.069015	0.39740467	1.4526322
1451387079154177374	-0.8597858	0.49520493	0.99200845
1451387079158480352	-0.92761934	0.5150204	0.9033407
1451387079161715216	-0.9937197	0.06895161	0.3612213
1451387079168551153	-1.1066641	0.10958958	0.23313689
1451387079173464483	-1.2975395	0.30837536	-1.2681026
1451387079178621954	-1.3741171	0.33927155	-1.3502731
1451387079183535284	-0.053846	-0.42584324	-1.555927
1451387079188479132	-0.1275208	-0.39084244	-1.6267467
1451387079193636602	1.4730111	-1.7598343	-1.6588833
1451387079198763555	1.3373218	-2.2745447	-1.2973278
1451387079204592413	1.2466164	-2.2197018	-1.3736699
1451387079208895391	1.1776133	-2.1745634	-1.4253759
1451387079218905157	0.7511761	-2.0765429	-2.095613
1451387079223818487	0.866874	-2.3558836	-3.0930007
1451387079230013555	0.7688768	-3.1138668	-2.0612411
1451387079233980841	0.7098851	-3.063983	-2.0929825
1451387079239260382	-0.37546825	-3.668767	-1.4191391
1451387079243960089	-0.4354186	-3.6085596	-1.4637399
1451387079249666876	-1.1253762	-3.796835	-2.496111
1451387079254824346	-1.1773052	-3.7331553	-2.5383613
1451387079259157843	-1.9883187	-3.6941643	-2.7322452
1451387079262423223	-2.0095465	-3.645712	-2.7481096
1451387079269137091	-2.8934793	-3.622076	-2.2252762
1451387079274172491	-2.9228833	-3.5659723	-2.253526
1451387079279207891	-2.9746594	-3.5795174	-2.3903892
1451387079284334845	-2.9983814	-3.5257902	-2.4144416
1451387079290072149	-2.692851	-3.8100882	-2.6911664
1451387079294436163	-2.7063525	-3.760992	-2.7056227
1451387079299349493	-2.7434394	-4.150446	-2.3130996
1451387079304323858	-2.7574499	-4.0987377	-2.3295126
1451387079309420294	-3.1843176	-4.2732077	-1.7191782
1451387079312868780	-3.1809773	-4.2302856	-1.7268009
1451387079319460577	-3.545293	-4.106635	-1.8630881
1451387079324495977	-3.5393457	-4.0629196	-1.8750222
1451387079329561895	-3.240395	-4.1217794	-1.1862941
1451387079334749884	-3.2315042	-4.0824223	-1.1961098
1451387079340426153	-3.0120685	-4.215912	-0.3448503
1451387079344790167	-3.0003867	-4.1814957	-0.3504498
1451387079349703497	-3.1276693	-4.2879477	0.09809303
1451387079355532354	-3.114961	-4.2549114	0.093450546
1451387079359774298	-3.0856242	-4.3466053	0.40468073
1451387079363253302	-3.0683525	-4.317672	0.4043634
1451387079369936651	-2.756856	-4.296093	0.91803193
1451387079374880499	-2.7383273	-4.2729387	0.92426014
1451387079380037970	-2.0535228	-4.030795	1.4565396
1451387079384951300	-2.0356562	-4.0146017	1.4683061
1451387079390627569	-1.2408578	-3.6904325	1.592705
1451387079394991583	-1.2244947	-3.679762	1.6083751
1451387079400057501	-0.3113432	-3.1794262	1.4799683
1451387079406618780	0.6272521	-2.1368523	1.5007184
1451387079410128302	0.6361284	-2.138795	1.519948
1451387079420290655	1.671246	-0.32567692	2.0916712
1451387079426211065	2.8384097	2.0312767	2.9944715
1451387079435305303	3.6754649	4.4151936	4.0946827
1451387079440859503	3.692048	4.361062	4.1071362
1451387079445345587	4.5186377	5.9516764	5.351433
1451387079450564093	4.527725	5.8936186	5.344022
1451387079456118292	4.6577854	6.4428596	6.433405
1451387079460604376	4.65597	6.391182	6.403021
1451387079470705694	3.8700936	6.266779	6.3839664
1451387079475588507	2.262831	5.2819405	5.608693
1451387079480745977	2.2489884	5.255512	5.5579176
1451387079485659307	0.87029696	2.9797916	4.3642645
1451387079490603155	0.84779334	2.9768047	4.3111324
1451387079495730108	-0.2136631	0.3029337	3.334293
1451387079500857061	-0.23684788	0.32084846	3.282717
1451387079506594366	-0.20009208	-2.2457237	2.9695644
1451387079510958380	-0.2144239	-2.216383	2.9245777
1451387079514193243	-0.32675076	-3.1526432	2.5879302
1451387079521029180	-0.33625913	-3.1111574	2.5269222
1451387079525911993	-0.73622894	-2.3300629	2.1702754
1451387079531069464	-0.7257168	-2.3020077	2.1198933
1451387079536013311	-0.57775354	-0.39082813	1.5324879
1451387079541842169	-0.33030462	1.5194111	-0.50747824
1451387079546206182	-0.3158648	1.5192928	-0.53302217
1451387079551119512	-0.9578781	2.8718061	-3.2520044
1451387079556826300	-0.9368696	2.8609467	-3.2568257
1451387079561342901	-0.92062783	2.8455925	-3.2482605
1451387079572329229	-3.1882195	5.8420916	-5.32241
1451387079576296514	-3.1618288	5.797988	-5.273649
1451387079582216925	-3.8446724	6.394085	-2.8684766
1451387079586336798	-3.816945	6.3400993	-2.8150294
1451387079591707891	-4.4786863	3.8103085	0.40872192
1451387079596560186	-4.4498415	3.7702122	0.4493301
1451387079601473516	-4.3419495	-0.15661526	2.2301526
1451387079607180303	-4.313341	-0.16617203	2.2410474
1451387079611574835	-3.7867672	-2.6031933	1.6052549
1451387079614901251	-3.761921	-2.5901203	1.5979593
1451387079621645636	-3.5369694	-3.9744806	-0.16290784
1451387079626650518	-3.5104966	-3.9540644	-0.1615746
1451387079631685919	-2.758675	-4.537505	-3.1749892
1451387079636843389	-2.7276425	-4.521367	-3.1442866
1451387079642580694	-1.9701569	-3.3755445	-6.021886
1451387079646914190	-1.9409311	-3.371993	-5.9611073
1451387079651797003	-1.0692716	-0.9476166	-8.282047
1451387079657778448	-1.0293672	-0.97735596	-8.163798
1451387079661898321	-0.09005928	1.743864	-8.362942
1451387079665255255	-0.076369286	1.7111769	-8.258334
1451387079671969122	1.3875988	3.5478	-5.933655
1451387079677004522	1.3982508	3.4939718	-5.8022156
1451387079682039923	3.029142	3.7089853	-3.1439679
1451387079687075323	3.0286121	3.658739	-3.0306375
1451387079692904180	4.416338	2.839799	-1.4338052
1451387079697298712	4.4074802	2.8027277	-1.3524489
1451387079702273077	4.5839624	1.828496	-1.0711937
1451387079707949346	3.9376423	0.44381714	-0.81938505
1451387079712252325	3.93381	0.4237833	-0.75233173
1451387079715700811	3.9277332	0.4076414	-0.69900525
1451387079722445196	2.4497395	-0.95673656	-0.55122495
1451387079727358526	0.5597241	-1.8483696	-1.0578715
1451387079732485479	0.57733417	-1.8590374	-0.965986
1451387079738741583	-0.875324	-2.2467117	-1.6804028
1451387079742953009	-0.85199547	-2.2516642	-1.5928175
1451387079748629278	-1.685053	-2.7408247	-1.8645726
1451387079752657598	-1.6554435	-2.7419147	-1.7753024
1451387079758242315	-1.9194037	-3.165926	-1.8102796
1451387079762606329	-1.882565	-3.1648684	-1.7151171
1451387079772768682	-1.1125189	-3.3946018	-1.8854648
1451387079777712530	-0.6349678	-2.8833075	-1.9833231
1451387079782839483	-0.5917493	-2.8822289	-1.8877025
1451387079787813848	-0.7036792	-2.170353	-1.0646102
1451387079793429083	-0.6538191	-2.17208	-0.97413135
1451387079797884649	-0.05096996	-1.4372482	-0.21801662
1451387079803011602	-0.006832719	-1.4400454	-0.14593741
1451387079808382696	0.8228898	-0.9436197	0.15661669
1451387079813082403	0.8565208	-0.9463558	0.21793364
1451387079823122686	1.5295615	-0.5963478	0.35682893
1451387079828066534	1.5642707	-0.44480133	0.27329892
1451387079833224005	1.5873191	-0.4469185	0.34069255
1451387079838137335	1.3954045	-0.6742754	0.4577335
1451387079843935675	1.4199345	-0.67412186	0.531384
1451387079848208136	1.3427896	-0.92743015	0.111763075
1451387079853335089	1.3629599	-0.92457294	0.1772455
1451387079859072393	0.7769762	-1.1570082	0.37228632
1451387079863436407	0.79506683	-1.1518936	0.42406878
1451387079866640753	0.43368828	-1.3513031	0.5699605
1451387079873507208	0.46803093	-1.3450546	0.6471
1451387079878390020	0.27972806	-1.4707012	0.8905194
1451387079883578009	0.3084272	-1.4634619	0.9424457
1451387079888460821	0.19112396	-1.5633516	1.0914264
1451387079893465704	0.2215563	-1.5555077	1.1368456
1451387079898562139	0.35604978	-1.7167082	1.053893
1451387079903719610	0.7760626	-1.6627893	0.67384857
1451387079909548468	0.81283504	-1.6541672	0.72422713
1451387079913759893	1.4687271	-1.3813372	0.47280115
1451387079917025274	1.4850469	-1.3741798	0.4994917
1451387079925783819	2.1588979	-0.90609837	0.5475489
1451387079928774542	2.1700501	-0.90094566	0.5706713
1451387079934511846	2.363802	-0.34592533	0.90860367
1451387079938967413	2.3843508	-0.34262753	0.94224524
1451387079943911261	2.3944035	0.01827526	1.0799417
1451387079949038214	2.4204345	0.02050209	1.1181133
1451387079953951544	2.1311126	0.16088963	0.7941836
1451387079958895391	2.1588347	0.16262436	0.831148
1451387079964022345	1.685445	0.25744152	0.4901458
1451387079974093145	1.2946343	0.5665865	0.42456663
1451387079979128546	1.33263	0.5667591	0.4597869
1451387079984163946	1.1622282	0.8943777	0.77519834
1451387079989290899	1.2040141	0.8929672	0.8053236
1451387079994906134	1.3685584	1.2263908	0.917989
1451387079999270147	1.4028641	1.2228508	0.93803835
1451387080004275030	1.8205132	1.4338131	0.678825
1451387080010012335	1.8656683	1.4294653	0.70073485
1451387080014406866	2.7187643	1.5565434	0.11596823
1451387080017855352	2.7387228	1.5504408	0.12705386
1451387080024416632	3.6555629	1.5508099	-0.1142807
1451387080029452032	3.6847367	1.5442581	-0.105106235
1451387080034517950	4.170321	1.4135141	0.2581222
1451387080039644903	4.1961164	1.4070864	0.2608024
1451387080045382208	4.257147	1.3800726	0.8501713
1451387080049746221	4.2725487	1.3732023	0.84461296
1451387080054629034	3.8978412	1.4805374	1.4927337
1451387080060335821	3.4403362	1.6845942	2.288405
1451387080064730352	3.4543471	1.6758118	2.271391
1451387080068056768	3.4593687	1.6671972	2.2548442
1451387080074953741	3.2147968	1.8132114	2.5292945
1451387080079836553	3.2768075	1.8090992	2.531545
1451387080084994024	3.2863917	1.7987032	2.504993
1451387080091128057	3.5758018	1.9674397	2.4966917
1451387080095492071	3.5775294	1.9561634	2.4681263
1451387080100985235	4.206739	1.9485998	2.2360244
1451387080105135626	4.2030087	1.9368019	2.2033024
1451387080110628790	4.4097304	2.2724867	1.9248472
1451387080115175909	4.4032617	2.2579842	1.8822838
1451387080125277227	3.4914324	2.7387094	2.0684466
1451387080130190557	2.5919857	3.217967	1.669325
1451387080135378546	2.5800056	3.1964102	1.5929365
1451387080140230841	2.1484663	3.8534403	1.1423151
1451387080145968145	2.1264968	3.8288746	1.052038
1451387080150362677	1.5042824	4.3091326	0.9553924
1451387080155459112	1.4747527	4.283907	0.86033255
1451387080161135382	0.9701728	4.5590277	0.91688764
1451387080165529913	0.93250364	4.535039	0.82060015
1451387080175600714	0.021299928	4.5676117	1.7257583
1451387080180514044	-0.6534159	4.1986275	1.5212306
1451387080185732550	-0.7141758	4.1826534	1.3731183
1451387080190615362	-1.2760655	3.5985613	-0.7159577
1451387080195589727	-1.3381065	3.5901375	-0.85282654
1451387080200686163	-2.1035357	3.4390297	-2.42173
1451387080205813116	-2.1654305	3.4359035	-2.54708
1451387080211458868	-2.7054229	3.4774952	-2.8469574
1451387080215792364	-2.750458	3.4747925	-2.9373026
1451387080219149298	-2.9603722	3.444973	-1.9476125
1451387080225985235	-3.0319293	3.4515953	-2.0891004
1451387080230898565	-2.9838853	2.8442383	-0.33520317
1451387080235933966	-3.0322554	2.8497276	-0.43429267
1451387080241121954	-2.6550636	2.3876286	1.1770468
1451387080246676153	-1.7667754	1.9316387	1.9593714
1451387080251131720	-1.8173043	1.9428387	1.8648458
1451387080256167120	-1.8790746	1.9581919	1.7602735
1451387080261751837	-1.2975284	1.7470818	1.531017
1451387080266085333	-1.6841233	1.6727667	0.7114651
1451387080269472784	-1.7313955	1.6851454	0.64542365
1451387080277407354	-1.578975	1.3364773	-0.5476408
1451387080281252569	-1.6354983	1.3553648	-0.6146405
1451387080286959356	-1.5409857	0.9591179	-1.8933456
1451387080291323370	-1.6031628	0.98392963	-1.9601209
1451387080296663946	-1.5775765	0.26442337	-2.6473613
1451387080301546759	-1.64238	0.29516697	-2.7124033
1451387080306429571	-0.7911246	-0.82119656	-2.422383
1451387080311434454	-0.85465324	-0.7865839	-2.4816236
1451387080316500372	-0.7149776	-1.7588682	-2.1861582
1451387080326571173	0.09010863	-2.2848635	-2.766731
1451387080331576055	0.027060986	-2.2428885	-2.8193867
1451387080336641973	-0.38623476	-2.196517	-2.657332
1451387080341799444	-0.44799066	-2.1529179	-2.7104704
1451387080347414678	-0.45930123	-2.115531	-3.4125462
1451387080351870245	-0.51066065	-2.0763426	-3.4523404
1451387080356783575	-0.40348172	-2.294775	-3.6790988
1451387080361757940	-0.46032357	-2.2505732	-3.7223456
1451387080366854376	-0.81122565	-2.8512497	-3.0889251
1451387080376925177	-1.4652927	-3.2527237	-3.79299
1451387080381960577	-1.5128841	-3.2027302	-3.8367305
1451387080386995977	-2.6753612	-3.448925	-3.3752728
1451387080392122930	-2.7111742	-3.3989105	-3.4207895
1451387080397860235	-3.519738	-3.3770628	-3.3409436
1451387080402224249	-3.5402467	-3.334755	-3.3743138
1451387080407259649	-3.3583238	-3.6406898	-2.9342556
1451387080412813848	-3.7104433	-3.8894243	-2.5657656
1451387080417208380	-3.7229605	-3.8474808	-2.5995274
1451387080420656866	-3.727925	-3.8118696	-2.6237195
1451387080427279180	-4.310768	-3.9349642	-2.7621152
1451387080432314581	-4.315428	-3.8933134	-2.796255
1451387080437349981	-4.5487638	-4.10824	-1.7667286
1451387080442293829	-4.5428076	-4.319598	-0.4311781
1451387080448092169	-4.540245	-4.2801657	-0.46930957
1451387080453310675	-4.5820575	-4.458989	0.08264351
1451387080457491583	-4.5724	-4.429386	0.060664892
1451387080463076300	-4.2429047	-4.5776367	-0.06895852
1451387080467684454	-4.2321024	-4.5523167	-0.081843376
1451387080470888800	-4.2186327	-4.5323744	-0.08536816
1451387080477755255	-3.273256	-4.5160666	0.15670395
1451387080482668585	-2.2116163	-4.178941	0.7742593
1451387080487856573	-2.2047155	-4.173252	0.7938976
1451387080492739386	-0.9501779	-3.8775892	1.5599184
1451387080497713751	-0.9457667	-3.8799286	1.5900242
1451387080502840704	0.018847942	-3.5498676	2.145472
1451387080507937139	0.023902893	-3.5599031	2.1850734
1451387080513338751	0.82981443	-2.6849346	2.3832796
1451387080518038458	0.83757067	-2.701109	2.425411
1451387080528109259	2.023794	-1.0728521	2.5524096
1451387080532992071	3.8802714	1.4783287	3.0821264
1451387080538149542	3.8924348	1.4398546	3.1296225
1451387080543093389	5.732563	4.0005207	4.027705
1451387080548769659	5.7499723	3.951479	4.067629
1451387080553164190	6.672296	5.450713	5.3862505
1451387080558291143	6.687896	5.406967	5.39456
1451387080563906378	6.6509657	5.755576	6.9077067
1451387080568361944	6.658152	5.723771	6.884675
1451387080578432745	5.2954774	5.9185333	7.4554644
1451387080583376593	3.468131	5.257471	7.39187
1451387080588534063	3.4430306	5.2549725	7.3334904
1451387080593447393	1.736753	2.709075	6.0474615
1451387080599215216	0.7760658	-1.3340149	3.9327815
1451387080603609747	0.7390239	-1.3042021	3.8860245
1451387080608645147	0.69792414	-1.2712011	3.836027
1451387080614504522	-0.4071417	-4.2306967	1.7836637
1451387080619692511	-1.7204077	-5.1893854	0.020536661
1451387080621950811	-1.722889	-5.1611032	0.0054342747
1451387080629671759	-2.8030896	-4.8392086	-0.1383667
1451387080639284796	-3.1175907	-3.7729836	-0.080344915
1451387080643923468	-3.1003253	-3.7467642	-0.11203694
1451387080649019903	-3.0356426	-1.9890184	-3.2451296
1451387080653994268	-3.013444	-1.9730606	-3.260715
1451387080658907598	-3.8154705	2.2398586	-6.955947
1451387080663851446	-3.794655	2.2272377	-6.926894
1451387080668978399	-5.557477	8.276835	-8.118776
1451387080679018682	-6.992388	16.38507	-7.133005
1451387080684054083	-6.957324	16.285103	-7.0176983
1451387080689150518	-4.21533	19.013943	0.80109453
1451387080694277471	-4.1731453	18.906702	0.8793268
1451387080699923223	1.1023815	9.73081	6.5921283
1451387080704348272	1.1321809	9.683906	6.5773745
1451387080709261602	0.69406533	-0.25000954	3.9758754
1451387080714968389	0.71952844	-0.23303795	3.9006958
1451387080719332403	-2.8603742	-5.0582447	-0.16803145
1451387080729403204	-4.2349586	-6.9679317	-1.4196131
1451387080734408087	-4.235104	-6.9328995	-1.4310472
1451387080739474005	-4.368232	-7.027562	-3.0006144
1451387080744600958	-4.362644	-7.008194	-2.9725735
1451387080750399298	-4.3935523	-5.832427	-6.845752
1451387080754671759	-4.3715944	-5.8297415	-6.7851553
1451387080759707159	-3.1317902	-3.3708344	-11.008467
1451387080765505499	-3.099937	-3.3985128	-10.885219
1451387080769686407	-0.70584273	-0.26949215	-10.534401
1451387080773195928	-0.69179606	-0.29620838	-10.430622
1451387080779909796	0.9312134	2.9093828	-6.978787
1451387080785891241	2.205044	5.157707	-4.0935707
1451387080789980596	2.2127926	5.113167	-4.0047092
1451387080795870489	3.6744807	5.4406166	-2.275364
1451387080799837774	3.6843066	5.400132	-2.2098575
1451387080805361456	5.6521688	4.3814106	-1.0230145
1451387080810091680	5.662783	4.3434687	-0.9603336
1451387080815981573	5.687627	2.626052	-0.30748963
1451387080820162481	5.689763	2.5984144	-0.2519138
1451387080823519415	5.6869273	2.574871	-0.20643711
1451387080830263800	3.3911543	0.66111565	-0.5679064
1451387080835146612	1.3246648	-1.0078363	-1.6605883
1451387080840304083	1.3373144	-1.0269394	-1.570202
1451387080845186895	-0.16631222	-2.1799603	-2.662405
1451387080850985235	-0.15139079	-2.1974497	-2.543795
1451387080855257696	-1.5642121	-2.8935738	-3.1670766
1451387080860323614	-1.5480075	-2.9043674	-3.0527399
1451387080865755743	-2.7774558	-3.5597277	-2.633625
1451387080870516485	-2.7526033	-3.5656738	-2.5288138
1451387080880587286	-3.4316096	-3.5438576	-2.304574
1451387080885470098	-3.8663564	-2.9914522	-1.7096719
1451387080890688604	-3.8157513	-2.9982738	-1.6242855
1451387080895571417	-2.9889078	-2.3703184	-0.9312687
1451387080901491827	-2.9281397	-2.380126	-0.8476584
1451387080905672735	-1.7387581	-1.6973333	-0.39198464
1451387080910769171	-1.6869113	-1.7055349	-0.32606924
1451387080916475958	-0.36826217	-0.9451904	-0.22302186
1451387080920870489	-0.3280866	-0.9524698	-0.16815794
1451387080930971807	0.9258244	-0.24228382	-0.3337774
1451387080935854620	1.6140537	-0.15901089	0.24787366
1451387080941042608	1.7489996	-0.3953638	0.08102062
1451387080945925421	1.7816786	-0.40184975	0.13965197
1451387080951571173	1.9340008	-1.0036993	-0.21404327
1451387080955996221	1.9593389	-1.0060892	-0.1602982
1451387080961062139	1.9871857	-1.0085154	-0.098680615
1451387080966890997	1.4455113	-1.4509459	-0.014418822
1451387080972048468	1.158533	-1.7772799	0.032939292
1451387080974428839	1.1687502	-1.773324	0.06158992
1451387080982058233	0.90609014	-2.0084705	0.429559
1451387080991610235	0.9150003	-2.173705	0.40810227
1451387080996370977	0.94076407	-2.1687593	0.45886788
1451387081001345343	0.90089035	-2.1995478	0.037884235
1451387081006472296	0.9315289	-2.1943817	0.09041068
1451387081011385626	1.0910654	-1.9779778	-0.1495778
1451387081016359991	1.1233815	-1.9732599	-0.1006093
1451387081021456427	1.579607	-1.5294552	0.12165153
1451387081024935430	1.6008314	-1.5254402	0.15406537
1451387081031527227	1.9381738	-0.88862896	0.7473714
1451387081036562628	1.9722594	-0.88657284	0.7904196
1451387081041536993	2.242538	-0.3726368	1.1719152
1451387081046786016	2.2785254	-0.37173557	1.2140713
1451387081051943487	2.0969644	0.124427795	1.1557791
1451387081056826300	2.1311371	0.12432289	1.1938891
1451387081061739630	1.6973369	0.4190426	0.7105626
1451387081066744512	1.7353498	0.4184866	0.75022835
1451387081071810430	1.2298871	0.6375885	0.18121839
1451387081081881231	0.8666834	0.9504175	0.031449676
1451387081086886114	0.911334	0.948823	0.067895055
1451387081091952032	0.6554174	1.1870403	0.29557788
1451387081097078985	0.70328844	1.184783	0.32698393
1451387081102755255	0.9260957	1.4641476	0.3428396
1451387081107058233	0.96524274	1.4607353	0.3637042
1451387081112246221	1.5501938	1.7282124	0.25469732
1451387081117891973	2.343114	1.7539511	0.35217464
1451387081122164434	2.3759909	1.7495375	0.36633682
1451387081132357305	3.0492978	1.7007828	0.51355624
1451387081138308233	3.1757147	1.6151991	0.7852651
1451387081142428106	3.1995728	1.6105766	0.7878585
1451387081147860235	3.1240406	1.4507332	1.0455656
1451387081152285284	3.1462228	1.4462366	1.04326
1451387081157625860	2.9312556	1.5607805	1.5492007
1451387081162569708	2.9526947	1.5554943	1.5409069
1451387081168307012	2.8817337	1.8194313	2.10075
1451387081172609991	2.8950696	1.8130302	2.0872967
1451387081175997442	2.9022071	1.8066626	2.0738356
1451387081182741827	3.1611047	2.0280132	2.137046
1451387081187624639	3.7942486	1.9783278	1.9305661
1451387081192782110	3.8034425	1.9701176	1.9059227
1451387081197664923	4.367454	1.933114	1.389016
1451387081202639288	4.374504	1.9244242	1.3598635
1451387081207766241	4.840292	1.916482	1.1039736
1451387081212954229	4.8464055	1.906909	1.065794
1451387081218569464	4.450752	2.2699947	1.2639693
1451387081222994512	4.452912	2.2595415	1.2239122
1451387081233095831	3.3232815	3.0882483	1.479167
1451387081237978643	2.4119616	3.5002165	1.3484012
1451387081243136114	2.4066513	3.4846506	1.2822106
1451387081248049444	1.948302	3.6924114	1.1804334
1451387081253756231	1.9276323	3.6757097	1.0950941
1451387081258089727	1.6589602	3.5735645	1.1490299
1451387081263155645	1.6242965	3.5583267	1.0582436
1451387081268831915	1.1385224	3.7306252	1.0325795
1451387081273317999	1.0957584	3.716957	0.9374073
1451387081283449835	0.26923376	3.7014198	1.0307684
1451387081288332647	-0.4571721	3.2866745	0.062305316
1451387081293520636	-1.5084641	2.8635902	-1.2639196
1451387081298495001	-1.5729904	2.8613796	-1.3900371
1451387081304110235	-2.5859528	3.1680193	-2.1167529
1451387081308474249	-2.6410108	3.1680088	-2.222094
1451387081314882940	-3.0893223	3.9083853	-1.880576
1451387081319246954	-3.1413336	3.909398	-1.9794574
1451387081324099249	-3.2514017	3.8630571	-0.93181777
1451387081326906866	-3.2802172	3.8613062	-0.9940827
1451387081334292120	-3.1995492	3.590187	-0.2981342
1451387081338686651	-3.2479193	3.5969667	-0.3937298
1451387081343630499	-3.0607333	2.7146664	0.7474431
1451387081348849005	-3.12017	2.7298908	0.6343763
1451387081354220098	-2.2784379	2.0650558	1.4147106
1451387081358950323	-2.3367083	2.0830545	1.3126944
1451387081363833136	-1.4794824	2.028245	1.156407
1451387081369692511	-1.5617684	2.056222	1.0346777
1451387081373934454	-1.8646525	2.0118904	0.55499506
1451387081377291387	-1.9124826	2.0275927	0.48767376
1451387081383974737	-1.4548186	1.3539591	-0.42167377
1451387081389010137	-1.5310444	1.3847542	-0.51378274
1451387081394106573	-1.5834355	1.0480423	-1.5053589
1451387081399172491	-1.6543443	1.0810738	-1.5905046
1451387081404848761	-0.43210852	0.062454224	-2.0780149
1451387081409304327	-0.48888934	0.09358692	-2.145826
1451387081414217657	-0.2068721	-0.6712942	-2.2297828
1451387081420839971	0.61103153	-1.2404966	-2.2104073
1451387081424288458	0.5695629	-1.2127151	-2.2566206
1451387081434359259	1.072022	-1.338604	-2.6699364
1451387081439394659	1.0113313	-1.2981443	-2.7334168
1451387081444552130	1.2823384	-1.4149904	-3.157781
1451387081449587530	1.2187417	-1.3732052	-3.215485
1451387081455050177	1.3125639	-1.7764626	-3.7186954
1451387081459658331	1.2520709	-1.7361212	-3.7648103
1451387081464571661	0.60478044	-2.240775	-3.8888872
1451387081470247930	-0.260638	-2.9559088	-3.1011288
1451387081474642462	-0.31457734	-2.9129038	-3.142244
1451387081484835333	-1.5849125	-3.2409525	-3.507542
1451387081490511602	-2.5429351	-3.5724545	-3.7923071
1451387081494906134	-2.5768604	-3.528881	-3.831945
1451387081500826544	-3.4239516	-3.7346735	-3.154445
1451387081505526251	-3.4513447	-3.6918745	-3.1933692
1451387081510500616	-3.2945855	-3.939064	-3.32586
1451387081515047735	-3.3169992	-3.8991032	-3.358754
1451387081519961065	-3.1143696	-4.1510553	-3.1472163
1451387081525118536	-3.1360662	-4.108886	-3.1834495
1451387081528322882	-3.1438506	-4.079832	-3.2013924
1451387081535158819	-3.47364	-4.0512066	-2.8312654
1451387081540102667	-3.962234	-4.013425	-2.3755352
1451387081545229620	-3.964939	-3.9810696	-2.4041455
1451387081550142950	-4.0407295	-4.100321	-1.5788031
1451387081556002325	-4.036667	-4.0710382	-1.6070285
1451387081560244268	-4.0123234	-4.155572	-1.1737275
1451387081565279669	-4.00428	-4.1346054	-1.1886072
1451387081571016973	-4.1045837	-4.105151	-1.1348276
1451387081575472540	-4.095067	-4.0911922	-1.1369357
1451387081585543341	-3.8654993	-4.192252	-0.79199076
1451387081590426153	-3.3342426	-4.1963243	-0.09170103
1451387081595614141	-3.323638	-4.1959352	-0.071371555
1451387081600527471	-2.4680498	-4.0394773	0.73125696
1451387081605501837	-2.456273	-4.0444593	0.7571292
1451387081610598272	-1.6473763	-3.7112284	1.3194435
1451387081615633673	-1.6351609	-3.7211752	1.3507442
1451387081621340460	-0.619617	-3.0189037	1.6638136
1451387081625857061	-0.6051128	-3.0341644	1.6987104
1451387081635897345	0.8003142	-1.6580954	1.9674509
1451387081640810675	2.670576	0.49933815	2.381595
1451387081645968145	4.4684515	3.2155523	3.109638
1451387081651003546	4.485988	3.174014	3.1550057
1451387081656832403	5.6512113	5.391693	4.111418
1451387081660952276	5.6652822	5.354047	4.13447
1451387081667269415	6.068348	6.406472	5.565464
1451387081671724981	6.086026	6.371684	5.569434
1451387081676760382	5.2456255	6.344672	6.9672365
1451387081679415411	5.249468	6.321679	6.9522266
1451387081686464971	3.207443	5.5878096	6.974327
1451387081691164678	3.2117698	5.5764627	6.9398985
1451387081696139044	1.5850842	3.8467913	5.394893
1451387081701204962	1.5692196	3.8508196	5.3569603
1451387081706789678	0.39103794	1.4848433	3.0079932
1451387081711428350	0.36551666	1.4975557	2.980062
1451387081716372198	-0.98645306	-0.96827316	1.2582049
1451387081722140020	-1.0205204	-0.9455385	1.2358663
1451387081726412481	-2.1523545	-2.7838545	0.4029808
1451387081729891485	-2.1664526	-2.766841	0.3941908
1451387081736483282	-2.636279	-3.4031086	0.3131914
1451387081741518682	-2.6437786	-3.3829002	0.29736948
1451387081746554083	-2.2617702	-3.0638847	1.4318688
1451387081751558966	-2.2525864	-3.045641	1.402942
1451387081757326788	-1.3626769	-2.559598	2.2383275
1451387081761751837	-1.343981	-2.5446815	2.203889
1451387081766695684	-1.2246695	-2.0208597	0.13646889
1451387081772524542	-1.1963401	-2.0107002	0.10822725
1451387081776888555	-1.5296917	-0.28627777	-3.5983305
1451387081786837286	-3.1196601	3.1795921	-6.8538847
1451387081791872686	-3.0926898	3.1417646	-6.7860746
1451387081797030157	-5.690627	9.201358	-7.7450514
1451387081801943487	-5.659698	9.13639	-7.6425395
1451387081807680792	-7.262842	16.435944	-4.837747
1451387081812105841	-7.22281	16.354073	-4.741543
1451387081817049688	-3.6844912	16.263397	1.7825956
1451387081822725958	0.9363451	7.4184465	3.903928
1451387081827120489	0.96677375	7.3780813	3.9291537
1451387081837282843	0.8088808	-1.5285578	1.1220114
1451387081842898077	-1.6572452	-5.3547535	-1.624568
1451387081847353643	-1.6607041	-5.332267	-1.6398144
1451387081853182501	-3.0863447	-6.5098705	-2.104005
1451387081857973761	-3.103192	-6.492277	-2.0857885
1451387081862520880	-3.7454443	-7.074152	-3.753237
1451387081867525762	-3.755306	-7.06859	-3.698535
1451387081873202032	-3.5566292	-6.443944	-7.580058
1451387081877474493	-3.551307	-6.4483185	-7.50233
1451387081880984014	-3.5434153	-6.4507895	-7.4307904
1451387081887697882	-1.815455	-4.0485888	-9.984919
1451387081892611212	-0.26921725	-0.7233515	-8.735596
1451387081897738165	-0.24704456	-0.7570982	-8.616969
1451387081902651495	1.2104983	2.3800802	-6.2458115
1451387081907595343	1.2343593	2.3417702	-6.1387377
1451387081912722296	2.2762084	4.199211	-4.332079
1451387081917849249	2.3085577	4.158537	-4.2385454
1451387081923342413	4.047897	4.5769863	-2.336606
1451387081927950567	4.078493	4.54111	-2.2657545
1451387081938021368	5.9380927	4.0233088	-0.32631993
1451387081942934698	4.9767594	2.658494	0.8194084
1451387081948122686	4.9994802	2.6305084	0.88670564
1451387081953005499	2.4467318	0.4125557	0.42096674
1451387081957979864	2.4643936	0.3930092	0.49265337
1451387081963045782	0.50611126	-1.7411013	-0.97705364
1451387081968111700	0.51974344	-1.7544641	-0.88888454
1451387081973849005	-0.9074489	-3.3721504	-2.2064824
1451387081978365606	-0.8980516	-3.3781815	-2.1151378
1451387081988375372	-2.0462794	-3.9266367	-2.493173
1451387081993288702	-3.0333123	-3.698965	-2.5359688
1451387081998476690	-2.9476433	-3.333684	-2.1562457
1451387082003359503	-2.9172301	-3.337947	-2.0718102
1451387082009890264	-1.6525759	-2.8146324	-1.5219893
1451387082019564337	-0.20223057	-1.8373404	-0.9403304
1451387082024325079	-0.16433895	-1.84338	-0.88020056
1451387082029116339	1.3521863	-0.8046055	-0.5985047
1451387082031893438	1.3716795	-0.8082876	-0.5650903
1451387082038820928	2.0188046	0.12213421	-0.07138872
1451387082043642706	2.0536819	0.11326122	-0.017443568
1451387082048678106	2.1647284	0.25025368	0.7080033
1451387082053835577	2.1999402	0.24182415	0.7633012
1451387082059115118	1.8459501	0.025185585	0.6562213
1451387082063906378	1.874499	0.01940918	0.7074911
1451387082068819708	1.0163324	-0.63498497	0.67518264
1451387082074648565	1.0468776	-0.6384573	0.7375735
1451387082078890509	0.38234282	-1.226017	0.8643444
1451387082082338995	0.39851642	-1.2252979	0.89987916
1451387082088961309	0.20241678	-1.5494337	0.98419
1451387082093935675	0.22486353	-1.5480232	1.0312266
1451387082099032110	0.19673932	-1.6419048	0.94112515
1451387082104067511	0.22020721	-1.639863	0.9867502
1451387082109804815	0.37935078	-1.5139704	0.52317727
1451387082114229864	0.40250754	-1.5120258	0.5597997
1451387082119173712	0.8542366	-1.1724348	-0.08526644
1451387082125246710	1.2133236	-1.0273952	-0.41355246
1451387082129244512	1.2357945	-1.026412	-0.38230893
1451387082132723516	1.2559569	-1.025259	-0.3555107
1451387082139437384	1.5237269	-1.1922083	-0.079202116
1451387082144320196	1.5551133	-1.1908779	-0.04241085
1451387082149477667	1.5598855	-1.4269886	0.62000966
1451387082154421514	1.5942014	-1.4247789	0.65667975
1451387082160128302	1.4651477	-1.3664093	0.90001786
1451387082164614386	1.4986025	-1.3638878	0.9328126
1451387082169527716	1.3733789	-1.0199003	0.6774387
1451387082176119512	1.2158272	-0.49272346	0.07122469
1451387082179690069	1.2455614	-0.49164677	0.098335445
1451387082189760870	0.93271	0.09720421	-0.22644663
1451387082195101446	0.79573387	0.6502867	-0.16818845
1451387082199892706	0.8413965	0.6496458	-0.13386035
1451387082205446905	0.912959	1.0766745	0.072083235
1451387082210604376	0.96269894	1.0754986	0.10471034
1451387082214846319	1.2332627	1.4490995	0.024102211
1451387082219973272	1.2812192	1.4473171	0.052707434
1451387082225161261	1.745163	1.6628466	-0.25191438
1451387082230074591	1.7875165	1.6605415	-0.22930431
1451387082234408087	2.4223077	1.7212887	-0.35378635
1451387082240114874	2.4671044	1.7188959	-0.33373678
1451387082245089239	2.8890839	1.7352905	-0.0015807152
1451387082250185675	2.9235082	1.7323551	0.009370446
1451387082255099005	3.3435354	1.712389	0.45337284
1451387082261019415	3.3787255	1.7089386	0.45680463
1451387082265200323	3.6801615	1.6956024	0.9422388
1451387082270296759	3.7045586	1.6915703	0.93817496
1451387082276064581	3.8157082	1.7791691	1.6699551
1451387082280428595	3.831942	1.7745628	1.6603221
1451387082290468878	3.8338504	1.8674974	2.327316
1451387082295412725	3.9926367	1.9504538	2.4495935
1451387082300570196	4.00965	1.9447565	2.4303446
1451387082305483526	4.3064284	2.0201292	1.9024922
1451387082311312384	4.6871953	2.4314947	1.3143485
1451387082315676397	4.6965446	2.4244213	1.2938964
1451387082320589727	4.981861	2.6388922	1.1666535
1451387082326449102	4.9943433	2.6299696	1.1320237
1451387082330843634	4.999247	2.6214514	1.1012578
1451387082340883917	4.184593	3.3409357	1.394398
1451387082345766729	3.1026156	3.80789	1.5829294
1451387082350832647	3.0980167	3.7945957	1.5234025
1451387082355837530	2.5182993	3.9148607	1.2154852
1451387082362307257	1.9068063	3.5425873	1.1739767
1451387082371859259	1.2481806	3.2097416	1.1664333
1451387082376772589	1.2104621	3.1979885	1.0760275
1451387082381350225	0.2993435	3.2349186	1.0748665
1451387082384371466	0.27173698	3.2258005	1.0108869
1451387082391146368	-0.14691746	3.135748	1.4080815
1451387082396120733	-0.20071301	3.1285124	1.2882901
1451387082401156134	-0.83285373	3.1350842	1.2687236
1451387082406313604	-0.8943703	3.1319742	1.1341796
1451387082412020391	-1.670336	3.295824	-0.48191565
1451387082416384405	-1.7265341	3.2963257	-0.60045046
1451387082421328253	-2.599032	3.6606321	-1.9954097
1451387082427004522	-2.6726117	3.6677065	-2.1426206
1451387082431368536	-3.0967708	3.7658072	-2.3227644
1451387082434847540	-3.1366706	3.7684355	-2.4006088
1451387082441439337	-3.3384936	3.6385202	-1.5684979
1451387082446474737	-3.395138	3.6481123	-1.6712883
1451387082451510137	-3.1011336	3.0579967	-0.3018725
1451387082456637091	-3.1588957	3.0709686	-0.40098882
1451387082462404913	-2.5059261	2.2437143	1.1247548
1451387082466768927	-2.5578399	2.25772	1.0409263
1451387082471651739	-1.6611502	1.7105141	1.864396
1451387082476626104	-1.7276603	1.7311125	1.7695607
1451387082481722540	-1.1395282	1.7001724	1.4157599
1451387082485201544	-1.1890275	1.7155399	1.3503435
1451387082491884893	-1.2112784	1.5044689	0.17145348
1451387082496798223	-1.28542	1.5310497	0.0861609
1451387082501955694	-1.2281605	1.0359278	-1.1194983
1451387082506899542	-1.3018275	1.0655127	-1.1985769
1451387082512606329	-1.6931356	1.0269117	-2.1612592
1451387082517092413	-1.7552401	1.0548887	-2.2280796
1451387082521975225	-0.8445587	0.32034016	-2.8621225
1451387082526980108	-0.91251755	0.35321903	-2.92914
1451387082532076544	0.25804472	-0.88423634	-2.506491
1451387082542269415	0.55635107	-1.5442944	-2.4856288
1451387082547762579	0.58801794	-1.8189745	-2.1309817
1451387082552340216	0.5303707	-1.784359	-2.1826863
1451387082557528204	0.3774717	-1.8546286	-2.811878
1451387082562929815	0.30718684	-1.8125277	-2.8694978
1451387082567324346	0.1308713	-1.9265127	-3.226256
1451387082572481817	0.05996132	-1.8855181	-3.272818
1451387082578097052	-0.054695606	-2.0587225	-3.1075754
1451387082582552618	-0.11572218	-2.022685	-3.1417058
1451387082586794561	-0.11955142	-2.56349	-3.2312315
1451387082592623419	-0.19585514	-2.5156841	-3.2776718
1451387082597445196	-1.5094955	-3.030138	-2.5759597
1451387082602694220	-1.5719068	-2.9848347	-2.618361
1451387082607638067	-2.8130593	-3.376421	-3.0592983
1451387082613497442	-2.8689694	-3.3264341	-3.109409
1451387082617678350	-3.1517785	-3.621973	-3.5248835
1451387082622835821	-3.189124	-3.580164	-3.5641644
1451387082628603643	-3.292959	-3.7647963	-3.7439377
1451387082632906622	-3.3187566	-3.7318707	-3.7679675
1451387082636110968	-3.193581	-3.9406672	-3.520453
1451387082642977423	-3.2297106	-3.8973417	-3.5583963
1451387082647860235	-3.723619	-3.9410849	-2.6027153
1451387082653078741	-3.7375543	-3.9095926	-2.6316621
1451387082657961553	-4.189168	-3.9649305	-1.8081961
1451387082662966436	-4.1913285	-3.9380856	-1.8364367
1451387082668032354	-4.0154257	-3.9647493	-1.2096612
1451387082673220343	-3.948598	-3.9733286	-0.91875625
1451387082679079718	-3.9445	-3.9522667	-0.9409182
1451387082683260626	-3.9387698	-3.9375162	-0.95084405
1451387082693361944	-3.775197	-3.927269	-0.9026003
1451387082698244757	-3.448152	-3.9886808	-0.3263929
1451387082703249639	-3.4398737	-3.9831085	-0.32080436
1451387082708315557	-2.8801098	-3.98705	0.56914353
1451387082714754766	-2.063118	-3.692443	1.0427458
1451387082718508428	-2.0524616	-3.694275	1.0558264
1451387082724032110	-1.1380954	-3.1393728	1.2903869
1451387082729006475	-1.1219976	-3.1518164	1.3178082
1451387082733797735	-0.0794332	-2.2150068	1.5650196
1451387082736849493	-0.067393064	-2.2258015	1.5861797
1451387082743563360	1.1793168	-0.66935635	1.9619577
1451387082748598761	1.2025104	-0.6979208	2.0051498
1451387082753634161	2.8478444	1.8607502	2.8124056
1451387082758791632	2.8747396	1.8246708	2.85528
1451387082764528936	4.422501	4.8007956	3.9645104
1451387082768892950	4.44588	4.766245	3.988991
1451387082773806280	5.47066	6.559763	5.663968
1451387082778780645	5.4981475	6.52551	5.6713805
1451387082783846563	5.40824	6.804261	6.876583
1451387082787325567	5.4208946	6.779525	6.869404
1451387082793978399	4.1797543	6.1119976	7.1326237
1451387082798861212	4.195161	6.095415	7.1085405
1451387082803988165	2.4848783	4.854521	6.0222
1451387082809023565	2.4832869	4.853838	5.983953
1451387082814882940	1.3080521	2.3582563	3.9518695
1451387082819216436	1.2891724	2.3709068	3.9140162
1451387082824129766	0.07742739	-0.6773977	2.0120175
1451387082829958624	0.04202509	-0.64847374	1.9705234
1451387082834200567	-0.9888053	-2.7163353	0.6897402
1451387082837679571	-1.0049922	-2.6967897	0.67051935
1451387082844423956	-1.8439784	-3.188325	0.10546994
1451387082849306768	-1.8520854	-3.166934	0.08145666
1451387082854464239	-2.2980464	-2.207984	0.7643938
1451387082859408087	-2.290413	-2.190981	0.7337029
1451387082864351934	-1.7660935	-0.33475113	0.9439993
1451387082869478887	-1.7498341	-0.3225317	0.90842724
1451387082874605841	-1.52103	1.9742336	-1.6549342
1451387082881167120	-2.1446276	4.372878	-4.525747
1451387082884554571	-2.1344962	4.366171	-4.525273
1451387082894716925	-3.4167397	7.3336906	-5.845176
1451387082899813360	-4.906646	10.762557	-5.336063
1451387082904848761	-4.888053	10.717378	-5.281619
1451387082909731573	-4.073745	9.559171	-0.6631634
1451387082914705938	-4.0543985	9.5106945	-0.6051934
1451387082919832891	-2.8394673	3.9008284	2.5200078
1451387082924959845	-2.8173163	3.8734083	2.5480778
1451387082929995245	-2.7492607	-0.889163	2.1838386
1451387082935030645	-2.7289834	-0.88887405	2.172715
1451387082945070928	-3.2682362	-3.541912	-0.043377876
1451387082950014776	-3.6883674	-4.833246	-1.8552907
1451387082955202764	-3.6870596	-4.8244457	-1.8440769
1451387082960085577	-3.8114963	-4.95337	-4.2693424
1451387082965944952	-3.8004706	-4.958606	-4.2260356
1451387082970125860	-3.4630063	-3.6761904	-7.5394363
1451387082975283331	-3.442887	-3.697462	-7.4626412
1451387082981051153	-1.5991957	-1.2623701	-9.847411
1451387082985415167	-1.586417	-1.291296	-9.752364
1451387082988588995	-0.2978797	1.3167114	-8.646011
1451387082995455450	-0.28040195	1.2604017	-8.492839
1451387083000368780	1.2191334	3.2518492	-6.1257353
1451387083005556768	1.2294135	3.2065916	-6.006731
1451387083010439581	2.8795393	4.0661345	-3.914568
1451387083015413946	2.8922286	4.025429	-3.8163898
1451387083020510382	4.479435	3.619875	-2.267652
1451387083025637335	5.1353626	2.7455416	-1.3724186
1451387083031435675	5.1563272	2.709608	-1.2880955
1451387083035738653	4.0571585	1.4626684	-0.85599494
1451387083038973516	4.064866	1.4444294	-0.8107481
1451387083045839971	4.087819	1.4102507	-0.71467257
1451387083050722784	2.5293808	-0.08757782	-0.9533756
1451387083055666632	2.5421166	-0.10893345	-0.8762815
1451387083060793585	0.6631744	-1.1383829	-1.4653207
1451387083067110723	-0.71011615	-1.8131905	-2.1454592
1451387083070986456	-0.69863987	-1.8253107	-2.0723193
1451387083076021856	-1.6404448	-2.2226782	-2.5623243
1451387083080843634	-1.6237042	-2.236864	-2.4682171
1451387083085879034	-2.4862857	-2.8230467	-2.361806
1451387083096041387	-2.7209747	-3.1830559	-2.1569705
1451387083101076788	-2.6921341	-3.1932678	-2.0666797
1451387083106112188	-2.5373116	-2.7059307	-2.17281
1451387083111269659	-2.5022962	-2.7158604	-2.0908456
1451387083116884893	-2.3293903	-1.8703566	-1.582825
1451387083121218389	-2.2954297	-1.878519	-1.5204699
1451387083126253790	-1.2864546	-1.1826038	-0.8397911
1451387083132021612	-1.2406906	-1.1951141	-0.7648134
1451387083136233038	0.060854793	-0.57623386	-0.62802637
1451387083139834112	0.08833587	-0.5835476	-0.58389175
1451387083146395391	0.95813537	-0.0107040405	-0.453672
1451387083151400274	0.99348235	-0.0210495	-0.39500535
1451387083156466192	1.3796492	0.17927551	0.07330781
1451387083161623663	1.4140857	0.16951466	0.13160214
1451387083167391485	1.5140287	-0.17008114	0.23300287
1451387083171694464	1.5403076	-0.17639637	0.2804124
1451387083176516241	1.1420386	-0.8193655	-0.16064581
1451387083182467169	1.1779928	-0.8254461	-0.094025105
1451387083186678595	0.8206109	-1.5557842	-0.34618375
1451387083190157598	0.8398663	-1.5563354	-0.30592376
1451387083196901983	0.29471922	-1.9261541	-0.18108255
1451387083201784796	0.3218546	-1.9262867	-0.12555383
1451387083206911749	0.11151779	-1.9751539	-0.03467731
1451387083211855596	0.14001453	-1.9745264	0.01954633
1451387083217684454	0.020989537	-1.9802132	0.2660398
1451387083222078985	0.04889357	-1.9788284	0.31202734
1451387083226961798	0.1450038	-2.0994549	0.34220195
1451387083233706182	0.3247031	-2.0154066	0.3994105
1451387083237032598	0.34970415	-2.0130901	0.4326575
1451387083247225470	0.857074	-1.6313162	0.61751646
1451387083252199835	1.4404964	-1.119441	0.7176882
1451387083257296270	1.4855714	-1.1194134	0.7659179
1451387083262209600	1.8625896	-0.5613775	0.75481874
1451387083267153448	1.9062068	-0.5616331	0.80138826
1451387083272310919	1.9935274	-0.15909195	0.49187964
1451387083277468389	2.0387526	-0.15922546	0.541337
1451387083282808966	1.7214415	0.08112621	0.1817537
1451387083287539190	1.7633479	0.08139229	0.22728825
1451387083297609991	1.57084	0.18340302	0.08923113
1451387083302492803	1.3440543	0.6213064	0.20734823
1451387083307650274	1.391505	0.6215477	0.24977374
1451387083312563604	1.140158	1.2891626	0.64510286
1451387083317507452	1.1853473	1.28794	0.67794955
1451387083322634405	1.1195292	1.7534723	0.79621816
1451387083327761358	1.1656082	1.7510366	0.8217758
1451387083333407110	1.4678524	1.8416758	0.6630814
1451387083337740606	1.5047203	1.8385897	0.6784612
1451387083341097540	2.2900333	1.79354	0.42745638
1451387083347933477	2.3452222	1.7907743	0.44660544
1451387083352846807	3.147371	1.7074289	0.36856902
1451387083358004278	3.1832154	1.7040462	0.3752936
1451387083363039678	3.69044	1.5894127	0.32278895
1451387083368715948	4.0411267	1.4520693	0.5519078
1451387083373140997	4.0648284	1.4486103	0.549844
1451387083378084845	4.0912795	1.4450369	0.54641366
1451387083384066290	3.9743538	1.5187654	1.238433
1451387083388216680	3.6490633	1.7739286	1.8942939
1451387083391451544	3.6606286	1.7696009	1.8855925
1451387083398256964	3.6901677	1.7643738	1.869363
1451387083403200811	3.5341673	2.0125427	1.9695486
1451387083409334845	3.6661384	1.9958076	1.7255652
1451387083413363165	3.6757314	1.9902525	1.7098132
1451387083418978399	3.845808	2.2714977	1.3405942
1451387083423372930	3.854631	2.2645674	1.3183274
1451387083429018682	4.3474493	2.533536	1.4577966
1451387083434389776	4.357416	2.5246925	1.4217302
1451387083438448614	4.2254	3.0644054	1.7719592
1451387083448442310	3.1926198	3.5290756	2.1711557
1451387083453569263	3.1912127	3.5165157	2.1122408
1451387083458635181	2.571239	3.7150307	2.1168318
1451387083463762134	2.558303	3.7015247	2.0446486
1451387083469133228	2.235198	3.6375656	2.0371475
1451387083473802418	2.2133539	3.6250124	1.9612994
1451387083478746265	1.3474236	3.2257786	1.8523114
1451387083484422535	1.3078647	3.2139435	1.7471302
1451387083488817066	0.6359403	3.2325163	1.3034434
1451387083498887867	0.16153634	3.2928867	0.48116386
1451387083503923267	0.11056307	3.2861652	0.35465607
1451387083508958668	-0.612391	3.1072206	-1.2099904
1451387083514116138	-0.67241657	3.105363	-1.3452228
1451387083519853443	-1.6688204	2.9695969	-2.8216188
1451387083524186939	-1.7225183	2.971342	-2.9303722
1451387083529100269	-2.7524009	3.4403334	-3.0373213
1451387083534776539	-2.7843807	3.8451662	-2.0773265
1451387083539171070	-2.837908	3.8495579	-2.1763356
1451387083542528003	-2.8768437	3.8517199	-2.248911
1451387083549363941	-2.6946435	3.8886776	-0.8687879
1451387083554277271	-2.7531028	3.8976154	-0.9683088
1451387083559312671	-2.264768	3.3253927	0.2545172
1451387083564470142	-1.7042794	2.573391	1.382682
1451387083570054859	-1.7752893	2.591611	1.2719287
1451387083574510425	-1.8326749	2.6063356	1.1842282
1451387083579423755	-1.2302432	1.9488039	1.771163
1451387083586168140	-1.2265866	1.9720182	1.4662486
1451387083589525074	-1.2764055	1.987009	1.3993547
1451387083593004078	-1.3297882	2.0035229	1.3310826
1451387083599687427	-1.6272339	1.920826	0.27172852
1451387083604661793	-1.7550204	1.3158436	-0.6203139
1451387083609819263	-1.837715	1.348485	-0.7103896
1451387083614671558	-2.1739025	1.0729675	-1.8375893
1451387083620408863	-2.2605324	1.1118317	-1.9308119
1451387083624803394	-1.1069757	0.2409296	-2.3894386
1451387083629869312	-1.1773062	0.27641487	-2.4641418
1451387083635270923	0.008032799	-0.85666275	-2.276472
1451387083640001148	-0.05253756	-0.8228302	-2.337774
1451387083650041431	0.5399456	-1.4991846	-2.3256621
1451387083654954761	0.90074754	-1.7044268	-2.54105
1451387083660142750	0.8402417	-1.6658325	-2.6005607
1451387083665025562	0.86535597	-1.698246	-3.2215266
1451387083670640796	0.7990813	-1.6558666	-3.2808602
1451387083675096363	0.9198735	-1.930315	-3.715222
1451387083680284351	0.8589909	-1.8892527	-3.767248
1451387083685869068	0.47983003	-2.3140593	-3.5674262
1451387083690355152	0.42681932	-2.2762012	-3.6092749
1451387083700395435	-0.15362215	-2.8502092	-4.014542
1451387083705339283	-1.1799262	-3.2556276	-3.1714928
1451387083710496753	-1.2288351	-3.2096758	-3.2224913
1451387083715410084	-3.0858402	-3.3725224	-3.2354796
1451387083721208423	-3.7395012	-3.5913181	-3.1686306
1451387083725572437	-3.761431	-3.5527868	-3.2119932
1451387083730607837	-3.7830997	-3.511281	-3.2613995
1451387083736192554	-3.940996	-3.684229	-3.4373677
1451387083740709156	-3.8159518	-3.9035168	-3.2457938
1451387083743913501	-3.8237803	-3.8765545	-3.2686064
1451387083750749439	-3.8462434	-3.8310452	-3.320267
1451387083755693287	-3.9260397	-3.9019718	-2.708953
1451387083761827320	-4.229697	-3.7667751	-2.2993703
1451387083765886158	-4.228367	-3.74306	-2.3222928
1451387083771440357	-4.324604	-3.6110182	-1.553304
1451387083775834888	-4.320905	-3.5894089	-1.5751734
1451387083780900806	-4.1714363	-3.5610437	-0.9574394
1451387083786851734	-4.1662865	-3.5392332	-0.98203564
1451387083790941089	-3.8765855	-3.603016	-0.63103294
1451387083800920337	-3.4339058	-3.6760473	-0.32402134
1451387083806016773	-3.4279397	-3.6679945	-0.32326984
1451387083811113209	-2.8270764	-3.6263056	0.3179226
1451387083816240162	-2.8216815	-3.6250496	0.3302245
1451387083821885914	-1.6708117	-3.3998184	0.9866848
1451387083826310962	-1.6664233	-3.4034462	1.0056
1451387083831224293	-0.51066756	-3.1341047	1.4208398
1451387083836931080	-0.5043552	-3.1480265	1.4559467
1451387083841295093	0.4412942	-2.4529238	1.4598603
1451387083851365894	1.5339694	-1.2531443	1.5743337
1451387083856401294	1.5487757	-1.2795286	1.6199243
1451387083861406177	3.0581937	0.72854805	2.2050898
1451387083866594166	3.0799866	0.6947994	2.2506092
1451387083872300953	4.7597027	3.0528736	3.373509
1451387083876634449	4.778676	3.0217905	3.4009383
1451387083881578296	5.8710804	4.698498	4.5451665
1451387083887437671	5.901971	4.6609173	4.5678067
1451387083891649097	5.9078197	5.4787455	6.0683417
1451387083895097584	5.9197264	5.456918	6.062014
1451387083901719898	4.8538837	5.4966927	7.165987
1451387083906663746	3.027533	5.1010885	6.850154
1451387083911882251	3.0344734	5.0919046	6.8227854
1451387083916826099	1.2484989	3.8767328	5.1834087
1451387083923417896	1.2343194	3.885478	5.142107
1451387083927965015	-0.19516206	1.6147671	2.4654055
1451387083937852710	-1.0514638	-1.1226683	1.0050519
1451387083942155689	-1.0690255	-1.1049404	0.98295426
1451387083945329517	-1.0786529	-1.0919065	0.96573687
1451387083952226490	-1.4947243	-2.96622	0.4306357
1451387083957139820	-1.6772399	-3.4004688	0.883641
1451387083962236255	-1.6754186	-3.3817625	0.85799
1451387083967149585	-1.6655107	-2.6271448	1.7323234
1451387083972978443	-1.6528056	-2.608943	1.695394
1451387083977281421	-0.9865873	-1.1281385	1.204184
1451387083982408375	-0.9683089	-1.1150322	1.1683807
1451387083987809986	-0.89801884	0.8460331	-1.9168892
1451387083992479175	-0.87713194	0.85097694	-1.9390712
1451387084002549976	-1.7059786	3.8246088	-5.010764
1451387084007463306	-3.7013726	8.075851	-6.649635
1451387084012620777	-3.6780784	8.040645	-6.6080723
1451387084017534107	-5.873352	13.166115	-5.645111
1451387084022477955	-5.8463492	13.110277	-5.5824256
1451387084027604908	-4.43822	12.266615	0.03690505
1451387084032731861	-4.409786	12.213309	0.085989475
1451387084038408130	-2.3106334	3.9548883	3.076213
1451387084042833179	-2.287608	3.938033	3.0776303
1451387084052873462	-1.7014511	-2.1627092	1.614795
1451387084057817310	-2.5602472	-4.7533484	-0.8938966
1451387084062974781	-2.56078	-4.7354097	-0.906358
1451387084067979664	-3.221572	-5.673441	-2.3686104
1451387084073594898	-3.1243129	-5.734025	-4.651599
1451387084077928394	-3.1243465	-5.7268476	-4.6271358
1451387084083116382	-3.1245077	-5.727047	-4.585923
1451387084088853687	-3.1244895	-4.165081	-8.509054
1451387084093156666	-1.8554626	-1.3227005	-10.60649
1451387084096391529	-1.8465016	-1.3417835	-10.535689
1451387084103166431	0.06576061	1.7622414	-8.809869
1451387084108171314	0.07452655	1.7180319	-8.69342
1451387084114274830	1.1018255	4.353796	-5.7835903
1451387084118364185	1.1066327	4.3129997	-5.6878204
1451387084123887867	2.521078	5.112836	-3.5988383
1451387084128312916	2.5301738	5.0724506	-3.5125186
1451387084133348316	4.219352	4.3606634	-1.9855435
1451387084139299244	4.241564	4.3169327	-1.8944743
1451387084143358082	5.145033	3.033269	-0.7547054
1451387084146898121	5.1561112	3.0081549	-0.7073655
1451387084153398365	4.1186733	1.399786	-0.5395937
1451387084158525318	4.1330705	1.3723574	-0.46925974
1451387084163591236	1.9759626	-0.31861973	-1.1123455
1451387084168718189	1.9944348	-0.3424778	-1.0353024
1451387084174333423	0.2648368	-1.432374	-1.9593368
1451387084178758472	0.28045893	-1.450573	-1.8815949
1451387084183702320	-1.2602773	-2.0789165	-2.3813372
1451387084189531177	-1.2388144	-2.1020575	-2.268599
1451387084193773121	-2.3065648	-2.8192234	-2.2418723
1451387084203843921	-2.6959884	-3.340827	-2.5859728
1451387084208879322	-2.6681972	-3.35431	-2.4900365
1451387084213914722	-2.9625316	-3.234251	-2.8216395
1451387084219041675	-2.928019	-3.2464752	-2.7304292
1451387084224656910	-2.2734761	-2.661519	-2.2431705
1451387084229020923	-2.2386646	-2.6709852	-2.171487
1451387084234056324	-1.3434868	-1.9419346	-1.5561427
1451387084239793628	-0.15766263	-1.2158756	-1.1034343
1451387084244127125	-0.120824695	-1.2264299	-1.0441971
1451387084254319996	1.1440427	-0.65518284	-0.6827951
1451387084259202808	1.1828183	-0.6662502	-0.62228054
1451387084264268726	1.8923992	-0.17558575	-0.42559904
1451387084269395679	1.9295996	-0.18663502	-0.36408788
1451387084275132984	1.8324803	-0.20636845	-0.010822773
1451387084279405445	1.8602154	-0.21401787	0.03880143
1451387084284471363	1.5292258	-0.5268755	-0.2562499
1451387084290880054	0.8779948	-1.0361958	-0.45547736
1451387084294603199	0.89981735	-1.0393724	-0.41171664
1451387084297960132	0.9177829	-1.0415907	-0.37208802
1451387084304674000	0.33321846	-1.4961214	-0.37234047
1451387084309587330	0.057227254	-1.7905083	-0.5177027
1451387084314744800	0.08316243	-1.7914581	-0.45742172
1451387084319566578	-0.11831927	-2.0400295	-0.1952244
1451387084325517505	-0.08719599	-2.0402584	-0.12833044
1451387084329728931	-0.07481718	-2.1870165	0.121109456
1451387084334764332	-0.045358658	-2.185892	0.17486489
1451387084340226978	0.10477245	-2.1001797	0.019121826
1451387084344957203	0.13641047	-2.0988302	0.06737983
1451387084355028003	0.6045034	-1.6504383	0.11582458
1451387084359941334	1.1798939	-1.2365322	0.3984654
1451387084365098804	1.218133	-1.2363968	0.44702503
1451387084370012134	1.5061233	-0.7380171	0.61663455
1451387084375718921	1.5499277	-0.7385206	0.66850555
1451387084380082935	1.8097348	-0.38843918	0.54982704
1451387084385240406	1.8489932	-0.38878536	0.59615916
1451387084390886158	1.7051232	-0.072413445	0.3639112
1451387084395311207	1.7390205	-0.07259178	0.40377384
1451387084405382007	1.40559	0.16762352	0.23487812
1451387084410264820	1.1173811	0.4040575	0.022747755
1451387084415483326	1.1618406	0.40377808	0.064670384
1451387084420457691	1.009984	0.79519176	0.14376599
1451387084426835865	0.9527993	1.3329649	0.37887895
1451387084430436939	0.98377246	1.3307686	0.40101802
1451387084435563892	1.0285764	1.328785	0.4296285
1451387084441209644	1.2104529	1.79249	0.4180593
1451387084445573658	1.6631317	1.9791842	0.32432902
1451387084448869556	1.6896989	1.9755173	0.33720505
1451387084455552906	1.7470112	1.972394	0.36160612
1451387084460649341	2.69667	1.9438696	0.029070854
1451387084466569751	3.572428	1.7145767	-0.24056125
1451387084470842212	3.6013188	1.7111444	-0.23410273
1451387084476274341	4.0177717	1.4558325	0.011118174
1451387084480913013	4.046638	1.4528122	0.013708115
1451387084486101001	4.372807	1.2347507	0.84262836
1451387084491655201	4.4038935	1.2318716	0.8386067
1451387084495805591	4.2927494	1.2898455	1.597482
1451387084499345630	4.3061504	1.2867479	1.5898613
1451387084505967945	4.0826483	1.536232	2.1134562
1451387084511003345	4.1011786	1.5321989	2.099459
1451387084516069263	3.8850558	1.8073702	2.0428405
1451387084521165699	3.900865	1.802391	2.0245004
1451387084526841968	3.940897	2.2065725	1.4370408
1451387084531236500	3.9517374	2.2005844	1.4175472
1451387084536149830	4.2134542	2.732707	1.1035061
1451387084542009205	4.2275505	2.7246723	1.0727247
1451387084546251148	4.4773426	3.0955477	1.2891505
1451387084556321949	4.0173016	3.762084	1.7904527
1451387084561326832	4.0207872	3.7513857	1.7488306
1451387084566392750	3.188188	4.0089397	1.7654502
1451387084571550220	3.184716	3.9969816	1.7106878
1451387084577134937	2.9913144	3.7756147	1.5570216
1451387084581621021	2.9768214	3.764349	1.4989576
1451387084586534351	2.7347236	3.1856327	1.5118866
1451387084592241138	2.0307848	2.754571	0.8931585
1451387084596574634	2.0000167	2.745945	0.8191359
1451387084606798023	1.0732771	2.528946	0.38746345
1451387084611711353	0.6149204	2.691411	-0.047861397
1451387084616838306	0.56320846	2.6867847	-0.16786179
1451387084621934742	0.5071537	2.6841288	-0.29392636
1451387084627458423	-0.5460738	2.6854725	-1.2207432
1451387084631761402	-1.8897381	3.2844572	-1.8865585
1451387084636979908	-1.9546356	3.2877188	-2.0225153
1451387084643174976	-2.420754	4.236762	-2.4335375
1451387084647081226	-2.4683383	4.238921	-2.5295367
1451387084650407642	-2.5074227	4.2402754	-2.6091022
1451387084657121509	-2.5956442	4.5873423	-2.175702
1451387084662065357	-2.5160594	4.073062	-1.1402142
1451387084667192310	-2.5743032	4.084381	-1.2537841
1451387084672105640	-2.340668	3.5296755	-0.022117019
1451387084677934498	-2.405843	3.5467281	-0.14192641
1451387084682206959	-2.2515311	2.9681845	1.3870322
1451387084687242359	-2.3115773	2.9850073	1.2879882
1451387084693101734	-1.9581437	2.6216707	2.247106
1451387084697404712	-2.0167146	2.638586	2.1635823
1451387084707475513	-1.7331309	2.6535835	1.6358967
1451387084712388843	-1.5666676	2.2093983	0.43142176
1451387084717546314	-1.6522499	2.2383127	0.34230566
1451387084722490162	-1.5941652	1.9410162	-0.90891075
1451387084728166431	-1.6867471	1.9763794	-1.0004077
1451387084732560962	-1.54035	1.3633642	-2.6437695
1451387084737596363	-1.616891	1.3959827	-2.7157242
1451387084743333668	-0.06810272	0.021457672	-3.4889784
1451387084747789234	-0.13409185	0.051049232	-3.538989
1451387084757829517	1.0947062	-1.6374264	-2.3191843
1451387084762742847	1.5340762	-2.4911366	-2.0473871
1451387084767930835	0.8275969	-2.3613462	-2.9554832
1451387084772966236	0.76087475	-2.3211107	-3.0100076
1451387084778459400	0.69017386	-2.2766466	-3.0711436
1451387084783006519	0.91281676	-2.4752722	-3.9047494
1451387084788072437	0.8482635	-2.4336176	-3.9539735
1451387084793840259	0.89967895	-3.0164623	-4.0384426
1451387084798173755	0.8450668	-2.9791298	-4.0748215
1451387084809190601	0.042660713	-4.0023365	-4.357721
1451387084818925709	-1.1888103	-4.07038	-3.9683447
1451387084823198169	-1.2284172	-4.030429	-4.00524
1451387084828691334	-2.4333537	-4.187751	-2.8322284
1451387084833391041	-2.4650297	-4.1458683	-2.8769052
1451387084838487476	-3.1824572	-4.2741365	-3.7039847
1451387084843278736	-3.1993904	-4.2332344	-3.7519398
1451387084848375171	-3.579027	-4.2568407	-3.6040742
1451387084851884693	-3.5842597	-4.2262974	-3.6353555
1451387084858445972	-4.082247	-4.2532873	-3.2407875
1451387084863481373	-4.0864534	-4.218919	-3.2796752
1451387084868547291	-4.5690775	-3.9937143	-2.9384525
1451387084873674244	-4.565576	-3.9645529	-2.9718723
1451387084879045337	-4.9959517	-3.5894709	-2.5954168
1451387084883775562	-4.9839573	-3.5670614	-2.622027
1451387084888658375	-5.0120287	-3.313592	-1.9523764
1451387084893663257	-4.997738	-3.2953491	-1.9741025
1451387084898729175	-4.64355	-3.1657143	-1.3501968
1451387084908799976	-4.430584	-3.0533571	-1.1028395
1451387084913835376	-4.4194627	-3.0439463	-1.1079278
1451387084918901294	-3.87608	-2.9162092	-0.86485004
1451387084924058765	-3.8665032	-2.9116383	-0.86109924
1451387084929643482	-2.9246528	-2.7282658	-0.54629946
1451387084934129566	-2.9176483	-2.728015	-0.5349579
1451387084939012378	-1.7715538	-2.372304	-0.11828756
1451387084944017261	-1.7676375	-2.3767967	-0.099226
1451387084949083179	-0.5922251	-1.9871874	0.35054588
1451387084959276050	0.3822863	-1.3131237	0.9886544
1451387084964189380	0.38705325	-1.324996	1.0128484
1451387084969377369	1.3843114	-0.34286308	1.9152465
1451387084974412769	1.3921015	-0.35860538	1.9382086
1451387084980302662	2.5186563	1.0100622	3.0542371
1451387084985399097	3.510678	2.3299074	4.17002
1451387084989488453	3.5178106	2.31256	4.1778173
1451387084994798511	4.1936445	3.2493086	5.4542303
1451387084999589771	4.204562	3.2309742	5.453906
1451387085002763599	4.2090406	3.2180147	5.4466534
1451387085009630054	4.472485	3.6766138	6.3125
1451387085014543384	4.0102706	3.8975391	6.8526573
1451387085019700855	4.01686	3.8881369	6.830817
1451387085024614185	2.8332627	4.0205097	6.271592
1451387085029558033	2.8340197	4.017438	6.2427273
1451387085034654468	1.9665632	3.837409	4.427474
1451387085039872974	1.9650581	3.8407125	4.392897
1451387085045579761	0.7693703	3.3247814	2.6295972
1451387085049943775	0.7704668	3.328742	2.5999918
1451387085059984058	-0.541234	2.0336552	1.7846088
1451387085064897388	-0.71072674	-0.13997173	2.464634
1451387085070054859	-0.7067075	-0.12915134	2.4369397
1451387085074968189	-0.72317195	-1.9242764	3.0903392
1451387085079942554	-0.7187426	-1.9100895	3.062139
1451387085085038990	0.119623184	-3.407854	2.5886307
1451387085090043873	0.12698221	-3.3895273	2.5569606
1451387085095933765	-0.6378951	-2.966648	2.7074142
1451387085100267261	-0.6221714	-2.95055	2.674461
1451387085110338062	-0.38893747	-1.9916039	3.1329727
1451387085115251392	0.5322368	-0.71176434	1.5578356
1451387085120439380	0.5135758	1.6361523	-3.1311321
1451387085125322193	0.5446811	1.6439829	-3.162188
1451387085131273121	0.5780995	1.6492939	-3.1895313
1451387085140580982	-0.95298886	5.047304	-7.1077332
1451387085146348804	-3.9272385	10.097927	-9.2011795
1451387085150560230	-3.9222205	10.059555	-9.148907
1451387085161912769	-4.598054	11.176161	-2.000957
1451387085165574878	-4.5975018	11.130915	-1.949728
1451387085171312183	-5.71603	1.6817598	1.8172436
1451387085175676197	-5.7185135	1.6642303	1.849442
1451387085181077808	-6.2282314	-3.1713648	2.0563083
1451387085185899585	-6.228021	-3.1579437	2.0457187
1451387085190873951	-5.2547035	-5.111949	0.45588684
1451387085195756763	-5.2542353	-5.08774	0.43417168
1451387085200853199	-3.6994927	-5.6915197	-1.355123
1451387085204332203	-3.6958272	-5.675724	-1.3576951
1451387085210924000	-2.376117	-5.191045	-5.355225
1451387085215989918	-2.368958	-5.191352	-5.323571
1451387085220994800	-2.2725656	-3.2090988	-10.337984
1451387085226030201	-2.2736888	-3.2337837	-10.249823
1451387085231523365	-2.0016387	0.02229023	-11.20393
1451387085236253589	-2.0208406	-0.020713806	-11.073645
1451387085241136402	-0.12010074	3.4615364	-8.109643
1451387085247026294	-0.15761995	3.4003716	-7.9398637
1451387085251207203	1.984945	5.3079386	-4.958404
1451387085254655689	1.9606528	5.2679462	-4.858708
1451387085261278003	3.4988844	5.3727636	-2.8489158
1451387085266313404	3.4760063	5.329011	-2.7381089
1451387085271379322	4.4418693	4.093133	-1.7782512
1451387085276475757	4.436608	4.0561857	-1.691834
1451387085282121509	4.754962	2.3868723	-1.1695521
1451387085286577076	4.7602825	2.3570423	-1.1009595
1451387085291490406	3.7114275	0.4366808	-0.99162865
1451387085297319263	1.7599766	-1.0434933	-0.79964256
1451387085301652759	1.7726555	-1.0663471	-0.7247963
1451387085311754078	-0.07630944	-2.2034416	-0.8848481
1451387085316667408	-0.055181026	-2.2274427	-0.7905266
1451387085321824878	-1.2798746	-2.9762993	-1.5608928
1451387085326707691	-1.2521629	-2.9983444	-1.4614632
1451387085332292408	-1.7494395	-3.117155	-2.784174
1451387085337694019	-2.3261948	-2.8328342	-3.0780287
1451387085341935962	-2.2936692	-2.849907	-2.986453
1451387085347154468	-2.064111	-2.4235067	-3.1977825
1451387085352006763	-2.0232954	-2.442792	-3.0974205
1451387085362077564	-0.6411958	-2.3735943	-2.535973
1451387085366929859	0.32379556	-1.8532486	-1.5428802
1451387085372178882	0.36766028	-1.8701153	-1.4528816
1451387085377061695	1.0883512	-1.3788805	-0.38637245
1451387085382890552	1.1311057	-1.3952618	-0.29421276
1451387085387163013	2.2247922	-1.3682108	0.36062723
1451387085392289966	2.2549152	-1.3794603	0.43784857
1451387085398027271	2.4519734	-1.3299332	0.6963015
1451387085402391285	2.4717245	-1.336935	0.76208
1451387085412462085	2.09298	-1.3906183	0.66054857
1451387085417375416	1.2183374	-1.505578	0.19175291
1451387085422532886	1.2386376	-1.509922	0.27391082
1451387085427446216	0.6587454	-1.7553835	-0.2221712
1451387085433305591	0.6813828	-1.758071	-0.12833892
1451387085437517017	-0.12676144	-1.8359184	-0.1472485
1451387085442552418	-0.10601258	-1.8361216	-0.067995824
1451387085448411793	-0.56701636	-1.6285563	0.15113503
1451387085452745289	-0.54687285	-1.6277361	0.21258736
1451387085462785572	-0.46525884	-1.5520315	0.2408753
1451387085467729419	-0.36006725	-1.5882921	0.19596362
1451387085472886890	-0.3294419	-1.5875444	0.25715494
1451387085477800220	-0.18832326	-1.7084656	0.029893905
1451387085483537525	-0.22711885	-1.7030525	-0.23430306
1451387085487871021	-0.19554746	-1.7017717	-0.18820512
1451387085492936939	-0.15652657	-1.7009716	-0.13681185
1451387085498796314	-0.046114445	-1.659976	0.015371621
1451387085502946705	-0.011875272	-1.6586761	0.05359465
1451387085514268726	-0.006525874	-1.199502	0.8638126
1451387085518083423	0.024463773	-1.1984129	0.8928366
1451387085523759693	0.091881394	-0.70573425	1.0905389
1451387085528276294	0.12593472	-0.70525074	1.1226318
1451387085533189625	-0.045251846	0.13252163	1.0737866
1451387085538347095	-0.008571625	0.13192463	1.110069
1451387085543290943	0.13937569	0.8228626	0.5146557
1451387085548997730	0.17791963	0.82140636	0.5543525
1451387085553331226	0.3142383	1.1579361	-0.4564904
1451387085556871265	0.33764178	1.1558666	-0.4314369
1451387085563402027	0.7978466	1.0192652	-1.005464
1451387085568437427	0.83232355	1.017806	-0.9704585
1451387085573472828	1.1747439	0.6988125	-1.0091823
1451387085578599781	1.211325	0.69807625	-0.97561634
1451387085584245533	1.4926383	0.68188477	-0.85831964
1451387085588701099	1.5246396	0.6810188	-0.83225274
1451387085593614429	1.6931651	1.1647806	-0.63888395
1451387085599443287	1.7365329	1.1626654	-0.61176634
1451387085603685230	1.9736507	1.7488604	-0.22658193
1451387085607133716	1.9974613	1.7451639	-0.21400571
1451387085613725513	2.4083529	2.0551643	0.29277813
1451387085618760914	2.4413126	2.0502748	0.30281508
1451387085623826832	2.841945	2.0440712	0.60679734
1451387085628862232	2.8708925	2.0389757	0.61191773
1451387085634446949	3.2693858	1.8676891	0.85403264
1451387085639024585	3.291876	1.8628464	0.85487735
1451387085643968433	3.6310341	1.6393337	0.87596154
1451387085649797291	3.7475142	1.6019659	1.5050428
1451387085654161304	3.764322	1.5970192	1.4976852
1451387085664201587	4.1170483	1.5780306	2.3035016
1451387085669175953	4.133861	1.5717716	2.2843862
1451387085674302906	4.4762597	1.5138206	2.9188404
1451387085679155201	4.489411	1.5073004	2.8940847
1451387085684770435	4.800643	1.1550169	3.1171033
1451387085690263599	4.9470596	0.8952503	2.556604
1451387085694413990	4.953137	0.88994694	2.528975
1451387085699601978	4.792696	0.6984024	2.363266
1451387085704484791	4.7996473	0.6922245	2.3246043
1451387085714586109	3.7283313	0.4145565	2.318865
1451387085719407886	2.4601696	0.6464958	1.8643016
1451387085724656910	2.4617844	0.63820744	1.7968123
1451387085729570240	0.96471584	1.3253708	1.5038943
1451387085734514087	0.96172315	1.3163252	1.4326336
1451387085739641041	0.40747648	2.6608553	1.0875103
1451387085744767994	0.3956613	2.6488857	0.99675167
1451387085750535816	0.7378192	4.471836	0.33962607
1451387085754899830	0.71273506	4.4582653	0.24910054
1451387085758317798	1.1138303	5.604372	0.0993225
1451387085764909595	1.0505614	5.589595	-0.05368969
1451387085769853443	0.19216433	6.409981	0.28849107
1451387085775010914	0.12549049	6.3988085	0.16174753
1451387085779924244	-0.5321923	6.4794292	0.5450609
1451387085784868091	-0.6067587	6.472681	0.424783
1451387085789995044	-1.5389292	6.48166	0.44184604
1451387085795152515	-1.6204023	6.479721	0.3230816
1451387085800889820	-2.9531312	6.064698	-0.23095399
1451387085805223316	-3.0170603	6.064824	-0.32322007
1451387085815263599	-3.5320082	5.3172255	-1.3946891
1451387085820207447	-3.620087	4.669304	-1.3271437
1451387085825364918	-3.6854622	4.67869	-1.4197165
1451387085830278248	-3.5101984	4.1175547	0.1471355
1451387085835954517	-2.802477	3.6886816	1.5705507
1451387085840318531	-2.8577218	3.7004766	1.4885086
1451387085845384449	-2.4722357	3.6857204	2.1502151
1451387085851091236	-2.5495458	3.7069721	2.043768
1451387085856675953	-2.3758001	3.7725077	1.9785275
1451387085858812183	-2.4039981	3.7767563	1.9378026
1451387085866655201	-2.1480687	3.0969973	1.6576009
1451387085870530933	-2.2077332	3.1150846	1.5911015
1451387085876024097	-1.6094416	1.7218647	0.59240806
1451387085880754322	-1.6867673	1.7510843	0.5162201
1451387085885606617	-1.5653789	0.91777515	-0.3650651
1451387085890794605	-1.6494207	0.9536629	-0.44221234
1451387085895738453	-2.140151	0.26896	-1.2661841
1451387085901414722	-2.225378	0.3091526	-1.3389044
1451387085905809253	-1.5181851	0.015675545	-1.6803188
1451387085909166187	-1.563714	0.038905144	-1.7171564
1451387085915910572	0.16951728	-0.6569309	-2.0588396
1451387085920945972	0.09615302	-0.6225109	-2.1003604
1451387085925920337	0.3844645	-0.98209953	-1.7673821
1451387085930955738	0.31366706	-0.9456415	-1.8110349
1451387085936815113	-0.4230852	-1.2180414	-1.9121907
1451387085941179126	-0.4885373	-1.1828442	-1.947027
1451387085946122974	-1.2229476	-1.639123	-2.7726278
1451387085951921314	-1.306881	-1.590105	-2.8198702
1451387085956132740	-1.6281359	-2.4451313	-3.9128537
1451387085959550709	-1.675134	-2.412857	-3.933861
1451387085966234058	-1.5212162	-3.4519224	-4.8498955
1451387085971238941	-1.5878084	-3.4050007	-4.880618
1451387085976304859	-2.1334453	-4.7213354	-4.0738087
1451387085981340259	-2.1898146	-4.6718197	-4.11109
1451387085987077564	-3.1912975	-6.024515	-4.026797
1451387085991533130	-3.225753	-5.9771385	-4.0684395
1451387085996446460	-3.9024644	-6.5898027	-4.334539
1451387086002305835	-4.382654	-6.817359	-3.7772264
1451387086006639332	-4.3941255	-6.773385	-3.823817
1451387086016710132	-4.6817193	-6.448182	-3.222568
1451387086021623462	-4.8739266	-5.93808	-2.3564978
1451387086026780933	-4.859453	-5.8993607	-2.4187796
1451387086032853931	-4.9515085	-5.472106	-1.5902903
1451387086037340015	-4.9263053	-5.442093	-1.6439638
1451387086042589039	-4.8562155	-5.2131376	-1.3061628
1451387086046769947	-4.8259587	-5.187804	-1.3540311
1451387086052141041	-4.525345	-4.902025	-1.2413216
1451387086056993335	-4.487983	-4.8802023	-1.2882874
1451387086067033619	-4.199424	-4.417143	-0.94886065
1451387086071977466	-3.796115	-4.0471907	-0.38239098
1451387086077134937	-3.7596946	-4.0391035	-0.40450764
1451387086082048267	-3.1260414	-3.5693455	-0.021440506
1451387086087846607	-3.089283	-3.5686855	-0.032118797
1451387086092119068	-2.5505683	-3.10995	0.53247404
1451387086097276539	-2.5211806	-3.1144543	0.53441525
1451387086103044361	-1.9919279	-2.6163826	0.8428912
1451387086107377857	-1.9704316	-2.6235838	0.85315895
1451387086110643238	-1.3861737	-2.168583	1.1731198
1451387086117448658	-1.3592532	-2.187436	1.1996515
1451387086122331470	-0.5520687	-1.7917356	1.6340845
1451387086127519459	-0.5352509	-1.8079624	1.6598501
1451387086132402271	0.61397123	-1.4260912	2.556616
1451387086137407154	0.6253252	-1.4432478	2.583839
1451387086142473072	1.6787605	-1.0245371	3.7787971
1451387086147661060	1.6852674	-1.042264	3.805661
1451387086153367847	2.4574828	-0.49724674	4.6530685
1451387086157701343	2.457752	-0.5108805	4.671109
1451387086160936207	2.769181	0.01250267	4.969391
1451387086167802662	2.7653453	-0.007695198	5.0020494
1451387086172685474	2.7680454	0.3678379	4.7747097
1451387086177842945	2.7589216	0.35278606	4.7995977
1451387086182756275	2.0286615	0.79902744	4.0272512
1451387086188432544	0.79016614	1.588974	2.9658399
1451387086192827076	0.7847822	1.5720377	2.9943733
1451387086199174732	-1.0772231	2.8266087	1.1827288
1451387086203630298	-1.0738654	2.8053455	1.2159121
1451387086209031910	-2.8461463	4.223631	-0.1811893
1451387086211290210	-2.8364222	4.2066784	-0.16422749
1451387086219041675	-3.9728746	5.2608356	0.22967958
1451387086223008960	-3.9542732	5.236452	0.2538185
1451387086228135914	-4.2201242	5.0898123	2.0988624
1451387086233232349	-4.197919	5.065177	2.1186552
1451387086238969654	-4.0780096	4.095298	3.454278
1451387086243181080	-4.0618834	4.0802746	3.4572673
1451387086248216480	-3.6889577	2.547493	3.7748988
1451387086254014820	-3.6770658	2.5408545	3.7668638
1451387086258317798	-3.478108	0.4157257	3.7436574
1451387086261796802	-3.4703395	0.41856384	3.7258618
1451387086268388599	-3.301888	-2.6473513	4.0465417
1451387086273362964	-3.2927244	-2.6292114	4.004416
1451387086278428882	-3.860106	-5.237273	2.8739324
1451387086283616871	-3.8435593	-5.206209	2.8121953
1451387086289323658	-6.725069	-6.2321367	-0.3679998
1451387086293657154	-6.696828	-6.2030125	-0.415591
1451387086298570484	-8.8556595	-3.0966702	-5.592843
1451387086303544849	-8.816173	-3.085063	-5.608132
1451387086308641285	-7.899427	7.7706413	-8.864608
1451387086312120289	-7.870244	7.7478065	-8.839935
1451387086318712085	-7.295097	22.847118	-6.8853006
1451387086323747486	-7.2500963	22.777092	-6.8388147
1451387086328782886	-1.3415756	30.48436	-2.5292606
1451387086333818287	-1.280123	30.39392	-2.497858
1451387086339586109	11.361527	21.069424	-2.326033
1451387086344011158	11.404184	21.020329	-2.3514059
1451387086348924488	10.749548	2.9504805	-8.202146
1451387086353868335	10.747764	2.9718523	-8.26532
1451387086358995289	-1.096405	-5.5216665	-4.3966217
1451387086362504810	-1.1427925	-5.485058	-4.416742
1451387086369188160	-8.079662	-9.613497	2.271473
1451387086375047535	-6.73174	-9.846753	-0.5550401
1451387086379289478	-6.807501	-9.808418	-0.5326185
1451387086385087818	-5.1038923	-5.923012	-6.853466
1451387086389787525	-5.1722617	-5.8968725	-6.8116164
1451387086394944996	-3.7859838	-2.0579367	-10.677053
1451387086399400562	-3.829747	-2.0565681	-10.6053505
1451387086404283375	-2.0655856	1.2804813	-9.739073
1451387086409471363	-2.1020665	1.2536488	-9.620135
1451387086419542164	-0.66743493	5.132785	-6.2522097
1451387086425462574	0.3649416	9.696675	-3.2062366
1451387086434526294	0.9534755	12.19192	-2.6066992
1451387086440263599	0.9557326	12.1256695	-2.4668438
1451387086444597095	2.9127367	10.566118	-3.31041
1451387086449785084	2.9277966	10.50648	-3.1877198
1451387086455430835	3.3137546	6.290368	-2.9303186
1451387086459825367	3.332522	6.246828	-2.830198
1451387086469926685	1.482995	1.9680891	-2.1386237
1451387086474809498	-0.47485924	-0.73311615	-2.3047004
1451387086479966968	-0.46336365	-0.75466824	-2.1918907
1451387086484880298	-1.9908307	-2.0494976	-2.856117
1451387086490739673	-1.9895251	-2.0644865	-2.7212596
1451387086494951099	-3.433138	-2.2285671	-3.4889941
1451387086500108570	-3.4331753	-2.2373362	-3.3617353
1451387086505906910	-4.2450533	-2.330824	-3.260027
1451387086510179371	-4.2329946	-2.3369513	-3.156063
1451387086513414234	-4.5957193	-2.3786545	-2.4148555
1451387086520250171	-4.5659027	-2.3915453	-2.2663612
1451387086525163501	-3.0099475	-2.5182085	-1.1490972
1451387086530320972	-2.9717221	-2.5276852	-1.0580971
1451387086535234302	-1.060111	-3.0022612	-0.45397508
1451387086540178150	-1.0188122	-3.0101748	-0.3862068
1451387086545305103	0.3173206	-3.1447926	-0.9262053
1451387086550248951	1.5235431	-3.0310583	-2.0968134
1451387086556321949	1.5726347	-3.040722	-2.0167537
1451387086561174244	2.832012	-2.834178	-2.712683
1451387086570970386	2.8578446	-2.0275412	-1.767211
1451387086575517505	2.8916519	-2.0329313	-1.6986687
1451387086580766529	3.3275216	-1.7308979	-0.87541354
1451387086585710376	3.362932	-1.7360849	-0.80418605
1451387086590501636	3.1452951	-1.8535624	-0.027025819
1451387086595781177	3.1814659	-1.8571091	0.045463145
1451387086600663990	2.319827	-1.8471508	0.8502364
1451387086605668873	2.3528113	-1.8483706	0.9175587
1451387086610795826	1.4392684	-2.1999006	0.8734001
1451387086614122242	1.4609263	-2.197794	0.9175286
1451387086620866626	0.854228	-2.8016748	0.57972115
1451387086625902027	0.89019346	-2.7982903	0.64797246
1451387086630876392	0.34752655	-3.0939226	0.25389624
1451387086636033863	0.38517737	-3.088769	0.32279742
1451387086641801685	0.7943671	-2.9568014	0.72936034
1451387086646165699	0.8263446	-2.9513407	0.7824352
1451387086651048511	1.7184159	-2.3647346	1.7983878
1451387086657090992	1.7652154	-2.3614178	1.8610684
1451387086661119312	1.58082	-1.7849255	2.2657485
1451387086664567798	1.6098993	-1.7830734	2.2931087
1451387086671342701	1.9776342	-1.2051382	1.8566165
1451387086676225513	2.0273895	-1.2067833	1.8914459
1451387086681260914	2.191153	-0.7208233	0.7250246
1451387086686448902	2.250719	-0.7246971	0.75960827
1451387086692155689	2.8155277	-0.6755848	0.07600486
1451387086696519703	2.8663952	-0.6789732	0.10142863
1451387086701402515	3.4474664	-0.5947237	-0.25539613
1451387086706407398	3.5062304	-0.5992842	-0.23228359
1451387086711473316	3.5763552	-0.09875679	0.20558047
1451387086714982837	3.6150804	-0.102461815	0.21828902
1451387086721666187	3.0208502	0.8191118	0.88950205
1451387086727342457	2.5406103	1.565772	1.1366327
1451387086731767505	2.5920513	1.5579262	1.144393
1451387086737077564	2.2548568	1.9973392	0.9355949
1451387086741624683	2.3033385	1.9893856	0.94230616
1451387086747484058	2.3340914	2.0372667	0.8564166
1451387086751848072	2.371395	2.0305128	0.8616651
1451387086756975025	2.1643999	1.8076601	1.1842443
1451387086761979908	2.1977825	1.8016033	1.1861483
1451387086771989673	1.9736407	1.7458916	1.6111507
1451387086776933521	1.8626838	2.0170422	2.5017
1451387086782121509	1.8886728	2.0085487	2.4834995
1451387086786973804	2.3673627	2.4580898	3.0140014
1451387086792955250	2.396854	2.4462175	2.9803605
1451387086802202076	2.9636016	2.8274956	3.1802735
1451387086807847828	3.4970322	2.6506329	3.1915941
1451387086812303394	3.5171309	2.6382227	3.148758
1451387086822404712	3.9604652	2.2977686	1.54635
1451387086827287525	3.3685617	2.6261625	0.5464903
1451387086832475513	3.3881218	2.6116886	0.48420012
1451387086837388843	2.1682322	3.982502	1.5402933
1451387086842363209	2.1811674	3.9652977	1.4651744
1451387086847429126	1.7751985	4.872121	1.7000542
1451387086852556080	1.7748544	4.853282	1.6079363
1451387086858354419	1.452183	4.615926	0.8352386
1451387086862657398	0.6004445	3.7542973	1.5179259
1451387086865861744	0.579509	3.7430477	1.4527977
1451387086872789234	-0.25210506	3.325056	1.88609
1451387086877641529	-0.29908812	3.3159313	1.7794881
1451387086882676929	-0.35415888	3.3083801	1.6631873
1451387086887895435	-0.80243415	3.3923998	2.092183
1451387086893419117	-1.7354984	3.8669262	2.1873772
1451387086897935718	-1.7957238	3.8644	2.0674293
1451387086903856128	-2.6847572	4.699128	1.0101857
1451387086907792896	-2.7403793	4.6984673	0.90264165
1451387086913316578	-3.2990127	5.6058474	-0.37895048
1451387086924455494	-3.8421922	6.576518	-0.92503196
1451387086927995533	-3.8935287	6.5783806	-1.0146222
1451387086933183521	-4.31099	6.12957	0.2747482
1451387086938188404	-4.3834996	6.141919	0.15317214
1451387086943986744	-4.0004363	5.100666	0.8332734
1451387086948228687	-4.057132	5.1131706	0.73790145
1451387086953142017	-2.8260493	3.5229206	1.4116558
1451387086958909839	-2.9073434	3.54875	1.2951739
1451387086963273853	-1.4753063	2.6060238	2.3634968
1451387086966722339	-1.5280145	2.6215029	2.299537
1451387086973344654	-0.3432554	2.196332	2.5575864
1451387086978319019	-0.432554	2.225895	2.4738054
1451387086983354419	-0.5753596	2.5625877	0.9989908
1451387086988542408	-0.673857	2.5973396	0.91668797
1451387086994249195	0.15096855	2.724759	-1.7670496
1451387086998643726	0.06646299	2.7545357	-1.824508
1451387087003526539	2.3825932	1.5977135	-1.4218383
1451387087009477466	2.2635653	1.644517	-1.4944687
1451387087016954273	3.423964	0.58345413	-1.3149829
1451387087023668140	3.7365046	-0.35979748	-2.2603478
1451387087028703541	3.625495	-0.3078575	-2.319243
1451387087033891529	2.703976	-1.1974144	-2.1839488
1451387087038774341	2.5934842	-1.1416788	-2.2345421
1451387087043748707	1.415889	-2.0853682	-2.3861158
1451387087048875660	1.3043258	-2.0249786	-2.4283698
1451387087054002613	0.17475414	-3.161089	-3.8263698
1451387087059800953	-0.9808674	-3.713501	-3.4730535
1451387087063951343	-1.0551269	-3.6613789	-3.5019147
1451387087067460865	-1.1132858	-3.6173153	-3.5248852
1451387087074144214	-1.2519271	-3.882286	-2.716654
1451387087079759449	-1.0893357	-3.903884	-3.015757
1451387087084245533	-1.1484017	-3.8509083	-3.0533354
1451387087089799732	-1.7499285	-3.86098	-2.9317641
1451387087095048755	-1.8096771	-3.7996292	-2.9835696
1451387087099931568	-2.8489609	-3.9726095	-2.4717324
1451387087104387134	-2.8876085	-3.9198465	-2.5209565
1451387087109361500	-4.044938	-4.4938917	-1.7894752
1451387087114457935	-4.0778375	-4.434477	-1.853215
1451387087124498218	-5.193571	-5.1641827	-1.4390697
1451387087129411548	-5.232752	-5.485024	-0.88608766
1451387087134569019	-5.239341	-5.432511	-0.9521084
1451387087139482349	-5.494715	-5.21592	-0.96708703
1451387087144456714	-5.494167	-5.1727066	-1.019341
1451387087149583668	-5.432637	-4.823653	-1.1022694
1451387087154710621	-5.42984	-4.789092	-1.139349
1451387087160386890	-6.0870495	-4.813299	-1.1697679
1451387087164781421	-6.0795355	-4.7904177	-1.1867073
1451387087174852222	-6.035811	-4.7911754	-1.2998269
1451387087179735035	-4.9264393	-4.61784	-1.3703351
1451387087184953541	-4.912526	-4.609115	-1.3697445
1451387087189836353	-3.665676	-4.3102927	-0.82116127
1451387087195512623	-2.2203627	-3.9661312	-0.107610226
1451387087199907154	-2.2051964	-3.9645066	-0.10604286
1451387087205064625	-2.1859794	-3.9651237	-0.10453415
1451387087210832447	-0.7416353	-3.6801825	0.9589505
1451387087215135425	0.77554655	-3.1735415	1.9967604
1451387087218370289	0.78923035	-3.175582	1.9929724
1451387087225206226	2.810049	-2.3020263	2.5234637
1451387087230028003	2.8319292	-2.3127227	2.5189362
1451387087235338062	2.858739	-2.3261638	2.514785
1451387087240190357	4.4062877	-0.8894696	2.640013
1451387087245225757	4.430061	-0.9063959	2.636895
1451387087250261158	5.358103	0.66577244	2.379347
1451387087256395191	5.178477	1.8934002	2.2224007
1451387087261033863	5.192952	1.8738189	2.2226572
1451387087265886158	3.9039664	2.693643	2.4722643
1451387087268724293	3.9078817	2.680276	2.4701586
1451387087275712818	2.4602847	3.2341652	2.9961722
1451387087280443043	2.4707973	3.221695	2.9855924
1451387087285539478	1.3755069	3.9278827	3.2275624
1451387087290696949	1.3895326	3.9182591	3.2070704
1451387087296251148	0.976141	4.143978	3.7633762
1451387087300737232	0.9956174	4.1356773	3.7342596
1451387087305620044	0.94394946	3.9532824	3.5723972
1451387087310624927	0.97314477	3.9457684	3.534564
1451387087315721363	1.0466335	2.993806	3.2396293
1451387087325792164	0.9567187	1.7130809	2.6015487
1451387087330827564	0.9927988	1.7095814	2.5629878
1451387087335862964	0.97404814	0.5301881	1.7449465
1451387087341050953	1.0083661	0.52963734	1.709907
1451387087346635669	0.55847764	-0.980371	0.9905515
1451387087350969166	0.58456993	-0.9761529	0.9625702
1451387087356004566	0.07231617	-3.39923	2.0573483
1451387087361436695	0.10617995	-3.3842893	2.0127258
1451387087366105884	0.088670015	-6.7522607	2.5378337
1451387087369584888	0.11277509	-6.7297754	2.499866
1451387087376146168	-1.2370467	-8.221761	-0.0130085945
1451387087381151050	-1.2021542	-8.194983	-0.052278996
1451387087386247486	-4.0412254	-6.9730744	-3.8789067
1451387087391374439	-4.0151668	-6.969928	-3.8646255
1451387087397142261	-9.342568	-1.5522604	-10.752025
1451387087401475757	-9.333664	-1.5785632	-10.672416
1451387087406358570	-14.435905	9.995947	-12.746738
1451387087412095875	-17.153976	24.58388	-6.5433755
1451387087416429371	-17.12667	24.474796	-6.414868
1451387087419786304	-17.088448	24.375988	-6.310132
1451387087426500171	-9.8803835	30.697227	1.9481258
1451387087432115406	3.569837	17.144737	10.828251
1451387087436723560	3.638676	17.074163	10.822154
1451387087441758960	6.984007	-0.99265003	1.8259418
1451387087446611255	7.0475264	-0.9794569	1.7417183
1451387087451585621	-0.2096932	-6.972767	-2.4723325
1451387087456834644	-0.19075084	-6.9192467	-2.5587807
1451387087462236255	-3.788469	-8.905832	0.24881792
1451387087466935962	-3.8104682	-8.870433	0.23497677
1451387087476945728	-2.5772092	-9.526878	-0.8352494
1451387087481859058	-2.2218425	-7.5692806	-7.190332
1451387087487108082	-2.237819	-7.5728483	-7.1222386
1451387087491960376	-2.3511255	-4.020054	-12.063233
1451387087496995777	-2.3553662	-4.0443153	-11.963134
1451387087502061695	-0.4808383	-0.56556225	-11.802889
1451387087507188648	-0.47962356	-0.6103096	-11.675844
1451387087512559742	1.7028973	2.98948	-8.806929
1451387087517289966	1.7015579	2.937109	-8.677933
1451387087527299732	2.9477544	5.74016	-5.2513623
1451387087532213062	3.7566946	7.1500206	-1.7074931
1451387087537431568	3.7781672	7.100359	-1.633112
1451387087542314380	5.0571527	6.39606	0.7829232
1451387087548356861	4.866988	3.8083	1.3310292
1451387087552385181	4.894451	3.7767353	1.363843
1451387087557512134	4.9328804	3.738802	1.4070337
1451387087563188404	3.200578	0.76604843	0.36590433
1451387087567491382	3.230859	0.7378254	0.41524053
1451387087570848316	1.2950642	-1.4672947	-1.0870705
1451387087577684253	1.344007	-1.5087471	-0.9848981
1451387087582597584	-0.63474774	-2.8845263	-2.2752695
1451387087587755054	-0.6047566	-2.9134188	-2.1716757
1451387087592790455	-2.1747432	-3.8254251	-3.1790872
1451387087599321216	-3.706058	-4.1313972	-3.3384414
1451387087602739185	-3.6801496	-4.1438084	-3.2619772
1451387087608842701	-4.8038588	-4.097374	-2.7129064
1451387087613664478	-4.7617664	-4.1162996	-2.6149478
1451387087618455738	-4.803656	-3.403308	-1.7081211
1451387087621202320	-4.7717524	-3.4108515	-1.6558398
1451387087627916187	-3.0465653	-2.5558472	-1.2576476
1451387087632951587	-2.99237	-2.575019	-1.1763618
1451387087638017505	-2.181295	-1.2224989	-0.48407805
1451387087643144459	-2.1244035	-1.2425976	-0.4101678
1451387087648515552	-1.1453741	-0.11183262	0.2725966
1451387087653245777	-1.0914004	-0.13100624	0.3359232
1451387087658098072	0.56309354	0.20215893	0.5213188
1451387087663163990	0.61994493	0.18232727	0.5866475
1451387087668199390	1.7116972	-0.47747898	0.14426339
1451387087678270191	1.2061067	-1.0455685	-0.2761761
1451387087683305591	1.2506988	-1.0580912	-0.20353013
1451387087688371509	0.38064647	-1.6868525	-0.74574685
1451387087693467945	0.4230057	-1.6961031	-0.66768
1451387087698900074	-0.35246217	-2.1837635	-1.5052187
1451387087703660816	-0.3137517	-2.1892118	-1.430047
1451387087708513111	-0.5035788	-2.444686	-1.8172101
1451387087714403003	-0.46886015	-2.4101076	-1.2958896
1451387087718583912	-0.4389603	-2.4112263	-1.2289809
1451387087728654712	0.008698821	-2.1630716	-0.16473377
1451387087733568043	0.042720914	-2.1636133	-0.09266731
1451387087738725513	0.39352334	-2.0374393	1.1727774
1451387087743852466	0.43355405	-2.0377684	1.2392732
1451387087749406666	0.87202835	-1.8603153	1.4079587
1451387087754014820	0.9126868	-1.8601589	1.4608961
1451387087758836597	0.92226434	-1.3848581	0.6478932
1451387087763780445	0.97163475	-1.3856211	0.70112586
1451387087768937916	0.8014305	-0.61500835	-0.26523378
1451387087772447437	0.8390782	-0.6158953	-0.2280209
1451387087779130787	1.1008668	-0.004600525	-0.8976965
1451387087784593433	1.3612261	0.46558857	-1.0412173
1451387087789232105	1.4150991	0.46276855	-0.9983931
1451387087794206470	1.3553085	0.8053007	-0.628133
1451387087799150318	1.413736	0.8025274	-0.5864083
1451387087804185718	1.6835289	1.1558504	-0.04698205
1451387087809373707	1.7448425	1.152916	-0.0110759735
1451387087814897388	2.2329335	1.7639465	0.27679938
1451387087819444507	2.284668	1.7603197	0.30220544
1451387087823839039	2.7643387	2.5878363	0.52474385
1451387087829515308	2.8255355	2.5829506	0.5494779
1451387087834337085	3.3829165	3.02709	0.4110402
1451387087839555591	3.4323545	3.0215216	0.4277106
1451387087844438404	4.117712	2.9956493	0.25039083
1451387087849473804	4.157969	2.99012	0.26062906
1451387087854509205	4.6379595	2.8818617	0.17120588
1451387087859575123	4.670894	2.8764124	0.17599463
1451387087865098804	4.749075	2.9138813	0.6429969
1451387087869798511	4.771917	2.9081059	0.6420802
1451387087879869312	4.498465	2.9523544	1.4267505
1451387087884721607	3.9471056	3.0116673	2.1428728
1451387087889970630	3.9593694	3.0049477	2.130097
1451387087894792408	3.6804247	3.078167	2.3700342
1451387087900529712	3.6898692	3.070982	2.3530943
1451387087904893726	3.5591745	3.156867	2.1107168
1451387087910051197	3.563826	3.1489735	2.0883896
1451387087915422291	4.314235	2.9197893	1.5505176
1451387087920183033	4.3153076	2.9117746	1.5208743
1451387087930223316	5.55552	2.4310656	0.5194434
1451387087935106128	4.882181	2.2412844	0.3083462
1451387087940141529	3.455012	2.8334875	0.90669
1451387087945299000	3.4509993	2.8236485	0.832018
1451387087951677173	3.6140215	3.285861	1.6095486
1451387087955400318	3.6007788	3.2765045	1.5405083
1451387087961168140	3.551902	4.012579	1.8006812
1451387087966081470	3.518729	4.002284	1.6962795
1451387087970506519	3.1819875	4.2211714	1.5557219
1451387087973680347	3.1492364	4.212489	1.4812295
1451387087980302662	2.3186135	3.8288937	0.9312179
1451387087985429615	2.2553222	3.8252535	0.8001804
1451387087990465015	1.2561963	3.533699	-1.2624424
1451387087995622486	1.1907649	3.535674	-1.4000363
1451387088000963062	0.5062913	3.441908	-3.7201915
1451387088005723804	0.44242352	3.4485369	-3.8477862
1451387088010637134	-0.12053478	3.75743	-4.7144413
1451387088015642017	-0.18572825	3.7680721	-4.8409095
1451387088020677418	-1.1761117	4.079796	-4.274395
1451387088030748218	-1.9027824	4.118575	-3.1391132
1451387088035783619	-1.9512877	4.1321697	-3.2458143
1451387088040849537	-2.197207	3.94598	-1.4729388
1451387088046007007	-2.2467325	3.9622355	-1.578215
1451387088051408619	-2.0961766	3.6731997	0.30844653
1451387088056108326	-2.1499588	3.6910543	0.2111814
1451387088060960621	-1.7870781	3.6091776	1.3643765
1451387088066087574	-1.8608793	3.6343613	1.2554772
1451387088071061939	-2.1365874	3.987032	1.4543092
1451387088081285328	-2.4082532	3.775673	0.25427628
1451387088086168140	-2.492292	3.807828	0.15568638
1451387088091386646	-3.023448	3.2844877	-1.1792021
1451387088096361011	-3.110344	3.321229	-1.2709363
1451387088102067798	-3.5015092	2.7131805	-2.0619948
1451387088106462330	-3.055581	1.8511581	-2.7754118
1451387088111314625	-3.1373727	1.8897924	-2.8462307
1451387088118089527	-1.3134551	0.49808693	-3.2173767
1451387088121415943	-1.3662299	0.5245638	-3.2550035
1451387088124925464	-1.4198029	0.55106163	-3.2905688
1451387088131608814	-0.027699232	-0.7617626	-2.4781482
1451387088136796802	-0.25280356	-1.3909798	-2.10295
1451387088141679615	-0.31899285	-1.3506756	-2.1530497
1451387088146562427	-0.4233117	-1.4546757	-3.320914
1451387088151597828	-0.488276	-1.4101009	-3.3745909
1451387088156633228	0.97961926	-1.8373709	-4.4908957
1451387088161821216	0.9051354	-1.7890501	-4.539442
1451387088167680591	1.7083383	-2.4998484	-5.039455
1451387088171892017	1.6416695	-2.4578943	-5.069689
1451387088176164478	1.3966286	-3.505085	-6.078567
1451387088181993335	1.3099761	-3.4459867	-6.1215496
1451387088186845630	-0.033135653	-4.268217	-5.5144305
1451387088192094654	-0.09921837	-4.212035	-5.5564537
1451387088196946949	-1.1694012	-4.9262896	-4.7928133
1451387088201982349	-1.2186947	-4.871147	-4.8381367
1451387088206987232	-2.6042202	-5.334656	-4.938354
1451387088212205738	-2.6362386	-5.2773685	-4.9935803
1451387088217576832	-3.8050349	-5.576647	-4.613975
1451387088222276539	-3.81726	-5.525751	-4.6661816
1451387088232316822	-4.515608	-5.537098	-4.5467267
1451387088237199634	-5.7532644	-5.7188797	-3.299168
1451387088242418140	-5.73457	-5.675857	-3.354074
1451387088247270435	-6.36185	-6.0503035	-1.9731398
1451387088252366871	-6.32939	-6.01438	-2.0238028
1451387088257371753	-6.283342	-6.3182855	-1.413414
1451387088262529224	-6.243473	-6.2897863	-1.4548941
1451387088267900318	-5.9879837	-6.3204417	-0.92627144
1451387088272630543	-5.950758	-6.301931	-0.949358
1451387088282670826	-5.5379906	-5.872676	-0.4172039
1451387088287553638	-4.9030986	-5.0376887	0.10685921
1451387088293687671	-4.195492	-3.892541	-0.17462921
1451387088303392261	-3.0579689	-2.7861357	-0.81173325
1451387088307817310	-3.0367303	-2.8010573	-0.78399515
1451387088313493580	-1.361022	-1.3272982	-1.0354123
1451387088318437427	-1.3426883	-1.3557959	-0.9885168
1451387088322831959	0.9160466	0.73726034	-0.70427036
1451387088326280445	0.9251349	0.71110487	-0.66574097
1451387088332902759	3.1526906	3.2047029	0.50396824
1451387088337938160	3.1641796	3.1645565	0.5534625
1451387088342973560	4.9292717	5.3069944	2.7638354
1451387088347978443	4.941858	5.271096	2.790885
1451387088353502125	5.918792	6.7016373	5.1487603
1451387088358232349	5.9333377	6.675599	5.1445265
1451387088363084644	6.0347757	7.2632017	6.8052344
1451387088369127125	6.0582876	7.247813	6.7695823
1451387088373185962	5.880724	6.8348484	7.378189
1451387088376512378	5.885563	6.826124	7.342267
1451387088383226246	4.826126	5.367428	6.6669464
1451387088388292164	4.8334265	5.3718033	6.614407
1451387088393327564	3.320714	3.5587683	4.7207127
1451387088398485035	3.3174624	3.5724049	4.6709557
1451387088404222339	1.8419673	1.9797268	2.716793
1451387088408555835	1.8347399	1.9910011	2.6859236
1451387088413469166	0.8714931	0.48846626	1.2555499
1451387088418474048	0.8627534	0.4989605	1.2367692
1451387088423539966	-0.95742273	-0.17060661	-0.13410091
1451387088433610767	-2.097365	-0.45234013	-0.15592623
1451387088438646168	-2.1014237	-0.4404812	-0.16960764
1451387088443834156	-2.0612514	-0.7358856	1.8457236
1451387088448869556	-2.059009	-0.71679115	1.8134079
1451387088454393238	-0.91535807	-0.8799391	2.7065668
1451387088459916919	-0.22945833	0.068837166	-0.7658329
1451387088463975757	-0.2190361	0.08922768	-0.8028188
1451387088469529957	-0.64091945	1.274519	-3.8491287
1451387088473893970	-0.6227522	1.2837358	-3.8686404
1451387088484117359	-3.02902	3.759378	-6.770203
1451387088489213794	-6.8234735	7.8020644	-6.4141293
1451387088494157642	-6.7902308	7.768382	-6.3822227
1451387088499040455	-6.92601	8.784651	-2.0405397
1451387088504045337	-6.8941684	8.735202	-1.9935603
1451387088509141773	-4.3628044	5.456319	0.6382828
1451387088514299244	-4.3269763	5.416462	0.6722951
1451387088520128101	-3.033368	1.3807526	0.46510506
1451387088524339527	-2.9958842	1.3676271	0.46716976
1451387088528520435	-2.4315841	-1.591258	-1.9801087
1451387088534501880	-2.389764	-1.5900383	-1.9889617
1451387088539354175	-2.4308481	-2.9751701	-3.4790874
1451387088544481128	-2.4107087	-2.9728327	-3.4718342
1451387088549394459	-2.1793294	-2.858738	-5.2337184
1451387088554399341	-2.1723812	-2.8696098	-5.1947165
1451387088559465259	-1.7311485	-1.5937643	-7.063733
1451387088564683765	-1.7350047	-1.6250324	-6.9839168
1451387088570512623	-0.41067767	0.25920963	-7.6109333
1451387088574754566	-0.42221403	0.22128582	-7.5189447
1451387088584825367	0.2447455	1.9117184	-6.6723585
1451387088589677662	1.8992038	3.1166039	-5.7889266
1451387088594865650	1.8776855	3.0636892	-5.668484
1451387088599748462	3.3450065	3.3217335	-4.8539567
1451387088604783863	3.805978	2.8072166	-4.0473385
1451387088609849781	3.7883196	2.764224	-3.9453712
1451387088614976734	3.7754314	2.7228909	-3.8473136
1451387088620347828	3.916435	2.1177301	-2.6544821
1451387088625108570	3.9143379	2.0819855	-2.5716512
1451387088634935230	3.5992088	1.1582384	-1.5954206
1451387088640001148	2.703447	0.12432575	-1.2455518
1451387088645952076	1.8054893	-1.433898	-1.3806295
1451387088650285572	1.8175838	-1.4596062	-1.3025687
1451387088655443043	-0.24040031	-2.6286707	-1.8676076
1451387088660356373	-0.21994328	-2.6559315	-1.7728834
1451387088665574878	-1.3410504	-3.095914	-2.3221433
1451387088670305103	-1.314326	-3.1209555	-2.226061
1451387088675309986	-1.9110687	-3.0612154	-2.0574384
1451387088678819507	-1.8866746	-3.077323	-1.9849746
1451387088685350269	-1.4515312	-2.9399147	-2.5577152
1451387088690385669	-1.413529	-2.9641066	-2.4563313
1451387088695451587	-1.5192825	-3.2856255	-2.331184
1451387088700609058	-1.4774841	-3.3071518	-2.2310178
1451387088705980152	-1.9647949	-3.2221394	-2.2009645
1451387088710679859	-1.924037	-3.2389288	-2.1113472
1451387088715593189	-0.64322174	-2.2898273	-1.8738177
1451387088720598072	-0.59937465	-2.3079271	-1.7827568
1451387088725633472	-0.11817229	-1.2300873	-1.2996293
1451387088729142994	-0.086595535	-1.2419167	-1.2392036
1451387088735704273	0.5558945	-0.5482044	-0.5370046
1451387088740709156	0.6012864	-0.56495285	-0.46002686
1451387088745775074	1.3236604	-0.28699684	0.09317756
1451387088750810474	1.368419	-0.30208683	0.16328228
1451387088756578296	1.661326	-0.107951164	0.5348681
1451387088761033863	1.6977302	-0.11960411	0.5929726
1451387088765916675	1.4253207	-0.64000607	0.5675576
1451387088770921558	1.4636039	-0.6501999	0.6321478
1451387088775987476	0.62687755	-1.2208376	0.22355676
1451387088786210865	-0.117572665	-1.6204557	0.016355634
1451387088791093677	-0.08665335	-1.6248121	0.08215839
1451387088796312183	-0.004032016	-2.0372047	-0.29389116
1451387088801286548	0.02459848	-2.0393562	-0.22625917
1451387088806810230	0.25518656	-2.0999565	-0.39599764
1451387088812425464	0.6960995	-1.852992	-0.218433
1451387088816392750	0.7178541	-1.8528147	-0.16802111
1451387088821672291	1.2407445	-1.4045687	0.09349784
1451387088826494068	1.2695863	-1.4054718	0.14969167
1451387088836534351	1.7467782	-0.979784	0.12261127
1451387088841447681	1.759217	-0.89956856	-0.20367673
1451387088846574634	1.7948353	-0.9005232	-0.15091759
1451387088851549000	1.7004576	-1.0574923	-0.42272907
1451387088857347339	1.7447138	-1.0577536	-0.3636605
1451387088861589283	1.4478214	-1.1514034	-0.57377
1451387088866746753	1.4904658	-1.1505775	-0.52198744
1451387088872392505	1.0281131	-0.79134464	-0.84166145
1451387088876695484	1.0661821	-0.7903862	-0.79916465
1451387088880723804	0.8694568	0.06093502	-0.8961132
1451387088886888355	0.9280957	0.060577393	-0.83884096
1451387088891801685	0.8394233	0.96800995	-0.44934976
1451387088896928638	0.8899217	0.9665327	-0.40531385
1451387088901841968	0.9323859	1.612483	0.18822771
1451387088907579273	0.9889642	1.610528	0.23254979
1451387088911943287	1.2362761	1.8902502	0.22373402
1451387088917100757	1.2848709	1.8880711	0.25891393
1451387088923631519	1.7573907	2.0311165	-0.46296573
1451387088927049488	1.78578	2.0282621	-0.44221687
1451387088937272876	2.533013	2.1031885	-0.8433005
1451387088942155689	3.2915132	2.0933437	-0.9042536
1451387088947343677	3.3230076	2.0905333	-0.8882689
1451387088952226490	4.183528	2.000229	-0.33951485
1451387088957200855	4.2050014	1.997035	-0.33220863
1451387088962327808	4.6442995	2.0927086	0.65012753
1451387088967332691	4.517951	2.3277235	1.7853136
1451387088973069996	4.533363	2.323246	1.7812291
1451387088977464527	4.541985	2.318471	1.7749135
1451387088988756031	4.130315	2.9660463	2.234058
1451387088992479175	4.134852	2.959383	2.2211637
1451387088998216480	4.3198786	3.191104	1.333823
1451387089002702564	4.327399	3.1835098	1.3162103
1451387089007615894	4.7812915	3.5432787	0.3057086
1451387089012651294	4.791094	3.5342207	0.27952677
1451387089017717212	5.396794	3.9785557	0.21609205
1451387089023576587	5.407566	3.967636	0.17434847
1451387089027788013	4.950666	4.6938925	1.4175313
1451387089031114429	4.948946	4.682227	1.3844318
1451387089037858814	4.004169	4.8737	2.128247
1451387089042863697	3.9960787	4.8603773	2.0693083
1451387089047899097	3.6859076	4.469695	1.9355732
1451387089052934498	3.661093	4.4571056	1.8680917
1451387089058793873	3.4883745	3.4162302	1.7801285
1451387089063127369	3.4519947	3.4066753	1.7101842
1451387089068071216	2.7597828	2.3956833	1.4200304
1451387089073045582	2.7142715	2.3892803	1.3309976
1451387089078111500	1.7042814	2.1415243	0.26295805
1451387089081621021	1.666288	2.1375933	0.18521848
1451387089088182300	0.12048124	2.2308598	-1.5222263
1451387089093187183	0.064068004	2.2312336	-1.648741
1451387089098253101	-1.4086969	2.523038	-3.0852013
1451387089103288501	-1.4682944	2.5277233	-3.2183623
1451387089109025806	-2.1994548	3.5049276	-3.7304213
1451387089113481373	-2.251516	3.5105543	-3.844565
1451387089118394703	-2.5197053	4.3631907	-3.3297539
1451387089123369068	-2.5751932	4.3715744	-3.450564
1451387089128465503	-3.1195643	4.379245	-1.948079
1451387089138658375	-3.3789675	4.013501	-0.14656782
1451387089143571705	-3.1524632	3.547326	1.6114463
1451387089148729175	-3.2052584	3.5647964	1.4925646
1451387089154863209	-3.0880628	3.3876562	2.0627532
1451387089158586353	-3.1320624	3.4015455	1.9769317
1451387089164598316	-3.0537968	3.429574	1.6173987
1451387089168748707	-3.1130593	3.4491615	1.5258722
1451387089174150318	-2.927979	2.951064	0.41730618
1451387089178941578	-3.0047946	2.979518	0.3176825
1451387089189012378	-2.518423	2.1893559	-1.5271685
1451387089193834156	-2.4212525	1.5843515	-1.9993196
1451387089199113697	-2.5164711	1.6250954	-2.0904949
1451387089203996509	-2.0956795	0.6825485	-2.794733
1451387089209001392	-2.1809683	0.7230921	-2.8711283
1451387089214067310	-0.42712772	-0.48528004	-2.9116204
1451387089219224781	-0.51107323	-0.44244957	-2.9802356
1451387089224901050	1.1859952	-1.5176516	-2.8220413
1451387089229173511	1.1171896	-1.4810438	-2.8699744
1451387089233171314	1.5938294	-2.1305313	-2.9450765
1451387089239335865	1.4941278	-2.0758	-3.0138202
1451387089244279712	1.3838325	-2.588275	-3.3025303
1451387089249437183	1.2980633	-2.5377493	-3.3572965
1451387089254350513	1.7668993	-3.3588715	-3.756755
1451387089259324878	1.6845992	-3.306159	-3.8080263
1451387089264421314	1.639221	-4.029978	-4.422611
1451387089269548267	1.5593936	-3.9734325	-4.473381
1451387089275346607	1.1679869	-4.514493	-4.9510107
1451387089279649585	1.1059861	-4.465741	-4.9867277
1451387089282884449	0.076113224	-4.5523977	-5.2712307
1451387089289750904	-0.009149313	-4.48186	-5.3315506
1451387089294633716	-1.215972	-4.590104	-4.480362
1451387089299821705	-1.2648151	-4.5364285	-4.5260754
1451387089304704517	-2.6707258	-4.7535934	-4.3319116
1451387089309678882	-2.699924	-4.7029467	-4.380617
1451387089314775318	-3.999313	-4.8736706	-3.9861522
1451387089319810718	-5.2509584	-4.850911	-3.915524
1451387089325822681	-5.2552147	-4.7993355	-3.9775076
1451387089330919117	-5.578615	-4.9523783	-3.0996094
1451387089333268970	-5.5692635	-4.9284325	-3.1175194
1451387089340928882	-5.794195	-4.895753	-2.116157
1451387089344987720	-5.7773714	-4.86928	-2.145423
1451387089350023121	-6.0211506	-4.8722277	-1.5722203
1451387089355180591	-5.9985065	-4.8486557	-1.600533
1451387089360551685	-5.69757	-4.9504733	-1.1454196
1451387089365281910	-5.676883	-4.9334245	-1.1612139
1451387089370164722	-5.2155323	-4.862037	-0.52199984
1451387089375169605	-5.194527	-4.8505764	-0.53018427
1451387089380266041	-4.700428	-4.464392	0.10402918
1451387089383714527	-4.684964	-4.4593015	0.10744381
1451387089390336841	-3.7149935	-3.878152	0.37825012
1451387089395341724	-3.700271	-3.884173	0.39788914
1451387089400377125	-2.3701062	-3.2665725	0.4149475
1451387089405565113	-2.3583744	-3.283255	0.4519906
1451387089411271900	-0.69238734	-2.2860332	0.6115198
1451387089415605396	-0.6847892	-2.3074822	0.6547165
1451387089420549244	1.4573133	-0.39767313	0.826283
1451387089425493091	1.4649012	-0.43135357	0.88333654
1451387089430589527	3.5344427	2.550459	1.6667023
1451387089433946460	3.5380611	2.5214882	1.7023687
1451387089440660328	5.5228624	5.4679785	3.4895718
1451387089445695728	5.538599	5.428607	3.5201702
1451387089450731128	6.9914727	7.137993	5.708639
1451387089455766529	7.0132723	7.107155	5.704078
1451387089461656421	7.149062	7.480405	7.173403
1451387089465989918	7.167425	7.4599094	7.145559
1451387089470842212	6.219017	6.972889	8.236617
1451387089475877613	6.238224	6.962653	8.1890545
1451387089480943531	4.209447	5.603961	7.866206
1451387089484422535	4.2106543	5.604087	7.8197393
1451387089491136402	2.663638	3.3883228	5.681941
1451387089496904224	0.30331898	1.199336	2.7443671
1451387089501237720	0.29416156	1.2192087	2.7014203
1451387089506578296	-1.6436119	-0.51402473	0.68800116
1451387089512040943	-1.6523592	-0.49030113	0.65204144
1451387089516771168	-3.5430982	-0.90965843	-0.8273058
1451387089521348804	-3.54309	-0.8936777	-0.8467827
1451387089526445240	-4.43096	-0.14020443	0.33437395
1451387089531419605	-4.4265714	-0.12455177	0.30894995
1451387089541459888	-3.3274822	1.3022203	1.9681144
1451387089546373218	-1.4367971	3.3294926	0.023970604
1451387089551561207	-1.4158585	3.3503466	-0.034268856
1451387089556505054	-0.68998337	3.840148	-2.2894115
1451387089562303394	-0.656523	3.8570938	-2.3440871
1451387089566545337	-1.6081502	4.383993	-5.1785355
1451387089571702808	-1.5782306	4.387439	-5.2026343
1451387089577348560	-4.623624	6.6193438	-5.497187
1451387089581773609	-4.5897064	6.5986624	-5.486955
1451387089591874927	-4.9699187	5.8544292	-2.1493497
1451387089596757740	-4.2146883	2.7274017	-0.5227847
1451387089601915210	-4.1919217	2.7022724	-0.4957204
1451387089606828541	-4.4324493	0.17790794	-0.0364933
1451387089611802906	-4.4119473	0.16767979	-0.025100708
1451387089616899341	-3.585577	-1.8637152	-1.4978437
1451387089622056812	-3.569264	-1.8662834	-1.4879398
1451387089627824634	-2.906808	-2.8307495	-3.2595868
1451387089632097095	-2.5755923	-2.5297966	-5.971256
1451387089635362476	-2.567486	-2.5333462	-5.9447074
1451387089642198414	-2.5550988	-2.5580263	-5.882714
1451387089647111744	-2.1563075	-0.55348206	-8.365576
1451387089652330250	-2.1634972	-0.5964966	-8.260492
1451387089657213062	-1.0490036	1.7925425	-7.979908
1451387089662248462	-1.0674975	1.7415895	-7.85906
1451387089667253345	0.27550554	3.3947144	-6.384922
1451387089673509449	1.6007054	3.9068222	-5.40009
1451387089678300709	1.57689	3.85507	-5.2792306
1451387089683000416	3.2285879	3.0744781	-4.503912
1451387089692766041	4.1141357	2.4421701	-4.0465584
1451387089697465748	4.0975666	2.4041128	-3.9479809
1451387089702592701	3.807569	1.4939356	-3.2651312
1451387089707658619	3.7995658	1.4567404	-3.1646938
1451387089713365406	3.0578928	0.098134995	-2.3595445
1451387089717729419	3.059554	0.06798267	-2.2726734
1451387089722642750	1.4308462	-0.982214	-1.7882082
1451387089727617115	1.4451678	-1.0145845	-1.6901708
1451387089732774585	0.52018857	-1.5648174	-1.7629907
1451387089736162037	0.5342536	-1.5844383	-1.6949153
1451387089742784351	0.074588776	-1.9058008	-2.019295
1451387089747728199	0.1000967	-1.9342165	-1.918608
1451387089752855152	-1.2011697	-2.7556458	-2.3549066
1451387089758012623	-1.1697695	-2.7818317	-2.2481673
1451387089763749927	-2.2824962	-3.4280052	-2.618628
1451387089768083423	-2.2510738	-3.4463272	-2.5255466
1451387089772966236	-2.146746	-2.9869251	-3.0118308
1451387089779039234	-2.1009789	-3.0137863	-2.8837166
1451387089783067554	-1.9425025	-2.2894459	-2.819437
1451387089786546558	-1.9124877	-2.3020878	-2.7461383
1451387089793290943	-1.5878842	-2.1108074	-2.2565813
1451387089798143238	-1.5445385	-2.128004	-2.1637096
1451387089803239673	-0.6156697	-1.8655119	-1.7905415
1451387089808366626	-0.5702224	-1.8816671	-1.7000934
1451387089814287037	-0.07277751	-1.1338673	-0.70428467
1451387089818467945	-0.037082076	-1.145505	-0.6366847
1451387089823350757	0.7224972	-0.57684803	-0.026955605
1451387089828325123	0.76141	-0.58989525	0.047026753
1451387089833421558	1.1744854	-0.66054153	0.1818732
1451387089836778492	1.197612	-0.6674204	0.22987181
1451387089843614429	0.85144114	-0.99888706	0.59821975
1451387089849168628	0.48962367	-1.5855064	0.55437076
1451387089853715748	0.5168432	-1.5902681	0.6186967
1451387089859178394	-0.12591386	-2.1449614	0.1489352
1451387089864518970	-0.093971014	-2.1482677	0.22490147
1451387089869005054	-0.6092478	-2.4172049	-0.24088791
1451387089873826832	-0.5788598	-2.4180918	-0.17103001
1451387089878770679	-0.32803094	-2.6156845	-0.54491067
1451387089883928150	-0.2930864	-2.6156826	-0.47247094
1451387089893968433	-0.17525542	-2.2102118	0.034160577
1451387089898881763	0.3828833	-1.5101128	0.25616345
1451387089904039234	0.42277157	-1.5110397	0.31534502
1451387089908952564	0.89918435	-0.80950737	0.29159686
1451387089914872974	0.9476949	-0.81186867	0.35455644
1451387089924180835	1.4440713	-0.41215324	0.54640126
1451387089929490894	1.7600087	-0.3267889	0.31178218
1451387089934282154	1.8017478	-0.32816696	0.35971832
1451387089944322437	2.079629	-0.3820467	-0.17494279
1451387089949235767	2.0660298	-0.476573	-0.58214307
1451387089954393238	2.115696	-0.4761734	-0.52903366
1451387089959215015	1.8043617	-0.101680756	-0.8065736
1451387089965165943	1.8429263	0.7678108	-0.69517297
1451387089969377369	1.8861384	0.76647186	-0.6562569
1451387089974534839	1.9407849	0.7653227	-0.6121769
1451387089980302662	2.0254622	1.8771582	-0.048861086
1451387089984605640	2.0153728	2.6797838	0.2568612
1451387089987809986	2.0470974	2.6746693	0.2763611
1451387089994676441	2.2026317	2.7597208	0.0058250427
1451387089999589771	2.2499154	2.754856	0.029736161
1451387090004625171	2.2962952	2.7500305	0.05095613
1451387090009782642	2.85245	2.4025764	-0.5512605
1451387090016343921	3.4428608	2.1097994	-0.56836736
1451387090019731373	3.4650764	2.1059246	-0.55890405
1451387090025194019	3.7700214	2.0042229	0.027397871
1451387090030839771	3.8058758	2.0003366	0.03314948
1451387090035508960	3.8931036	2.1178913	0.93700945
1451387090045060962	3.9900253	2.3357735	1.420439
1451387090049943775	4.012601	2.3301954	1.4112806
1451387090054979175	4.034776	2.713769	1.1597012
1451387090060136646	4.0549936	2.7071247	1.1476301
1451387090065782398	4.30528	3.157466	0.17140043
1451387090070207447	4.3162875	3.1496687	0.15904367
1451387090075120777	4.1637244	3.7562857	-0.16329384
1451387090080095142	4.17339	3.7463217	-0.18356335
1451387090085191578	3.8497238	5.012121	1.006237
1451387090095231861	3.5629246	6.409773	2.613206
1451387090100267261	3.560992	6.392501	2.5680304
1451387090105333179	3.1929905	7.013795	3.4069479
1451387090110490650	3.1739254	6.994939	3.3545835
1451387090116258472	2.4692822	5.7340307	3.1198902
1451387090120561451	2.4364438	5.7186537	3.072192
1451387090125444263	2.0374374	3.6075087	2.0456417
1451387090131425709	1.9777635	3.5952606	1.967695
1451387090139055103	1.6111817	2.1627188	0.9174737
1451387090145616382	0.85115004	1.6554537	-0.080735445
1451387090150560230	0.791733	1.6501627	-0.17859116
1451387090155809253	-0.31155187	1.742795	-1.7487019
1451387090160722584	-1.1956499	2.3479548	-2.6052303
1451387090165666431	-1.2587137	2.3460894	-2.7236342
1451387090170823902	-1.6790886	3.5166483	-2.414158
1451387090175920337	-1.7468841	3.516941	-2.5401914
1451387090181444019	-1.9185666	4.5196276	-1.7735287
1451387090185899585	-1.97618	4.5205812	-1.8822684
1451387090189378589	-2.0189214	4.520178	-1.9645708
1451387090196092457	-2.5130236	4.691433	-0.7997777
1451387090201646656	-2.876386	4.2807446	1.0093415
1451387090206163257	-2.9226673	4.287797	0.90120184
1451387090211076587	-3.0428813	3.6658716	2.4403167
1451387090216050953	-3.0913625	3.6785889	2.3211098
1451387090221147388	-3.007903	3.3916082	2.3861694
1451387090226274341	-3.063693	3.4096737	2.2643723
1451387090231706470	-3.4676905	3.5859346	1.2825052
1451387090236375660	-3.5270314	3.606018	1.174246
1451387090240617603	-3.664733	3.4294224	-0.22073615
1451387090246476978	-3.7490997	3.4617786	-0.34999013
1451387090251359791	-2.689755	2.2970715	-1.7605526
1451387090256547779	-2.7691977	2.3316774	-1.8698196
1451387090261430591	-1.9394538	0.9221754	-2.2053661
1451387090266435474	-2.0155544	0.9614992	-2.3079932
1451387090271501392	-2.119188	0.5570097	-2.3722558
1451387090276628345	-2.1891394	0.5997734	-2.4739525
1451387090282335132	-0.85506845	-0.5116768	-3.1421816
1451387090286729664	-0.90872383	-0.47297382	-3.221935
1451387090296769947	0.5195737	-1.5547781	-3.5110765
1451387090301713794	0.3378954	-1.9251013	-3.4109035
1451387090306901783	0.26576233	-1.8745346	-3.4887497
1451387090311784595	0.6183491	-2.382927	-3.8857887
1451387090317460865	0.5350473	-2.3235931	-3.9677782
1451387090321855396	1.0303085	-3.439536	-4.1840277
1451387090327012867	0.9544587	-3.3803644	-4.2564697
1451387090332750171	0.629714	-4.388836	-3.8747537
1451387090337083668	0.57200813	-4.3348026	-3.9350193
1451387090340288013	-0.3528018	-4.6887646	-3.7358015
1451387090347184986	-1.2549865	-4.5338316	-3.8945446
1451387090352067798	-1.3048573	-4.473749	-3.9622664
1451387090357042164	-1.351042	-4.413822	-4.0296874
1451387090362138599	-1.4340189	-4.372916	-4.85242
1451387090368638843	-1.9249861	-4.586858	-4.291953
1451387090372209400	-1.9491174	-4.54305	-4.332706
1451387090377397388	-3.0679026	-4.602579	-4.2165756
1451387090383287281	-3.1005085	-4.537998	-4.287716
1451387090387407154	-4.3859644	-4.5197325	-4.390422
1451387090390642017	-4.3885374	-4.482236	-4.4263315
1451387090397355884	-4.9931135	-4.7836246	-3.2394824
1451387090402421802	-4.985524	-4.7359295	-3.2996888
1451387090407487720	-5.551511	-5.0060124	-2.2991238
1451387090412614673	-5.5326414	-4.9648285	-2.3535142
1451387090417985767	-5.5106316	-5.088672	-1.9969783
1451387090422715992	-5.486281	-5.057165	-2.0370164
1451387090427781910	-5.3103056	-5.232979	-1.6345806
1451387090432573169	-5.284419	-5.209719	-1.6613054
1451387090437669605	-4.93441	-5.420785	-0.9164114
1451387090447740406	-4.1660757	-5.6521587	0.03872776
1451387090452745289	-4.142681	-5.640862	0.030416012
1451387090457811207	-2.9418616	-5.417897	1.3317924
1451387090462999195	-2.9200919	-5.4162116	1.3352265
1451387090468644947	-1.3396544	-4.927477	2.4351187
1451387090472917408	-1.3231716	-4.9331803	2.4480128
1451387090477952808	0.23756146	-3.8364348	2.862732
1451387090483720630	1.7073843	-1.7233815	2.8190436
1451387090488023609	1.7194369	-1.748898	2.8527246
1451387090498185962	3.5950735	1.6088333	3.4701996
1451387090503099293	3.6110175	1.5625024	3.5244932
1451387090508165210	5.9127755	5.3251204	5.04114
1451387090513322681	5.92976	5.272396	5.088747
1451387090519090503	7.611912	7.6004105	6.587298
1451387090523393482	7.984768	8.40543	7.455451
1451387090528428882	7.99887	8.366701	7.4612846
1451387090534898609	6.4664907	8.245675	7.7706637
1451387090538530201	6.468154	8.22394	7.754001
1451387090541734546	6.464138	8.205121	7.735351
1451387090548570484	3.685279	7.0682926	7.15259
1451387090553605884	1.5345943	4.751522	3.7505736
1451387090558519214	1.5201075	4.755953	3.7226005
1451387090563524097	1.1563301E-4	1.6362953	-0.08424616
1451387090569597095	-0.031471014	1.6598129	-0.11488485
1451387090573625416	-1.6179221	-1.0356483	-2.1123033
1451387090578660816	-1.637497	-1.0118761	-2.1333923
1451387090584123462	-3.1097271	-2.030159	-0.22232962
1451387090588823169	-3.1110704	-2.007718	-0.2497263
1451387090593248218	-3.3717322	-1.957037	2.5915756
1451387090598893970	-3.354875	-1.9275827	2.5360384
1451387090603837818	-2.4203846	-0.45140743	1.574853
1451387090608995289	-2.395178	-0.42236233	1.512599
1451387090613878101	-2.7261586	1.7124429	-1.1227756
1451387090618882984	-2.701949	1.7298594	-1.1650214
1451387090624009937	-4.0564404	3.5454965	-4.7526135
1451387090629136890	-4.0330825	3.540337	-4.754193
1451387090634507984	-6.8589077	8.533342	-6.184307
1451387090639238209	-6.834052	8.502371	-6.15518
1451387090649278492	-6.106385	10.726592	-0.7905984
1451387090654191822	-2.424632	6.7009077	1.2897048
1451387090659379810	-1.7507732	1.7331915	-0.2790656
1451387090664354175	-1.7070181	1.7168941	-0.2767291
1451387090670213550	-1.6546853	1.7075281	-0.29011202
1451387090679490894	-2.301408	-1.854866	-2.8431134
1451387090685106128	-2.6592813	-3.2802877	-3.616631
1451387090689622730	-2.6525853	-3.2785826	-3.6008215
1451387090699571460	-2.2354188	-3.4765844	-4.9230766
1451387090704545826	-1.7135184	-2.2301645	-8.076288
1451387090710618824	-1.1868358	0.42190838	-8.34799
1451387090720292896	0.29651213	3.0211287	-6.6457133
1451387090724687427	0.2812376	2.9710112	-6.537672
1451387090730058521	2.3676853	4.2254915	-5.4019628
1451387090735612720	2.3432589	4.1653976	-5.270549
1451387090739763111	3.6462352	3.9936085	-4.9184766
1451387090743303150	3.628871	3.955552	-4.8348694
1451387090749864429	3.8715162	3.1023169	-4.110948
1451387090754899830	3.8556466	3.058752	-4.006621
1451387090759996265	4.3308625	1.8741102	-2.8606048
1451387090765092701	4.3278103	1.8331356	-2.7620943
1451387090770494312	3.6626706	0.39997578	-1.731576
1451387090775163501	3.6713758	0.3648548	-1.6444311
1451387090780076832	2.1341717	-0.5935488	-1.1862144
1451387090785020679	2.1519737	-0.6283808	-1.0935466
1451387090790147632	0.87683105	-1.661437	-1.4824042
1451387090800187916	-0.051843166	-2.5469837	-2.7701347
