gyroscope_timestamp	gyroscope_x_data	gyroscope_y_data	gyroscope_z_data
1451387078816525682	-0.36346436	0.04725647	0.3735962
1451387078821408495	-0.33169556	0.04725647	0.41514587
1451387078824643358	-0.33169556	0.13154602	0.41514587
1451387078831448778	-0.27427673	0.13154602	0.44935608
1451387078836911425	-0.25473022	0.4247589	0.4542389
1451387078841550096	-0.25473022	0.6593323	0.4542389
1451387078846951708	-0.23884583	0.6593323	0.4517975
1451387078852139696	-0.2290802	0.9366455	0.43955994
1451387078856595262	-0.22540283	1.2213135	0.41635132
1451387078861691698	-0.22784424	1.4705353	0.38702393
1451387078867367967	-0.23028564	1.6379242	0.36260986
1451387078871762499	-0.21440125	1.6782532	0.3454895
1451387078875149950	-0.1508789	1.5548401	0.33206177
1451387078881833300	-0.007965088	1.2530823	0.30395508
1451387078887509569	0.22172546	0.7924957	0.24409485
1451387078891904100	0.51127625	0.22315979	0.14268494
1451387078896817430	0.8154907	-0.37791443	0.009536743
1451387078901761278	1.0879211	-0.9350128	-0.1382904
1451387078906888231	1.2931824	-1.3907166	-0.28123474
1451387078443453497	1.3835907	-1.7083588	-0.40585327
1451387078449038214	1.2882996	-1.8610687	-0.49868774
1451387078453524298	0.95233154	-1.8122101	-0.55122375
1451387078456759161	0.95233154	-1.5348663	-0.55122375
1451387078463564581	-0.20095825	-1.5348663	-0.49136353
1451387078468477911	-0.20095825	-0.5440521	-0.49136353
1451387078473635382	-0.6859894	-0.5440521	-0.3838501
1451387078478548712	-0.92300415	-0.15066528	-0.26290894
1451387078484286016	-0.9144592	0.0032806396	-0.17004395
1451387078488650030	-0.748291	-0.051696777	-0.14317322
1451387078493685430	-0.5125122	-0.20196533	-0.1981659
1451387078499544805	-0.2449646	-0.37667847	-0.33132935
1451387078503847784	0.054351807	-0.59169006	-0.524353
1451387078507113165	0.37931824	-0.91056824	-0.7442627
1451387078513949102	0.6981964	-1.3638306	-0.9519501
1451387078518862432	0.9694214	-1.9160461	-1.1119995
1451387078524050421	1.1624603	-2.4707184	-1.2048492
1451387078528933233	1.263855	-2.9239807	-1.2341766
1451387078535494512	1.2699738	-3.2000885	-1.2182922
1451387078539126104	1.1905518	-3.267273	-1.1804047
1451387078545077032	1.058609	-3.1463318	-1.1425476
1451387078549929327	0.91812134	-2.8897705	-1.1119995
1451387078554201788	0.81059265	-2.5623474	-1.0863495
1451387078557589239	0.81059265	-2.21904	-1.0863495
1451387078564333624	0.7641754	-2.21904	-1.0008392
1451387078569124884	0.7641754	-1.6313782	-1.0008392
1451387078574251837	0.81915283	-1.6313782	-0.9324188
1451387078579287237	0.9168854	-1.4163666	-0.8529968
1451387078584719366	1.0463867	-1.2477722	-0.7760315
1451387078589510626	1.1929932	-1.1170502	-0.70884705
1451387078594423956	1.3420563	-1.030304	-0.65631104
1451387078600222296	1.4788818	-0.99609375	-0.61964417
1451387078604464239	1.5924988	-1.0131989	-0.60375977
1451387078607943243	1.6731415	-1.0547333	-0.61354065
1451387078614535040	1.7146759	-1.0840454	-0.6465149
1451387078619570440	1.7171173	-1.0742798	-0.6990509
1451387078624605841	1.6890259	-1.0156403	-0.7687073
1451387078629641241	1.6376953	-0.9093628	-0.8456726
1451387078635348028	1.5692902	-0.7664032	-0.92141724
1451387078639834112	1.4911041	-0.606369	-0.98983765
1451387078644747442	1.4129181	-0.45610046	-1.0460205
1451387078649691290	1.3469391	-0.34002686	-1.0851288
1451387078654818243	1.3041687	-0.26672363	-1.1022339
1451387078658175177	1.3041687	-0.2215271	-1.1022339
1451387078664980596	1.2858582	-0.2215271	-1.0875702
1451387078669924444	1.2870636	-0.18363953	-1.0399323
1451387078675051397	1.3041687	-0.13478088	-0.9678345
1451387078679995245	1.3286133	-0.07980347	-0.8859863
1451387078685640997	1.3554993	-0.038269043	-0.8041229
1451387078690188116	1.3738251	-0.03337097	-0.7283783
1451387078695101446	1.3774719	-0.074920654	-0.6599579
1451387078700075811	1.3664703	-0.15310669	-0.59887695
1451387078705172247	1.3420563	-0.24717712	-0.54267883
1451387078708529180	1.3078461	-0.33880615	-0.49624634
1451387078715334600	1.2675323	-0.4182129	-0.4608307
1451387078720766729	1.224762	-0.487854	-0.4363861
1451387078725466436	1.1819916	-0.5526123	-0.42782593
1451387078730684942	1.1380157	-0.60269165	-0.4339447
1451387078735323614	1.0891571	-0.6173706	-0.4522705
1451387078740420050	1.0366211	-0.5831604	-0.4791565
1451387078745577520	0.980423	-0.5110626	-0.51213074
1451387078751162237	0.92544556	-0.42189026	-0.5500183
1451387078755526251	0.87535095	-0.33758545	-0.59155273
1451387078758974737	0.87535095	-0.27160645	-0.59155273
1451387078765719122	0.8338165	-0.27160645	-0.63430786
1451387078770662970	0.8020477	-0.23007202	-0.6782837
1451387078775789923	0.7788391	-0.21174622	-0.7198181
1451387078780703253	0.7629547	-0.21420288	-0.7552643
1451387078785647100	0.7507324	-0.22885132	-0.7796936
1451387078790774053	0.74217224	-0.24839783	-0.7919159
1451387078795931524	0.734848	-0.27282715	-0.7931366
1451387078801638311	0.72384644	-0.30093384	-0.7870331
1451387078806032843	0.7116394	-0.33514404	-0.7784729
1451387078809267706	0.7018738	-0.37179565	-0.7723541
1451387078816073126	0.695755	-0.41212463	-0.7711487
1451387078820986456	0.695755	-0.4573059	-0.7772522
1451387078826143927	0.6994324	-0.5086212	-0.7882385
1451387078831057257	0.7018738	-0.5574951	-0.8004608
1451387078836001104	0.6981964	-0.592926	-0.8163452
1451387078841128057	0.6871948	-0.60513306	-0.834671
1451387078846132940	0.6713104	-0.58680725	-0.85665894
1451387078851870245	0.64933777	-0.5416107	-0.87620544
1451387078856356329	0.6236725	-0.4829712	-0.89086914
1451387078859591192	0.6236725	-0.42799377	-0.89086914
1451387078866457647	0.5955658	-0.42799377	-0.89453125
1451387078871340460	0.56869507	-0.3888855	-0.8859863
1451387078876406378	0.54304504	-0.37667847	-0.8676605
1451387078881502813	0.51615906	-0.39379883	-0.84077454
1451387078887850470	0.48439026	-0.43165588	-0.809021
1451387078891604132	0.4489746	-0.47930908	-0.7735901
1451387078897402471	0.40620422	-0.5232849	-0.7369385
1451387078902102178	0.35855103	-0.5574951	-0.70028687
1451387078906893438	0.3023529	-0.5782623	-0.6648407
1451387078909945196	0.24005127	-0.58924866	-0.63064575
1451387078916659063	0.17286682	-0.592926	-0.59643555
1451387078921694464	0.10688782	-0.5880432	-0.56222534
1451387078926729864	0.044570923	-0.5782623	-0.5268097
1451387078931856817	-0.014053345	-0.5697174	-0.49380493
1451387078937563604	-0.0690155	-0.56848145	-0.46203613
1451387078941958136	-0.12156677	-0.5770416	-0.43026733
1451387078946901983	-0.17286682	-0.58924866	-0.4021759
1451387078952700323	-0.22540283	-0.59658813	-0.37774658
1451387078956942266	-0.22540283	-0.59536743	-0.35697937
1451387078960421270	-0.28038025	-0.59536743	-0.35697937
1451387078967013067	-0.33779907	-0.5831604	-0.34231567
1451387078972017950	-0.40255737	-0.5587158	-0.33132935
1451387078977083868	-0.46974182	-0.5159607	-0.32032776
1451387078982119268	-0.5393982	-0.45121765	-0.30810547
1451387078987856573	-0.61024475	-0.36691284	-0.28979492
1451387078992281622	-0.68966675	-0.27650452	-0.26167297
1451387078997225470	-0.7812958	-0.19464111	-0.22137451
1451387079003023809	-0.880249	-0.12866211	-0.16271973
1451387079007418341	-0.97798157	-0.078567505	-0.085754395
1451387079010653204	-1.0720673	-0.035812378	0.013183594
1451387079017458624	-1.1685791	0.005722046	0.13291931
1451387079022402471	-1.2760925	0.046035767	0.26852417
1451387079027559942	-1.4031525	0.081451416	0.41023254
1451387079032473272	-1.5485382	0.105895996	0.54953
1451387079037447637	-1.711029	0.12420654	0.67781067
1451387079042666143	-1.8832855	0.14253235	0.7877655
1451387079047579473	-2.056778	0.16941833	0.88305664
1451387079052553839	-2.056778	0.20727539	0.9710083
1451387079057650274	-2.226593	0.20727539	0.9710083
1451387079061007208	-2.392746	0.25372314	1.0565338
1451387079067812628	-2.5454712	0.29769897	1.14328
1451387079073000616	-2.6712952	0.3257904	1.2288055
1451387079077944464	-2.7494812	0.3392334	1.309433
1451387079083010382	-2.7653656	0.35144043	1.3778534
1451387079088656134	-2.7177277	0.38320923	1.4303894
1451387079092898077	-2.624878	0.44674683	1.4633636
1451387079098025030	-2.5124664	0.54203796	1.4768066
1451387079103640264	-2.4013062	0.6361084	1.4731598
1451387079108095831	-2.3059998	0.6837616	1.4572754
1451387079112185186	-2.2302704	0.6507721	1.4328308
1451387079118197149	-2.172821	0.5359192	1.4071808
1451387079123140997	-2.1288452	0.3697815	1.387619
1451387079128267950	-2.095871	0.18406677	1.3790741
1451387079133181280	-2.0653229	-0.004058838	1.3851776
1451387079138888067	-2.0311127	-0.19464111	1.4120636
1451387079143252081	-1.9895782	-0.37791443	1.4572754
1451387079148440069	-1.9492493	-0.5257263	1.5171356
1451387079154177374	-1.916275	-0.61125183	1.572113
1451387079158480352	-1.916275	-0.63690186	1.572113
1451387079161715216	-1.8942719	-0.63690186	1.6002045
1451387079168551153	-1.8808441	-0.62590027	1.594101
1451387079173464483	-1.8625183	-0.59169006	1.5562286
1451387079178621954	-1.8234253	-0.51474	1.4988098
1451387079183535284	-1.7525635	-0.37179565	1.4389496
1451387079188479132	-1.6523743	-0.1714325	1.3998566
1451387079193636602	-1.5411987	0.05581665	1.4047394
1451387079198763555	-1.4410095	0.2805786	1.4523926
1451387079204592413	-1.361618	0.48338318	1.5207977
1451387079208895391	-1.2968597	0.6458893	1.5733337
1451387079212069220	-1.2345581	0.75949097	1.5928802
1451387079218905157	-1.1636963	0.82302856	1.5904236
1451387079223818487	-1.085495	0.85113525	1.5953217
1451387079230013555	-1.0121918	0.8743439	1.6283112
1451387079233980841	-0.9535675	0.93299866	1.68573
1451387079239260382	-0.9144592	1.0649261	1.7394867
1451387079243960089	-0.88391113	1.2616425	1.7626953
1451387079249666876	-0.8374939	1.4485626	1.7394867
1451387079254824346	-0.76052856	1.530426	1.6832886
1451387079259157843	-0.76052856	1.476654	1.6832886
1451387079262423223	-0.66156006	1.476654	1.6160889
1451387079269137091	-0.5662689	1.3569336	1.5537872
1451387079274172491	-0.4966278	1.2799683	1.5000305
1451387079279207891	-0.45265198	1.3043976	1.4523926
1451387079284334845	-0.41600037	1.4009094	1.4120636
1451387079290072149	-0.36834717	1.4974213	1.3827362
1451387079294436163	-0.30358887	1.5548401	1.3644104
1451387079299349493	-0.22784424	1.5768433	1.3460846
1451387079304323858	-0.15332031	1.5988312	1.3179932
1451387079309420294	-0.08979797	1.6415863	1.2715607
1451387079312868780	-0.03604126	1.6977844	1.2055817
1451387079319460577	0.015258789	1.734436	1.1237335
1451387079324495977	0.073898315	1.7295532	1.0382233
1451387079329561895	0.14109802	1.6757965	0.9612427
1451387079334749884	0.20951843	1.591507	0.89649963
1451387079340426153	0.27304077	1.50354	0.83784485
1451387079344790167	0.332901	1.425354	0.7792053
1451387079349703497	0.332901	1.359375	0.7792053
1451387079355532354	0.46362305	1.359375	0.6374817
1451387079359774298	0.46362305	1.206665	0.6374817
1451387079363253302	0.54304504	1.206665	0.55197144
1451387079369936651	0.62612915	1.1125793	0.46400452
1451387079374880499	0.71040344	1.0197449	0.378479
1451387079380037970	0.7935028	0.9391022	0.29663086
1451387079384951300	0.87535095	0.878006	0.21842957
1451387079390627569	0.95721436	0.8352661	0.13902283
1451387079394991583	1.0390625	0.80226135	0.057174683
1451387079400057501	1.1209259	0.77293396	-0.028335571
1451387079406618780	1.1991119	0.73872375	-0.11752319
1451387079410128302	1.265091	0.7020874	-0.20669556
1451387079413485235	1.265091	0.6703186	-0.29588318
1451387079420290655	1.3212738	0.6532135	-0.3826294
1451387079426211065	1.2919617	0.6556549	-0.4608307
1451387079430269903	1.2198792	0.6800995	-0.524353
1451387079435305303	1.1111298	0.7167511	-0.56954956
1451387079440859503	0.97309875	0.75216675	-0.59155273
1451387079445345587	0.8154907	0.77049255	-0.58421326
1451387079450564093	0.8154907	0.75216675	-0.54267883
1451387079456118292	0.44285583	0.75216675	-0.4632721
1451387079460604376	0.44285583	0.5518036	-0.4632721
1451387079464419073	0.22904968	0.5518036	-0.3496399
1451387079470705694	0.0018310547	0.3746643	-0.20793152
1451387079475588507	-0.23028564	0.17185974	-0.05278015
1451387079480745977	-0.4465332	-0.02848816	0.10359192
1451387079485659307	-0.62002563	-0.18487549	0.24899292
1451387079490603155	-0.72387695	-0.24717712	0.3735962
1451387079495730108	-0.74220276	-0.17510986	0.4750061
1451387079500857061	-0.68722534	0.03504944	0.55075073
1451387079506594366	-0.58947754	0.350235	0.6032715
1451387079510958380	-0.4893036	0.7118683	0.63627625
1451387079514193243	-0.4893036	1.0576019	0.63627625
1451387079521029180	-0.35858154	1.0576019	0.6313782
1451387079525911993	-0.33047485	1.543869	0.58618164
1451387079531069464	-0.32070923	1.6391449	0.5140991
1451387079536013311	-0.32191467	1.6195984	0.42611694
1451387079541842169	-0.31947327	1.4888611	0.33328247
1451387079546206182	-0.31947327	1.272644	0.24163818
1451387079551119512	-0.28770447	1.0001831	0.24163818
1451387079556826300	-0.053146362	1.0001831	0.036392212
1451387079561342901	-0.053146362	0.38565063	0.036392212
1451387079564547247	0.14720154	0.38565063	-0.0869751
1451387079572329229	0.3805542	0.069244385	-0.21281433
1451387079576296514	0.6114502	-0.2374115	-0.32276917
1451387079582216925	0.79104614	-0.5245056	-0.40341187
1451387079586336798	0.8692322	-0.76885986	-0.45103455
1451387079591707891	0.81427	-0.9386749	-0.46939087
1451387079596560186	0.6248932	-1.0070953	-0.46691895
1451387079601473516	0.3487854	-0.9716644	-0.45350647
1451387079607180303	0.0690155	-0.8702698	-0.4315033
1451387079611574835	-0.13621521	-0.7615204	-0.40585327
1451387079614901251	-0.13621521	-0.69555664	-0.40585327
1451387079621645636	-0.2156372	-0.69555664	-0.3997345
1451387079626650518	-0.13865662	-0.72120667	-0.4632721
1451387079631685919	-0.016494751	-0.76885986	-0.58177185
1451387079636843389	0.16798401	-0.8421478	-0.7418213
1451387079642580694	0.4282074	-0.99365234	-0.914093
1451387079646914190	0.4282074	-1.2697601	-0.914093
1451387079651797003	0.73973083	-1.2697601	-1.0716858
1451387079657778448	1.2797394	-1.6692657	-1.2830353
1451387079661898321	1.2797394	-2.546463	-1.2830353
1451387079665255255	1.4300079	-2.546463	-1.3209229
1451387079671969122	1.499649	-2.8616638	-1.3135834
1451387079677004522	1.5069885	-3.0266113	-1.2659454
1451387079682039923	1.4642181	-3.0302582	-1.1926422
1451387079687075323	1.3835907	-2.8983154	-1.1107788
1451387079692904180	1.2858582	-2.6820679	-1.0338135
1451387079697298712	1.1966705	-2.4304047	-0.966629
1451387079702273077	1.1416931	-2.1652985	-0.90553284
1451387079707949346	1.1416931	-1.8891907	-0.8432312
1451387079712252325	1.197876	-1.6081696	-0.7760315
1451387079715700811	1.197876	-1.3467407	-0.7760315
1451387079722445196	1.4043579	-1.3467407	-0.65141296
1451387079727358526	1.513092	-1.0339661	-0.61476135
1451387079732485479	1.6132813	-1.0217438	-0.60987854
1451387079738741583	1.7024689	-1.0877228	-0.63186646
1451387079742953009	1.7733154	-1.1976776	-0.6734009
1451387079748629278	1.8172913	-1.2978516	-0.7259369
1451387079752657598	1.8172913	-1.3345032	-0.7259369
1451387079758242315	1.8295135	-1.3345032	-0.7772522
1451387079762606329	1.8087463	-1.2770844	-0.821228
1451387079765963262	1.7672119	-1.1329346	-0.8517761
1451387079772768682	1.7158966	-0.94111633	-0.8664398
1451387079777712530	1.6633759	-0.75053406	-0.8701019
1451387079782839483	1.6108398	-0.6014862	-0.87376404
1451387079787813848	1.548523	-0.5159607	-0.8859863
1451387079793429083	1.4776611	-0.4902954	-0.90797424
1451387079797884649	1.4067993	-0.5025177	-0.9250641
1451387079803011602	1.3518219	-0.5135193	-0.92141724
1451387079808382696	1.3224945	-0.49641418	-0.88842773
1451387079813082403	1.3212738	-0.45121765	-0.8322296
1451387079817019171	1.3347168	-0.4023285	-0.76626587
1451387079823122686	1.3493805	-0.36691284	-0.7027283
1451387079828066534	1.3554993	-0.3571167	-0.65019226
1451387079833224005	1.3518219	-0.36935425	-0.60987854
1451387079838137335	1.3359375	-0.39868164	-0.57933044
1451387079843935675	1.3090668	-0.44021606	-0.5500183
1451387079848208136	1.3090668	-0.49395752	-0.5500183
1451387079853335089	1.2748566	-0.49395752	-0.5231323
1451387079859072393	1.238205	-0.5574951	-0.5060425
1451387079863436407	1.2027893	-0.619812	-0.5023651
1451387079866640753	1.1661072	-0.66622925	-0.5133667
1451387079873507208	1.1258087	-0.68333435	-0.53289795
1451387079878390020	1.0867157	-0.6759949	-0.5561218
1451387079883578009	1.0512848	-0.65034485	-0.58055115
1451387079888460821	1.0219574	-0.6124573	-0.60498047
1451387079893465704	0.99386597	-0.5623779	-0.63186646
1451387079898562139	0.96821594	-0.5000763	-0.66119385
1451387079903719610	0.9449768	-0.43777466	-0.6880493
1451387079909548468	0.92544556	-0.38523865	-0.7124939
1451387079913759893	0.9107666	-0.34735107	-0.7283783
1451387079917025274	0.9107666	-0.32536316	-0.7283783
1451387079925783819	0.8924408	-0.32536316	-0.7332611
1451387079928774542	0.8826752	-0.32414246	-0.7259369
1451387079934511846	0.87535095	-0.35957336	-0.7173767
1451387079938967413	0.87535095	-0.42189026	-0.7124939
1451387079943911261	0.8667908	-0.5025177	-0.7124939
1451387079949038214	0.85458374	-0.5025177	-0.71617126
1451387079953951544	0.83992004	-0.5904846	-0.72473145
1451387079958895391	0.82403564	-0.672348	-0.7369385
1451387079964022345	0.80693054	-0.7395325	-0.7528229
1451387079967379278	0.78616333	-0.784729	-0.7735901
1451387079974093145	0.75805664	-0.8067322	-0.7992401
1451387079979128546	0.7250824	-0.8042908	-0.8273468
1451387079984163946	0.6859894	-0.7822876	-0.8542175
1451387079989290899	0.6419983	-0.7492981	-0.87132263
1451387079994906134	0.5931244	-0.71388245	-0.8798828
1451387079999270147	0.53692627	-0.69311523	-0.8798828
1451387080004275030	0.4758606	-0.6967621	-0.87864685
1451387080010012335	0.40864563	-0.7248688	-0.87498474
1451387080014406866	0.3377838	-0.7664032	-0.8688812
1451387080017855352	0.3377838	-0.8067322	-0.8688812
1451387080024416632	0.20095825	-0.8067322	-0.83955383
1451387080029452032	0.1337738	-0.8531494	-0.8139038
1451387080034517950	0.0690155	-0.850708	-0.78215027
1451387080039644903	0.0690155	-0.8360596	-0.78215027
1451387080045382208	-0.04824829	-0.8360596	-0.7014923
1451387080049746221	-0.04824829	-0.8128357	-0.7014923
1451387080054629034	-0.098342896	-0.8128357	-0.65263367
1451387080060335821	-0.14355469	-0.8164978	-0.60009766
1451387080064730352	-0.18508911	-0.823822	-0.54389954
1451387080068056768	-0.22172546	-0.8262634	-0.48771667
1451387080074953741	-0.25593567	-0.8164978	-0.4363861
1451387080079836553	-0.29014587	-0.7896271	-0.39117432
1451387080084994024	-0.33047485	-0.7444153	-0.35575867
1451387080091128057	-0.38545227	-0.685791	-0.3325348
1451387080095492071	-0.45265198	-0.61857605	-0.31788635
1451387080100985235	-0.530838	-0.55015564	-0.30810547
1451387080105135626	-0.62002563	-0.4817505	-0.29344177
1451387080110628790	-0.722641	-0.41088867	-0.26657104
1451387080115175909	-0.8435974	-0.33880615	-0.22625732
1451387080118441290	-0.8435974	-0.26916504	-0.22625732
1451387080125277227	-1.1429291	-0.26916504	-0.110183716
1451387080130190557	-1.3054199	-0.14089966	-0.028335571
1451387080135378546	-1.4630127	-0.09324646	0.081604004
1451387080140230841	-1.4630127	-0.07368469	0.081604004
1451387080145968145	-1.6132813	-0.07368469	0.3882599
1451387080150362677	-1.7611237	-0.1103363	0.3882599
1451387080155459112	-1.9125977	-0.1103363	0.55807495
1451387080161135382	-2.0714264	-0.13354492	0.7169037
1451387080165529913	-2.2351532	-0.13722229	0.8574066
1451387080169405645	-2.3988647	-0.1103363	0.9820099
1451387080175600714	-2.558899	-0.050476074	1.0931854
1451387080180514044	-2.703064	0.042373657	1.1933746
1451387080185732550	-2.8093567	0.15963745	1.283783
1451387080190615362	-2.8521118	0.2915802	1.3595276
1451387080195589727	-2.8179016	0.42842102	1.414505
1451387080200686163	-2.7140656	0.5652466	1.4377136
1451387080205813116	-2.5650177	0.7033081	1.4340668
1451387080211458868	-2.4025116	0.8401489	1.4083862
1451387080215792364	-2.2473602	0.9525299	1.374176
1451387080219149298	-2.2473602	0.99650574	1.374176
1451387080225985235	-2.0176697	0.99650574	1.3155518
1451387080230898565	-1.9626923	0.7607269	1.3008881
1451387080235933966	-1.9626923	0.51394653	1.3008881
1451387080241121954	-1.9456024	0.51394653	1.3008881
1451387080246676153	-1.9516907	0.25248718	1.3192139
1451387080251131720	-1.9614868	0.028930664	1.3607483
1451387080256167120	-1.9675751	-0.13110352	1.4206238
1451387080261751837	-1.9651337	-0.22885132	1.4890442
1451387080266085333	-1.9541626	-0.27650452	1.5550079
1451387080269472784	-1.9370422	-0.29115295	1.6051025
1451387080277407354	-1.9125977	-0.28260803	1.6283112
1451387080281252569	-1.8784027	-0.25694275	1.6221924
1451387080286959356	-1.8319702	-0.22273254	1.5928802
1451387080291323370	-1.7733307	-0.19587708	1.5513458
1451387080296663946	-1.6963501	-0.18119812	1.5012512
1451387080301546759	-1.5986328	-0.14942932	1.4487152
1451387080306429571	-1.4911041	-0.055358887	1.4096222
1451387080311434454	-1.3884888	0.12054443	1.3998566
1451387080316500372	-1.3078613	0.34655762	1.4303894
1451387080319857305	-1.3078613	0.567688	1.4303894
1451387080326571173	-1.1844635	0.567688	1.5501251
1451387080331576055	-1.1844635	0.9158783	1.5501251
1451387080336641973	-1.1172638	0.9158783	1.6014252
1451387080341799444	-1.0561829	1.0380707	1.6344147
1451387080347414678	-1.0170746	1.1064758	1.6502838
1451387080351870245	-0.9951019	1.1260223	1.6539612
1451387080356783575	-0.9718933	1.1358032	1.66008
1451387080361757940	-0.9327698	1.1724548	1.6796112
1451387080366854376	-0.8851471	1.2567596	1.7150574
1451387080370211309	-0.8448181	1.3911438	1.7553711
1451387080376925177	-0.8130646	1.5609589	1.7785797
1451387080381960577	-0.7800598	1.7149048	1.7675934
1451387080386995977	-0.74220276	1.7918549	1.7211609
1451387080392122930	-0.70310974	1.7723236	1.6515198
1451387080397860235	-0.670105	1.70755	1.580658
1451387080402224249	-0.64201355	1.669693	1.5220184
1451387080407259649	-0.61024475	1.6880188	1.480484
1451387080412813848	-0.5674896	1.7466736	1.4523926
1451387080417208380	-0.5149536	1.8248596	1.4242706
1451387080420656866	-0.5149536	1.901825	1.4242706
1451387080427279180	-0.37322998	1.901825	1.3167725
1451387080432314581	-0.37322998	1.9323578	1.3167725
1451387080437349981	-0.28649902	1.9323578	1.236145
1451387080442293829	-0.20219421	1.8737183	1.1579285
1451387080448092169	-0.12767029	1.7979736	1.0883026
1451387080453310675	-0.061691284	1.722229	1.026001
1451387080457491583	0.014038086	1.6415863	0.9575958
1451387080463076300	0.114212036	1.5401917	0.87449646
1451387080467684454	0.24617004	1.4070282	0.7718811
1451387080470888800	0.40498352	1.2408752	0.6582489
1451387080477755255	0.5723572	1.0478363	0.54463196
1451387080482668585	0.7299652	0.84991455	0.43711853
1451387080487856573	0.87046814	0.6690979	0.33572388
1451387080492739386	0.99263	0.5225067	0.23919678
1451387080497713751	1.1050415	0.41497803	0.14880371
1451387080502840704	1.2076721	0.34779358	0.065719604
1451387080507937139	1.3054047	0.31602478	-0.013687134
1451387080513338751	1.3945923	0.31602478	-0.094314575
1451387080518038458	1.4715424	0.3380127	-0.1822815
1451387080521486944	1.4715424	0.375885	-0.1822815
1451387080528109259	1.526535	0.375885	-0.37286377
1451387080532992071	1.5473022	0.48828125	-0.37286377
1451387080538149542	1.5179749	0.48828125	-0.46447754
1451387080543093389	1.4275665	0.56892395	-0.5390167
1451387080548769659	1.2699738	0.6764221	-0.58543396
1451387080553164190	1.0525055	0.81082153	-0.59643555
1451387080558291143	0.7971649	0.9452057	-0.56588745
1451387080563906378	0.52227783	1.0368347	-0.48892212
1451387080568361944	0.24372864	1.0295105	-0.3630829
1451387080571627325	-0.03604126	0.88656616	-0.19325256
1451387080578432745	-0.31214905	0.6104584	0.004623413
1451387080583376593	-0.57481384	0.24760437	0.21110535
1451387080588534063	-0.802063	-0.115219116	0.4041443
1451387080593447393	-0.9608917	-0.3754425	0.56907654
1451387080599215216	-1.020752	-0.4573059	0.6949005
1451387080603609747	-0.97309875	-0.34370422	0.7792053
1451387080608645147	-0.8423767	-0.07980347	0.820755
1451387080614504522	-0.6749878	0.2598114	0.8256378
1451387080619692511	-0.5198364	0.606781	0.7950897
1451387080629671759	-0.35368347	0.9232178	0.64115906
1451387080633700079	-0.35368347	1.3532715	0.64115906
1451387080639284796	-0.33903503	1.3532715	0.53852844
1451387080643923468	-0.33657837	1.4033508	0.4383545
1451387080649019903	-0.29870605	1.3153839	0.3454895
1451387080653994268	-0.1655426	1.0954895	0.25387573
1451387080658907598	0.10321045	0.7619629	0.14880371
1451387080663851446	0.5015106	0.3404541	0.016860962
1451387080668978399	0.9657593	-0.12866211	-0.15415955
1451387080672335333	1.3982391	-0.57948303	-0.35942078
1451387080679018682	1.7097931	-0.94721985	-0.59033203
1451387080684054083	1.8270721	-1.1817932	-0.8236847
1451387080689150518	1.6804657	-1.2563171	-1.0276947
1451387080694277471	1.2149963	-1.1414948	-1.1608734
1451387080699923223	0.4599762	-0.825058	-1.1694336
1451387080704348272	-0.40133667	-0.3864441	-1.014267
1451387080709261602	-1.0769501	-0.027267456	-0.7198181
1451387080714968389	-1.3445129	0.036254883	-0.37530518
1451387080719332403	-1.1954651	-0.23617554	-0.10774231
1451387080722689337	-1.1954651	-0.672348	-0.10774231
1451387080729403204	-0.8179474	-0.672348	0.0021820068
1451387080734408087	-0.42210388	-1.0388641	-0.050323486
1451387080739474005	-0.10322571	-1.2245636	-0.21037292
1451387080744600958	0.17042542	-1.2770844	-0.4168396
1451387080750399298	0.45141602	-1.3210602	-0.64042664
1451387080754671759	0.7507324	-1.4664612	-0.8701019
1451387080759707159	1.0341797	-1.7584534	-1.0863495
1451387080765505499	1.263855	-2.1652985	-1.2586212
1451387080769686407	1.4190063	-2.6014404	-1.3563538
1451387080773195928	1.4837799	-2.9569702	-1.3832245
1451387080779909796	1.4507751	-3.1463318	-1.3697968
1451387080785891241	1.3359375	-3.1353302	-1.350235
1451387080789980596	1.1783447	-2.9471893	-1.3429108
1451387080795870489	1.0292816	-2.6478577	-1.3355865
1451387080799837774	0.9290924	-2.3082123	-1.3050385
1451387080805361456	0.89367676	-1.986908	-1.2329559
1451387080810091680	0.92544556	-1.7181396	-1.118103
1451387080815981573	1.0085144	-1.5055542	-0.97395325
1451387080820162481	1.1294556	-1.3369446	-0.8297882
1451387080823519415	1.1294556	-1.2074432	-0.8297882
1451387080830263800	1.2748566	-1.2074432	-0.70884705
1451387080835146612	1.4312439	-1.1194916	-0.62210083
1451387080840304083	1.5815125	-1.0852814	-0.5573425
1451387080845186895	1.7109985	-1.1060486	-0.5023651
1451387080850985235	1.8136444	-1.1647034	-0.45838928
1451387080855257696	1.8869476	-1.2233276	-0.4339447
1451387080860323614	1.9260406	-1.2428894	-0.44250488
1451387080865755743	1.9223633	-1.1976776	-0.4815979
1451387080870516485	1.8698273	-1.0852814	-0.5475769
1451387080873842901	1.7745361	-0.93013	-0.62820435
1451387080880587286	1.6584625	-0.77130127	-0.7149353
1451387080885470098	1.5473022	-0.64302063	-0.7980194
1451387080890688604	1.4532166	-0.5550537	-0.87498474
1451387080895571417	1.3787079	-0.4988556	-0.93730164
1451387080901491827	1.3224945	-0.4548645	-0.9776001
1451387080905672735	1.2834015	-0.4096527	-0.9934845
1451387080910769171	1.2614136	-0.36447144	-0.98739624
1451387080916475958	1.2492065	-0.32414246	-0.9702759
1451387080920870489	1.2492065	-0.29849243	-0.9458618
1451387080924135870	1.2430878	-0.29481506	-0.9458618
1451387080930971807	1.238205	-0.29481506	-0.91897583
1451387080935854620	1.2320862	-0.31314087	-0.88842773
1451387080941042608	1.2198792	-0.34979248	-0.8542175
1451387080945925421	1.2052307	-0.39868164	-0.8175659
1451387080951571173	1.1905518	-0.46098328	-0.7772522
1451387080955996221	1.1832275	-0.5452728	-0.7344971
1451387080961062139	1.1795502	-0.65034485	-0.6892853
1451387080966890997	1.1746674	-0.7566376	-0.64775085
1451387080972048468	1.1612244	-0.84458923	-0.61476135
1451387080982058233	1.1038055	-0.9374542	-0.58177185
1451387080986208624	1.0732727	-0.94966125	-0.58177185
1451387080991610235	1.0463867	-0.9350128	-0.59033203
1451387080996370977	1.0231781	-0.8824768	-0.60865784
1451387081001345343	1.0011902	-0.7969513	-0.63552856
1451387081006472296	0.9816284	-0.69555664	-0.66851807
1451387081011385626	0.9657593	-0.59536743	-0.7063751
1451387081016359991	0.9657593	-0.5025177	-0.74549866
1451387081021456427	0.95233154	-0.5025177	-0.74549866
1451387081024935430	0.93888855	-0.41577148	-0.7809143
1451387081031527227	0.92788696	-0.33270264	-0.809021
1451387081036562628	0.9168854	-0.26672363	-0.8285675
1451387081041536993	0.90711975	-0.22763062	-0.84199524
1451387081046786016	0.89611816	-0.2215271	-0.8493347
1451387081051943487	0.8851166	-0.24961853	-0.8529968
1451387081056826300	0.87290955	-0.30337524	-0.85543823
1451387081061739630	0.86068726	-0.3730011	-0.8639984
1451387081066744512	0.84358215	-0.44386292	-0.87864685
1451387081071810430	0.82159424	-0.5049591	-0.8957672
1451387081075167364	0.79226685	-0.54771423	-0.91041565
1451387081081881231	0.75805664	-0.56848145	-0.92385864
1451387081086886114	0.7165222	-0.56604004	-0.9385071
1451387081091952032	0.6676636	-0.5440521	-0.9543915
1451387081097078985	0.61024475	-0.5110626	-0.9678345
1451387081102755255	0.54914856	-0.4756317	-0.9727173
1451387081107058233	0.48806763	-0.448761	-0.96539307
1451387081112246221	0.4282074	-0.43533325	-0.9483032
1451387081117891973	0.3634491	-0.43777466	-0.9250641
1451387081122164434	0.3634491	-0.4548645	-0.9250641
1451387081125521368	0.29380798	-0.4548645	-0.89453125
1451387081132357305	0.21928406	-0.47807312	-0.85543823
1451387081138308233	0.14964294	-0.49519348	-0.809021
1451387081142428106	0.09100342	-0.5074005	-0.7564697
1451387081147860235	0.03968811	-0.5196228	-0.7027283
1451387081152285284	-0.007965088	-0.5428314	-0.6465149
1451387081157625860	-0.05558777	-0.580719	-0.58787537
1451387081162569708	-0.10322571	-0.6307831	-0.52557373
1451387081168307012	-0.1508789	-0.67967224	-0.4657135
1451387081172609991	-0.19851685	-0.71632385	-0.41073608
1451387081175997442	-0.247406	-0.73464966	-0.366745
1451387081182741827	-0.2975006	-0.73342896	-0.33621216
1451387081187624639	-0.35002136	-0.71754456	-0.32276917
1451387081192782110	-0.4098816	-0.6918793	-0.32398987
1451387081197664923	-0.4807434	-0.6540222	-0.33499146
1451387081202639288	-0.5626068	-0.59780884	-0.3484192
1451387081207766241	-0.65057373	-0.5245056	-0.35575867
1451387081212954229	-0.7458496	-0.44509888	-0.35087585
1451387081218569464	-0.8521576	-0.36691284	-0.32276917
1451387081222994512	-0.8521576	-0.29605103	-0.32276917
1451387081226229376	-0.96577454	-0.29605103	-0.27023315
1451387081233095831	-1.0830536	-0.23373413	-0.19081116
1451387081237978643	-1.1954651	-0.17999268	-0.085754395
1451387081243136114	-1.304184	-0.13233948	0.042510986
1451387081248049444	-1.4178009	-0.09324646	0.1940155
1451387081253756231	-1.5473175	-0.06391907	0.3601532
1451387081258089727	-1.6963501	-0.046813965	0.52874756
1451387081263155645	-1.8600769	-0.039489746	0.6900177
1451387081268831915	-2.0286713	-0.03215027	0.83784485
1451387081273317999	-2.1923828	-0.013824463	0.9710083
1451387081276583380	-2.3438873	0.032608032	1.0931854
1451387081283449835	-2.4782562	0.11932373	1.2068176
1451387081288332647	-2.584549	0.24272156	1.3118744
1451387081293520636	-2.6468506	0.3844452	1.3998566
1451387081298495001	-2.6566467	0.52371216	1.4633636
1451387081304110235	-2.6151123	0.6544342	1.5000305
1451387081308474249	-2.5344696	0.78881836	1.5134583
1451387081314882940	-2.433075	0.9268799	1.5134583
1451387081319246954	-2.3292084	1.049057	1.5073547
1451387081324099249	-2.3292084	1.1223602	1.5073547
1451387081326906866	-2.240036	1.1223602	1.4988098
1451387081334292120	-2.1764984	1.1150208	1.4865875
1451387081338686651	-2.1398468	1.0050659	1.468277
1451387081343630499	-2.1227417	0.79493713	1.4487152
1451387081348849005	-2.1203003	0.5127106	1.4316254
1451387081354220098	-2.1251984	0.21217346	1.4230652
1451387081358950323	-2.1374054	-0.060256958	1.4242706
1451387081363833136	-2.1459656	-0.28138733	1.440155
1451387081369692511	-2.1435242	-0.4499817	1.4694824
1451387081373934454	-2.1264038	-0.5721588	1.5024719
1451387081377291387	-2.1264038	-0.6442261	1.5232391
1451387081383974737	-2.0628815	-0.6442261	1.5256805
1451387081389010137	-2.0262299	-0.62345886	1.5073547
1451387081394106573	-1.9785767	-0.5391693	1.4694824
1451387081399172491	-1.9150391	-0.4182129	1.414505
1451387081404848761	-1.8356476	-0.26916504	1.3522034
1451387081409304327	-1.7501221	-0.10545349	1.3069916
1451387081414217657	-1.7501221	0.061904907	1.3069916
1451387081420839971	-1.5839691	0.061904907	1.3118744
1451387081424288458	-1.5839691	0.40275574	1.3118744
1451387081427614874	-1.5021057	0.40275574	1.3558655
1451387081434359259	-1.4165955	0.5860138	1.426712
1451387081439394659	-1.3298492	0.77049255	1.519577
1451387081444552130	-1.2418823	0.93299866	1.6160889
1451387081449587530	-1.1575775	1.0502777	1.6954956
1451387081455050177	-1.0830536	1.1150208	1.7553711
1451387081459658331	-1.020752	1.149231	1.8066864
1451387081464571661	-0.9645386	1.1858978	1.8531036
1451387081470247930	-0.90956116	1.2567596	1.8934174
1451387081474642462	-0.8582611	1.3703613	1.9203033
1451387081477999395	-0.8582611	1.5230713	1.9203033
1451387081484835333	-0.77397156	1.5230713	1.9239807
1451387081490511602	-0.7250824	1.852951	1.8872986
1451387081494906134	-0.65545654	1.9323578	1.8262329
1451387081500826544	-0.57481384	1.9164734	1.7553711
1451387081505526251	-0.49786377	1.861496	1.6906128
1451387081510500616	-0.4330902	1.8431854	1.6393127
1451387081515047735	-0.4330902	1.8932648	1.6393127
1451387081519961065	-0.37322998	1.8932648	1.5965424
1451387081525118536	-0.30358887	1.978775	1.5574493
1451387081528322882	-0.22296143	2.054535	1.5122528
1451387081535158819	-0.14233398	2.107071	1.4572754
1451387081540102667	-0.06781006	2.1412811	1.3864136
1451387081545229620	0.003036499	2.158371	1.3033295
1451387081550142950	0.07267761	2.1437225	1.2165833
1451387081556002325	0.14720154	2.085083	1.1322784
1451387081560244268	0.22904968	1.9848938	1.0553131
1451387081565279669	0.319458	1.8602753	0.9820099
1451387081571016973	0.4172058	1.7234344	0.90626526
1451387081575472540	0.52104187	1.5829468	0.8256378
1451387081578798956	0.52104187	1.4412384	0.8256378
1451387081585543341	0.7324066	1.4412384	0.6472626
1451387081590426153	0.83503723	1.1712189	0.55685425
1451387081595614141	0.9352112	1.0612793	0.46768188
1451387081600527471	1.031723	0.9769745	0.3796997
1451387081605501837	1.031723	0.92077637	0.29052734
1451387081610598272	1.1245728	0.92077637	0.29052734
1451387081615633673	1.2210999	0.88900757	0.19766235
1451387081621340460	1.3212738	0.87312317	0.10481262
1451387081625857061	1.4214478	0.86701965	0.016860962
1451387081629061407	1.5094299	0.85723877	-0.06742859
1451387081635897345	1.5753937	0.83891296	-0.14927673
1451387081640810675	1.6071625	0.82058716	-0.22869873
1451387081645968145	1.5912781	0.8169403	-0.30444336
1451387081651003546	1.5143127	0.8377075	-0.3704071
1451387081656832403	1.3725891	0.88778687	-0.42417908
1451387081660952276	1.1759033	0.9574127	-0.45838928
1451387081667269415	0.9425354	1.0270691	-0.4657135
1451387081671724981	0.6908722	1.0624847	-0.4363861
1451387081676760382	0.43185425	1.0295105	-0.3655243
1451387081679415411	0.43185425	0.9073334	-0.3655243
1451387081686464971	-0.08857727	0.9073334	-0.11262512
1451387081691164678	-0.32315063	0.41375732	0.041290283
1451387081696139044	-0.50883484	0.10710144	0.19154358
1451387081701204962	-0.61880493	-0.17263794	0.32228088
1451387081706789678	-0.64323425	-0.37667847	0.43103027
1451387081711428350	-0.64323425	-0.4731903	0.43103027
1451387081716372198	-0.58947754	-0.4731903	0.51286316
1451387081722140020	-0.48686218	-0.448761	0.56295776
1451387081726412481	-0.37445068	-0.31558228	0.57884216
1451387081729891485	-0.28770447	-0.09812927	0.55929565
1451387081736483282	-0.2449646	0.17063904	0.51042175
1451387081741518682	-0.24861145	0.46017456	0.44200134
1451387081746554083	-0.28282166	0.7448425	0.3613739
1451387081751558966	-0.33169556	0.9928589	0.2758484
1451387081757326788	-0.37078857	1.1687775	0.1940155
1451387081761751837	-0.37322998	1.2445221	0.121917725
1451387081766695684	-0.2975006	1.2017822	0.05595398
1451387081772524542	-0.10934448	1.0368347	-0.01612854
1451387081776888555	0.19483948	0.75460815	-0.11140442
1451387081780123419	0.19483948	0.3685608	-0.11140442
1451387081786837286	0.9828644	0.3685608	-0.4009552
1451387081791872686	1.3518219	-0.55015564	-0.59033203
1451387081797030157	1.6364899	-0.98143005	-0.8004608
1451387081801943487	1.6364899	-1.3296204	-1.0167084
1451387081807680792	1.7354431	-1.5544281	-1.2158508
1451387081812105841	1.7354431	-1.6094055	-1.2158508
1451387081817049688	1.4300079	-1.6094055	-1.3575745
1451387081822725958	0.8814697	-1.4664612	-1.3917694
1451387081827120489	0.20095825	-1.1659088	-1.2708282
1451387081830477423	-0.41600037	-0.8409424	-0.99227905
1451387081837282843	-0.7812958	-0.6625519	-0.61598206
1451387081842898077	-0.8191681	-0.71754456	-0.25190735
1451387081847353643	-0.59069824	-0.95578	-0.0027008057
1451387081853182501	-0.23760986	-1.2489929	0.08282471
1451387081857973761	0.11909485	-1.5006714	0.02418518
1451387081862520880	0.42332458	-1.690033	-0.12728882
1451387081867525762	0.68110657	-1.8476257	-0.32521057
1451387081873202032	0.9058838	-2.0027924	-0.5402374
1451387081877474493	1.1026001	-2.175064	-0.76138306
1451387081880984014	1.1026001	-2.3741913	-0.76138306
1451387081887697882	1.3628235	-2.3741913	-1.1620789
1451387081892611212	1.3994751	-2.817688	-1.302597
1451387081897738165	1.3652649	-2.9630737	-1.3966522
1451387081902651495	1.3652649	-2.9728394	-1.3966522
1451387081907595343	1.277298	-2.9728394	-1.456543
1451387081912722296	1.172226	-2.829895	-1.4919586
1451387081917849249	1.0891571	-2.5769958	-1.5029602
1451387081923342413	1.0500641	-2.2801208	-1.482193
1451387081927950567	1.0488281	-1.986908	-1.4247742
1451387081931215948	1.0683899	-1.7193604	-1.3270264
1451387081938021368	1.0989227	-1.484787	-1.1926422
1451387081942934698	1.1465759	-1.2819824	-1.0386963
1451387081948122686	1.2174377	-1.1011658	-0.8798828
1451387081953005499	1.3200531	-0.93621826	-0.7332611
1451387081957979864	1.4507751	-0.7945099	-0.60009766
1451387081963045782	1.5986023	-0.69921875	-0.4791565
1451387081968111700	1.7403259	-0.6759949	-0.37408447
1451387081973849005	1.84906	-0.72732544	-0.29711914
1451387081978365606	1.9003906	-0.8226166	-0.26535034
1451387081981539434	1.9003906	-0.9142456	-0.26535034
1451387081988375372	1.8148499	-0.9142456	-0.35820007
1451387081993288702	1.7012329	-0.93377686	-0.4657135
1451387081998476690	1.5705109	-0.86047363	-0.58421326
1451387082003359503	1.5705109	-0.75053406	-0.58421326
1451387082009890264	1.3506012	-0.75053406	-0.7723541
1451387082013430303	1.3506012	-0.43533325	-0.7723541
1451387082019564337	1.2430878	-0.43533325	-0.8493347
1451387082024325079	1.2430878	-0.087127686	-0.8493347
1451387082029116339	1.2223206	-0.087127686	-0.86276245
1451387082031893438	1.211319	0.0435791	-0.8701019
1451387082038820928	1.2064362	0.13398743	-0.8688812
1451387082043642706	1.2027893	0.18406677	-0.85787964
1451387082048678106	1.197876	0.19873047	-0.8371124
1451387082053835577	1.1917877	0.18530273	-0.8029175
1451387082059115118	1.1832275	0.14375305	-0.7528229
1451387082063906378	1.1697845	0.06556702	-0.69052124
1451387082068819708	1.1490173	-0.06147766	-0.62454224
1451387082074648565	1.11969	-0.23007202	-0.56466675
1451387082078890509	1.0805969	-0.40356445	-0.51701355
1451387082082338995	1.0805969	-0.5428314	-0.51701355
1451387082088961309	0.9877472	-0.5428314	-0.47183228
1451387082093935675	0.9425354	-0.64178467	-0.47427368
1451387082099032110	0.9425354	-0.60513306	-0.47427368
1451387082104067511	0.90223694	-0.60513306	-0.49015808
1451387082109804815	0.86434937	-0.5318451	-0.5549011
1451387082114229864	0.82891846	-0.34979248	-0.5549011
1451387082119173712	0.7996063	-0.34979248	-0.59643555
1451387082125246710	0.77638245	-0.27894592	-0.63552856
1451387082129244512	0.761734	-0.23617554	-0.66973877
1451387082132723516	0.7568512	-0.22518921	-0.6990509
1451387082139437384	0.7592926	-0.24107361	-0.72473145
1451387082144320196	0.7666168	-0.28382874	-0.74794006
1451387082149477667	0.77394104	-0.34490967	-0.7699127
1451387082154421514	0.7776184	-0.41333008	-0.7919159
1451387082160128302	0.7776184	-0.4756317	-0.8139038
1451387082164614386	0.7727356	-0.526947	-0.8371124
1451387082169527716	0.7678375	-0.56604004	-0.8639984
1451387082176119512	0.7629547	-0.592926	-0.89208984
1451387082179690069	0.7592926	-0.60025024	-0.9201813
1451387082182955450	0.7592926	-0.5880432	-0.9201813
1451387082189760870	0.7409668	-0.5880432	-0.9702759
1451387082195101446	0.7201996	-0.5171814	-0.99227905
1451387082199892706	0.7201996	-0.47686768	-0.99227905
1451387082205446905	0.6505432	-0.47686768	-1.0130463
1451387082210604376	0.6505432	-0.4365387	-1.0020447
1451387082214846319	0.6016846	-0.4365387	-1.0020447
1451387082219973272	0.54670715	-0.44265747	-0.980072
1451387082225161261	0.48927307	-0.4670868	-0.94950867
1451387082230074591	0.43185425	-0.5037384	-0.91529846
1451387082234408087	0.37443542	-0.54771423	-0.87620544
1451387082240114874	0.3170166	-0.5904846	-0.8322296
1451387082245089239	0.25471497	-0.62957764	-0.7845917
1451387082250185675	0.18507385	-0.6625519	-0.7357025
1451387082255099005	0.11054993	-0.69311523	-0.6880493
1451387082261019415	0.04336548	-0.71876526	-0.6416321
1451387082265200323	-0.014053345	-0.7407532	-0.59643555
1451387082270296759	-0.06413269	-0.759079	-0.55122375
1451387082276064581	-0.11300659	-0.7774048	-0.50968933
1451387082280428595	-0.16186523	-0.7920685	-0.4767151
1451387082283693975	-0.16186523	-0.7957306	-0.4767151
1451387082290468878	-0.24984741	-0.7957306	-0.43762207
1451387082295412725	-0.24984741	-0.759079	-0.43762207
1451387082300570196	-0.29014587	-0.759079	-0.42662048
1451387082305483526	-0.33169556	-0.72120667	-0.4143982
1451387082311312384	-0.37934875	-0.6747894	-0.40341187
1451387082315676397	-0.43797302	-0.6246948	-0.38996887
1451387082320589727	-0.51374817	-0.5733795	-0.37164307
1451387082326449102	-0.60658264	-0.5196228	-0.34475708
1451387082330843634	-0.7153168	-0.4670868	-0.30566406
1451387082334017462	-0.8362732	-0.41456604	-0.25190735
1451387082340883917	-0.96209717	-0.36079407	-0.17860413
1451387082345766729	-1.085495	-0.30093384	-0.08331299
1451387082350832647	-1.2039948	-0.23373413	0.03883362
1451387082355837530	-1.3212891	-0.16654968	0.18789673
1451387082362307257	-1.4495697	-0.11277771	0.35282898
1451387082365908331	-1.5961761	-0.083465576	0.51898193
1451387082371859259	-1.7611237	-0.07736206	0.67292786
1451387082376772589	-1.9346008	-0.08102417	0.807312
1451387082381350225	-2.104416	-0.074920654	0.92214966
1451387082384371466	-2.104416	-0.04559326	0.92214966
1451387082391146368	-2.4159546	-0.04559326	1.1200714
1451387082396120733	-2.4159546	0.10343933	1.1200714
1451387082401156134	-2.5601196	0.10343933	1.2178192
1451387082406313604	-2.689621	0.21951294	1.3155518
1451387082412020391	-2.786148	0.3526764	1.401062
1451387082416384405	-2.8203583	0.49073792	1.4621582
1451387082421328253	-2.7751465	0.6141205	1.4902496
1451387082427004522	-2.6542053	0.7118683	1.4890442
1451387082431368536	-2.4904938	0.78393555	1.4731598
1451387082434847540	-2.3206635	0.83036804	1.4474792
1451387082441439337	-2.174057	0.82670593	1.4206238
1451387082446474737	-2.0641022	0.7448425	1.3937378
1451387082451510137	-1.994461	0.56892395	1.3729706
1451387082456637091	-1.956604	0.3282318	1.3570862
1451387082462404913	-1.941925	0.0765686	1.3522034
1451387082466768927	-1.9382782	-0.13842773	1.3595276
1451387082471651739	-1.9407196	-0.29727173	1.3815308
1451387082476626104	-1.9443665	-0.4072113	1.4169464
1451387082481722540	-1.9382782	-0.47807312	1.4584808
1451387082485201544	-1.9382782	-0.5086212	1.4584808
1451387082491884893	-1.9125977	-0.5086212	1.5269012
1451387082496798223	-1.8698578	-0.4890747	1.5269012
1451387082501955694	-1.824646	-0.42921448	1.5391235
1451387082506899542	-1.7928772	-0.36447144	1.5269012
1451387082512606329	-1.7733307	-0.34490967	1.4890442
1451387082517092413	-1.7488861	-0.37791443	1.4365082
1451387082521975225	-1.6914673	-0.4023285	1.3949432
1451387082526980108	-1.5827484	-0.32414246	1.3864136
1451387082532076544	-1.4349213	-0.083465576	1.4255066
1451387082535433477	-1.2870941	0.2915802	1.5012512
1451387082542269415	-1.1759033	0.6923065	1.5879822
1451387082547762579	-1.112381	0.9953003	1.6612854
1451387082552340216	-1.0806122	1.1248016	1.712616
1451387082557528204	-1.0561829	1.0979309	1.751709
1451387082562929815	-1.0158691	1.0001831	1.7895813
1451387082567324346	-0.94989014	0.9219971	1.824997
1451387082572481817	-0.8643646	0.9085541	1.8592072
1451387082578097052	-0.77397156	0.9635315	1.890976
1451387082582552618	-0.69454956	1.0759277	1.9264221
1451387082586794561	-0.69454956	1.2310791	1.9264221
1451387082592623419	-0.6298065	1.2310791	1.9655151
1451387082597445196	-0.57725525	1.4167938	2.0033722
1451387082602694220	-0.5357208	1.6195984	2.0241394
1451387082607638067	-0.4990692	1.8162994	2.0058136
1451387082613497442	-0.45874023	1.9653625	1.9423065
1451387082617678350	-0.40133667	2.0129852	1.8543243
1451387082622835821	-0.32925415	1.9555664	1.7687988
1451387082628603643	-0.25349426	1.8541718	1.697937
1451387082632906622	-0.181427	1.7967529	1.6393127
1451387082636110968	-0.11911011	1.8260651	1.580658
1451387082642977423	-0.0665741	1.9201508	1.519577
1451387082647860235	-0.025039673	2.031311	1.454834
1451387082653078741	0.006713867	2.124176	1.3815308
1451387082657961553	0.03968811	2.185257	1.2996674
1451387082662966436	0.08244324	2.2060242	1.2129364
1451387082668032354	0.14353943	2.17305	1.131073
1451387082673220343	0.22296143	2.0826416	1.0589905
1451387082679079718	0.3157959	1.9494781	0.9893341
1451387082683260626	0.41964722	1.8028564	0.9135895
1451387082686495489	0.41964722	1.6660156	0.9135895
1451387082693361944	0.52838135	1.6660156	0.8268585
1451387082698244757	0.6383362	1.5487518	0.7303467
1451387082703249639	0.7409668	1.4485626	0.6301575
1451387082708315557	0.8338165	1.3605957	0.5275421
1451387082714754766	0.9217682	1.2836151	0.42611694
1451387082718508428	1.0109558	1.2176514	0.3271637
1451387082724032110	1.1086884	1.1614532	0.23187256
1451387082729006475	1.2125549	1.1138153	0.13902283
1451387082733797735	1.3127289	1.0698242	0.0473938
1451387082736849493	1.4019165	1.0319519	-0.045440674
1451387082743563360	1.469101	1.0001831	-0.1382904
1451387082748598761	1.5069885	0.98065186	-0.22990417
1451387082753634161	1.5008698	0.9708557	-0.31544495
1451387082758791632	1.4410095	0.9745331	-0.39117432
1451387082764528936	1.3212738	0.9953003	-0.4522705
1451387082768892950	1.1465759	1.0368347	-0.49015808
1451387082773806280	0.9327698	1.0857086	-0.4950409
1451387082778780645	0.6981964	1.1138153	-0.4608307
1451387082783846563	0.6981964	1.0918121	-0.38508606
1451387082787325567	0.45262146	0.99897766	-0.38508606
1451387082793978399	0.19851685	0.99897766	-0.27511597
1451387082798861212	-0.06536865	0.82792664	-0.1370697
1451387082803988165	-0.33047485	0.58969116	0.020507813
1451387082809023565	-0.57481384	0.309906	0.18421936
1451387082814882940	-0.7654114	0.036254883	0.339386
1451387082819216436	-0.8692627	-0.17263794	0.4701233
1451387082824129766	-0.87046814	-0.26184082	0.57151794
1451387082829958624	-0.77885437	-0.20440674	0.63871765
1451387082834200567	-0.63468933	-0.01260376	0.67292786
1451387082837679571	-0.48442078	0.2646942	0.6716919
1451387082844423956	-0.36712646	0.57136536	0.6399231
1451387082849306768	-0.30358887	0.85479736	0.5825043
1451387082854464239	-0.29382324	1.0808105	0.50553894
1451387082859408087	-0.32191467	1.2261963	0.41879272
1451387082864351934	-0.35980225	1.2738495	0.33084106
1451387082869478887	-0.36590576	1.2091064	0.25019836
1451387082874605841	-0.2975006	1.0282745	0.16712952
1451387082881167120	-0.1301117	0.7424011	0.06816101
1451387082884554571	-0.1301117	0.37832642	0.06816101
1451387082887911505	0.12765503	0.37832642	-0.06010437
1451387082894716925	0.43185425	-0.02116394	-0.21525574
1451387082899813360	0.721405	-0.4096527	-0.3838501
1451387082904848761	0.94132996	-0.75053406	-0.54512024
1451387082909731573	1.0341797	-1.0193024	-0.6868439
1451387082914705938	0.940094	-1.1781464	-0.7967987
1451387082919832891	0.6358948	-1.187912	-0.85543823
1451387082924959845	0.18995667	-1.0486298	-0.83833313
1451387082929995245	-0.2449646	-0.8397064	-0.7393799
1451387082935030645	-0.51374817	-0.6918793	-0.58299255
1451387082939150518	-0.55892944	-0.6943207	-0.4205017
1451387082945070928	-0.44041443	-0.82870483	-0.30810547
1451387082950014776	-0.25228882	-0.99731445	-0.27999878
1451387082955202764	-0.047042847	-1.1170502	-0.3471985
1451387082960085577	0.18139648	-1.1903534	-0.4925995
1451387082965944952	0.4489746	-1.2905273	-0.6831665
1451387082970125860	0.7446289	-1.4957733	-0.8823242
1451387082975283331	1.0305176	-1.8305359	-1.0606995
1451387082981051153	1.2662964	-2.2471466	-1.1926422
1451387082985415167	1.2662964	-2.6576538	-1.1926422
1451387082988588995	1.4263611	-2.6576538	-1.2696075
1451387082995455450	1.4984283	-2.9813995	-1.3038177
1451387083000368780	1.4837799	-3.1683197	-1.3148041
1451387083005556768	1.4019165	-3.2000885	-1.3172455
1451387083010439581	1.2846222	-3.0913544	-1.3172455
1451387083015413946	1.1649017	-2.8726654	-1.3074799
1451387083020510382	1.0659332	-2.5904388	-1.2781525
1451387083025637335	1.0048523	-2.2850037	-1.2182922
1451387083031435675	0.9901886	-1.991806	-1.1278839
1451387083035738653	1.0243988	-1.729126	-1.0154877
1451387083038973516	1.097702	-1.5031128	-0.89697266
1451387083045839971	1.197876	-1.3210602	-0.7882385
1451387083050722784	1.3102875	-1.1903534	-0.6941681
1451387083055666632	1.4214478	-1.120697	-0.61598206
1451387083060793585	1.521637	-1.1109314	-0.55366516
1451387083067110723	1.6022797	-1.1439362	-0.51213074
1451387083070986456	1.6633759	-1.1830292	-0.4950409
1451387083076021856	1.7036743	-1.1952362	-0.4999237
1451387083080843634	1.7036743	-1.1524658	-0.4999237
1451387083085879034	1.7220001	-1.1524658	-0.51945496
1451387083089327520	1.7146759	-1.047409	-0.54634094
1451387083096041387	1.6755829	-0.8885956	-0.57933044
1451387083101076788	1.6096039	-0.7126465	-0.61598206
1451387083106112188	1.5277557	-0.56848145	-0.6550751
1451387083111269659	1.4483337	-0.4902954	-0.6966095
1451387083116884893	1.3774719	-0.4817505	-0.7418213
1451387083121218389	1.3188324	-0.5110626	-0.7870331
1451387083126253790	1.265091	-0.5416107	-0.8273468
1451387083132021612	1.2174377	-0.5416107	-0.8505554
1451387083136233038	1.1807861	-0.5025177	-0.8542175
1451387083139834112	1.1612244	-0.44021606	-0.84077454
1451387083146395391	1.1551361	-0.38156128	-0.8200073
1451387083151400274	1.1539001	-0.34246826	-0.8016815
1451387083156466192	1.1465759	-0.32658386	-0.7870331
1451387083161623663	1.1331329	-0.32658386	-0.7711487
1451387083167391485	1.1184845	-0.34370422	-0.74794006
1451387083171694464	1.106247	-0.3840027	-0.7186127
1451387083176516241	1.106247	-0.4573059	-0.7186127
1451387083182467169	1.0915985	-0.4573059	-0.65631104
1451387083186678595	1.0915985	-0.68211365	-0.65631104
1451387083190157598	1.0854797	-0.68211365	-0.6257477
1451387083196901983	1.0744934	-0.7822876	-0.60131836
1451387083201784796	1.0573883	-0.837265	-0.58787537
1451387083206911749	1.0402832	-0.8421478	-0.59033203
1451387083211855596	1.0243988	-0.811615	-0.60621643
1451387083217684454	1.0146332	-0.7664032	-0.63186646
1451387083222078985	1.0085144	-0.71876526	-0.66607666
1451387083226961798	1.0072937	-0.672348	-0.70884705
1451387083233706182	1.0048523	-0.62101746	-0.7589264
1451387083237032598	1.0011902	-0.56604004	-0.8151245
1451387083240389532	0.9950714	-0.5074005	-0.8701019
1451387083247225470	0.98898315	-0.45121765	-0.9201813
1451387083252199835	0.9853058	-0.39988708	-0.95806885
1451387083257296270	0.9865265	-0.35957336	-0.980072
1451387083262209600	0.98898315	-0.34124756	-0.98739624
1451387083267153448	0.99263	-0.35102844	-0.98495483
1451387083272310919	0.99263	-0.39012146	-0.9776001
1451387083277468389	0.99263	-0.4499817	-0.9678345
1451387083282808966	0.9840851	-0.5245056	-0.9592743
1451387083287539190	0.96821594	-0.6039276	-0.9592743
1451387083291536993	0.94132996	-0.6039276	-0.9543915
1451387083297609991	0.9058838	-0.67967224	-0.94950867
1451387083302492803	0.85824585	-0.73831177	-0.94462585
1451387083307650274	0.7983856	-0.77130127	-0.9360657
1451387083312563604	0.7275238	-0.7761841	-0.9250641
1451387083317507452	0.6481018	-0.7602997	-0.91529846
1451387083322634405	0.56747437	-0.73342896	-0.90675354
1451387083327761358	0.48806763	-0.7102051	-0.8982086
1451387083333407110	0.41596985	-0.70288086	-0.8859863
1451387083337740606	0.3500061	-0.71144104	-0.8676605
1451387083341097540	0.3500061	-0.73587036	-0.84077454
1451387083347933477	0.22904968	-0.73587036	-0.80656433
1451387083352846807	0.16798401	-0.8030548	-0.7711487
1451387083358004278	0.10810852	-0.8348236	-0.7344971
1451387083363039678	0.050689697	-0.8555908	-0.6990509
1451387083368715948	-0.0042877197	-0.86047363	-0.6648407
1451387083373140997	-0.053146362	-0.8568268	-0.6257477
1451387083378084845	-0.053146362	-0.84703064	-0.6257477
1451387083384066290	-0.13621521	-0.84703064	-0.5365753
1451387083388216680	-0.13621521	-0.8140564	-0.5365753
1451387083391451544	-0.17042542	-0.8140564	-0.48892212
1451387083398256964	-0.20219421	-0.7884064	-0.4449463
1451387083403200811	-0.23516846	-0.7615204	-0.4046173
1451387083409334845	-0.2791748	-0.7407532	-0.36920166
1451387083413363165	-0.33903503	-0.7236481	-0.34109497
1451387083418978399	-0.41355896	-0.70288086	-0.32154846
1451387083423372930	-0.4966278	-0.6674652	-0.31300354
1451387083429018682	-0.5858154	-0.61125183	-0.30932617
1451387083434389776	-0.68110657	-0.5318451	-0.29956055
1451387083438448614	-0.7873993	-0.4365387	-0.27023315
1451387083441819996	-0.7873993	-0.34002686	-0.27023315
1451387083448442310	-1.0317535	-0.34002686	-0.13339233
1451387083453569263	-1.1649017	-0.18608093	-0.029556274
1451387083458635181	-1.2993011	-0.13598633	0.09260559
1451387083463762134	-1.4373627	-0.10423279	0.23310852
1451387083469133228	-1.5839691	-0.095687866	0.38702393
1451387083473802418	-1.5839691	-0.10913086	0.38702393
1451387083478746265	-1.7476807	-0.10913086	0.54341125
1451387083484422535	-1.9321594	-0.13110352	0.80241394
1451387083488817066	-2.1288452	-0.14334106	0.80241394
1451387083492174000	-2.3218842	-0.13478088	0.8977051
1451387083498887867	-2.4941406	-0.09933472	0.9868927
1451387083503923267	-2.6309814	-0.034591675	1.0797577
1451387083508958668	-2.7213898	0.06434631	1.1774902
1451387083514116138	-2.7568207	0.18650818	1.27034
1451387083519853443	-2.7360535	0.3184662	1.3473206
1451387083524186939	-2.6664124	0.44674683	1.4047394
1451387083529100269	-2.562561	0.5725708	1.440155
1451387083534776539	-2.4379578	0.69963074	1.4560394
1451387083539171070	-2.3084412	0.81570435	1.4597168
1451387083542528003	-2.3084412	0.90000916	1.4597168
1451387083549363941	-2.0921936	0.90000916	1.4572754
1451387083554277271	-2.021347	0.86579895	1.4511566
1451387083559312671	-1.9773712	0.7265167	1.4438324
1451387083564470142	-1.9578094	0.5249481	1.440155
1451387083570054859	-1.9602509	0.29769897	1.4511566
1451387083574510425	-1.9602509	0.07044983	1.4511566
1451387083579423755	-1.9785767	0.07044983	1.479248
1451387083586168140	-2.0250092	-0.1421051	1.5659943
1451387083589525074	-2.0250092	-0.4731903	1.5659943
1451387083593004078	-2.0311127	-0.4731903	1.6038666
1451387083599687427	-2.0164642	-0.5574951	1.6270752
1451387083604661793	-1.9834595	-0.57948303	1.6344147
1451387083609819263	-1.9456024	-0.5599365	1.6209869
1451387083614671558	-1.9113922	-0.5281677	1.5830994
1451387083620408863	-1.875946	-0.5025177	1.5207977
1451387083624803394	-1.8185425	-0.4731903	1.4450378
1451387083629869312	-1.724472	-0.39744568	1.3790741
1451387083635270923	-1.5961761	-0.22763062	1.3473206
1451387083640001148	-1.4593353	0.042373657	1.3583069
1451387083644029468	-1.3420563	0.3526764	1.3974152
1451387083650041431	-1.2589874	0.6128998	1.4425964
1451387083654954761	-1.1991119	0.77537537	1.4841461
1451387083660142750	-1.1441345	0.85723877	1.5244598
1451387083665025562	-1.085495	0.9158783	1.5684509
1451387083670640796	-1.0256348	0.98065186	1.6160889
1451387083675096363	-1.0256348	1.0527191	1.6160889
1451387083680284351	-0.96821594	1.0527191	1.6649628
1451387083685869068	-0.91690063	1.1309052	1.7162628
1451387083690355152	-0.8717041	1.2335205	1.7663574
1451387083693498462	-0.827713	1.372818	1.8054657
1451387083700395435	-0.7849579	1.5279846	1.829895
1451387083705339283	-0.74464417	1.6648102	1.8372192
1451387083710496753	-0.71287537	1.7820892	1.8225555
1451387083715410084	-0.68722534	1.901825	1.7785797
1451387083721208423	-0.65789795	2.0239868	1.7077332
1451387083725572437	-0.6139221	2.1058502	1.6270752
1451387083730607837	-0.5516052	2.1058502	1.55867
1451387083736192554	-0.47709656	2.0435486	1.5122528
1451387083740709156	-0.39523315	1.9873352	1.480484
1451387083743913501	-0.39523315	1.9910126	1.480484
1451387083750749439	-0.21928406	1.9910126	1.401062
1451387083755693287	-0.13865662	2.1192932	1.3460846
1451387083761827320	-0.070251465	2.163269	1.283783
1451387083765886158	-0.006729126	2.1620483	1.2165833
1451387083771440357	0.058013916	2.1095123	1.144516
1451387083775834888	0.058013916	2.0105438	1.144516
1451387083780900806	0.13009644	2.0105438	1.0687561
1451387083786851734	0.20584106	1.8834991	0.9942322
1451387083790941089	0.2840271	1.749115	0.92214966
1451387083794298023	0.3695526	1.6159363	0.85006714
1451387083800920337	0.46606445	1.4815369	0.7731018
1451387083806016773	0.56869507	1.3410492	0.6949005
1451387083811113209	0.6725464	1.1981049	0.6142731
1451387083816240162	0.77149963	1.0624847	0.53608704
1451387083821885914	0.86312866	0.9464264	0.4591217
1451387083826310962	0.953537	0.85723877	0.38093567
1451387083831224293	1.045166	0.79125977	0.30029297
1451387083836931080	1.1404572	0.7399597	0.21722412
1451387083841295093	1.238205	0.7033081	0.1304779
1451387083844652027	1.238205	0.6886444	0.1304779
1451387083851365894	1.4067993	0.6886444	-0.056427002
1451387083856401294	1.4483337	0.73872375	-0.15415955
1451387083861406177	1.4422455	0.7851715	-0.24946594
1451387083866594166	1.4422455	0.84135437	-0.33377075
1451387083872300953	1.2565308	0.84135437	-0.3985138
1451387083876634449	1.2565308	0.9953003	-0.3985138
1451387083881578296	1.0854797	0.9953003	-0.4339447
1451387083887437671	0.887558	1.0796051	-0.4315033
1451387083891649097	0.6798706	1.1345825	-0.3887329
1451387083895097584	0.47340393	1.1284637	-0.31056213
1451387083901719898	0.26205444	1.0343933	-0.2006073
1451387083906663746	0.040908813	0.84135437	-0.06742859
1451387083911882251	-0.18630981	0.57502747	0.07672119
1451387083916826099	-0.40377808	0.28425598	0.21354675
1451387083923417896	-0.5797119	0.030151367	0.33328247
1451387083927965015	-0.67988586	-0.13233948	0.42855835
1451387083931932300	-0.67988586	-0.15922546	0.50309753
1451387083937852710	-0.59069824	-0.04071045	0.55685425
1451387083942155689	-0.45509338	0.19140625	0.59106445
1451387083945329517	-0.45509338	0.47361755	0.59106445
1451387083952226490	-0.23516846	0.47361755	0.59350586
1451387083957139820	-0.1973114	0.96965027	0.56051636
1451387083962236255	-0.20707703	1.149231	0.50309753
1451387083967149585	-0.20707703	1.2860718	0.50309753
1451387083972978443	-0.30114746	1.2860718	0.339386
1451387083977281421	-0.30114746	1.3935852	0.339386
1451387083982408375	-0.33413696	1.3935852	0.25263977
1451387083987809986	-0.31703186	1.3288269	0.16957092
1451387083992479175	-0.21928406	1.1590118	0.0791626
1451387083996415943	-0.03604126	0.88046265	-0.030776978
1451387084002549976	0.21195984	0.51638794	-0.16760254
1451387084007463306	0.48439026	0.1083374	-0.32398987
1451387084012620777	0.7409668	-0.28871155	-0.48524475
1451387084017534107	0.940094	-0.6283417	-0.6391907
1451387084022477955	1.0341797	-0.8824768	-0.7735901
1451387084027604908	0.95965576	-1.0254211	-0.87498474
1451387084032731861	0.67619324	-1.0266418	-0.91773987
1451387084038408130	0.22784424	-0.8714752	-0.87132263
1451387084042833179	-0.23884583	-0.61369324	-0.73205566
1451387084045945972	-0.23884583	-0.38279724	-0.73205566
1451387084052873462	-0.61024475	-0.38279724	-0.31056213
1451387084057817310	-0.47462463	-0.42799377	-0.14683533
1451387084062974781	-0.47462463	-0.67111206	-0.082092285
1451387084067979664	-0.25105286	-0.67111206	-0.082092285
1451387084073594898	-0.0128479	-0.9191284	-0.27879333
1451387084077928394	0.23516846	-1.1133728	-0.27879333
1451387084083116382	0.50883484	-1.2819824	-0.48280334
1451387084088853687	0.7996063	-1.4945526	-0.7063751
1451387084093156666	1.0781555	-1.8012085	-0.92385864
1451387084096391529	1.3054047	-2.1897125	-1.1083374
1451387084103166431	1.4642181	-2.5941162	-1.237854
1451387084108171314	1.5411835	-2.9288635	-1.2989197
1451387084114274830	1.5338593	-3.1194458	-1.3074799
1451387084118364185	1.4495697	-3.1365662	-1.2989197
1451387084123887867	1.3188324	-2.9985046	-1.3001556
1451387084128312916	1.1819916	-2.7504883	-1.3074799
1451387084133348316	1.0757141	-2.4389496	-1.2964783
1451387084139299244	1.0207367	-2.0993195	-1.2427368
1451387084143358082	1.0256195	-1.7596741	-1.1437683
1451387084146898121	1.0256195	-1.4493561	-1.1437683
1451387084153398365	1.1807861	-1.4493561	-0.88108826
1451387084158525318	1.1807861	-0.99853516	-0.7625885
1451387084163591236	1.3005066	-0.99853516	-0.7625885
1451387084168718189	1.4263611	-0.88368225	-0.6734009
1451387084174333423	1.548523	-0.850708	-0.61598206
1451387084178758472	1.6548157	-0.8873596	-0.58177185
1451387084183702320	1.7391205	-0.96310425	-0.56222534
1451387084189531177	1.7953033	-1.0376282	-0.5561218
1451387084193773121	1.8160858	-1.0706177	-0.56466675
1451387084197130054	1.79776	-1.0461884	-0.58543396
1451387084203843921	1.7525482	-0.97410583	-0.61354065
1451387084208879322	1.697586	-0.87635803	-0.6416321
1451387084213914722	1.6462555	-0.7822876	-0.67707825
1451387084219041675	1.5961609	-0.71144104	-0.7259369
1451387084224656910	1.5399628	-0.6625519	-0.7857971
1451387084229020923	1.4752197	-0.61369324	-0.8493347
1451387084234056324	1.4043579	-0.553833	-0.90185547
1451387084239793628	1.3371582	-0.4841919	-0.9360657
1451387084244127125	1.2846222	-0.41088867	-0.9483032
1451387084247484058	1.2846222	-0.33270264	-0.9483032
1451387084254319996	1.2345276	-0.33270264	-0.914093
1451387084259202808	1.2345276	-0.18852234	-0.914093
1451387084264268726	1.2235565	-0.18852234	-0.87864685
1451387084269395679	1.2137604	-0.16166687	-0.84077454
1451387084275132984	1.2003174	-0.17019653	-0.8053589
1451387084279405445	1.185669	-0.20196533	-0.7723541
1451387084284471363	1.1710205	-0.25205994	-0.7405853
1451387084290880054	1.1575775	-0.32536316	-0.7039337
1451387084294603199	1.1477814	-0.4230957	-0.66119385
1451387084297960132	1.1392517	-0.5293884	-0.61476135
1451387084304674000	1.1294556	-0.61857605	-0.57444763
1451387084309587330	1.1172485	-0.6759949	-0.54634094
1451387084314744800	1.1026001	-0.7065582	-0.53533936
1451387084319566578	1.0867157	-0.71998596	-0.537796
1451387084325517505	1.0695953	-0.71632385	-0.5549011
1451387084329728931	1.0525055	-0.68333435	-0.58543396
1451387084334764332	1.0354004	-0.6173706	-0.6257477
1451387084340226978	1.0207367	-0.5281677	-0.6734009
1451387084344957203	1.0085144	-0.43533325	-0.7222595
1451387084348893970	1.0085144	-0.3546753	-0.7222595
1451387084355028003	0.9865265	-0.3546753	-0.8053589
1451387084359941334	0.9865265	-0.2398529	-0.8053589
1451387084365098804	0.9743042	-0.2398529	-0.8322296
1451387084370012134	0.9633026	-0.20440674	-0.8493347
1451387084375718921	0.95477295	-0.18852234	-0.85787964
1451387084380082935	0.9486542	-0.20440674	-0.861557
1451387084385240406	0.94377136	-0.25450134	-0.86276245
1451387084390886158	0.93888855	-0.33390808	-0.86276245
1451387084395311207	0.92788696	-0.42799377	-0.861557
1451387084398546070	0.9058838	-0.5220642	-0.86276245
1451387084405382007	0.8716736	-0.60269165	-0.8688812
1451387084410264820	0.82769775	-0.6649933	-0.8774414
1451387084415483326	0.77638245	-0.70410156	-0.8859863
1451387084420457691	0.722641	-0.72120667	-0.89086914
1451387084426835865	0.6639862	-0.71876526	-0.89208984
1451387084430436939	0.604126	-0.7065582	-0.88964844
1451387084435563892	0.54060364	-0.6918793	-0.88720703
1451387084441209644	0.47462463	-0.6882324	-0.88352966
1451387084445573658	0.40864563	-0.70166016	-0.87864685
1451387084448869556	0.40864563	-0.73220825	-0.87864685
1451387084455552906	0.34146118	-0.73220825	-0.8688812
1451387084460649341	0.27059937	-0.7761841	-0.8517761
1451387084466569751	0.13497925	-0.8226166	-0.7943573
1451387084470842212	0.13497925	-0.8800354	-0.7943573
1451387084476274341	0.07878113	-0.8800354	-0.7589264
1451387084480913013	0.028686523	-0.87879944	-0.7210541
1451387084486101001	-0.018936157	-0.8617096	-0.68196106
1451387084491655201	-0.06536865	-0.838501	-0.6391907
1451387084495805591	-0.10568237	-0.8152771	-0.59399414
1451387084499345630	-0.14109802	-0.7969513	-0.54512024
1451387084505967945	-0.17410278	-0.784729	-0.4974823
1451387084511003345	-0.20951843	-0.7822876	-0.45350647
1451387084516069263	-0.25349426	-0.7822876	-0.41929626
1451387084521165699	-0.30358887	-0.772522	-0.3960724
1451387084526841968	-0.35490417	-0.7468567	-0.3838501
1451387084531236500	-0.40499878	-0.70166016	-0.37408447
1451387084536149830	-0.46121216	-0.63690186	-0.36064148
1451387084542009205	-0.5283966	-0.5587158	-0.33865356
1451387084546251148	-0.6139221	-0.4731903	-0.30322266
1451387084549608082	-0.6139221	-0.38768005	-0.30322266
1451387084556321949	-0.71899414	-0.38768005	-0.25190735
1451387084561326832	-0.8362732	-0.31069946	-0.18348694
1451387084566392750	-0.95965576	-0.24595642	-0.09919739
1451387084571550220	-1.0806122	-0.1897583	0.0021820068
1451387084577134937	-1.1979065	-0.13722229	0.1255951
1451387084581621021	-1.3200684	-0.08956909	0.26731873
1451387084586534351	-1.4605713	-0.04925537	0.4200287
1451387084592241138	-1.6230621	-0.017486572	0.56663513
1451387084596574634	-1.8026581	0.008163452	0.69369507
1451387084599931568	-1.9846954	0.037490845	0.7975311
1451387084606798023	-2.160614	0.07901001	0.88305664
1451387084611711353	-2.326767	0.13398743	0.96492004
1451387084616838306	-2.4782562	0.19750977	1.0577698
1451387084621934742	-2.6041107	0.26960754	1.1628418
1451387084627458423	-2.6945038	0.3551178	1.2678986
1451387084631761402	-2.7372742	0.46385193	1.3558655
1451387084636979908	-2.7275085	0.60069275	1.4181824
1451387084643174976	-2.6676483	0.76805115	1.453598
1451387084647081226	-2.5662384	0.9610901	1.4694824
1451387084650407642	-2.5662384	1.1467896	1.4694824
1451387084657121509	-2.4367218	1.1467896	1.4719238
1451387084662065357	-2.301117	1.2702026	1.4621582
1451387084667192310	-2.1764984	1.2824097	1.4425964
1451387084672105640	-2.0751038	1.1602325	1.4181824
1451387084677934498	-1.9993439	0.9158783	1.3998566
1451387084682206959	-1.9516907	0.58724976	1.3974152
1451387084687242359	-1.928482	0.23049927	1.413269
1451387084693101734	-1.9272766	-0.09933472	1.4438324
1451387084697404712	-1.9370422	-0.36323547	1.4890442
1451387084701555103	-1.9443665	-0.5379486	1.5440063
1451387084707475513	-1.9321594	-0.6149292	1.6026611
1451387084712388843	-1.9003906	-0.59536743	1.6564026
1451387084717546314	-1.8564148	-0.501297	1.6942902
1451387084722490162	-1.8160858	-0.38523865	1.7052917
1451387084728166431	-1.7806549	-0.30093384	1.684494
1451387084732560962	-1.733017	-0.26550293	1.6380768
1451387084737596363	-1.6377258	-0.24229431	1.5892181
1451387084743333668	-1.4825745	-0.14942932	1.567215
1451387084747789234	-1.2919769	0.07901001	1.594101
1451387084751024097	-1.2919769	0.4382019	1.594101
1451387084757829517	-1.1270447	0.4382019	1.6637268
1451387084762742847	-1.0366364	0.83280945	1.7443695
1451387084767930835	-1.0244141	1.1248016	1.7969055
1451387084772966236	-1.046402	1.2286377	1.803009
1451387084778459400	-1.0537262	1.166336	1.7712555
1451387084783006519	-1.0219727	1.0405121	1.7321472
1451387084788072437	-0.95477295	0.9769745	1.7199402
1451387084793840259	-0.8729248	1.0453949	1.7492676
1451387084798173755	-0.7996216	1.2310791	1.8079071
1451387084801378101	-0.74464417	1.4595642	1.868988
1451387084809190601	-0.7067566	1.6538086	1.9105377
1451387084813127369	-0.67134094	1.7796478	1.9215088
1451387084818925709	-0.6298065	1.8505096	1.904419
1451387084823198169	-0.5845947	1.9128113	1.8653259
1451387084828691334	-0.5516052	2.019104	1.8140106
1451387084833391041	-0.5320587	2.197464	1.7529144
1451387084838487476	-0.5100708	2.403946	1.6820526
1451387084843278736	-0.5100708	2.5432281	1.6051025
1451387084848375171	-0.45874023	2.5554352	1.6051025
1451387084851884693	-0.37078857	2.5554352	1.5293427
1451387084858445972	-0.26449585	2.4748077	1.4597168
1451387084863481373	-0.1667633	2.403946	1.3937378
1451387084868547291	-0.09101868	2.4027252	1.3253174
1451387084873674244	-0.029922485	2.4467163	1.2520294
1451387084879045337	0.026245117	2.468689	1.1787262
1451387084883775562	0.0836792	2.4247131	1.1078491
1451387084888658375	0.14230347	2.3184204	1.0418854
1451387084893663257	0.20095825	2.17305	0.98080444
1451387084898729175	0.25837708	2.02034	0.9270325
1451387084902086109	0.319458	1.8810577	0.8793793
1451387084908799976	0.385437	1.760086	0.83296204
1451387084913835376	0.45506287	1.6477051	0.78408813
1451387084918901294	0.52593994	1.5328674	0.7315521
1451387084924058765	0.59680176	1.4131317	0.6765747
1451387084929643482	0.670105	1.2934113	0.6215973
1451387084934129566	0.7446289	1.176117	0.56417847
1451387084939012378	0.8154907	1.0710449	0.5043335
1451387084944017261	0.8154907	0.98553467	0.5043335
1451387084949083179	0.87535095	0.98553467	0.4432373
1451387084952470630	0.91812134	0.9244385	0.38093567
1451387084959276050	0.94377136	0.88290405	0.31617737
1451387084964189380	0.95233154	0.8560333	0.24655151
1451387084969377369	0.9449768	0.83891296	0.17445374
1451387084974412769	0.9193268	0.82914734	0.102371216
1451387084980302662	0.87290955	0.82670593	0.037628174
1451387084985399097	0.80815125	0.83403015	-0.014892578
1451387084989488453	0.7250824	0.85479736	-0.05154419
1451387084994798511	0.62857056	0.88900757	-0.0723114
1451387084999589771	0.51860046	0.9219971	-0.07598877
1451387085002763599	0.39764404	0.93299866	-0.066207886
1451387085009630054	0.26937866	0.90122986	-0.04298401
1451387085014543384	0.13621521	0.81570435	-0.012451172
1451387085019700855	-0.0030822754	0.686203	0.020507813
1451387085024614185	-0.1508789	0.54447937	0.054718018
1451387085029558033	-0.29504395	0.4382019	0.08770752
1451387085034654468	-0.412323	0.40275574	0.12313843
1451387085039872974	-0.4734192	0.44184875	0.16345215
1451387085045579761	-0.47218323	0.52983093	0.2098999
1451387085049943775	-0.47218323	0.6324463	0.2098999
1451387085053697437	-0.42332458	0.6324463	0.25631714
1451387085059984058	-0.35246277	0.72039795	0.29785156
1451387085064897388	-0.28770447	0.77905273	0.32962036
1451387085070054859	-0.247406	0.81326294	0.35404968
1451387085074968189	-0.23516846	0.85113525	0.3748169
1451387085079942554	-0.2449646	0.9219971	0.3907013
1451387085085038990	-0.26449585	1.0417175	0.40046692
1451387085090043873	-0.2816162	1.1956635	0.3980255
1451387085095933765	-0.29626465	1.3544922	0.3772583
1451387085100267261	-0.31703186	1.5010986	0.33694458
1451387085103502125	-0.35612488	1.6354828	0.28562927
1451387085110338062	-0.41355896	1.7588806	0.23919678
1451387085115251392	-0.46365356	1.8431854	0.2098999
1451387085120439380	-0.4575348	1.8346252	0.19154358
1451387085125322193	-0.35124207	1.6733551	0.16712952
1451387085131273121	-0.1349945	1.3361511	0.1133728
1451387085135392994	0.15698242	0.84991455	0.022964478
1451387085140580982	0.47706604	0.2781372	-0.097976685
1451387085146348804	0.7825012	-0.30949402	-0.23114014
1451387085150560230	0.7825012	-0.8617096	-0.23114014
1451387085153886646	1.032959	-0.8617096	-0.35697937
1451387085161912769	1.0915985	-1.3357391	-0.50968933
1451387085165574878	1.0915985	-1.756012	-0.50968933
1451387085171312183	0.76049805	-1.756012	-0.49380493
1451387085175676197	0.24128723	-1.5788422	-0.40341187
1451387085181077808	-0.2791748	-1.2123413	-0.26779175
1451387085185899585	-0.6151428	-0.8348236	-0.13339233
1451387085190873951	-0.70799255	-0.59780884	-0.041778564
1451387085195756763	-0.62490845	-0.5220642	-0.018569946
1451387085200853199	-0.45265198	-0.5196228	-0.0723114
1451387085204332203	-0.22052002	-0.5293884	-0.18960571
1451387085210924000	0.086120605	-0.5990448	-0.34353638
1451387085215989918	0.46730042	-0.84703064	-0.4999237
1451387085220994800	0.8899994	-1.3430634	-0.64042664
1451387085226030201	1.3017273	-2.0504303	-0.7577057
1451387085231523365	1.6486969	-2.843338	-0.8542175
1451387085236253589	1.875946	-3.5678253	-0.9299774
1451387085241136402	1.875946	-4.1005096	-0.9299774
1451387085247026294	1.836853	-4.1005096	-1.0118103
1451387085251207203	1.836853	-4.369278	-1.0118103
1451387085254655689	1.6059418	-4.369278	-1.0203705
1451387085261278003	1.3359375	-4.133484	-1.0228119
1451387085266313404	1.1123657	-3.7168732	-1.0313721
1451387085271379322	0.9865265	-3.192749	-1.0435791
1451387085276475757	0.96698	-2.6466522	-1.0435791
1451387085282121509	1.031723	-2.1579437	-1.0154877
1451387085286577076	1.1539001	-1.7718811	-0.9543915
1451387085291490406	1.3054047	-1.4896698	-0.87132263
1451387085297319263	1.4581146	-1.2966461	-0.7894745
1451387085301652759	1.5863953	-1.1854706	-0.73205566
1451387085304918140	1.5863953	-1.1549072	-0.73205566
1451387085311754078	1.7244415	-1.1549072	-0.7405853
1451387085316667408	1.7452087	-1.291748	-0.7931366
1451387085321824878	1.7562103	-1.4139252	-0.85543823
1451387085326707691	1.7659912	-1.5336609	-0.91529846
1451387085332292408	1.7696533	-1.6252899	-0.966629
1451387085337694019	1.757431	-1.6692657	-1.0130463
1451387085341935962	1.757431	-1.6533813	-1.0130463
1451387085347154468	1.7207947	-1.6533813	-1.0545807
1451387085352006763	1.6658173	-1.5727539	-1.0887909
1451387085355272144	1.6120453	-1.4334717	-1.1083374
1451387085362077564	1.5778351	-1.2489929	-1.0985718
1451387085366929859	1.5668488	-1.0339661	-1.0545807
1451387085372178882	1.5680695	-0.8079376	-0.9861603
1451387085377061695	1.5680695	-0.60025024	-0.91285706
1451387085382890552	1.5595093	-0.45121765	-0.8456726
1451387085387163013	1.5473022	-0.38156128	-0.7857971
1451387085392289966	1.5411835	-0.37911987	-0.7259369
1451387085398027271	1.5473022	-0.40844727	-0.66363525
1451387085402391285	1.5619507	-0.44509888	-0.60743713
1451387085406267017	1.574173	-0.4829712	-0.56222534
1451387085412462085	1.5802765	-0.5367279	-0.5292511
1451387085417375416	1.5778351	-0.61125183	-0.5035858
1451387085422532886	1.5692902	-0.69921875	-0.48036194
1451387085427446216	1.552185	-0.7798462	-0.45715332
1451387085433305591	1.5253143	-0.8348236	-0.4363861
1451387085437517017	1.5253143	-0.84703064	-0.4363861
1451387085442552418	1.4886627	-0.84703064	-0.42538452
1451387085448411793	1.3835907	-0.811615	-0.4522705
1451387085452745289	1.3835907	-0.619812	-0.4522705
1451387085456010669	1.3249359	-0.619812	-0.49015808
1451387085462785572	1.2736359	-0.4976349	-0.53289795
1451387085467729419	1.2296448	-0.38768005	-0.57688904
1451387085472886890	1.1881104	-0.30825806	-0.62210083
1451387085477800220	1.1465759	-0.26306152	-0.6709595
1451387085483537525	1.1026001	-0.24595642	-0.7222595
1451387085487871021	1.0537262	-0.25083923	-0.7711487
1451387085492936939	1.0036316	-0.27160645	-0.8126831
1451387085498796314	0.95477295	-0.30093384	-0.84199524
1451387085502946705	0.9107666	-0.33146667	-0.85665894
1451387085506364673	0.9107666	-0.36323547	-0.85665894
1451387085514268726	0.82403564	-0.36323547	-0.83955383
1451387085518083423	0.7825012	-0.46220398	-0.8102417
1451387085523759693	0.7495117	-0.5330658	-0.7711487
1451387085528276294	0.7250824	-0.60269165	-0.72717285
1451387085533189625	0.7250824	-0.6601105	-0.6831665
1451387085538347095	0.7067566	-0.6601105	-0.6831665
1451387085543290943	0.68963623	-0.70043945	-0.65019226
1451387085548997730	0.6713104	-0.72732544	-0.63186646
1451387085553331226	0.6517792	-0.75175476	-0.62698364
1451387085556871265	0.6346588	-0.7810669	-0.63186646
1451387085563402027	0.6212311	-0.8164978	-0.64530945
1451387085568437427	0.6065674	-0.85194397	-0.66363525
1451387085573472828	0.5870209	-0.87635803	-0.6807251
1451387085578599781	0.56015015	-0.8873596	-0.69540405
1451387085584245533	0.52716064	-0.891037	-0.7051697
1451387085588701099	0.48562622	-0.8983612	-0.7124939
1451387085593614429	0.4330902	-0.91789246	-0.71617126
1451387085599443287	0.37077332	-0.9545593	-0.71372986
1451387085603685230	0.30358887	-1.008316	-0.7014923
1451387085607133716	0.30358887	-1.069397	-0.7014923
1451387085613725513	0.18383789	-1.069397	-0.6465149
1451387085618760914	0.13621521	-1.1549072	-0.60865784
1451387085623826832	0.09466553	-1.162262	-0.5707855
1451387085628862232	0.05557251	-1.1524658	-0.53533936
1451387085634446949	0.009155273	-1.1390228	-0.4999237
1451387085639024585	0.009155273	-1.1329346	-0.4999237
1451387085643968433	-0.047042847	-1.1329346	-0.4657135
1451387085649797291	-0.11178589	-1.135376	-0.43270874
1451387085654161304	-0.1789856	-1.1414948	-0.40705872
1451387085657396168	-0.247406	-1.1402588	-0.38996887
1451387085664201587	-0.30970764	-1.121933	-0.3789673
1451387085669175953	-0.36590576	-1.0791626	-0.3679657
1451387085674302906	-0.412323	-1.0144196	-0.35453796
1451387085679155201	-0.45265198	-0.9386749	-0.33865356
1451387085684770435	-0.4966278	-0.86047363	-0.32521057
1451387085690263599	-0.5503845	-0.7871704	-0.31666565
1451387085694413990	-0.6151428	-0.7236481	-0.30932617
1451387085699601978	-0.69210815	-0.67723083	-0.29344177
1451387085704484791	-0.7873993	-0.6491394	-0.26657104
1451387085707750171	-0.7873993	-0.63446045	-0.26657104
1451387085714586109	-1.0415192	-0.63446045	-0.17982483
1451387085719407886	-1.1954651	-0.5758209	-0.11752319
1451387085724656910	-1.361618	-0.526947	-0.036895752
1451387085729570240	-1.361618	-0.4915161	0.0644989
1451387085734514087	-1.5363159	-0.4915161	0.0644989
1451387085739641041	-1.7183533	-0.487854	0.18666077
1451387085744767994	-1.9003906	-0.5086212	0.32962036
1451387085750535816	-2.073883	-0.5391693	0.49577332
1451387085754899830	-2.2327118	-0.5648346	0.6802521
1451387085758317798	-2.3695374	-0.580719	0.8757324
1451387085764909595	-2.4758148	-0.5733795	1.0699768
1451387085769853443	-2.5417938	-0.5196228	1.2507935
1451387085775010914	-2.5576782	-0.3913269	1.4047394
1451387085779924244	-2.524704	-0.18363953	1.5293427
1451387085784868091	-2.4538422	0.0741272	1.6246338
1451387085789995044	-2.36586	0.32214355	1.6930542
1451387085795152515	-2.2779083	0.49682617	1.7297058
1451387085800889820	-2.1936188	0.5701294	1.7272644
1451387085805223316	-2.109314	0.5591583	1.68573
1451387085808519214	-2.109314	0.5115051	1.68573
1451387085815263599	-1.9443665	0.5115051	1.5647736
1451387085820207447	-1.8796234	0.43086243	1.5207977
1451387085825364918	-1.8405304	0.39665222	1.493927
1451387085830278248	-1.8405304	0.350235	1.493927
1451387085835954517	-1.8356476	0.350235	1.4890442
1451387085840318531	-1.8356476	0.17796326	1.4890442
1451387085845384449	-1.8441925	0.17796326	1.5073547
1451387085851091236	-1.8466339	0.027709961	1.53302
1451387085856675953	-1.8429718	-0.1714325	1.5598907
1451387085866655201	-1.838089	-0.60513306	1.5965424
1451387085870530933	-1.8466339	-0.7651825	1.6051025
1451387085876024097	-1.8625183	-0.8702698	1.607544
1451387085880754322	-1.8710632	-0.93621826	1.5989838
1451387085885606617	-1.8527374	-0.97654724	1.5757751
1451387085890794605	-1.7977753	-0.9875488	1.5366821
1451387085895738453	-1.7097931	-0.96066284	1.4853668
1451387085901414722	-1.6010742	-0.8873596	1.4303894
1451387085905809253	-1.4752197	-0.7651825	1.3864136
1451387085909166187	-1.4752197	-0.5831604	1.3864136
1451387085915910572	-1.1563721	-0.5831604	1.4377136
1451387085920945972	-0.9877777	0.013046265	1.5574493
1451387085925920337	-0.9877777	0.3710022	1.5574493
1451387085930955738	-0.8533783	0.3710022	1.7052917
1451387085936815113	-0.7544098	0.6556549	1.8983002
1451387085941179126	-0.7544098	0.78393555	1.8983002
1451387085946122974	-0.7641754	0.78393555	1.9080963
1451387085951921314	-0.77397156	0.7008667	1.8872986
1451387085956132740	-0.761734	0.6226654	1.8653259
1451387085959550709	-0.72387695	0.60801697	1.8531036
1451387085966234058	-0.66889954	0.6825409	1.8470001
1451387085971238941	-0.6163635	0.8377075	1.8372192
1451387085976304859	-0.58703613	1.0405121	1.8127899
1451387085981340259	-0.5980377	1.2543182	1.763916
1451387085987077564	-0.64689636	1.4534454	1.684494
1451387085991533130	-0.7067566	1.6159363	1.5745544
1451387085996446460	-0.75076294	1.70755	1.441391
1451387086002305835	-0.7666321	1.7161102	1.2960052
1451387086006639332	-0.76052856	1.6855774	1.1481628
1451387086009874195	-0.76052856	1.695343	1.1481628
1451387086016710132	-0.71899414	1.695343	0.87449646
1451387086021623462	-0.6859894	1.954361	0.7572174
1451387086026780933	-0.6859894	2.1180725	0.7572174
1451387086032853931	-0.583374	2.1180725	0.57518005
1451387086037340015	-0.583374	2.32576	0.57518005
1451387086042589039	-0.517395	2.32576	0.5092163
1451387086046769947	-0.43676758	2.364853	0.45544434
1451387086052141041	-0.33903503	2.3489685	0.4065857
1451387086056993335	-0.22419739	2.2756805	0.3601532
1451387086060228199	-0.1007843	2.1559296	0.31373596
1451387086067033619	0.020141602	2.0129852	0.26852417
1451387086071977466	0.13131714	1.8676147	0.22210693
1451387086077134937	0.23516846	1.7295532	0.1756897
1451387086082048267	0.332901	1.5939484	0.12924194
1451387086087846607	0.42697144	1.451004	0.08404541
1451387086092119068	0.51371765	1.2982941	0.04373169
1451387086097276539	0.59191895	1.1394653	0.005859375
1451387086103044361	0.66278076	0.9867401	-0.028335571
1451387086107377857	0.736084	0.85235596	-0.057662964
1451387086110643238	0.736084	0.7424011	-0.057662964
1451387086117448658	0.88391113	0.7424011	-0.09307861
1451387086122331470	0.88391113	0.5835724	-0.09307861
1451387086127519459	0.94132996	0.5835724	-0.09185791
1451387086132402271	0.980423	0.5310364	-0.078430176
1451387086137407154	0.9987488	0.49562073	-0.057662964
1451387086142473072	0.9987488	0.4724121	-0.034454346
1451387086147661060	0.979187	0.45040894	-0.010025024
1451387086153367847	0.94377136	0.41741943	0.013183594
1451387086157701343	0.89979553	0.3587799	0.037628174
1451387086160936207	0.8533478	0.2646942	0.053512573
1451387086167802662	0.8130493	0.12786865	0.054718018
1451387086172685474	0.7776184	-0.050476074	0.033950806
1451387086177842945	0.7495117	-0.25450134	-0.011230469
1451387086182756275	0.72628784	-0.4573059	-0.07598877
1451387086188432544	0.709198	-0.6283417	-0.15171814
1451387086192827076	0.6981964	-0.7407532	-0.2323761
1451387086199174732	0.6908722	-0.7737427	-0.31056213
1451387086203630298	0.6847534	-0.72976685	-0.3789673
1451387086209031910	0.67375183	-0.62957764	-0.4315033
1451387086219041675	0.6065674	-0.5000763	-0.45350647
1451387086223008960	0.6065674	-0.23129272	-0.45350647
1451387086228135914	0.54182434	-0.23129272	-0.41194153
1451387086233232349	0.45629883	-0.111572266	-0.34109497
1451387086238969654	0.3500061	-0.015045166	-0.2507019
1451387086243181080	0.22784424	0.049697876	-0.16027832
1451387086248216480	0.09710693	0.081451416	-0.08087158
1451387086254014820	-0.04460144	0.097335815	-0.01977539
1451387086258317798	-0.20095825	0.113220215	0.021743774
1451387086261796802	-0.38545227	0.14253235	0.042510986
1451387086268388599	-0.6004791	0.19262695	0.044952393
1451387086273362964	-0.8325958	0.27204895	0.03274536
1451387086278428882	-1.0488434	0.37832642	0.008300781
1451387086283616871	-1.1979065	0.48706055	-0.03565979
1451387086289323658	-1.2235565	0.5408325	-0.11140442
1451387086293657154	-1.0928345	0.48094177	-0.22625732
1451387086298570484	-0.8081665	0.2756958	-0.37408447
1451387086303544849	-0.41844177	-0.071243286	-0.54389954
1451387086308641285	-0.0030822754	-0.5025177	-0.7418213
1451387086312120289	-0.0030822754	-0.8983612	-0.7418213
1451387086318712085	0.3536682	-0.8983612	-0.97883606
1451387086323747486	0.56747437	-1.081604	-1.2512817
1451387086328782886	0.56381226	-0.90200806	-1.5164032
1451387086333818287	0.2840271	-0.3730011	-1.6911163
1451387086339586109	-0.28649902	0.26348877	-1.6715546
1451387086344011158	-1.0354004	0.6263428	-1.375885
1451387086348924488	-1.698822	0.41131592	-0.8163452
1451387086353868335	-1.9785767	-0.4206543	-0.12973022
1451387086358995289	-1.77211	-1.6032867	0.47621155
1451387086362504810	-1.2699738	-2.7236176	0.84762573
1451387086369188160	-0.8032837	-3.4749756	0.9612427
1451387086375047535	-0.57481384	-3.7865143	0.9001465
1451387086379289478	-0.5418396	-3.7669678	0.7645569
1451387086385087818	-0.5210724	-3.5824738	0.59350586
1451387086389787525	-0.36712646	-3.4004517	0.3723755
1451387086394944996	-0.06048584	-3.373581	0.09138489
1451387086399400562	0.32069397	-3.5751495	-0.22869873
1451387086404283375	0.67866516	-3.9257965	-0.5341339
1451387086409471363	0.95477295	-4.248337	-0.78215027
1451387086412706226	0.95477295	-4.4071503	-0.78215027
1451387086419542164	1.1343536	-4.4071503	-0.95562744
1451387086425462574	1.263855	-4.3937073	-1.1498718
1451387086429490894	1.263855	-4.16037	-1.1498718
1451387086434526294	1.2589722	-4.16037	-1.2268524
1451387086440263599	1.2394257	-4.0259705	-1.3123627
1451387086444597095	1.2296448	-3.8512573	-1.3991089
1451387086449785084	1.2479706	-3.6069183	-1.4504242
1451387086455430835	1.2956238	-3.3039246	-1.4272156
1451387086459825367	1.3640289	-2.9801788	-1.3123627
1451387086463060230	1.4361267	-2.678421	-1.1291046
1451387086469926685	1.4947662	-2.4438477	-0.92141724
1451387086474809498	1.5301971	-2.3314514	-0.7283783
1451387086479966968	1.5375214	-2.3864288	-0.55978394
1451387086484880298	1.5277557	-2.6026764	-0.41929626
1451387086490739673	1.5094299	-2.9154358	-0.31420898
1451387086494951099	1.4837799	-3.2306213	-0.26411438
1451387086500108570	1.4483337	-3.463974	-0.28367615
1451387086505906910	1.3970337	-3.551941	-0.3679657
1451387086510179371	1.3237305	-3.4664307	-0.4950409
1451387086513414234	1.3237305	-3.2208557	-0.4950409
1451387086520250171	1.224762	-3.2208557	-0.63674927
1451387086525163501	1.1038055	-2.8763428	-0.76626587
1451387086530320972	0.9767456	-2.5269165	-0.8639984
1451387086535234302	0.86190796	-2.2556915	-0.9226227
1451387086540178150	0.77638245	-2.1078796	-0.94706726
1451387086545305103	0.7312012	-2.0785522	-0.9543915
1451387086550248951	0.7250824	-2.1286469	-0.95806885
1451387086556321949	0.748291	-2.2239227	-0.96051025
1451387086561174244	0.78616333	-2.3424225	-0.9568329
1451387086563768238	0.82403564	-2.463379	-0.9409485
1451387086570970386	0.8509064	-2.5660248	-0.91529846
1451387086575517505	0.85458374	-2.6332092	-0.8847656
1451387086580766529	0.83992004	-2.664978	-0.8542175
1451387086585710376	0.82403564	-2.6625366	-0.8187866
1451387086590501636	0.82281494	-2.6307678	-0.7735901
1451387086595781177	0.83869934	-2.5806732	-0.7222595
1451387086600663990	0.8667908	-2.5256958	-0.6758423
1451387086605668873	0.8985596	-2.471939	-0.6416321
1451387086610795826	0.92788696	-2.4096375	-0.62086487
1451387086614122242	0.92788696	-2.3338928	-0.62086487
1451387086620866626	0.953537	-2.3338928	-0.60498047
1451387086625902027	0.97554016	-2.249588	-0.59033203
1451387086630876392	0.9877472	-2.161621	-0.57810974
1451387086636033863	0.9828644	-2.0711975	-0.57566833
1451387086641801685	0.95965576	-1.9820251	-0.58543396
1451387086646165699	0.91812134	-1.8903961	-0.60987854
1451387086651048511	0.86434937	-1.7938843	-0.6440735
1451387086657090992	0.800827	-1.6912537	-0.6892853
1451387086661119312	0.7336426	-1.5886383	-0.7528229
1451387086664567798	0.668869	-1.5055542	-0.834671
1451387086671342701	0.6114502	-1.4627991	-0.92630005
1451387086676225513	0.56259155	-1.4664612	-1.0093689
1451387086681260914	0.51493835	-1.5031128	-1.0704651
1451387086686448902	0.46606445	-1.5495453	-1.1083374
1451387086692155689	0.412323	-1.5800781	-1.131546
1451387086696519703	0.35610962	-1.5788422	-1.144989
1451387086701402515	0.2962494	-1.5483093	-1.1547546
1451387086706407398	0.23760986	-1.4994507	-1.1596375
1451387086711473316	0.23760986	-1.4530182	-1.1596375
1451387086714982837	0.18263245	-1.4530182	-1.1608734
1451387086721666187	0.13621521	-1.4212494	-1.1559906
1451387086727342457	0.102005005	-1.4041595	-1.1413116
1451387086731767505	0.08000183	-1.3980408	-1.1071167
1451387086737077564	0.0690155	-1.3968353	-1.0460205
1451387086741624683	0.06413269	-1.3968353	-0.95562744
1451387086747484058	0.058013916	-1.3943634	-0.84199524
1451387086751848072	0.042129517	-1.3870392	-0.7222595
1451387086756975025	0.010360718	-1.3735962	-0.60987854
1451387086761979908	-0.042160034	-1.3613892	-0.51457214
1451387086765184253	-0.1166687	-1.352829	-0.44615173
1451387086771989673	-0.20587158	-1.3418274	-0.4046173
1451387086776933521	-0.30238342	-1.3222961	-0.38508606
1451387086782121509	-0.40377808	-1.2954102	-0.3826294
1451387086786973804	-0.5076294	-1.266098	-0.39117432
1451387086792955250	-0.61268616	-1.2343292	-0.40950012
1451387086797075123	-0.7140808	-1.201355	-0.43270874
1451387086802202076	-0.8130646	-1.173233	-0.45715332
1451387086807847828	-0.91200256	-1.1524658	-0.47547913
1451387086812303394	-0.91200256	-1.1390228	-0.47547913
1451387086815446705	-1.0146332	-1.1390228	-0.48036194
1451387086822404712	-1.1172638	-1.1292572	-0.4632721
1451387086827287525	-1.2211151	-1.1182556	-0.42538452
1451387086832475513	-1.3359528	-1.109726	-0.366745
1451387086837388843	-1.4715729	-1.1072845	-0.29223633
1451387086842363209	-1.6267242	-1.1072845	-0.19448853
1451387086847429126	-1.777008	-1.1036072	-0.06010437
1451387086852556080	-1.8930664	-1.0852814	0.1255951
1451387086858354419	-1.9626923	-1.0535126	0.35282898
1451387086862657398	-2.0103455	-1.0205231	0.59228516
1451387086865861744	-2.0726624	-1.0046539	0.8097534
1451387086872789234	-2.1716156	-1.0021973	0.98324585
1451387086877641529	-2.2986755	-1.0046539	1.1151886
1451387086882676929	-2.4269562	-1.0058746	1.2190247
1451387086887895435	-2.5466766	-1.016861	1.3106537
1451387086893419117	-2.6578522	-1.042511	1.3986206
1451387086897935718	-2.7653656	-1.0718384	1.4829254
1451387086903856128	-2.855774	-1.0840454	1.5562286
1451387086907792896	-2.855774	-1.0657196	1.5562286
1451387086913316578	-2.91687	-1.0657196	1.645401
1451387086916246265	-2.91687	-0.97776794	1.645401
1451387086924455494	-2.7922516	-0.97776794	1.6368713
1451387086927995533	-2.7922516	-0.97042847	1.6368713
1451387086933183521	-2.6920624	-0.97042847	1.594101
1451387086938188404	-2.597992	-1.0522919	1.5256805
1451387086943986744	-2.5259094	-1.2074432	1.441391
1451387086948228687	-2.4672852	-1.418808	1.3546448
1451387086953142017	-2.4000702	-1.6607056	1.2874451
1451387086958909839	-2.31456	-1.9001617	1.2532349
1451387086963273853	-2.2253723	-2.1029663	1.2630157
1451387086966722339	-2.1581726	-2.2398071	1.3118744
1451387086973344654	-2.1312866	-2.2972412	1.387619
1451387086978319019	-2.1374054	-2.2923431	1.4633636
1451387086983354419	-2.1532898	-2.2556915	1.5171356
1451387086988542408	-2.1435242	-2.205597	1.5379028
1451387086994249195	-2.068985	-2.1127625	1.541565
1451387086998643726	-1.9101563	-1.8989563	1.567215
1451387087003526539	-1.9101563	-1.4933319	1.66008
1451387087009477466	-1.4911041	-0.9093628	1.8359985
1451387087013597339	-1.4911041	-0.28138733	1.8359985
1451387087016954273	-1.3640594	-0.28138733	2.0595703
1451387087023668140	-1.309082	0.19873047	2.2648315
1451387087028703541	-1.2699738	0.4088745	2.4053345
1451387087033891529	-1.1905823	0.39543152	2.4786377
1451387087038774341	-1.0684052	0.32214355	2.5067291
1451387087043748707	-0.93888855	0.33555603	2.5128326
1451387087048875660	-0.8325958	0.45896912	2.5042877
1451387087054002613	-0.7519684	0.6251221	2.4786377
1451387087059800953	-0.67866516	0.77537537	2.4309845
1451387087063951343	-0.60536194	0.90489197	2.3613281
1451387087067460865	-0.54060364	1.0417175	2.2794952
1451387087074144214	-0.49542236	1.1981049	2.2049713
1451387087079759449	-0.47097778	1.3703613	2.1560822
1451387087084245533	-0.45874023	1.5377502	2.135315
1451387087089799732	-0.45385742	1.6843414	2.1255493
1451387087095048755	-0.45509338	1.8040924	2.1011047
1451387087099931568	-0.46121216	1.9164734	2.0461426
1451387087104387134	-0.45874023	2.0520935	1.970398
1451387087109361500	-0.45874023	2.2170258	1.970398
1451387087114457935	-0.4440918	2.2170258	1.8872986
1451387087117662281	-0.412323	2.378296	1.8054657
1451387087124498218	-0.36346436	2.496811	1.7272644
1451387087129411548	-0.29138184	2.5554352	1.6502838
1451387087134569019	-0.19242859	2.5591125	1.5782166
1451387087139482349	-0.070251465	2.5175781	1.5110168
1451387087144456714	0.06413269	2.429596	1.4425964
1451387087149583668	0.19851685	2.2927704	1.3644104
1451387087154710621	0.3267975	2.124176	1.2727966
1451387087160386890	0.44773865	1.9555664	1.1713715
1451387087164781421	0.5576935	1.8162994	1.0626526
1451387087167985767	0.5576935	1.7136688	0.9526825
1451387087174852222	0.7336426	1.7136688	0.8439636
1451387087179735035	0.7959442	1.5585175	0.7449951
1451387087184953541	0.83503723	1.4986572	0.65704346
1451387087189836353	0.85580444	1.4620056	0.57273865
1451387087195512623	0.8655853	1.4534454	0.48721313
1451387087199907154	0.8655853	1.4693298	0.3980255
1451387087205064625	0.874115	1.5059814	0.3980255
1451387087210832447	0.89611816	1.5059814	0.23919678
1451387087215135425	0.89611816	1.5976105	0.23919678
1451387087218370289	0.90223694	1.5976105	0.17445374
1451387087225206226	0.90467834	1.6208191	0.114593506
1451387087230028003	0.90223694	1.6208191	0.054718018
1451387087235338062	0.89611816	1.603714	-2.593994E-4
1451387087240190357	0.88635254	1.5658417	-0.045440674
1451387087245225757	0.8692322	1.5010986	-0.078430176
1451387087250261158	0.84114075	1.4021301	-0.09307861
1451387087256395191	0.7996063	1.2799683	-0.09063721
1451387087261033863	0.736084	1.1528931	-0.0710907
1451387087265886158	0.64445496	1.0356293	-0.04298401
1451387087268724293	0.64445496	0.9342041	-0.04298401
1451387087275712818	0.3939972	0.9342041	0.014419556
1451387087280443043	0.26937866	0.83280945	0.04006958
1451387087285539478	0.17042542	0.87924194	0.060836792
1451387087290696949	0.102005005	1.0148621	0.074279785
1451387087296251148	0.061676025	1.2213135	0.081604004
1451387087300737232	0.061676025	1.4534454	0.08404541
1451387087305620044	0.044570923	1.6635742	0.08404541
1451387087310624927	0.04336548	1.6635742	0.08404541
1451387087315721363	0.0519104	1.8211823	0.08404541
1451387087319078296	0.06413269	1.914032	0.08404541
1451387087325792164	0.070236206	1.9347992	0.08282471
1451387087330827564	0.06413269	1.8859406	0.077941895
1451387087335862964	0.045806885	1.7833252	0.069381714
1451387087341050953	0.014038086	1.6611328	0.05961609
1451387087346635669	-0.033599854	1.5499573	0.054718018
1451387087350969166	-0.10446167	1.4827728	0.054718018
1451387087356004566	-0.20339966	1.4827728	0.0632782
1451387087361436695	-0.32315063	1.556076	0.08648682
1451387087366105884	-0.4330902	1.6757965	0.1255951
1451387087369584888	-0.4330902	1.7906494	0.1255951
1451387087376146168	-0.38789368	1.7906494	0.20866394
1451387087381151050	-0.12522888	1.6648102	0.21842957
1451387087386247486	0.2986908	1.2714081	0.18301392
1451387087391374439	0.8313751	0.6251221	0.08282471
1451387087397142261	1.4019165	-0.22640991	-0.1040802
1451387087401475757	1.4019165	-1.186676	-0.1040802
1451387087406358570	1.9272461	-1.186676	-0.3972931
1451387087412095875	2.2913208	-2.110321	-0.8041229
1451387087416429371	2.364624	-2.8018036	-1.3099213
1451387087419786304	2.0579834	-3.04982	-1.8596954
1451387087426500171	1.3909149	-2.7150574	-2.34227
1451387087432115406	0.4807434	-1.8403015	-2.5976105
1451387087436723560	-0.5198364	-0.6784363	-2.4852295
1451387087441758960	-1.4312439	0.3771057	-1.9696655
1451387087446611255	-2.0250092	0.9549713	-1.1889648
1451387087451585621	-2.1068726	0.87068176	-0.40829468
1451387087456834644	-1.6804657	0.21951294	0.1133728
1451387087462236255	-1.0036469	-0.6784363	0.27220154
1451387087466935962	-0.40377808	-1.4786682	0.15124512
1451387087470140308	-0.40377808	-1.9905853	0.15124512
1451387087476945728	0.13986206	-1.9905853	-0.32398987
1451387087481859058	0.3023529	-2.2703552	-0.55122375
1451387087487108082	0.54792786	-2.3118896	-0.7857971
1451387087491960376	0.8826752	-2.4621735	-1.0264893
1451387087496995777	0.8826752	-2.7663727	-1.0264893
1451387087502061695	1.2333221	-2.7663727	-1.2427368
1451387087507188648	1.4984283	-3.1487732	-1.3978882
1451387087512559742	1.6010437	-3.455429	-1.4748688
1451387087517289966	1.5289764	-3.5556183	-1.4895172
1451387087520402759	1.3322754	-3.4065552	-1.4773102
1451387087527299732	1.0915985	-3.048584	-1.4638672
1451387087532213062	0.8814697	-2.5611115	-1.456543
1451387087537431568	0.7458496	-2.0125732	-1.4479828
1451387087542314380	0.69454956	-1.4615784	-1.4174194
1451387087548356861	0.721405	-0.95210266	-1.3539124
1451387087552385181	0.82159424	-0.5232849	-1.2525024
1451387087557512134	0.98898315	-0.1897583	-1.1254425
1451387087563188404	1.2137604	0.04725647	-0.9910431
1451387087567491382	1.4678955	0.18406677	-0.8676605
1451387087570848316	1.4678955	0.20851135	-0.8676605
1451387087577684253	1.9113617	0.20851135	-0.70028687
1451387087582597584	2.0494232	-0.041931152	-0.65875244
1451387087587755054	2.1251678	-0.20930481	-0.6416321
1451387087592790455	2.1447296	-0.33270264	-0.64775085
1451387087599321216	2.120285	-0.40356445	-0.6807251
1451387087602739185	2.120285	-0.43533325	-0.6807251
1451387087608842701	1.9871216	-0.43533325	-0.8102417
1451387087613664478	1.9871216	-0.3754425	-0.8102417
1451387087618455738	1.8979187	-0.3754425	-0.89086914
1451387087621202320	1.8002014	-0.28993225	-0.9702759
1451387087627916187	1.697586	-0.20684814	-1.0374756
1451387087632951587	1.6034851	-0.1555481	-1.0839081
1451387087638017505	1.5289764	-0.14454651	-1.1119995
1451387087643144459	1.4739838	-0.15310669	-1.1376648
1451387087648515552	1.4348907	-0.1555481	-1.171875
1451387087653245777	1.4067993	-0.13722229	-1.2121735
1451387087658098072	1.3884735	-0.09812927	-1.2390594
1451387087663163990	1.3872375	-0.05291748	-1.2317352
1451387087668199390	1.4080353	-0.02116394	-1.184082
1451387087671556324	1.4080353	-0.02482605	-1.184082
1451387087678270191	1.4886627	-0.02482605	-1.0325928
1451387087683305591	1.5167542	-0.18608093	-0.9751587
1451387087688371509	1.521637	-0.34124756	-0.9409485
1451387087693467945	1.521637	-0.5245056	-0.9165344
1451387087698900074	1.4947662	-0.5245056	-0.8823242
1451387087703660816	1.4947662	-0.8751526	-0.8823242
1451387087708513111	1.4849854	-0.8751526	-0.8358917
1451387087714403003	1.4813385	-0.99731445	-0.7833557
1451387087718583912	1.4776611	-1.0522919	-0.7381439
1451387087721940845	1.4666595	-1.0241852	-0.7149353
1451387087728654712	1.4471283	-0.91789246	-0.7198181
1451387087733568043	1.4190063	-0.7602997	-0.7515869
1451387087738725513	1.3823547	-0.5831604	-0.8041229
1451387087743852466	1.3371582	-0.4096527	-0.8688812
1451387087749406666	1.2834015	-0.26428223	-0.9360657
1451387087754014820	1.2284393	-0.17019653	-1.0008392
1451387087758836597	1.1746674	-0.14334106	-1.0619049
1451387087763780445	1.1233673	-0.18363953	-1.118103
1451387087768937916	1.072052	-0.27404785	-1.1681976
1451387087772447437	1.072052	-0.3913269	-1.1681976
1451387087779130787	0.96209717	-0.3913269	-1.2329559
1451387087784593433	0.90467834	-0.6466675	-1.2451782
1451387087789232105	0.84358215	-0.75175476	-1.2488251
1451387087794206470	0.84358215	-0.8274994	-1.2488251
1451387087799150318	0.7812805	-0.8274994	-1.2476196
1451387087804185718	0.7165222	-0.8751526	-1.2476196
1451387087809373707	0.6542206	-0.90812683	-1.2463837
1451387087814897388	0.59680176	-0.93133545	-1.237854
1451387087819444507	0.54182434	-0.94111633	-1.2158508
1451387087823839039	0.48562622	-0.93133545	-1.1816406
1451387087829515308	0.42941284	-0.9069214	-1.1364288
1451387087834337085	0.37199402	-0.87635803	-1.0851288
1451387087839555591	0.3121338	-0.84703064	-1.0301514
1451387087844438404	0.25105286	-0.82870483	-0.97151184
1451387087849473804	0.19119263	-0.8201752	-0.90797424
1451387087854509205	0.13497925	-0.8177185	-0.83955383
1451387087859575123	0.0836792	-0.8079376	-0.7674713
1451387087865098804	0.038467407	-0.7786255	-0.6941681
1451387087869798511	-0.0055236816	-0.7309723	-0.61964417
1451387087872972339	-0.0055236816	-0.6747894	-0.61964417
1451387087879869312	-0.08979797	-0.6747894	-0.46939087
1451387087884721607	-0.1325531	-0.57948303	-0.39241028
1451387087889970630	-0.1789856	-0.5562744	-0.31788635
1451387087894792408	-0.1789856	-0.5599365	-0.31788635
1451387087900529712	-0.23640442	-0.5599365	-0.20425415
1451387087904893726	-0.30603027	-0.619812	-0.20425415
1451387087910051197	-0.3939972	-0.619812	-0.17738342
1451387087915422291	-0.5003052	-0.63690186	-0.17004395
1451387087920183033	-0.62857056	-0.61857605	-0.17004395
1451387087923387378	-0.7800598	-0.5648346	-0.16760254
1451387087930223316	-0.95721436	-0.49519348	-0.15415955
1451387087935106128	-1.151474	-0.42799377	-0.12606812
1451387087940141529	-1.3554993	-0.36935425	-0.08087158
1451387087945299000	-1.5558624	-0.30825806	-0.012451172
1451387087951677173	-1.7403564	-0.2349701	0.090148926
1451387087955400318	-1.9016113	-0.16043091	0.24043274
1451387087961168140	-2.0457764	-0.09933472	0.43467712
1451387087966081470	-2.1801758	-0.05659485	0.649704
1451387087970506519	-2.3121185	-0.023605347	0.84762573
1451387087973680347	-2.3121185	0.0118255615	0.84762573
1451387087980302662	-2.589447	0.0118255615	1.1273956
1451387087985429615	-2.589447	0.14619446	1.2239075
1451387087990465015	-2.7323914	0.14619446	1.2239075
1451387087995622486	-2.850891	0.26593018	1.3069916
1451387088000963062	-2.9131927	0.4259796	1.3790741
1451387088005723804	-2.9021912	0.6263428	1.4340668
1451387088010637134	-2.8215637	0.87190247	1.4658203
1451387088015642017	-2.6932983	1.1638947	1.4731598
1451387088020677418	-2.5393524	1.4876556	1.4633636
1451387088024064869	-2.3817444	1.801651	1.4462738
1451387088030748218	-2.2363586	2.0398712	1.4328308
1451387088035783619	-2.1190796	2.1449432	1.4316254
1451387088040849537	-2.0372314	2.0924072	1.4499512
1451387088046007007	-1.9969025	1.900589	1.4914856
1451387088051408619	-1.994461	1.6183777	1.55867
1451387088056108326	-2.020111	1.3043976	1.645401
1451387088060960621	-2.056778	1.0099487	1.7443695
1451387088066087574	-2.0897522	0.7607269	1.8421173
1451387088071061939	-2.1117554	0.5628052	1.9239807
1451387088074418873	-2.1117554	0.4052124	1.9239807
1451387088081285328	-2.095871	0.4052124	2.0143738
1451387088086168140	-2.095871	0.14619446	2.0143738
1451387088091386646	-2.0506592	0.14619446	2.031479
1451387088096361011	-1.9798126	0.032608032	2.031479
1451387088102067798	-1.8930664	-0.06880188	2.0046082
1451387088106462330	-1.8014374	-0.16043091	1.943512
1451387088111314625	-1.7049103	-0.23373413	1.8604431
1451387088118089527	-1.5827484	-0.24229431	1.763916
1451387088121415943	-1.4153595	-0.1103363	1.763916
1451387088124925464	-1.2137909	0.21583557	1.803009
1451387088131608814	-1.0280762	0.6959839	1.8958588
1451387088136796802	-0.90956116	1.1968842	2.0046082
1451387088141679615	-0.8729248	1.5634003	2.0901184
1451387088146562427	-0.8875885	1.708786	2.131668
1451387088151597828	-0.9034729	1.6550293	2.1414337
1451387088156633228	-0.88635254	1.4925385	2.1511993
1451387088161821216	-0.827713	1.3373871	2.1866455
1451387088167680591	-0.74220276	1.2860718	2.2526093
1451387088171892017	-0.65057373	1.3801422	2.328354
1451387088176164478	-0.65057373	1.5756226	2.328354
1451387088181993335	-0.517395	1.5756226	2.393097
1451387088186845630	-0.517395	1.9714508	2.393097
1451387088192094654	-0.48562622	1.9714508	2.3613281
1451387088196946949	-0.47709656	2.1339417	2.3027039
1451387088201982349	-0.49295044	2.3013306	2.22818
1451387088206987232	-0.52471924	2.4674835	2.1475525
1451387088212205738	-0.5516052	2.600647	2.0583496
1451387088217576832	-0.55404663	2.683731	1.956955
1451387088222276539	-0.5235138	2.7301483	1.8457642
1451387088225480884	-0.46730042	2.7729187	1.7309418
1451387088232316822	-0.39888	2.8315582	1.6148682
1451387088237199634	-0.33169556	2.8963013	1.4988098
1451387088242418140	-0.26937866	2.9488373	1.3802948
1451387088247270435	-0.20339966	2.9781647	1.2630157
1451387088252366871	-0.122787476	2.9818115	1.1554871
1451387088257371753	-0.015289307	2.9500732	1.0663147
1451387088262529224	0.11665344	2.8669739	0.9930115
1451387088267900318	0.26449585	2.727707	0.9270325
1451387088272630543	0.4172058	2.5444489	0.85861206
1451387088275834888	0.4172058	2.3379822	0.85861206
1451387088282670826	0.56747437	2.3379822	0.6997833
1451387088287553638	0.7153168	1.8896027	0.6997833
1451387088293687671	1.0072937	1.8896027	0.5092163
1451387088297624439	1.0072937	1.4302368	0.5092163
1451387088303392261	1.1551361	1.4302368	0.4041443
1451387088307817310	1.3005066	1.2176514	0.29663086
1451387088313493580	1.4300079	1.0233917	0.19033813
1451387088318437427	1.5277557	0.84747314	0.08648682
1451387088322831959	1.5802765	0.6959839	-0.0063476563
1451387088326280445	1.5753937	0.5860138	-0.082092285
1451387088332902759	1.5057526	0.5359192	-0.1370697
1451387088337938160	1.3701477	0.55548096	-0.17248535
1451387088342973560	1.1710205	0.6422272	-0.19081116
1451387088347978443	0.9193268	0.77537537	-0.19692993
1451387088353502125	0.6371002	0.9281006	-0.19081116
1451387088358232349	0.3475647	1.0747223	-0.1663971
1451387088363084644	0.07633972	1.1968842	-0.1199646
1451387088369127125	-0.15942383	1.2775269	-0.04788208
1451387088373185962	-0.35246277	1.2982941	0.049835205
1451387088376512378	-0.35246277	1.2530823	0.049835205
1451387088383226246	-0.5027466	1.2530823	0.17201233
1451387088388292164	-0.60658264	1.1577911	0.30273438
1451387088393327564	-0.64933777	1.0453949	0.4224701
1451387088398485035	-0.62002563	0.9476471	0.5140991
1451387088404222339	-0.518631	0.88046265	0.57029724
1451387088408555835	-0.36712646	0.8377075	0.59962463
1451387088413469166	-0.20951843	0.8034973	0.6154938
1451387088418474048	-0.086135864	0.7644043	0.62893677
1451387088423539966	-0.021392822	0.7228546	0.64115906
1451387088426866382	-0.015289307	0.6923065	0.6448059
1451387088433610767	-0.06536865	0.6837616	0.6301575
1451387088438646168	-0.17166138	0.7094269	0.59962463
1451387088443834156	-0.33169556	0.77905273	0.56295776
1451387088448869556	-0.52716064	0.89634705	0.53364563
1451387088454393238	-0.7116394	1.0417175	0.50798035
1451387088459916919	-0.8191681	1.167572	0.46768188
1451387088463975757	-0.7861786	1.220108	0.391922
1451387088469529957	-0.5992584	1.1577911	0.26852417
1451387088473893970	-0.30238342	0.9745331	0.10115051
1451387088477250904	-0.30238342	0.6898651	0.10115051
1451387088484117359	0.036026	0.6898651	-0.09307861
1451387088489213794	0.3658905	0.33190918	-0.29832458
1451387088494157642	0.6529846	-0.07247925	-0.5048065
1451387088499040455	0.8497009	-0.47807312	-0.7149353
1451387088504045337	0.8924408	-0.7945099	-0.92141724
1451387088509141773	0.7458496	-0.91545105	-1.0936737
1451387088514299244	0.45141602	-0.7969513	-1.1889648
1451387088520128101	0.11665344	-0.5232849	-1.1804047
1451387088524339527	-0.15577698	-0.27160645	-1.0839081
1451387088528520435	-0.31214905	-0.1921997	-0.9507446
1451387088534501880	-0.34635925	-0.31314087	-0.8371124
1451387088539354175	-0.27061462	-0.5611572	-0.7748108
1451387088544481128	-0.08979797	-0.86047363	-0.7699127
1451387088549394459	0.18019104	-1.1817932	-0.8078003
1451387088554399341	0.5051575	-1.5312195	-0.87376404
1451387088559465259	0.84114075	-1.8965149	-0.94950867
1451387088564683765	1.1465759	-2.2459106	-1.0167084
1451387088570512623	1.3957977	-2.5476837	-1.0570221
1451387088574754566	1.579071	-2.7798004	-1.0631409
1451387088577928394	1.579071	-2.936203	-1.0631409
1451387088584825367	1.6877899	-2.936203	-1.0472565
1451387088589677662	1.7122345	-3.0192719	-1.0240479
1451387088594865650	1.6633759	-3.035141	-1.0020447
1451387088599748462	1.5668488	-2.983841	-0.980072
1451387088604783863	1.4654541	-2.8616638	-0.95318604
1451387088609849781	1.3872375	-2.6613007	-0.927536
1451387088614976734	1.3457031	-2.3913116	-0.90675354
1451387088620347828	1.3420563	-2.0773163	-0.88964844
1451387088625108570	1.3713684	-1.7657776	-0.8701019
1451387088628282398	1.4251251	-1.4908905	-0.8432312
1451387088634935230	1.4947662	-1.2770844	-0.809021
1451387088640001148	1.5717316	-1.1292572	-0.7748108
1451387088645952076	1.6486969	-1.0400696	-0.74794006
1451387088650285572	1.7207947	-0.99487305	-0.7332611
1451387088655443043	1.7867584	-0.97532654	-0.7344971
1451387088660356373	1.8441772	-0.9643402	-0.7552643
1451387088665574878	1.889389	-0.9533386	-0.795578
1451387088670305103	1.9174805	-0.93989563	-0.8493347
1451387088675309986	1.9174805	-0.9215698	-0.8493347
1451387088678819507	1.9223633	-0.9215698	-0.90309143
1451387088685350269	1.9040375	-0.89224243	-0.94706726
1451387088690385669	1.875946	-0.8433838	-0.9702759
1451387088695451587	1.8551788	-0.772522	-0.9727173
1451387088700609058	1.84906	-0.68455505	-0.9568329
1451387088705980152	1.8478546	-0.5941467	-0.9433899
1451387088710679859	1.8356171	-0.5257263	-0.9507446
1451387088715593189	1.8014221	-0.501297	-0.98127747
1451387088720598072	1.7525482	-0.5110626	-1.014267
1451387088725633472	1.7000275	-0.5171814	-1.0301514
1451387088729142994	1.64505	-0.4829712	-1.0325928
1451387088735704273	1.5863953	-0.40600586	-1.0362549
1451387088740709156	1.526535	-0.31681824	-1.0423737
1451387088745775074	1.4727783	-0.2349701	-1.0374756
1451387088750810474	1.4324493	-0.16166687	-1.014267
1451387088756578296	1.4055634	-0.09933472	-0.97883606
1451387088761033863	1.3860321	-0.06391907	-0.93362427
1451387088765916675	1.3750305	-0.071243286	-0.8798828
1451387088770921558	1.3750305	-0.12745667	-0.8798828
1451387088775987476	1.3713684	-0.12745667	-0.8187866
1451387088779344410	1.3713684	-0.22885132	-0.7564697
1451387088786210865	1.3701477	-0.36447144	-0.7051697
1451387088791093677	1.3652649	-0.5061798	-0.66851807
1451387088796312183	1.3530426	-0.62101746	-0.64286804
1451387088801286548	1.3347168	-0.68211365	-0.62454224
1451387088806810230	1.3090668	-0.68699646	-0.61476135
1451387088812425464	1.2785187	-0.6442261	-0.61842346
1451387088816392750	1.2430878	-0.5746002	-0.6391907
1451387088821672291	1.2052307	-0.4988556	-0.6721802
1451387088826494068	1.1636658	-0.4255371	-0.7076111
1451387088829728931	1.1209259	-0.35835266	-0.7381439
1451387088836534351	1.0842743	-0.30459595	-0.76382446
1451387088841447681	1.0573883	-0.2752838	-0.7882385
1451387088846574634	1.0415039	-0.28016663	-0.8151245
1451387088851549000	1.032959	-0.31558228	-0.8432312
1451387088857347339	1.0243988	-0.3681183	-0.87254333
1451387088861589283	1.0109558	-0.42677307	-0.90065
1451387088866746753	0.98898315	-0.4854126	-0.92874146
1451387088872392505	0.96209717	-0.5416107	-0.9568329
1451387088876695484	0.96209717	-0.592926	-0.9568329
1451387088880723804	0.93032837	-0.592926	-0.98495483
1451387088886888355	0.89979553	-0.62957764	-1.0093689
1451387088891801685	0.8716736	-0.6466675	-1.0264893
1451387088896928638	0.84602356	-0.64302063	-1.0325928
1451387088901841968	0.81915283	-0.62590027	-1.0313721
1451387088907579273	0.7849426	-0.60513306	-1.0216064
1451387088911943287	0.7409668	-0.592926	-1.005722
1451387088917100757	0.68963623	-0.59658813	-0.9825134
1451387088923631519	0.63345337	-0.619812	-0.94950867
1451387088927049488	0.5711365	-0.66134644	-0.90797424
1451387088930436939	0.49783325	-0.7102051	-0.85787964
1451387088937272876	0.4172058	-0.7468567	-0.8004608
1451387088942155689	0.3316803	-0.7615204	-0.7369385
1451387088947343677	0.2498169	-0.7492981	-0.66973877
1451387088952226490	0.17895508	-0.71998596	-0.60131836
1451387088957200855	0.11665344	-0.68699646	-0.5341339
1451387088962327808	0.05923462	-0.66378784	-0.4705963
1451387088967332691	0.05923462	-0.6601105	-0.4131775
1451387088973069996	-0.049484253	-0.6601105	-0.3643036
1451387088977464527	-0.049484253	-0.70410156	-0.3643036
1451387088980760425	-0.1007843	-0.70410156	-0.32643127
1451387088988756031	-0.21440125	-0.73587036	-0.29832458
1451387088992479175	-0.21440125	-0.7798462	-0.29832458
1451387088998216480	-0.28526306	-0.7798462	-0.30688477
1451387089002702564	-0.36712646	-0.7786255	-0.32276917
1451387089007615894	-0.4599762	-0.75297546	-0.34109497
1451387089012651294	-0.55892944	-0.70410156	-0.35453796
1451387089017717212	-0.66278076	-0.6356964	-0.35575867
1451387089023576587	-0.76908875	-0.5550537	-0.33499146
1451387089027788013	-0.8765869	-0.46342468	-0.28367615
1451387089031114429	-0.980423	-0.35835266	-0.19569397
1451387089037858814	-1.0781708	-0.2349701	-0.0723114
1451387089042863697	-1.1661377	-0.09812927	0.0803833
1451387089047899097	-1.2528839	0.03869629	0.25631714
1451387089052934498	-1.3518372	0.14619446	0.4383545
1451387089058793873	-1.4862213	0.20362854	0.61183167
1451387089063127369	-1.6670532	0.20606995	0.7608795
1451387089068071216	-1.6670532	0.17552185	0.7608795
1451387089073045582	-1.8918304	0.17552185	0.8793793
1451387089078111500	-2.138626	0.13887024	0.9710083
1451387089081621021	-2.3768616	0.12054443	1.0467682
1451387089088182300	-2.5808868	0.14009094	1.1200714
1451387089093187183	-2.7323914	0.21827698	1.197052
1451387089098253101	-2.8203583	0.3685608	1.2740021
1451387089103288501	-2.8460083	0.594574	1.3399811
1451387089109025806	-2.811798	0.87680054	1.387619
1451387089113481373	-2.7311554	1.1883392	1.4206238
1451387089118394703	-2.619995	1.4962158	1.4438324
1451387089123369068	-2.497818	1.7588806	1.4584808
1451387089128465503	-2.3854218	1.9213562	1.4609222
1451387089131822437	-2.3854218	1.939682	1.4609222
1451387089138658375	-2.2436981	1.939682	1.4303894
1451387089143571705	-2.2204742	1.4852142	1.4193878
1451387089148729175	-2.2217102	1.0759277	1.4303894
1451387089154863209	-2.2363586	0.6275635	1.467041
1451387089158586353	-2.2498016	0.20727539	1.5244598
1451387089164598316	-2.252243	-0.13722229	1.5928802
1451387089168748707	-2.252243	-0.38768005	1.5928802
1451387089174150318	-2.240036	-0.38768005	1.6661682
1451387089178941578	-2.2180328	-0.54771423	1.7345886
1451387089182206959	-2.1875	-0.62957764	1.7920227
1451387089189012378	-2.1398468	-0.64546204	1.8347778
1451387089193834156	-2.068985	-0.60757446	1.8580017
1451387089199113697	-1.982254	-0.5330658	1.8543243
1451387089203996509	-1.8918304	-0.44265747	1.824997
1451387089209001392	-1.7965393	-0.3363495	1.7834625
1451387089214067310	-1.6731415	-0.190979	1.7553711
1451387089219224781	-1.5118713	0.033813477	1.7651367
1451387089224901050	-1.3383942	0.3441162	1.829895
1451387089229173511	-1.2003479	0.6776581	1.9361877
1451387089233171314	-1.1209259	0.9317627	2.0498047
1451387089239335865	-1.0879517	1.0478363	2.136551
1451387089244279712	-1.0696106	1.0612793	2.1902924
1451387089249437183	-1.0427399	1.0698242	2.223297
1451387089254350513	-0.99754333	1.1443481	2.2550507
1451387089259324878	-0.99754333	1.2824097	2.2917023
1451387089264421314	-0.93400574	1.4436798	2.2917023
1451387089269548267	-0.8558197	1.4436798	2.3259125
1451387089275346607	-0.68110657	1.5866089	2.340561
1451387089279649585	-0.68110657	1.8028564	2.340561
1451387089282884449	-0.5992584	1.8028564	2.3112488
1451387089289750904	-0.5357208	1.9091492	2.2562714
1451387089294633716	-0.49786377	2.0264282	2.1854095
1451387089299821705	-0.48562622	2.159607	2.109665
1451387089304704517	-0.48442078	2.3184204	2.035141
1451387089309678882	-0.4758606	2.4931335	1.955719
1451387089314775318	-0.4440918	2.6495209	1.8653259
1451387089319810718	-0.38545227	2.7423553	1.7614746
1451387089325822681	-0.30603027	2.7582397	1.6502838
1451387089330919117	-0.21684265	2.727707	1.5342407
1451387089340928882	-0.037261963	2.683731	1.3179932
1451387089344987720	0.04701233	2.5774384	1.2239075
1451387089350023121	0.13865662	2.496811	1.1371613
1451387089355180591	0.24493408	2.3868408	1.0540924
1451387089360551685	0.3622284	2.25	0.9771271
1451387089365281910	0.3622284	2.098526	0.9771271
1451387089370164722	0.48562622	2.098526	0.9099426
1451387089375169605	0.6065674	1.9433594	0.85006714
1451387089380266041	0.722641	1.7796478	0.7853241
1451387089383714527	0.83869934	1.6061707	0.70713806
1451387089390336841	0.95965576	1.425354	0.61795044
1451387089395341724	1.0903625	1.2494049	0.52386475
1451387089400377125	1.2320862	1.0844879	0.43223572
1451387089405565113	1.3774719	0.93544006	0.34672546
1451387089411271900	1.5155334	0.80470276	0.26486206
1451387089415605396	1.631607	0.7033081	0.18421936
1451387089420549244	1.7085571	0.6409912	0.09992981
1451387089425493091	1.7293396	0.6165619	0.011978149
1451387089430589527	1.6817017	0.6263428	-0.08087158
1451387089433946460	1.6817017	0.6739807	-0.08087158
1451387089440660328	1.3420563	0.6739807	-0.2531433
1451387089445695728	1.0622711	0.9134369	-0.31056213
1451387089450731128	0.74217224	1.0918121	-0.32887268
1451387089455766529	0.42085266	1.2738495	-0.30200195
1451387089461656421	0.12521362	1.4216766	-0.22990417
1451387089465989918	0.12521362	1.490097	-0.22990417
1451387089470842212	-0.1325531	1.490097	-0.1211853
1451387089475877613	-0.36224365	1.4461212	0.014419556
1451387089480943531	-0.57359314	1.2824097	0.16345215
1451387089484422535	-0.75808716	1.0356293	0.30639648
1451387089491136402	-0.880249	0.77905273	0.4224701
1451387089496904224	-0.90467834	0.58480835	0.50187683
1451387089501237720	-0.8264923	0.49317932	0.54341125
1451387089506578296	-0.67866516	0.49438477	0.55563354
1451387089512040943	-0.517395	0.54571533	0.54953
1451387089516771168	-0.3915558	0.60069275	0.53974915
1451387089521348804	-0.33047485	0.6300049	0.5299835
1451387089526445240	-0.34513855	0.6397705	0.5067749
1451387089531419605	-0.43920898	0.6642151	0.45788574
1451387089534654468	-0.43920898	0.7448425	0.45788574
1451387089541459888	-0.8118286	0.7448425	0.31373596
1451387089546373218	-0.9902191	1.0502777	0.24899292
1451387089551561207	-1.0586243	1.154129	0.17689514
1451387089556505054	-1.0586243	1.1467896	0.07183838
1451387089562303394	-0.74464417	1.1467896	-0.07475281
1451387089566545337	-0.74464417	0.7924957	-0.07475281
1451387089571702808	-0.43553162	0.7924957	-0.24946594
1451387089577348560	-0.09712219	0.48950195	-0.42294312
1451387089581773609	0.21928406	0.12054443	-0.57688904
1451387089584916919	0.45141602	-0.28260803	-0.70884705
1451387089591874927	0.53082275	-0.6405792	-0.8102417
1451387089596757740	0.4489746	-0.8592682	-0.86032104
1451387089601915210	0.27548218	-0.8934784	-0.83955383
1451387089606828541	0.11299133	-0.80184937	-0.76138306
1451387089611802906	0.01159668	-0.70043945	-0.66851807
1451387089616899341	-0.033599854	-0.6649933	-0.60865784
1451387089622056812	-0.031158447	-0.69799805	-0.60009766
1451387089627824634	0.04824829	-0.7737427	-0.63552856
1451387089632097095	0.23638916	-0.9142456	-0.70028687
1451387089635362476	0.23638916	-1.1805878	-0.70028687
1451387089642198414	0.8851166	-1.1805878	-0.88108826
1451387089647111744	1.2357635	-2.122528	-0.97639465
1451387089652330250	1.5314178	-2.6588593	-1.0521393
1451387089657213062	1.5314178	-3.1035614	-1.0521393
1451387089662248462	1.7354431	-3.1035614	-1.0936737
1451387089667253345	1.8282928	-3.3967896	-1.0997772
1451387089673509449	1.7232361	-3.5311737	-1.0558014
1451387089678300709	1.7232361	-3.4493256	-1.0558014
1451387089683000416	1.5961609	-3.4493256	-1.0313721
1451387089685716480	1.4752197	-3.2990417	-1.0081635
1451387089692766041	1.3884735	-3.102356	-0.980072
1451387089697465748	1.3542633	-2.8787842	-0.9483032
1451387089702592701	1.3725891	-2.639328	-0.91773987
1451387089707658619	1.4361267	-2.3913116	-0.8957672
1451387089713365406	1.5228729	-2.1335297	-0.88352966
1451387089717729419	1.6083832	-1.8793945	-0.8774414
1451387089722642750	1.6743469	-1.6595001	-0.8774414
1451387089727617115	1.7158966	-1.5043335	-0.88720703
1451387089732774585	1.7403259	-1.4236908	-0.90797424
1451387089736162037	1.7403259	-1.4041595	-0.90797424
1451387089742784351	1.779419	-1.4041595	-0.9433899
1451387089747728199	1.8111877	-1.4017181	-0.94218445
1451387089752855152	1.8111877	-1.352829	-0.94218445
1451387089758012623	1.8515015	-1.352829	-0.93362427
1451387089763749927	1.9174805	-1.2734222	-0.93118286
1451387089768083423	1.9174805	-1.1512604	-0.93118286
1451387089772966236	1.9260406	-1.1512604	-0.94462585
1451387089779039234	1.9077148	-1.1439362	-0.96539307
1451387089783067554	1.8698273	-1.1500244	-0.98983765
1451387089786546558	1.8209686	-1.1292572	-1.0130463
1451387089793290943	1.7733154	-1.0498505	-1.0301514
1451387089798143238	1.7330017	-0.9056854	-1.0325928
1451387089803239673	1.7049103	-0.71876526	-1.0179291
1451387089808366626	1.6804657	-0.5355072	-0.9910431
1451387089814287037	1.6486969	-0.39988708	-0.96295166
1451387089818467945	1.6047211	-0.32536316	-0.93730164
1451387089823350757	1.5570679	-0.29605103	-0.9116516
1451387089828325123	1.5155334	-0.28504944	-0.87864685
1451387089833421558	1.4874268	-0.28016663	-0.834671
1451387089836778492	1.4874268	-0.29360962	-0.834671
1451387089843614429	1.4617767	-0.29360962	-0.7357025
1451387089849168628	1.4544525	-0.41944885	-0.69784546
1451387089853715748	1.4544525	-0.5245056	-0.66973877
1451387089859178394	1.4263611	-0.5245056	-0.65263367
1451387089864518970	1.4043579	-0.7749634	-0.65019226
