accelerometer_timestamp	accelerometer_x_data	accelerometer_y_data	accelerometer_z_data
14068112614013	-0.5982056	9.787037	1.0395049
14068149614013	-0.1372931	10.689248	2.8439283
14068159614013	0.049033247	10.385242	3.5794272
14068169614013	-1.0296983	9.92433	3.0400615
14068179614013	-1.8730701	9.679163	2.2064962
14068189614013	-2.2359161	9.218251	1.8142302
14068199614013	-2.4026291	8.698499	1.6965504
14068209914013	-2.2064962	8.453332	1.8240368
14068219914013	-1.8730701	8.306232	1.8240368
14068228914013	-1.5298374	8.149326	1.6377105
14068239614013	-1.2454445	8.149326	1.5984839
14068249614013	-1.1375713	8.080679	1.5984839
14068259614013	-1.2552512	8.188553	1.735777
14068267614013	-1.4023509	8.257199	2.010363
14068279614013	-1.5102241	8.374879	2.4222424
14068289614013	-1.3533176	8.561205	2.5791488
14068299614013	-1.2356379	8.708305	2.745862
14068309614013	-1.147378	8.825985	2.687022
14068319614013	-0.79433864	8.943665	2.6379888
14068330014013	-0.6766588	9.022118	2.657602
14068339614013	-0.6276256	9.090764	2.7360554
14068349614013	-0.588399	9.071151	2.883155
14068359614013	-0.60801226	9.002504	2.883155
14068369614013	-0.5491724	8.914245	3.000835
14068380014013	-0.55897903	8.816178	2.9714148
14068390014013	-0.51975244	8.796565	3.000835
14068399914013	-0.65704554	8.708305	3.000835
14068409614013	-0.7747253	8.571012	3.079288
14068420014013	-0.69627213	8.531785	3.1773546
14068429914013	-0.588399	8.423912	3.334261
14068439914013	-0.5295591	8.316039	3.2852278
14068449614013	-0.42168593	8.257199	3.3538742
14068459614013	-0.37265268	8.237586	3.2656143
14068467914013	-0.19613299	8.345459	3.1773546
14068479914013	0.0392266	8.355266	3.1283212
14068490014013	0.14709975	8.571012	3.1871612
14068500014013	-0.22555295	8.433719	3.0106416
14068509614013	-0.5099458	8.276813	3.0302548
14068520014013	-0.42168593	8.061066	3.334261
14068529914013	-0.79433864	7.9728065	3.275421
14068539914013	-0.83356524	8.149326	3.1283212
14068549614013	-0.78453195	8.3846855	3.000835
14068559614013	-0.70607877	8.531785	3.0596747
14068567914013	0.088259846	9.875297	3.3734875
14068579614013	-1.0198916	9.375157	2.941995
14068590014013	-1.3925443	8.600431	3.2361944
14068599614013	-1.2552512	8.335652	3.1871612
14068609614013	-0.7256921	8.443525	3.5205872
14068619614013	-0.5393657	8.267006	3.2656143
14068629914013	-0.2941995	8.423912	3.275421
14068639914013	0.0784532	8.551398	3.2558076
14068649614013	0.42168593	8.580818	3.275421
14068659914013	0.79433864	8.571012	3.275421
14068667614013	1.1571847	8.521978	3.0302548
14068679814013	1.4219642	8.129713	2.991028
14068689914013	1.7651969	7.8159	3.079288
14068699614013	1.7750036	7.708027	2.6281822
14068708614013	1.1081514	8.16894	1.93191
14068719614013	0.22555295	10.130269	1.6475172
14068729614013	-1.3238977	13.415497	1.4121575
14068739814013	-3.6578803	17.102797	1.5592573
14068749914013	-6.0703163	15.935806	2.3045628
14068759814013	-2.3437893	14.327516	2.7066352
14068767614013	-1.3140911	13.660663	1.4611908
14068779614013	-0.1569064	13.131104	1.0002782
14068789914013	0.39226598	12.042566	1.5690639
14068799914013	0.28439283	10.149882	1.8926834
14068809914013	-0.3138128	7.5707335	1.8338435
14068819914013	-1.6867437	5.2465577	1.6573238
14068829914013	-2.7850885	4.530672	2.2457228
14068839814013	-3.3931007	4.1285996	2.9616082
14068849814013	-4.0501466	3.5402005	2.4124358
14068857914013	-3.6480737	4.815065	1.2650578
14068865914013	-2.9616082	6.9333014	0.3334261
14068875014013	-1.372931	9.669356	-0.78453195
14068883614013	0.40207264	11.934692	-2.128043
14068891914013	2.0692031	13.69989	-3.000835
14068899914013	3.8344	14.415775	-3.079288
14068909614013	4.560092	13.386077	-2.2064962
14068919614013	3.8245933	11.26784	-1.2062179
14068929914013	1.4121575	9.757616	-0.24516624
14068939914013	-0.55897903	9.090764	1.0296983
14068949914013	-2.3045628	8.561205	3.0400615
14068959914013	-3.9030466	8.051259	3.8147867
14068968614013	-4.3149257	8.208166	3.0596747
14068979614013	-3.8834333	8.698499	1.4121575
14068990014013	-2.9616082	9.267284	-0.3334261
14069000014013	-1.8044236	9.885103	-1.0983448
14069009614013	-1.176798	10.434276	-1.2748644
14069019614013	-0.65704554	11.29726	-0.74530536
14069029614013	-0.14709975	11.836626	-0.6276256
14069039614013	1.0787314	11.787593	-1.2552512
14069050014013	2.5497289	10.042009	-2.6281822
14069059614013	1.0002782	9.365351	-0.098066494
14069067614013	0.7354987	9.885103	0.40207264
14069079614013	0.10787315	9.943943	0.1176798
14069089614013	-0.5295591	9.404577	0.30400613
14069100614013	-0.89240515	9.061344	-0.19613299
14069108614013	-0.7747253	8.973084	-0.37265268
14069116614013	-0.70607877	8.718112	-0.7747253
14069129614013	-0.89240515	8.551398	-0.69627213
14069139614013	-0.8531785	8.600431	-0.4314926
14069149614013	-0.88259846	8.924051	-0.17651969
14069159614013	-0.9120184	9.257478	0.0588399
14069168614013	-0.951245	9.267284	0.2549729
14069176614013	-0.8139519	9.590903	0.4707192
14069184614013	-0.75511205	9.787037	0.49033248
14069199614013	-0.70607877	9.590903	0.8139519
14069209614013	-0.48052585	9.375157	1.2062179
14069219614013	-0.40207264	9.306511	0.9610517
14069230014013	-0.18632634	9.63013	0.65704554
14069240114013	-0.17651969	9.649743	0.06864655
14069249614013	-0.42168593	9.45361	-0.098066494
14069259614013	-0.24516624	9.48303	-0.3138128
14069267614013	-0.24516624	9.581097	-0.6766588
14069280114013	0.16671304	9.48303	-0.46091253
14069289614013	0.26477954	9.4241905	-0.1372931
14069299614013	0.2157463	9.394771	0.00980665
14069309614013	0.2745862	9.031924	-0.00980665
14069319614013	0.42168593	9.179024	-0.12748645
14069329614013	0.2353596	9.257478	-0.12748645
14069339614013	0.26477954	9.48303	-0.16671304
14069349614013	0.0784532	9.620323	-0.57859236
14069359614013	0.1372931	9.63013	-0.38245934
14069367614013	0.0784532	9.649743	-0.0196133
14069375614013	-0.0784532	9.561483	0.0392266
14069383614013	0.19613299	9.77723	-0.2549729
14069399914013	0.9610517	10.375436	-0.20593965
14069409814013	0.84337187	9.767424	-0.098066494
14069419614013	0.35303938	9.071151	0.24516624
14069429614013	-0.098066494	9.110377	0.0392266
14069439614013	-0.6374322	9.090764	-0.49033248
14069450014013	-0.7747253	9.149604	-0.2353596
14069460014013	-1.0395049	9.4241905	-0.65704554
14069467614013	-1.0198916	9.639936	-0.6668522
14069476014013	-0.6766588	9.68897	-0.32361946
14069490014013	-0.8531785	9.561483	-0.098066494
14069499614013	-1.4023509	9.208445	-0.24516624
14069510014013	-2.1672697	8.894631	-1.2552512
14069519914013	-2.2457228	9.326124	-1.5788707
14069529614013	-1.99075	10.061623	-1.4611908
14069539914013	-1.2454445	10.895188	-1.3238977
14069549614013	-0.12748645	11.59146	-0.84337187
14069559914013	0.48052585	12.238699	-0.97085834
14069567914013	0.70607877	12.807485	-0.93163174
14069579914013	0.51975244	13.542983	-0.78453195
14069589914013	0.1372931	13.454723	-0.55897903
14069599914013	0.0196133	13.131104	-1.1964113
14069609914013	-0.098066494	12.885938	-1.2356379
14069619614013	-0.6276256	12.974197	-0.4707192
14069629614013	-1.3533176	12.03276	0.1372931
14069639914013	-1.6769371	10.895188	0.12748645
14069647614013	-1.99075	9.65955	-0.098066494
14069659914013	-2.6674087	8.188553	0.24516624
14069667614013	-3.4225209	8.669079	0.588399
14069675614013	-4.1285996	8.551398	0.8727918
14069683914013	-4.579705	7.9924197	0.92182505
14069691614013	-4.6679654	7.384407	1.147378
14069700814013	-4.2070527	7.472667	1.7750036
14069709914013	-4.1580195	8.521978	2.2163029
14069719614013	-3.9618864	9.522257	1.5298374
14069729614013	-3.334261	11.061901	1.2846711
14069739614013	-2.7066352	11.513007	0.56878567
14069749614013	-2.186883	11.601267	1.6475172
14069759614013	-2.6183755	11.159967	-0.0784532
14069767614013	-2.3634026	11.071708	-1.3827376
14069779914013	-0.39226598	11.32668	-1.8534569
14069789914013	0.30400613	12.170053	-1.3925443
14069799614013	0.97085834	12.934971	0.5001391
14069809914013	1.2846711	12.729032	1.5200307
14069819614013	0.98066497	12.052373	1.4219642
14069829914013	0.16671304	10.806928	1.1277647
14069839914013	-1.1669914	9.522257	0.92182505
14069849614013	-2.0201697	8.718112	1.0493115
14069859914013	-2.8047018	8.423912	0.8531785
14069869914013	-3.4323275	8.1983595	0.8041453
14069879914013	-3.726527	7.894353	0.8237586
14069889914013	-3.5696206	7.6589932	0.71588546
14069899814013	-3.108708	7.678607	0.5982056
14069909814013	-2.6772153	7.5707335	0.61781895
14069919914013	-1.8534569	7.6295733	0.5099458
14069929914013	-1.3140911	7.5511203	1.0100849
14069939914013	-0.89240515	7.404021	1.3337044
14069949614013	-0.8041453	7.1882744	1.5592573
14069957614013	-0.9610517	6.776395	1.7946169
14069965614013	-0.98066497	6.6489086	1.7750036
14069979614013	-1.8436501	5.7565036	2.1084297
14069989914013	-1.9515233	5.658437	2.0299766
14069999914013	-1.9809432	5.3642373	2.1966896
14070009914013	-1.8534569	5.2563643	2.4712758
14070019914013	-1.5984839	5.236751	2.7360554
14070029914013	-1.1669914	5.5015306	2.824315
14070039914013	-0.89240515	5.874183	3.167548
14070049614013	-0.49033248	6.2762556	3.5990405
14070059614013	0.049033247	6.6783285	3.9128532
14070067614013	0.48052585	7.0411744	4.226666
14070079614013	1.0591182	7.58054	4.7758384
14070089914013	1.6377105	8.159133	5.521144
14070099614013	2.1182363	8.904438	6.364516
14070108614013	1.8044236	9.345737	6.9823346
14070119614013	0.84337187	9.747809	7.58054
14070129614013	0.4511059	10.473502	7.6295733
14070139614013	0.19613299	11.346293	6.9038815
14070149614013	0.0	11.836626	6.050703
14070159614013	0.30400613	11.73856	5.0798445
14070169614013	0.39226598	11.081514	4.3541527
14070179614013	0.098066494	10.542149	3.726527
14070189614013	-0.49033248	10.650022	3.0106416
14070199614013	-1.0002782	11.826819	2.9714148
14070209914013	-2.2751427	13.5037565	3.3440676
14070219614013	-4.677772	15.680833	3.5990405
14070229614013	-7.354987	16.769371	3.5303938
14070239614013	-8.541592	14.768814	3.7363336
14070249614013	-4.981778	12.866324	3.2950344
14070259614013	-1.9221034	11.375713	3.2263877
14070268014013	-0.2745862	10.640215	2.441856
14070279614013	1.2258313	8.659272	1.7259704
14070289614013	1.1179581	5.5309505	2.8733485
14070299614013	0.26477954	2.608569	3.0302548
14070309614013	-1.3238977	1.0100849	0.8041453
14070319614013	-2.5301156	0.8727918	0.1569064
14070329614013	-3.108708	1.0885382	1.4611908
14070339614013	-2.7948952	2.5889556	2.186883
14070349614013	-2.4222424	4.6875787	-0.1569064
14070359614013	-1.4317709	10.963835	-2.4516625
14070367614013	0.28439283	15.641606	-4.579705
14070375614013	2.0495899	18.652248	-7.0117545
14070389614013	3.7853668	17.553904	-5.88399
14070399614013	1.9417167	13.680277	-3.726527
14070409614013	0.4118793	10.218529	-0.36284605
14070419614013	-0.7354987	7.6982203	2.991028
14070429914013	-2.3045628	5.82515	7.119628
14070439614013	-3.4813607	5.3544307	9.375157
14070449614013	-3.971693	6.433162	5.8447633
14070459614013	-4.1089864	8.159133	1.0787314
14070467614013	-3.4323275	9.65955	-1.7848103
14070479614013	-1.9711366	11.209001	-2.9714148
14070489914013	-0.9610517	11.915079	-2.5105023
14070499614013	0.34323275	12.121019	-2.0692031
14070509614013	1.5886773	11.375713	-1.4317709
14070519914013	2.1182363	10.159689	-0.83356524
14070529614013	2.3732092	9.296704	-0.49033248
14070539614013	2.2359161	8.953471	-0.22555295
14070549614013	0.71588546	8.659272	-0.5393657
14070559614013	-0.30400613	8.845598	-0.51975244
14070568914013	-0.60801226	8.904438	-0.2745862
14070579714013	-0.88259846	9.031924	0.3334261
14070587614013	-1.1375713	9.0515375	0.5295591
14070599914013	-1.343511	8.904438	0.61781895
14070609914013	-1.6082906	8.757339	0.38245934
14070619614013	-1.5690639	8.669079	0.0196133
14070629614013	-1.8044236	8.551398	-0.40207264
14070639614013	-1.706357	8.551398	-0.4118793
14070649614013	-1.4121575	8.512172	-0.19613299
14070659614013	-1.0493115	8.463139	-0.0196133
14070667614013	-0.7256921	8.551398	0.06864655
14070675614013	-0.46091253	8.708305	0.1372931
14070683614013	-0.3334261	8.698499	0.28439283
14070691614013	-0.2745862	8.875018	0.17651969
14070699614013	-0.1372931	9.228058	-0.0588399
14070709914013	-0.18632634	9.198637	0.049033247
14070719614013	-0.049033247	9.15941	-0.098066494
14070729614013	-0.049033247	9.335931	0.00980665
14070739914013	0.40207264	9.473224	-0.00980665
14070749914013	0.5001391	9.63013	0.4118793
14070759814013	0.6668522	9.65955	0.78453195
14070767614013	0.70607877	9.639936	0.6374322
14070780014013	0.8237586	9.95375	-1.147378
14070789614013	0.44129923	9.885103	-1.8632635
14070797614013	0.35303938	9.77723	-1.90249
14070809614013	-0.32361946	10.296982	-0.89240515
14070819614013	-0.7256921	10.934415	-0.7747253
14070829614013	-0.6864655	11.454167	-0.8237586
14070840014013	-0.5393657	12.405412	-0.55897903
14070849614013	0.12748645	13.621436	-0.26477954
14070860114013	1.1571847	14.239256	-0.3138128
14070869614013	2.1182363	13.87641	-0.9120184
14070879614013	2.5497289	13.209558	-1.539644
14070889614013	2.0005565	12.572125	-1.7455837
14070899614013	1.1081514	12.503478	-1.3238977
14070909614013	-0.42168593	12.513285	-1.3827376
14070920014013	-1.4415776	11.934692	-1.6573238
14070929914013	-2.186883	11.454167	-1.5984839
14070939914013	-2.432049	10.512729	-1.3042845
14070949914013	-2.6477954	9.816457	-0.9610517
14070959614013	-2.8635418	8.816178	0.0588399
14070968614013	-3.2558076	8.365072	0.1372931
14070979914013	-3.9324665	7.7472534	-0.1569064
14070989914013	-4.2070527	7.1784678	0.89240515
14070999914013	-2.7850885	9.031924	1.6082906
14071009914013	-1.7946169	11.091321	1.706357
14071019614013	-1.6573238	12.130826	0.57859236
14071029614013	-1.9711366	12.06218	1.6671305
14071039614013	-2.1672697	13.268397	0.3138128
14071049014013	-2.8439283	12.326959	1.2160245
14071060014013	-1.5004175	11.581654	-3.9324665
14071067614013	-0.61781895	12.121019	-3.412714
14071079614013	-0.20593965	12.228892	0.0392266
14071090014013	0.0	12.4642515	1.6475172
14071099914013	-0.1372931	11.179581	1.7848103
14071110014013	0.14709975	9.7183895	1.4709975
14071119614013	0.93163174	9.277091	0.75511205
14071129614013	1.0689248	8.4925585	0.74530536
14071139914013	1.2650578	8.257199	1.6082906
14071149614013	1.176798	7.953193	1.8436501
14071159914013	0.2941995	7.6295733	1.2748644
14071168014013	-0.84337187	7.247114	0.88259846
14071175914013	-1.6965504	7.139241	0.48052585
14071189914013	-2.8341217	7.198081	0.46091253
14071199614013	-3.5303938	7.472667	0.44129923
14071210114013	-3.9618864	7.806093	0.56878567
14071219614013	-3.6578803	8.247393	0.4118793
14071229614013	-2.9616082	8.325846	0.5001391
14071239614013	-2.324176	8.051259	0.75511205
14071249614013	-2.1378496	7.531507	1.0100849
14071259614013	-1.99075	6.776395	1.5592573
14071268614013	-1.0493115	6.4527755	1.4023509
14071279614013	-0.7747253	5.7172766	1.6769371
14071289914013	-0.75511205	5.2563643	2.0201697
14071299914013	-1.0493115	4.8052583	2.010363
14071310014013	-1.1866046	4.991585	2.0593965
14071319614013	-1.4219642	5.374044	2.1770763
14071329614013	-1.4415776	5.7565036	2.1574628
14071339614013	-1.2062179	6.080123	2.3830159
14071349914013	-0.8629852	6.3743224	2.4712758
14071359614013	-0.42168593	6.688135	2.7850885
14071367914013	-0.088259846	6.972528	3.0400615
14071379914013	0.5099458	7.560927	3.8147867
14071389614013	1.0493115	8.188553	4.4620256
14071400614013	1.7455837	8.845598	5.4132705
14071408914013	2.1182363	9.433997	6.080123
14071419614013	2.353596	10.032203	7.2078876
14071430014013	2.6379888	11.003061	8.031646
14071439614013	2.9616082	12.199472	7.590347
14071449614013	3.3734875	13.170331	6.7567816
14071460014013	3.5205872	13.542983	5.315204
14071467914013	3.2852278	13.140911	4.422799
14071479614013	2.5987623	11.973919	3.7167203
14071489614013	1.9613299	10.581375	3.216581
14071499914013	1.3827376	8.973084	2.9616082
14071509614013	1.3533176	8.355266	3.3244543
14071518914013	1.0395049	9.98317	4.9425516
14071526614013	-0.06864655	12.140633	5.629017
14071539614013	-3.7657535	15.563153	4.4914455
14071549614013	-7.227501	16.112326	2.4026291
14071559614013	-9.198637	16.230005	0.9610517
14071567614013	-7.9041595	16.867437	0.5491724
14071579614013	-2.6183755	17.62255	-0.60801226
14071589914013	-0.35303938	14.837461	-2.5791488
14071599614013	0.8041453	10.296982	-1.3042845
14071609614013	0.3334261	5.266171	3.8245933
14071619614013	-1.0787314	1.1571847	5.374044
14071629614013	-2.883155	-1.3238977	3.2361944
14071639614013	-4.148213	-1.7455837	1.0591182
14071649614013	-5.325011	-1.0591182	0.2353596
14071659614013	-4.7660317	0.69627213	1.8926834
14071668614013	-3.9520798	2.294756	0.9022118
14071679914013	-2.745862	8.296426	-4.167826
14071689914013	0.6374322	14.3569355	-9.384964
14071699614013	4.6385455	18.828768	-12.640772
14071709614013	6.2860627	19.515232	-9.492837
14071719914013	4.8248715	15.886772	-4.373766
14071729614013	2.6477954	12.189666	0.8629852
14071739814013	2.657602	9.875297	6.266449
14071747614013	1.2160245	7.8159	9.100571
14071755614013	-0.6766588	6.8450418	9.767424
14071764614013	-1.5690639	7.335374	6.099736
14071779614013	-1.9711366	9.54187	-1.7553903
14071789914013	-1.7455837	10.238142	-4.0403395
14071799614013	-0.40207264	10.473502	-4.020726
14071809614013	1.2748644	10.346016	-2.4614692
14071820014013	1.8240368	10.002783	-1.0493115
14071829914013	1.6082906	9.384964	0.36284605
14071839614013	1.2846711	8.894631	1.6279038
14071849614013	1.0493115	8.737725	1.6279038
14071859614013	0.6374322	8.767145	0.3334261
14071867614013	0.5295591	8.737725	-0.10787315
14071879614013	0.4707192	8.737725	-0.4314926
14071889614013	0.51975244	8.678885	-0.5099458
14071899914013	0.4118793	8.825985	-0.48052585
14071909814013	-0.0196133	8.924051	-0.56878567
14071919914013	-0.42168593	9.022118	-0.5001391
14071929614013	-0.79433864	8.933858	-0.8041453
14071939614013	-0.97085834	8.757339	-1.1375713
14071949914013	-1.0591182	8.472945	-1.4611908
14071959614013	-1.0002782	8.463139	-1.5984839
14071967614013	-1.0395049	8.472945	-1.4023509
14071979614013	-1.2062179	8.453332	-0.9120184
14071989614013	-1.3827376	8.639658	-0.7747253
14071998614013	-1.4808041	9.080957	-0.39226598
14072009614013	-1.4611908	9.65955	0.0588399
14072020014013	-1.4611908	9.855683	0.5491724
14072029614013	-1.5298374	9.787037	1.1081514
14072039614013	-1.3533176	9.620323	1.4317709
14072049614013	-0.9120184	9.80665	1.3337044
14072059614013	-0.4118793	10.100849	0.36284605
14072067614013	0.19613299	10.365629	-0.89240515
14072075614013	0.7747253	10.355823	-1.8338435
14072089614013	1.0296983	9.885103	-1.99075
14072099614013	1.1081514	10.1989155	-1.2552512
14072109914013	1.3238977	10.679441	-0.8237586
14072120014013	1.2552512	11.091321	-0.8629852
14072127914013	0.7256921	11.32668	-0.84337187
14072137914013	0.0196133	11.875853	-1.0689248
14072145614013	-0.26477954	12.630965	-1.0983448
14072153614013	-0.24516624	13.013424	-1.0591182
14072169914013	1.3238977	13.327237	-0.5001391
14072179914013	1.5984839	12.552511	-0.83356524
14072189914013	1.343511	12.317152	-0.79433864
14072200014013	0.8139519	12.346572	-0.8041453
14072209614013	-0.46091253	12.307345	-1.8926834
14072219914013	-1.0689248	11.993532	-2.7556686
14072229614013	-1.1081514	11.630687	-2.6183755
14072239914013	-0.97085834	10.797121	-1.8338435
14072249614013	-0.8237586	9.433997	-1.1866046
14072259614013	-1.5004175	8.580818	-0.26477954
14072268014013	-2.520309	8.159133	0.35303938
14072280014013	-3.7755601	7.923773	0.74530536
14072289614013	-4.579705	7.6197667	1.4023509
14072299614013	-4.020726	9.031924	1.7259704
14072309614013	-2.9027684	11.061901	1.0591182
14072319614013	-2.883155	12.121019	-0.7256921
14072329614013	-2.5693421	11.718946	-0.588399
14072339614013	-2.9223816	11.571847	0.56878567
14072349614013	-2.8733485	12.317152	1.93191
14072359614013	-2.7948952	12.375992	0.9120184
14072367614013	-1.5494506	12.199472	-2.2457228
14072379614013	-0.69627213	12.297539	-3.9324665
14072389614013	-0.098066494	12.483865	-1.0493115
14072399614013	-0.4511059	11.581654	0.8727918
14072409614013	0.14709975	10.620602	2.1966896
14072419614013	0.78453195	10.581375	1.3140911
14072429614013	1.0885382	9.708583	1.0002782
14072439614013	1.3925443	9.257478	1.8926834
14072449614013	1.5592573	9.071151	1.9711366
14072459614013	1.1081514	8.433719	1.2356379
14072468614013	0.18632634	7.6884136	1.0395049
14072479614013	-1.0787314	6.923495	0.5491724
14072490614013	-1.9515233	6.6489086	0.588399
14072498614013	-2.324176	6.5998755	0.78453195
14072506614013	-2.5889556	6.766588	0.9610517
14072514614013	-2.6183755	6.9333014	1.0296983
14072530014013	-2.128043	7.3746004	0.9904716
14072539914013	-2.0005565	7.305954	0.5099458
14072550014013	-2.0005565	7.021561	0.2941995
14072559614013	-1.9417167	6.4037423	0.35303938
14072567614013	-1.90249	5.9526362	0.55897903
14072580014013	-1.7455837	5.3544307	1.1277647
14072589614013	-1.6180972	4.9719715	1.6573238
14072600014013	-1.4219642	4.5698986	2.2751427
14072609614013	-1.2944778	4.4424124	2.5987623
14072619614013	-1.3140911	4.785645	3.0400615
14072629914013	-1.2748644	5.325011	2.912575
14072639914013	-1.0002782	5.7270837	2.883155
14072649614013	-0.74530536	5.874183	3.000835
14072659914013	-0.14709975	6.4233556	3.1283212
14072667614013	0.19613299	6.697942	3.1969678
14072675614013	0.5099458	7.001948	3.3931007
14072683614013	0.8237586	7.394214	3.7363336
14072691614013	1.147378	7.953193	4.403186
14072700914013	1.6377105	8.796565	5.3838506
14072709914013	1.99075	9.7183895	6.354709
14072717614013	2.1182363	10.257755	6.9038815
14072729614013	2.745862	12.542705	7.806093
14072739614013	3.2558076	14.003896	7.2373075
14072749614013	3.471554	14.915915	6.354709
14072759614013	3.049868	14.3569355	5.423077
14072769614013	2.1574628	12.866324	3.8736267
14072779614013	1.1375713	11.101128	2.775282
14072789914013	0.5099458	9.4241905	2.3732092
14072799614013	0.098066494	8.914245	2.432049
14072809614013	-0.2745862	10.306788	3.726527
14072817614013	-0.56878567	11.199194	4.589512
14072829614013	-2.6968286	14.327516	5.0798445
14072839614013	-4.7660317	14.258869	4.5993185
14072849614013	-4.7660317	13.660663	4.7660317
14072859614013	-3.0989013	14.386355	4.3541527
14072869614013	-0.69627213	15.60238	2.4026291
14072879614013	1.4023509	14.641328	-0.98066497
14072889614013	2.128043	11.924886	-4.5404787
14072899614013	1.4611908	8.982891	-4.197246
14072909614013	-0.2941995	5.658437	0.12748645
14072918614013	-1.343511	3.4323275	2.4614692
14072929614013	-2.6183755	0.65704554	3.5402005
14072938914013	-3.2950344	-0.24516624	4.481639
14072949614013	-3.6186538	0.65704554	4.4129925
14072959914013	-3.7951734	2.0495899	4.118793
14072969914013	-3.6774936	3.8442068	1.3140911
14072977914013	-3.412714	7.1588545	-2.853735
14072985914013	-2.5006957	9.404577	-5.423077
14072999614013	5.393657	18.044235	-13.278204
14073010014013	7.031368	18.740507	-8.973084
14073017614013	5.746697	17.053764	-4.030533
14073030014013	3.471554	14.092155	3.0106416
14073040014013	2.6379888	11.375713	9.041731
14073049614013	-0.6472389	8.669079	10.895188
14073059614013	-2.6772153	8.16894	5.79573
14073069614013	-3.3244543	8.463139	0.1569064
14073080014013	-3.2656143	9.18883	-3.275421
14073089614013	-2.5301156	9.679163	-4.452219
14073099614013	0.18632634	9.610517	-3.108708
14073110014013	1.6867437	9.375157	-1.5788707
14073119614013	1.6279038	8.737725	-0.71588546
14073129614013	0.9022118	8.090487	0.1176798
14073139614013	0.14709975	7.5511203	0.93163174
14073149614013	-0.26477954	7.2863407	1.3827376
14073159614013	-0.24516624	7.7178335	0.92182505
14073169614013	-0.32361946	8.1101	0.22555295
14073180014013	-0.1176798	8.600431	-0.16671304
14073189614013	0.24516624	9.149604	-0.12748645
14073200014013	0.4511059	9.394771	0.088259846
14073209614013	0.5982056	9.57129	0.14709975
14073217614013	0.48052585	9.443804	0.0588399
14073230014013	0.02941995	9.179024	-0.2745862
14073239614013	-0.0784532	9.022118	-0.75511205
14073249614013	-0.2745862	8.845598	-0.71588546
14073259614013	-0.34323275	8.757339	-0.5393657
14073269614013	-0.14709975	8.688692	-0.61781895
14073279614013	-0.14709975	8.639658	-0.8139519
14073289614013	-0.12748645	8.806372	-0.78453195
14073299614013	-0.1372931	9.414384	-0.6668522
14073309614013	-0.20593965	9.885103	-0.2549729
14073317614013	-0.38245934	10.002783	0.0588399
14073329614013	-0.7747253	9.68897	0.4314926
14073339614013	-0.88259846	9.463417	0.7354987
14073349614013	-1.0591182	9.247671	0.97085834
14073359614013	-0.61781895	9.394771	0.28439283
14073369614013	0.17651969	9.63013	-0.2941995
14073379614013	0.92182505	9.747809	-0.9414384
14073389614013	1.5200307	9.89491	-1.3533176
14073399614013	1.7553903	9.845877	-1.4415776
14073408614013	1.7848103	10.218529	-1.0983448
14073416614013	1.8730701	10.630408	-0.9610517
14073424614013	1.8142302	10.885382	-0.89240515
14073439914013	0.83356524	11.395327	-0.5393657
14073449614013	0.42168593	12.366185	-0.6374322
14073457914013	0.4118793	13.268397	-0.55897903
14073467814013	0.97085834	14.082349	-0.24516624
14073475914013	1.6475172	13.886216	-0.0588399
14073489614013	2.1182363	12.591739	-0.2353596
14073499914013	1.8730701	12.101406	-0.26477954
14073509614013	1.3533176	11.964112	-0.8237586
14073518914013	0.9022118	11.964112	-1.539644
14073526614013	0.39226598	11.895466	-2.1672697
14073539614013	-0.34323275	11.140354	-2.2359161
14073549614013	-0.9120184	10.355823	-1.9122967
14073560014013	-1.3827376	9.649743	-1.2552512
14073570014013	-2.294756	9.277091	-0.06864655
14073579614013	-3.3734875	8.982891	0.18632634
14073589614013	-4.6385455	8.443525	1.1081514
14073600014013	-5.3053975	8.727919	2.1182363
14073610014013	-4.5208654	11.130548	1.2356379
14073618914013	-3.89324	12.474058	-0.48052585
14073630014013	-2.294756	12.493671	0.2745862
14073639914013	-3.049868	12.160246	0.40207264
14073649614013	-3.550007	12.248506	2.128043
14073659614013	-2.883155	11.748366	-1.4023509
14073669614013	-2.010363	11.630687	-4.059953
14073679614013	-0.36284605	12.06218	-2.2555294
14073689914013	0.18632634	13.209558	-0.00980665
14073700614013	-0.098066494	12.552511	1.2258313
14073709614013	-0.0588399	11.41494	1.5102241
14073718614013	0.34323275	10.404856	1.8926834
14073726614013	0.7747253	9.992976	1.1964113
14073739614013	1.5298374	9.2378645	1.6573238
14073749914013	1.99075	9.120184	1.4513842
14073759914013	1.539644	8.531785	0.9414384
14073769614013	0.83356524	7.8453197	-0.00980665
14073779614013	-0.5001391	7.001948	-0.38245934
14073789614013	-1.5494506	6.7273617	-0.3334261
14073799614013	-2.3634026	6.492002	-0.18632634
14073809614013	-2.7654753	6.442969	0.088259846
14073819614013	-3.0106416	6.4723887	0.89240515
14073828914013	-2.883155	6.5704556	1.2062179
14073840014013	-2.4222424	6.639102	1.5494506
14073849614013	-1.99075	6.6292953	1.5298374
14073859614013	-1.735777	6.3252892	1.3042845
14073869814013	-1.3337044	5.933023	1.2944778
14073879614013	-1.2454445	4.883712	1.9515233
14073888914013	-0.9904716	4.6679654	3.1185145
14073899614013	-1.1081514	4.4914455	4.452219
14073910014013	-1.0983448	4.785645	4.530672
14073919814013	-1.1081514	5.2759776	4.177633
14073927614013	-1.0885382	5.7172766	3.9815
14073939914013	-0.7747253	6.413549	4.177633
14073947614013	-0.51975244	6.746975	4.167826
14073957614013	-0.0784532	6.9333014	4.0109196
14073965914013	0.1372931	6.9627213	4.0403395
14073979914013	1.3042845	7.001948	4.4326057
14073989914013	2.0495899	7.119628	5.089651
14073999914013	2.6968286	7.58054	5.82515
14074009914013	3.2361944	8.257199	6.5116153
14074019614013	3.0890946	9.061344	7.198081
14074027614013	2.3830159	9.855683	7.384407
14074039914013	1.8338435	11.503201	7.4138274
14074049914013	1.7553903	13.023231	6.8156214
14074059614013	1.7651969	14.455002	5.933023
14074069614013	1.9221034	15.200307	5.2759776
14074079914013	1.343511	14.023509	3.9913065
14074089614013	0.4707192	11.483587	2.5301156
14074099614013	0.83356524	8.982891	2.5889556
14074110014013	0.9610517	6.4821954	3.049868
14074119914013	0.8237586	3.7559469	4.2462792
14074129014013	0.48052585	2.128043	4.481639
14074139614013	-0.5295591	1.7259704	4.5404787
14074149614013	-2.8733485	5.9232163	6.1487694
14074159614013	-4.864098	12.101406	3.6186538
14074169614013	-7.227501	17.347963	0.1372931
14074179614013	-9.796844	17.808876	0.46091253
14074189614013	-9.433997	17.632357	1.7946169
14074199614013	-3.0989013	18.730701	3.1871612
14074209614013	2.5987623	19.593687	3.726527
14074219614013	6.2762556	17.59313	3.7559469
14074227914013	5.236751	13.199751	2.0888164
14074240014013	1.5886773	7.198081	0.26477954
14074249614013	-1.6082906	2.265336	0.06864655
14074259914013	-3.471554	-1.1866046	0.5491724
14074269614013	-3.6774936	-1.6082906	1.1866046
14074279914013	-3.1969678	-0.3334261	1.9221034
14074289614013	-2.6379888	1.2650578	2.5006957
14074299614013	-2.2163029	2.8439283	1.147378
14074309614013	-1.8338435	6.521422	-1.6769371
14074319614013	0.9120184	11.62088	-6.560649
14074327614013	3.7657535	14.798235	-11.26784
14074340014013	6.305676	16.27904	-10.149882
14074350014013	5.7270837	15.004174	-4.9719715
14074358614013	3.7069137	12.915358	-1.2258313
14074369614013	3.3146477	12.385798	4.5502853
14074379614013	1.5494506	12.101406	10.963835
14074389614013	-1.4415776	11.022675	11.395327
14074399614013	-2.7850885	10.610795	5.423077
14074409614013	-3.4813607	10.365629	-0.2353596
14074419914013	-3.5990405	10.296982	-3.7657535
14074427914013	-2.294756	10.042009	-4.452219
14074439614013	1.3337044	9.669356	-3.0989013
14074449614013	1.8534569	9.169217	-2.2064962
14074459614013	1.7259704	8.678885	-0.83356524
14074469614013	1.0689248	8.374879	0.4511059
14074479914013	0.37265268	8.13952	0.9904716
14074489614013	0.06864655	8.188553	0.48052585
14074499614013	0.00980665	8.247393	-0.48052585
14074509614013	-0.10787315	8.051259	-0.8139519
14074519614013	-0.0392266	7.923773	-0.951245
14074527614013	0.16671304	8.070872	-0.88259846
14074539614013	0.40207264	8.453332	-0.56878567
14074549614013	0.40207264	8.649466	-0.3334261
14074560014013	0.18632634	8.649466	-0.35303938
14074569614013	0.0784532	8.590625	-0.6276256
14074579614013	-0.0196133	8.531785	-1.2454445
14074589614013	-0.24516624	8.443525	-1.7946169
14074600014013	-0.30400613	8.512172	-1.8338435
14074609914013	-0.5001391	8.698499	-1.4611908
14074620014013	-0.8041453	9.061344	-0.78453195
14074628614013	-0.9414384	9.394771	-0.22555295
14074636614013	-1.2454445	9.796844	0.19613299
14074649914013	-1.539644	10.100849	0.78453195
14074659914013	-1.6671305	9.708583	0.951245
14074669614013	-1.1964113	9.169217	0.69627213
14074679914013	-0.79433864	9.071151	0.57859236
14074689614013	-0.0392266	9.63013	0.049033247
14074699914013	0.3138128	10.306788	-0.56878567
14074709614013	1.2258313	10.512729	-1.3337044
14074719914013	1.3337044	10.355823	-1.2454445
14074729914013	1.4513842	10.100849	-0.83356524
14074739914013	1.4808041	10.414662	-0.75511205
14074749914013	1.539644	10.855961	-0.7649187
14074759914013	1.3238977	11.179581	-0.5393657
14074769614013	0.78453195	11.248227	-0.71588546
14074777614013	0.4118793	11.689527	-0.951245
14074785614013	0.30400613	12.581932	-0.93163174
14074793914013	0.57859236	13.131104	-1.0198916
14074801614013	1.3827376	13.719503	-0.57859236
14074810614013	2.2163029	13.395884	-0.588399
14074818614013	2.441856	13.111491	-0.7256921
14074829614013	2.6674087	12.444638	-0.6864655
14074839614013	2.5497289	12.689805	-0.5099458
14074849914013	2.0005565	12.434832	-0.74530536
14074859914013	0.70607877	11.59146	-1.2356379
14074869914013	-0.37265268	10.748088	-1.3140911
14074877914013	-1.2846711	9.502644	-1.372931
14074885614013	-1.8044236	9.286898	-0.7354987
14074893614013	-2.2751427	9.179024	-0.0392266
14074901914013	-2.8341217	8.767145	0.51975244
14074909614013	-3.334261	8.894631	1.2944778
14074919614013	-3.9226599	9.855683	1.6475172
14074929914013	-4.06976	10.806928	0.69627213
14074939614013	-2.7262487	12.503478	-0.35303938
14074949614013	-1.5592573	13.150718	-1.5788707
14074959614013	-0.74530536	12.993811	-1.0689248
14074969914013	-1.6671305	12.621159	-0.5393657
14074977614013	-1.3925443	12.807485	-0.2941995
14074989614013	-1.8926834	11.846433	1.1277647
14074999614013	-1.5886773	11.346293	-2.2457228
14075009614013	-1.0493115	11.395327	-2.9223816
14075019614013	-0.40207264	11.964112	-0.5001391
14075029614013	-0.2353596	11.758173	0.22555295
14075039914013	-0.049033247	11.012868	0.7649187
14075049614013	-0.0196133	10.012589	0.83356524
14075060014013	0.7256921	9.590903	1.3827376
14075070014013	1.3827376	9.335931	0.9022118
14075077914013	1.6180972	9.247671	-0.16671304
14075089614013	1.3631244	8.325846	-0.65704554
14075100114013	0.75511205	7.2863407	-0.19613299
14075110014013	-0.37265268	6.7077484	0.20593965
14075120014013	-1.5102241	6.639102	0.83356524
14075129914013	-2.2163029	6.825428	1.5004175
14075140014013	-2.824315	7.0607877	1.9417167
14075150014013	-3.167548	7.4922805	1.7651969
14075157614013	-3.1969678	7.8551264	1.5200307
14075168014013	-2.7556686	8.1983595	1.0689248
14075175914013	-2.6772153	8.335652	0.92182505
14075189614013	-2.010363	7.5413136	-0.5982056
14075199614013	-1.8632635	6.639102	-0.75511205
14075209614013	-1.5004175	6.1389627	-0.5001391
14075219614013	-1.2258313	5.658437	-0.049033247
14075229614013	-1.0493115	5.5015306	0.30400613
14075239614013	-1.0885382	5.393657	1.1081514
14075249614013	-1.1277647	5.5309505	1.6769371
14075259614013	-0.97085834	5.8153434	1.99075
14075269614013	-0.83356524	6.1389627	2.2849493
14075277614013	-0.60801226	6.462582	2.490889
14075286614013	-0.44129923	6.639102	2.6772153
14075300014013	0.24516624	7.1588545	2.8145084
14075309614013	0.6374322	7.4922805	2.9223816
14075319614013	1.1375713	8.041452	3.9815
14075329614013	1.5984839	8.776952	4.5502853
14075339614013	1.8730701	9.306511	5.462304
14075350014013	1.9122967	9.855683	6.364516
14075359614013	2.010363	10.463696	7.276534
14075369614013	2.294756	11.307067	8.061066
14075377614013	2.6968286	12.336765	8.345459
14075389614013	3.5107806	13.297817	7.9335794
14075399614013	4.0795665	13.023231	6.433162
14075409614013	4.6091256	11.915079	5.0013914
14075419614013	5.1288776	10.512729	4.2364726
14075429614013	4.8542914	9.012311	3.9128532
14075439614013	4.275699	7.58054	3.6480737
14075449914013	3.5303938	6.639102	3.2656143
14075459914013	2.1672697	8.080679	4.658159
14075469914013	0.88259846	12.591739	6.5312285
14075477614013	-0.88259846	15.57296	4.726805
14075489614013	-5.8643765	16.730145	1.3140911
14075500114013	-9.061344	15.210114	-0.3138128
14075510014013	-7.354987	15.935806	0.69627213
14075520014013	-1.4808041	15.582767	1.7161638
14075530014013	0.8139519	12.709418	0.1569064
14075539614013	1.8240368	10.1989155	1.4415776
14075550014013	0.4314926	7.894353	3.8147867
14075560014013	-2.8635418	5.2759776	2.745862
14075570014013	-5.1288776	1.5788707	-0.049033247
14075579014013	-5.266171	0.38245934	-0.22555295
14075586614013	-5.2857842	-0.12748645	0.22555295
14075600014013	-3.971693	1.6965504	0.5982056
14075609914013	-3.1871612	3.275421	-1.3631244
14075619614013	-1.6573238	9.110377	-4.8052583
14075629614013	2.5497289	15.121854	-9.326124
14075639914013	7.0117545	18.181528	-12.130826
14075650014013	7.75706	17.65197	-8.982891
14075659614013	4.0109196	14.376549	-4.756225
14075669914013	2.824315	12.297539	-0.951245
14075678914013	3.1479347	11.179581	2.9027684
14075689914013	1.3533176	9.57129	9.68897
14075699914013	-0.9414384	8.845598	10.600988
14075709614013	-2.0005565	8.4925585	4.962165
14075719614013	-2.912575	8.355266	-0.3334261
14075729614013	-3.275421	9.120184	-4.030533
14075739614013	-3.0302548	10.0910425	-5.1386843
14075749614013	-0.10787315	10.9442215	-3.3440676
14075759614013	2.0397832	10.551955	-1.5886773
14075767614013	2.1672697	10.051816	-0.8531785
14075779814013	2.0299766	8.355266	1.2944778
14075787914013	1.3238977	7.5707335	1.5200307
14075799914013	0.5982056	7.590347	1.147378
14075809614013	0.46091253	8.119906	0.24516624
14075819614013	0.38245934	8.551398	-0.55897903
14075829614013	0.51975244	8.767145	-0.6472389
14075839614013	0.8531785	8.845598	-0.56878567
14075849614013	0.98066497	9.031924	-0.3138128
14075859914013	0.9414384	9.15941	-0.3334261
14075867914013	0.56878567	9.139797	-0.56878567
14075875614013	0.4118793	8.973084	-0.69627213
14075883814013	0.1569064	8.688692	-0.5393657
14075899614013	-0.36284605	8.286619	-0.24516624
14075909914013	-0.6668522	8.463139	-0.098066494
14075919614013	-0.8727918	8.786758	-0.088259846
14075929614013	-0.79433864	9.022118	-0.18632634
14075939614013	-0.70607877	9.100571	-0.12748645
14075949614013	-0.61781895	9.355544	0.00980665
14075959614013	-0.48052585	9.51245	0.2549729
14075970014013	-0.44129923	9.375157	0.46091253
14075979614013	-0.42168593	9.129991	0.4314926
14075987914013	-0.6766588	9.0515375	0.3334261
14075999614013	-0.78453195	9.179024	0.24516624
14076009614013	-0.34323275	9.5320635	-0.10787315
14076019614013	0.38245934	10.081236	-0.61781895
14076029614013	0.74530536	9.83607	-1.5004175
14076039614013	0.74530536	9.914523	-1.3533176
14076049614013	0.8531785	10.336209	-1.2356379
14076059614013	0.9414384	10.787314	-0.88259846
14076069614013	0.61781895	10.924608	-0.34323275
14076079614013	0.098066494	10.816734	-0.06864655
14076087614013	-0.20593965	10.718668	-0.16671304
14076099614013	-0.38245934	11.32668	-0.7354987
14076109614013	0.12748645	12.738838	-0.60801226
14076119614013	1.2258313	13.425303	-0.48052585
14076127614013	2.2359161	13.6900835	-0.2353596
14076136614013	2.7654753	12.817291	-0.36284605
14076145614013	2.8145084	12.503478	-0.56878567
14076159614013	2.324176	11.73856	-0.97085834
14076169614013	2.128043	12.346572	-0.9120184
14076179614013	1.9711366	12.493671	-0.7747253
14076187614013	1.4415776	12.346572	-0.7747253
14076199614013	0.5099458	10.885382	-0.951245
14076209614013	-0.19613299	10.375436	-0.5491724
14076219614013	-1.1081514	10.002783	0.098066494
14076229614013	-2.520309	9.267284	-0.18632634
14076238614013	-3.0106416	9.286898	-0.1569064
14076249614013	-3.8834333	9.061344	0.1569064
14076259614013	-4.001113	10.581375	0.65704554
14076270014013	-4.0501466	12.121019	-0.2745862
14076279614013	-3.638267	12.846711	-1.0100849
14076287614013	-3.0890946	13.042844	-0.6472389
14076299614013	-2.5791488	13.386077	1.1866046
14076310014013	-3.1283212	12.552511	1.4121575
14076320014013	-1.6475172	11.73856	-1.1866046
14076329614013	-1.0787314	11.62088	-3.9128532
14076339614013	-0.2941995	12.013146	-2.9027684
14076349614013	0.0784532	12.160246	-0.02941995
14076360014013	0.0	11.277647	1.0198916
14076369614013	-0.00980665	10.287175	0.7747253
14076379614013	0.2157463	9.83607	0.8237586
14076387614013	0.46091253	9.581097	1.7651969
14076399614013	1.4219642	9.48303	1.3631244
14076410014013	1.5592573	9.179024	0.049033247
14076419614013	1.2062179	8.286619	-0.088259846
14076429614013	0.6668522	7.4628606	0.0
14076439614013	0.06864655	6.766588	0.44129923
14076449614013	-0.8139519	6.413549	0.89240515
14076459614013	-1.4219642	6.639102	1.0885382
14076469914013	-1.8436501	7.0705943	1.3140911
14076479614013	-1.8534569	7.737447	0.8629852
14076487614013	-1.7455837	7.8453197	0.7747253
14076497114013	-1.8240368	7.7766733	0.17651969
14076505914013	-1.8044236	7.6589932	-0.0784532
14076513914013	-1.90249	6.9038815	-0.16671304
14076521914013	-1.9122967	6.5704556	-0.00980665
14076529814013	-1.90249	5.9428296	-0.0196133
14076539914013	-1.8142302	5.5897903	0.39226598
14076549914013	-1.7259704	5.2857842	0.9904716
14076559914013	-1.3140911	5.1582975	1.3631244
14076569914013	-1.4219642	4.932745	1.6671305
14076577814013	-1.4906107	4.9425516	1.9515233
14076585614013	-1.5004175	5.207331	2.0495899
14076593614013	-1.4415776	5.5897903	2.1378496
14076601614013	-1.3238977	5.8643765	2.2751427
14076619614013	-0.4314926	6.609682	2.7164419
14076630014013	-0.00980665	6.9038815	2.9321883
14076639614013	0.57859236	7.335374	3.5402005
14076650014013	1.147378	8.021839	4.3835726
14076659614013	1.7455837	8.776952	5.462304
14076670014013	2.3830159	9.68897	6.639102
14076679614013	2.7360554	10.395049	7.8845463
14076687614013	3.0890946	10.983448	8.482752
14076700014013	3.726527	12.356379	8.561205
14076707914013	4.0991797	13.140911	7.7472534
14076719614013	3.471554	12.954584	6.746975
14076730014013	2.128043	12.179859	5.9134097
14076739914013	1.3925443	11.199194	4.736612
14076750014013	1.0787314	9.973363	3.86382
14076759914013	0.55897903	8.482752	3.0694814
14076769614013	0.42168593	7.7766733	2.9223816
14076779614013	0.6864655	9.0515375	4.6679654
14076787614013	-0.098066494	11.32668	6.5998755
14076799614013	-2.912575	14.150995	4.726805
14076809614013	-5.3642373	14.396162	2.6674087
14076819614013	-6.7567816	13.945056	2.186883
14076829914013	-5.5309505	14.827655	2.4712758
14076839614013	-1.5690639	16.592852	1.6475172
14076849614013	1.0983448	16.230005	-0.7649187
14076859614013	1.5592573	13.621436	-3.7853668
14076869814013	0.9022118	10.610795	-2.0299766
14076879614013	-0.5001391	6.5998755	2.5006957
14076887614013	-1.8730701	3.3538742	4.256086
14076899614013	-4.020726	-0.4707192	3.0106416
14076909614013	-5.1288776	-1.3337044	1.8632635
14076917614013	-5.295591	-0.7354987	1.8436501
14076925614013	-4.932745	0.51975244	2.4516625
14076933614013	-4.0991797	1.9221034	1.8926834
14076949914013	-1.2160245	8.482752	-6.7273617
14076959914013	3.2361944	15.57296	-11.189387
14076969614013	7.2078876	19.005287	-11.777786
14076978914013	8.365072	19.58388	-10.0910425
14076989914013	5.8447633	15.45528	-1.6082906
14076997614013	4.628739	13.925443	-0.49033248
14077009614013	3.2263877	9.973363	5.570177
14077019614013	1.7946169	8.178746	8.816178
14077029614013	-0.4314926	7.7668667	8.521978
14077039614013	-1.3533176	8.463139	3.9815
14077049614013	-1.7161638	9.384964	-1.1866046
14077059614013	-1.7651969	9.63013	-3.89324
14077069614013	-1.3925443	9.757616	-4.2168593
14077079614013	0.57859236	10.346016	-2.824315
14077089614013	2.2849493	10.247949	-1.372931
14077097614013	2.4712758	9.747809	-0.48052585
14077109614013	1.7259704	8.678885	1.2062179
14077119914013	0.951245	8.257199	1.7455837
14077129614013	0.5295591	8.345459	1.147378
14077139614013	0.39226598	8.355266	0.14709975
14077149614013	0.4511059	8.531785	-0.4314926
14077159614013	0.56878567	8.629851	-0.69627213
14077169614013	0.7256921	8.776952	-0.6668522
14077178614013	0.61781895	8.757339	-0.6766588
14077189614013	0.32361946	8.708305	-0.4314926
14077197614013	0.14709975	8.659272	-0.10787315
14077209614013	-0.10787315	8.659272	0.14709975
14077217614013	-0.14709975	8.649466	0.0784532
14077227614013	-0.17651969	8.541592	-0.6668522
14077235614013	-0.088259846	8.541592	-0.8041453
14077249914013	-0.1372931	8.610238	-1.2258313
14077259914013	-0.19613299	8.678885	-0.97085834
14077269914013	-0.39226598	9.0515375	-0.3138128
14077279614013	-0.69627213	9.463417	0.6766588
14077289914013	-0.83356524	9.7183895	1.7259704
14077297814013	-0.9120184	9.620323	2.1084297
14077309914013	-0.38245934	9.031924	2.0201697
14077319914013	-0.06864655	8.904438	0.79433864
14077329814013	0.35303938	9.296704	-0.8041453
14077339914013	0.69627213	9.9047165	-1.9417167
14077349914013	0.70607877	10.179302	-2.5105023
14077359914013	0.8237586	10.453889	-2.2064962
14077369914013	1.3042845	11.277647	-0.98066497
14077379914013	1.6377105	11.454167	-0.2353596
14077389614013	1.5494506	11.228614	-0.3138128
14077397614013	1.0296983	11.120741	-0.79433864
14077409614013	0.39226598	11.885659	-1.2650578
14077419614013	0.42168593	12.984004	-0.61781895
14077429614013	1.0591182	13.444917	-0.4707192
14077439614013	1.90249	12.905551	-0.57859236
14077449614013	2.1378496	12.160246	-0.36284605
14077459914013	2.1084297	11.73856	0.00980665
14077469914013	1.99075	11.826819	-0.30400613
14077479614013	1.735777	11.915079	-1.147378
14077489614013	1.539644	12.022953	-1.8632635
14077498614013	1.3631244	11.67972	-1.9711366
14077509914013	1.0002782	10.954028	-1.6475172
14077519614013	0.46091253	10.179302	-1.5102241
14077529614013	-0.36284605	9.934136	-1.2356379
14077539614013	-1.7651969	9.747809	-0.39226598
14077549614013	-2.9616082	9.51245	0.5099458
14077559614013	-4.059953	9.169217	1.4808041
14077570014013	-4.7660317	10.022396	2.1574628
14077579614013	-4.736612	11.758173	0.92182505
14077589614013	-4.501252	12.621159	-2.4124358
14077597614013	-4.324733	12.2779255	-3.3146477
14077609614013	-2.8439283	11.718946	-0.71588546
14077619614013	-3.4911673	12.170053	1.2062179
14077629614013	-2.5889556	12.474058	3.0302548
14077639614013	-1.0885382	11.895466	-0.16671304
14077648614013	-0.16671304	12.366185	-4.0403395
14077656614013	0.70607877	12.836905	-3.1871612
14077670014013	1.4611908	12.03276	0.78453195
14077679614013	1.1571847	11.091321	2.0005565
14077690014013	1.4513842	10.071429	2.5006957
14077700014013	1.9711366	9.63013	1.8828768
14077709614013	2.2457228	9.384964	1.0100849
14077720014013	2.128043	9.061344	0.32361946
14077729914013	1.4808041	8.423912	-0.19613299
14077739614013	0.6276256	7.6197667	-0.42168593
14077749614013	-0.44129923	6.796008	-0.2745862
14077759614013	-1.4023509	6.541035	0.1569064
14077769914013	-2.098623	6.6489086	-0.18632634
14077779914013	-2.4516625	6.913688	-0.4314926
14077789914013	-2.5105023	7.001948	-0.06864655
14077797614013	-2.3634026	7.080401	0.12748645
14077809614013	-2.1378496	6.9529147	0.5982056
14077817614013	-2.0299766	6.8450418	0.8041453
14077827614013	-1.90249	6.050703	1.0296983
14077835614013	-1.7651969	5.521144	1.2356379
14077849614013	-1.3140911	4.8935184	1.6573238
14077859914013	-1.0100849	4.6091256	1.8926834
14077869614013	-0.8531785	4.373766	2.0495899
14077879614013	-0.8629852	4.4326057	2.186883
14077889614013	-0.92182505	4.589512	2.2751427
14077899614013	-0.8237586	5.0504246	2.5889556
14077909614013	-0.5491724	5.5015306	2.991028
14077917614013	-0.24516624	5.8447633	3.1577413
14077925614013	0.12748645	6.2468357	3.471554
14077933614013	0.40207264	6.541035	3.6578803
14077949914013	1.4023509	7.9728065	4.834678
14077958614013	1.5886773	8.335652	5.236751
14077969914013	2.5399222	10.012589	6.972528
14077979914013	2.8341217	11.003061	8.080679
14077989614013	3.2361944	12.297539	8.727919
14077999914013	3.667687	13.69989	8.16894
14078007614013	3.9030466	14.131382	7.737447
14078019614013	4.1580195	13.709697	6.8156214
14078029614013	3.1283212	12.611352	5.6094036
14078039614013	1.90249	11.209001	4.1384063
14078049914013	0.8139519	9.502644	2.8047018
14078059614013	0.16671304	8.463139	1.6573238
14078069614013	-0.4314926	9.326124	2.657602
14078079914013	-1.1964113	12.287732	4.864098
14078089614013	-3.3146477	14.553068	4.1089864
14078099914013	-5.7565036	15.151274	2.991028
14078107614013	-6.541035	15.121854	3.3931007
14078119614013	-4.344346	16.592852	4.785645
14078128614013	-0.93163174	16.994925	3.1969678
14078139914013	1.0983448	15.3376	-0.6374322
14078149614013	1.1866046	12.4642515	-3.6873002
14078160014013	0.7354987	8.718112	-1.2356379
14078169814013	-0.6472389	4.1874394	1.9221034
14078179914013	-1.4611908	0.35303938	2.824315
14078189614013	-2.7262487	-1.5494506	1.6769371
14078199614013	-4.0403395	-1.6475172	0.40207264
14078207614013	-3.89324	-0.26477954	0.5982056
14078219614013	-2.9518015	1.735777	0.588399
14078229614013	-2.128043	4.2953124	-3.638267
14078239614013	-0.32361946	11.9052725	-8.561205
14078249614013	4.403186	17.573517	-10.650022
14078259614013	7.0607877	19.34852	-8.992698
14078269914013	6.6783285	17.76965	-3.697107
14078279614013	3.7461402	14.033316	0.48052585
14078289614013	3.1381278	11.73856	5.0798445
14078299614013	2.5987623	9.669356	8.345459
14078307914013	0.4118793	8.306232	9.090764
14078319914013	-1.6475172	7.982613	6.0703163
14078329614013	-2.3732092	8.669079	1.5592573
14078339914013	-2.6968286	9.68897	-2.2163029
14078349614013	-2.5301156	10.002783	-4.06976
14078359614013	-0.40207264	10.1989155	-3.471554
14078369614013	1.6475172	9.816457	-2.1378496
14078379614013	1.99075	9.129991	-0.84337187
14078389614013	1.6377105	8.404299	0.69627213
14078399614013	0.8041453	7.9041595	1.5886773
14078407614013	0.38245934	7.7766733	1.2748644
14078415614013	0.4511059	7.923773	0.26477954
14078429614013	0.5099458	8.090487	-0.70607877
14078439614013	0.6276256	8.345459	-0.6374322
14078449614013	0.8139519	8.374879	-0.5393657
14078459614013	0.9414384	8.561205	-0.39226598
14078469614013	0.75511205	8.698499	-0.48052585
14078479614013	0.5099458	8.933858	-0.44129923
14078489614013	0.1176798	8.8652115	-0.49033248
14078499614013	-0.19613299	8.855405	-0.57859236
14078508614013	-0.26477954	8.894631	-0.61781895
14078516614013	-0.5099458	8.845598	-0.6276256
14078524614013	-0.6766588	8.835792	-0.8041453
14078539614013	-0.9414384	8.825985	-0.97085834
14078549614013	-1.0885382	9.120184	-0.5982056
14078559614013	-1.2160245	9.502644	0.5982056
14078569614013	-1.0983448	9.48303	1.5592573
14078580014013	-0.6374322	9.15941	1.5298374
14078590014013	-0.2745862	8.884825	0.8727918
14078598614013	-0.2745862	9.129991	-0.0392266
14078607014013	-0.6276256	9.649743	-0.37265268
14078619614013	-0.049033247	10.5715685	-1.2160245
14078629614013	0.34323275	10.532342	-1.7161638
14078639614013	0.7747253	10.600988	-1.6180972
14078649914013	1.2258313	10.895188	-0.951245
14078659914013	1.5886773	11.228614	-0.40207264
14078667914013	1.8142302	11.434553	-0.2745862
14078677814013	1.6279038	11.29726	-0.088259846
14078685814013	1.147378	11.140354	-0.4511059
14078693914013	0.9120184	11.640493	-0.9022118
14078701914013	0.84337187	12.013146	-0.93163174
14078709914013	1.0002782	13.05265	-0.49033248
14078719614013	1.7946169	13.08207	-0.06864655
14078729914013	2.3143694	12.395605	-0.1372931
14078739914013	2.4222424	11.4247465	-0.12748645
14078749914013	2.2555294	11.042288	-0.1372931
14078759914013	1.9122967	11.29726	-0.39226598
14078769914013	1.2650578	11.32668	-0.6374322
14078779914013	0.9022118	10.904995	-0.8041453
14078789914013	0.35303938	9.669356	-1.2650578
14078797614013	0.0392266	9.45361	-1.2846711
14078805614013	-0.35303938	9.57129	-0.7649187
14078813814013	-0.9120184	9.86549	-0.18632634
14078823614013	-1.7455837	9.92433	0.32361946
14078831614013	-2.7654753	10.169496	0.71588546
14078850014013	-4.1580195	12.071986	0.6276256
14078859614013	-3.9226599	13.49395	-0.78453195
14078869614013	-3.4029074	14.131382	-3.3440676
14078879614013	-2.8341217	13.592016	-4.1580195
14078889914013	-3.0400615	12.974197	-0.7649187
14078899914013	-4.2364726	12.895744	1.8534569
14078907614013	-3.412714	11.954306	0.69627213
14078919614013	-1.9122967	11.542427	-2.128043
14078929614013	-0.2549729	12.768258	-1.9417167
14078939614013	0.5001391	12.670192	0.10787315
14078949614013	0.8237586	12.071986	1.1179581
14078959614013	1.0591182	11.209001	1.2062179
14078969614013	0.951245	10.767701	0.69627213
14078979614013	1.4317709	9.590903	0.8139519
14078989614013	1.6377105	9.15941	0.049033247
14078999614013	1.2356379	8.541592	-0.5295591
14079008614013	0.8041453	7.982613	-0.65704554
14079019614013	-0.34323275	7.0607877	-0.5099458
14079027614013	-1.3925443	6.5998755	-0.34323275
14079037614013	-2.1476562	6.384129	0.1176798
14079045614013	-2.490889	6.3939357	0.51975244
14079053914013	-2.6281822	6.590069	1.0198916
14079062614013	-2.5497289	6.7567816	1.1179581
14079070614013	-2.432049	6.7273617	1.0591182
14079078614013	-2.2751427	6.668522	0.8139519
14079089614013	-2.3634026	6.3154826	0.46091253
14079099614013	-2.4222424	5.6388235	0.38245934
14079107614013	-2.098623	5.1975245	0.2157463
14079119614013	-1.7848103	4.5404787	0.4707192
14079129614013	-1.735777	4.1874394	1.0787314
14079139614013	-1.6279038	4.1089864	2.0790098
14079147614013	-1.5592573	4.2364726	2.5791488
14079155614013	-1.4513842	4.2462792	2.8341217
14079169614013	-1.0787314	4.844485	3.3636808
14079179614013	-0.74530536	5.2465577	3.5892339
14079189614013	-0.2157463	5.6878567	3.7755601
14079199614013	0.30400613	6.158576	4.118793
14079209614013	1.0493115	6.8842683	4.677772
14079217614013	1.7455837	7.5118937	5.3544307
14079229614013	2.824315	8.718112	6.688135
14079240014013	3.5696206	9.767424	7.982613
14079250014013	4.256086	10.885382	9.208445
14079259614013	4.785645	12.454445	9.179024
14079269614013	4.6875787	13.925443	7.6295733
14079280014013	3.89324	14.670748	5.991863
14079289614013	2.7850885	13.58221	5.040618
14079299614013	2.1770763	12.06218	4.118793
14079310014013	1.5886773	10.816734	3.2852278
14079317614013	1.2650578	9.7183895	3.049868
14079325614013	0.97085834	9.022118	2.6379888
14079339614013	-0.588399	8.541592	3.7559469
14079350014013	-1.4023509	11.228614	6.2272224
14079359914013	-2.9616082	14.327516	6.0408964
14079369914013	-4.726805	16.298653	4.403186
14079379914013	-6.1781893	16.749758	3.1871612
14079389614013	-4.658159	18.063848	3.2558076
14079399914013	-0.2941995	18.142302	2.3830159
14079409614013	2.1966896	14.347129	-2.1574628
14079418614013	1.8338435	10.532342	-4.9229383
14079426914013	1.1669914	8.159133	-3.4029074
14079434614013	0.588399	6.943108	-1.4611908
14079449614013	-3.4617474	0.92182505	3.6873002
14079459914013	-4.560092	-0.79433864	2.6772153
14079469914013	-5.4524975	-1.3925443	1.706357
14079479914013	-5.1975245	-0.70607877	2.294756
14079489914013	-4.001113	1.1277647	2.9223816
14079499914013	-2.6772153	3.3636808	-0.6276256
14079509914013	0.22555295	13.34685	-6.590069
14079517914013	3.9520798	18.279594	-9.63013
14079529814013	8.051259	19.593687	-10.983448
14079537914013	8.051259	18.348242	-6.129156
14079549914013	3.971693	13.905829	-1.6082906
14079559914013	2.8635418	11.101128	1.7259704
14079569914013	2.3830159	8.521978	4.883712
14079579914013	0.35303938	7.247114	7.7962866
14079589914013	-1.3140911	7.2373075	7.2667274
14079599914013	-1.7946169	8.061066	3.246001
14079609914013	-1.90249	8.855405	-0.60801226
14079617914013	-1.735777	9.698776	-3.1577413
14079629914013	-0.6374322	10.473502	-4.4620256
14079639914013	1.0100849	11.012868	-3.1381278
14079649914013	2.5595355	10.973641	-0.9904716
14079659914013	3.0596747	10.100849	0.92182505
14079669914013	2.6477954	8.590625	2.324176
14079679914013	1.706357	7.6688	2.608569
14079689914013	1.1964113	7.6491866	1.1866046
14079699914013	0.93163174	7.953193	-0.10787315
14079709914013	0.7354987	8.374879	-0.34323275
14079717614013	0.7649187	8.747532	-0.2549729
14079725614013	0.7649187	9.0515375	-0.32361946
14079733614013	0.75511205	9.120184	-0.37265268
14079749614013	0.5393657	8.943665	-0.24516624
14079757614013	0.4707192	8.825985	-0.14709975
14079765714013	0.2745862	8.649466	-0.14709975
14079773614013	0.26477954	8.590625	-0.20593965
14079783614013	0.10787315	8.482752	-0.4118793
14079791614013	0.00980665	8.472945	-0.57859236
14079799814013	-0.34323275	8.404299	-0.8727918
14079807614013	-0.4118793	8.414105	-0.9610517
14079815914013	-0.5295591	8.561205	-0.8629852
14079823614013	-0.6374322	8.767145	-0.6668522
14079831914013	-0.7747253	8.914245	-0.5491724
14079849914013	-1.2748644	9.306511	0.9610517
14079859914013	-1.0591182	9.277091	1.6475172
14079869914013	-0.42168593	9.267284	1.5298374
14079879914013	0.14709975	9.316318	0.35303938
14079889914013	0.57859236	9.77723	-1.147378
14079899914013	0.8041453	10.0910425	-2.0692031
14079909914013	0.9610517	10.326403	-2.128043
14079917614013	1.0493115	10.679441	-1.4709975
14079929814013	1.6671305	11.463974	-0.39226598
14079939914013	1.6769371	11.76798	0.00980665
14079949914013	1.3533176	11.581654	0.17651969
14079959914013	0.97085834	11.924886	-0.3138128
14079969814013	0.79433864	12.974197	-0.6276256
14079979914013	1.1866046	13.58221	-0.51975244
14079989914013	2.1574628	13.160524	-0.6276256
14079998914013	2.6183755	12.513285	-0.84337187
14080008614013	2.6477954	11.777786	-0.39226598
14080016614013	2.5595355	11.669913	-0.098066494
14080030014013	2.4614692	12.140633	-0.39226598
14080039614013	2.0397832	12.140633	-1.1277647
14080049614013	1.2454445	11.571847	-1.8240368
14080059614013	0.4707192	10.973641	-2.2359161
14080069614013	0.0392266	10.502922	-2.098623
14080079614013	-0.4314926	10.424469	-1.1571847
14080089614013	-1.6180972	9.83607	-0.5982056
14080099614013	-2.7066352	9.384964	-0.4314926
14080109614013	-3.471554	9.355544	0.74530536
14080118614013	-3.9618864	9.83607	1.9221034
14080129614013	-3.89324	11.571847	0.57859236
14080139614013	-3.8245933	12.385798	-1.93191
14080149614013	-2.9714148	12.179859	-1.2454445
14080159614013	-2.7066352	12.493671	-0.18632634
14080169614013	-3.3244543	12.630965	1.6671305
14080179614013	-3.0106416	11.199194	0.69627213
14080189614013	-1.8730701	10.767701	-1.1964113
14080199614013	-0.60801226	11.248227	-2.2359161
14080209614013	0.60801226	12.111213	-1.3631244
14080217814013	0.8531785	12.111213	-0.17651969
14080225614013	0.951245	11.32668	1.0395049
14080238914013	0.70607877	10.257755	1.8142302
14080246614013	1.2258313	9.561483	1.6082906
14080254614013	1.5788707	9.139797	1.343511
14080262614013	1.8926834	9.0515375	0.98066497
14080271614013	2.0790098	8.924051	0.8629852
14080289614013	0.9414384	7.8551264	0.6864655
14080299614013	-0.3138128	7.2863407	0.7354987
14080309614013	-1.2846711	7.1784678	0.70607877
14080319614013	-1.90249	7.3451805	0.5393657
14080329614013	-2.1378496	7.4922805	0.5001391
14080339914013	-2.265336	7.6982203	0.5491724
14080349914013	-2.1476562	7.6884136	0.78453195
14080359614013	-1.8632635	7.364794	0.93163174
14080369914013	-1.5102241	6.7862015	0.8139519
14080379614013	-1.4121575	6.0114765	0.65704554
14080389814013	-1.0395049	5.3544307	0.75511205
14080399914013	-0.74530536	5.0013914	1.1375713
14080409614013	-0.56878567	4.707192	1.2650578
14080417614013	-0.5393657	4.658159	1.176798
14080429614013	-0.70607877	4.7758384	1.6279038
14080439614013	-0.92182505	4.8935184	1.9221034
14080449614013	-0.93163174	5.0994577	2.0201697
14080459614013	-0.8139519	5.217138	2.2555294
14080468614013	-0.55897903	5.4328837	2.5889556
14080481114013	-0.088259846	5.8447633	2.9321883
14080488614013	0.19613299	6.217416	3.108708
14080496614013	0.5001391	6.717555	3.5794272
14080509614013	1.0100849	7.8747396	4.5404787
14080517614013	1.5004175	8.825985	5.266171
14080529914013	2.3045628	10.306788	6.050703
14080539914013	2.941995	11.689527	6.6194887
14080549914013	3.5107806	13.150718	7.384407
14080559914013	4.197246	14.386355	7.7472534
14080569914013	4.9719715	14.974754	7.72764
14080579914013	5.776117	14.543262	6.943108
14080589914013	6.0114765	13.307624	4.903325
14080599614013	5.4328837	11.7973995	3.6088471
14080609614013	4.3541527	9.875297	3.5402005
14080619614013	3.0400615	7.943386	3.7167203
14080629614013	2.3339827	6.8842683	4.4129925
14080640014013	1.8828768	8.3846855	6.717555
14080650014013	1.5494506	12.140633	7.835513
14080659614013	-0.17651969	15.102241	4.9425516
14080668614013	-2.1084297	15.788706	2.3732092
14080679614013	-3.8540134	16.82821	-0.7256921
14080689914013	-4.1384063	18.15211	-3.0890946
14080699614013	-1.6279038	17.50487	-4.7954516
14080709614013	-0.3334261	12.719225	-5.462304
14080719614013	-0.74530536	8.933858	-0.78453195
14080729614013	-2.3634026	5.599597	6.237029
14080740014013	-4.501252	2.7654753	7.364794
14080749614013	-7.354987	-0.34323275	4.7660317
14080760014013	-7.6295733	-1.0395049	2.6379888
14080767914013	-7.050981	-0.79433864	3.246001
14080779614013	-5.217138	0.7256921	1.539644
14080789914013	-3.383294	2.4516625	-4.0991797
14080799614013	0.8727918	11.699333	-7.8453197
14080809614013	6.7371683	18.652248	-9.767424
14080819614013	9.95375	19.328907	-10.728475
14080829914013	9.208445	17.26951	-5.540757
14080839614013	5.7565036	14.709974	-0.84337187
14080847914013	4.834678	12.807485	2.7948952
14080857614013	4.2070527	10.130269	6.717555
14080865614013	3.275421	8.1983595	8.992698
14080873614013	1.8436501	7.963	6.9823346
14080881614013	1.2650578	7.9924197	5.6192102
14080889614013	0.17651969	8.423912	0.10787315
14080899914013	-0.16671304	8.747532	-4.06976
14080909614013	-0.30400613	8.727919	-5.6094036
14080919614013	0.2157463	9.022118	-4.8739047
14080929614013	1.0198916	9.757616	-2.6674087
14080938614013	1.3238977	10.061623	-1.0689248
14080946614013	1.1571847	9.943943	1.1375713
14080954614013	0.61781895	9.51245	3.4617474
14080963614013	0.0	8.825985	4.001113
14080972014013	-0.4314926	8.227779	2.0593965
14080979814013	-0.30400613	8.178746	0.7649187
14080989914013	0.049033247	8.306232	-1.9221034
14080999914013	0.34323275	8.070872	-2.3045628
14081009914013	0.5099458	8.247393	-1.176798
14081019614013	0.37265268	8.4925585	-0.8237586
14081029614013	0.0392266	8.659272	-0.9414384
14081037814013	-0.2157463	8.463139	-0.84337187
14081045614013	-0.2549729	8.423912	-0.78453195
14081059614013	-0.26477954	8.561205	-0.57859236
14081067914013	-0.36284605	8.561205	-0.61781895
14081079614013	-0.5001391	8.816178	-1.1277647
14081089614013	-0.2549729	9.247671	-1.176798
14081099614013	-0.14709975	9.414384	-0.5491724
14081109614013	-0.0588399	9.63013	0.06864655
14081117614013	0.049033247	9.845877	0.32361946
14081125614013	0.10787315	9.855683	0.6668522
14081139614013	0.06864655	9.169217	0.8531785
14081149614013	-0.088259846	9.120184	0.5001391
14081159614013	-0.0392266	9.68897	0.2941995
14081169614013	0.6864655	10.130269	-0.098066494
14081179914013	1.1964113	10.081236	-0.8629852
14081189914013	1.6769371	9.728196	-1.2258313
14081199614013	1.8632635	9.9047165	-1.0885382
14081207614013	1.99075	10.1989155	-0.98066497
14081216914013	2.6183755	10.777508	-0.74530536
14081224614013	2.432049	10.787314	-0.84337187
14081232814013	1.8142302	10.708861	-0.9120184
14081240814013	1.0983448	11.003061	-0.8237586
14081249614013	0.61781895	12.121019	-0.34323275
14081259814013	0.9904716	13.013424	0.02941995
14081269614013	1.706357	12.915358	-0.2549729
14081279614013	2.294756	12.238699	-0.83356524
14081289614013	2.3339827	11.70914	-0.9120184
14081299914013	1.99075	11.53262	-0.9904716
14081309914013	1.6475172	11.287454	-1.5298374
14081317614013	1.4709975	11.444361	-1.6475172
14081329614013	0.19613299	11.199194	-2.294756
14081339914013	0.2353596	10.797121	-2.3732092
14081349914013	0.12748645	10.022396	-2.0888164
14081359614013	-0.088259846	9.95375	-1.4415776
14081369914013	-0.7256921	10.1989155	-0.60801226
14081379614013	-1.9122967	10.238142	-0.049033247
14081389914013	-2.883155	10.493115	0.8531785
14081397614013	-3.3931007	10.620602	0.98066497
14081409614013	-3.1773546	11.76798	0.49033248
14081417914013	-2.745862	12.425025	-0.38245934
14081429614013	-2.3732092	12.562319	-1.5984839
14081439614013	-2.5889556	12.03276	-0.42168593
14081450014013	-3.5303938	11.983726	1.3925443
14081459914013	-3.89324	11.817013	2.4712758
14081469614013	-2.3045628	11.856239	-0.89240515
14081479614013	-0.8727918	11.915079	-1.8632635
14081489614013	0.49033248	11.993532	-0.34323275
14081499614013	1.1866046	11.62088	0.92182505
14081509914013	1.3042845	10.934415	1.5004175
14081517914013	1.4513842	10.306788	1.5200307
14081529614013	2.294756	9.54187	1.5494506
14081539614013	2.7654753	9.433997	1.0198916
14081549914013	2.9027684	9.012311	0.30400613
14081560014013	2.6477954	8.374879	0.0588399
14081571014013	1.5004175	7.453054	-0.60801226
14081578914013	-0.049033247	6.717555	-0.74530536
14081586614013	-1.1866046	6.580262	-0.2941995
14081599914013	-2.1574628	6.825428	0.48052585
14081610014013	-2.5595355	7.2078876	0.79433864
14081617614013	-2.7850885	7.590347	0.92182505
14081629614013	-3.0204482	7.835513	1.0296983
14081639614013	-2.8635418	7.7668667	1.0885382
14081649614013	-2.0005565	7.404021	0.88259846
14081659914013	-1.4709975	6.668522	0.83356524
14081669914013	-1.176798	6.021283	0.38245934
14081680014013	-0.8629852	5.5015306	0.37265268
14081690014013	-0.49033248	5.2269444	0.70607877
14081700014013	-0.4118793	4.962165	1.4317709
14081709914013	-0.49033248	5.1779113	2.0201697
14081718014013	-0.588399	5.3838506	2.1378496
14081729614013	-0.5491724	5.8153434	2.186883
14081739614013	-0.4118793	6.2566423	2.4124358
14081749614013	-0.1176798	6.521422	2.5399222
14081759614013	0.17651969	6.776395	2.5301156
14081769614013	0.56878567	7.149048	2.7654753
14081779614013	0.9904716	7.227501	3.0694814
14081789614013	1.5984839	7.5217004	3.697107
14081799914013	2.2555294	8.0120325	4.8052583
14081809614013	2.883155	9.071151	6.03109
14081817914013	3.3538742	9.95375	7.3255672
14081827614013	4.0109196	11.67972	8.531785
14081835614013	4.6385455	13.572403	8.845598
14081843614013	5.119071	15.004174	8.365072
14081851914013	5.3642373	15.582767	7.835513
14081859614013	5.6878567	15.729866	6.697942
14081869914013	5.1975245	14.494228	5.3838506
14081879614013	4.305119	12.630965	4.089373
14081889914013	3.1479347	10.610795	3.3146477
14081899914013	1.9711366	8.835792	2.9321883
14081908614013	0.6472389	7.737447	3.3244543
14081919914013	-0.61781895	8.816178	5.8643765
14081929614013	-1.8534569	11.101128	5.8937964
14081937614013	-3.638267	12.071986	2.9812214
14081945614013	-5.2465577	12.091599	0.97085834
14081959614013	-6.7273617	12.905551	0.75511205
14081969614013	-3.8245933	14.945334	1.4513842
14081979614013	-0.7354987	15.66122	0.24516624
14081989614013	0.6766588	14.268676	-1.5592573
14081999614013	1.3631244	13.111491	-0.2353596
14082009614013	0.7747253	10.218529	2.9812214
14082017614013	-0.088259846	7.5707335	3.9128532
14082029614013	-1.6671305	2.9714148	2.9321883
14082039614013	-3.275421	0.6472389	1.0002782
14082049614013	-3.697107	0.34323275	0.0784532
14082059614013	-3.4519408	1.4611908	0.02941995
14082069614013	-3.0596747	2.991028	-1.4808041
14082079614013	-2.7066352	5.4819174	-4.8052583
14082089614013	-0.20593965	10.5715685	-7.6295733
14082099614013	4.3835726	14.101962	-9.316318
14082109614013	7.276534	16.288845	-7.78648
14082117614013	6.6489086	15.906386	-4.1874394
14082129614013	4.6189322	14.190222	1.5200307
14082139614013	4.0501466	13.189944	4.834678
14082149614013	3.0989013	10.7578945	6.796008
14082159614013	0.4511059	8.502365	6.442969
14082169614013	-1.0885382	8.217973	3.6578803
14082179614013	-1.7848103	8.580818	0.2941995
14082189614013	-1.5592573	9.296704	-1.8926834
14082199914013	-0.61781895	9.747809	-2.8145084
14082209614013	1.5690639	9.63013	-2.5301156
14082217614013	2.0495899	9.610517	-2.1966896
14082229614013	2.2751427	9.100571	-0.7747253
14082237914013	1.6671305	8.757339	0.5982056
14082245614013	0.97085834	8.512172	1.9122967
14082253614013	0.5099458	8.639658	1.99075
14082261614013	0.37265268	8.747532	0.92182505
14082270914013	0.49033248	8.669079	-0.2549729
14082279614013	0.57859236	8.639658	-0.98066497
14082289614013	0.6766588	8.590625	-0.6276256
14082299614013	0.51975244	8.404299	-0.3334261
14082309614013	0.34323275	8.267006	-0.18632634
14082318914013	0.2745862	8.296426	0.0
14082329614013	0.049033247	8.502365	-0.0588399
14082339614013	-0.0196133	8.512172	-0.12748645
14082349614013	-0.24516624	8.306232	-0.5982056
14082359614013	-0.24516624	8.267006	-0.79433864
14082369914013	-0.16671304	8.443525	-1.147378
14082379614013	-0.0588399	8.776952	-1.0395049
14082389614013	-0.0196133	9.198637	-0.26477954
14082399914013	-0.0196133	9.708583	0.6472389
14082409614013	0.10787315	10.051816	1.372931
14082417614013	0.30400613	10.032203	1.4317709
14082429614013	0.8237586	9.522257	1.0983448
14082439614013	0.93163174	9.433997	0.61781895
14082449614013	1.0689248	10.042009	-0.3334261
14082459614013	0.8629852	10.640215	-1.3631244
14082469614013	0.5099458	10.7578945	-1.3533176
14082479614013	0.65704554	10.8657675	-0.6766588
14082489614013	0.88259846	10.669635	-0.2353596
14082499614013	1.2748644	10.502922	-0.30400613
14082509614013	1.4808041	10.532342	-0.37265268
14082517614013	1.6082906	10.640215	-0.5393657
14082530014013	1.8632635	11.346293	-1.1179581
14082539614013	1.735777	12.150439	-1.3827376
14082547914013	2.0593965	12.846711	-1.2650578
14082555614013	2.2555294	12.984004	-1.2454445
14082570014013	2.294756	12.307345	-1.1081514
14082580014013	1.9613299	11.67972	-0.8629852
14082589914013	1.7161638	12.03276	-0.5001391
14082600014013	1.2258313	12.483865	-0.4511059
14082609614013	0.89240515	12.258312	-0.74530536
14082619614013	0.5295591	11.120741	-0.5001391
14082629614013	0.30400613	10.453889	-0.5001391
14082639614013	-0.0392266	9.610517	-0.7256921
14082649814013	-0.6472389	9.639936	-0.7256921
14082659614013	-1.6279038	9.492837	-0.97085834
14082669614013	-2.2849493	9.83607	-0.7649187
14082679614013	-2.6477954	11.052094	-0.9022118
14082689614013	-2.8635418	12.179859	-1.2356379
14082699614013	-2.745862	12.219086	-1.6965504
14082709614013	-2.0790098	12.366185	-1.9221034
14082717614013	-1.6769371	12.552511	-1.8338435
14082729614013	-2.294756	11.846433	0.42168593
14082739614013	-2.8635418	11.41494	2.8439283
14082749614013	-3.1381278	11.346293	3.667687
14082759614013	-1.8632635	11.73856	0.588399
14082769614013	-0.93163174	11.826819	-2.3634026
14082779614013	0.30400613	12.022953	-3.638267
14082789614013	1.2552512	11.699333	-1.1964113
14082798614013	1.3337044	11.022675	0.2157463
14082809614013	1.3238977	10.346016	0.78453195
14082817614013	1.6671305	10.081236	0.7354987
14082829814013	1.8534569	9.747809	0.4314926
14082839614013	1.6377105	9.60071	0.1569064
14082849614013	1.0395049	8.875018	-0.16671304
14082859614013	0.1176798	8.159133	-0.22555295
14082869614013	-1.0296983	7.384407	-0.14709975
14082879914013	-1.8436501	7.2373075	-0.5001391
14082889814013	-2.1084297	7.276534	-0.1569064
14082899614013	-2.186883	7.384407	-0.36284605
14082907814013	-2.1084297	7.1588545	-0.35303938
14082916914013	-1.93191	6.766588	-0.35303938
14082924614013	-1.9711366	6.187996	0.24516624
14082933614013	-1.7455837	5.6388235	0.61781895
14082942614013	-1.6475172	5.315204	0.7256921
14082959914013	-0.6276256	4.275699	1.1375713
14082969614013	-0.3334261	4.0109196	1.3925443
14082979614013	-0.2157463	4.001113	1.6965504
14082989914013	-0.1569064	4.0109196	2.0790098
14082999914013	-0.2745862	4.1874394	2.5791488
14083009614013	-0.19613299	4.5502853	2.7850885
14083017914013	-0.098066494	4.756225	2.8439283
14083029614013	0.10787315	4.991585	2.9518015
14083039914013	0.2941995	5.295591	3.1871612
14083049914013	0.5491724	5.933023	3.7069137
14083059614013	0.92182505	6.9333014	4.3345394
14083069614013	1.4415776	8.188553	5.060231
14083079614013	1.7750036	9.51245	6.03109
14083089914013	2.0888164	11.473781	7.0607877
14083099914013	2.6477954	14.298096	8.159133
14083109814013	3.3636808	17.18125	9.767424
14083117914013	4.1580195	19.279873	10.169496
14083129914013	5.070038	18.613022	6.7862015
14083139914013	4.815065	14.641328	4.177633
14083149914013	3.6088471	11.159967	3.3244543
14083159614013	2.3045628	8.208166	3.6088471
14083169614013	1.2356379	5.629017	3.697107
14083179914013	1.0002782	4.501252	2.5595355
14083189614013	1.2944778	6.580262	5.0504246
14083199614013	-0.5001391	10.463696	5.746697
14083209914013	-2.9027684	13.111491	2.0790098
14083217614013	-4.8542914	13.84699	0.9610517
14083229814013	-5.7859235	16.396719	1.2356379
14083239614013	-3.5696206	19.55446	0.9904716
14083249614013	0.2941995	19.593687	-1.3042845
14083259614013	2.7164419	17.779455	-2.912575
14083268614013	3.304841	13.05265	-0.71588546
14083280014013	1.7946169	6.4723887	3.5794272
14083290014013	-0.93163174	1.1964113	2.5987623
14083300014013	-4.226666	-2.0397832	-0.098066494
14083309614013	-5.3053975	-2.5399222	-0.35303938
14083318614013	-5.187718	-2.1770763	-0.3334261
14083329614013	-3.9815	0.5982056	0.7354987
14083337614013	-3.2950344	2.353596	-0.4707192
14083345614013	-2.824315	6.864655	-2.3437893
14083353614013	-0.9022118	12.160246	-4.4718323
14083361614013	2.3928225	15.063014	-7.0705943
14083370614013	5.3838506	17.553904	-9.022118
14083380014013	6.0899296	18.250175	-6.8156214
14083389614013	4.658159	16.514399	-1.9711366
14083400014013	4.2070527	15.112047	1.9515233
14083409614013	3.89324	11.924886	4.530672
14083417614013	3.3440676	10.502922	5.1386843
14083429614013	0.16671304	7.8845463	4.962165
14083439614013	-0.69627213	8.178746	2.1378496
14083449914013	-0.35303938	9.061344	-0.69627213
14083459914013	0.16671304	9.443804	-2.265336
14083469914013	1.1866046	9.198637	-2.490889
14083479914013	1.7750036	8.786758	-1.8828768
14083489914013	2.010363	8.639658	-1.0787314
14083499914013	1.5200307	8.188553	-0.17651969
14083509914013	0.8041453	7.8747396	0.4118793
14083517614013	0.5491724	7.943386	0.4707192
14083529914013	0.26477954	8.404299	-0.098066494
14083539914013	0.588399	8.796565	-0.3138128
14083549914013	0.8041453	8.825985	-0.4707192
14083559914013	1.0787314	8.816178	-0.69627213
14083569914013	1.0100849	8.747532	-0.5491724
14083579914013	0.92182505	8.796565	-0.42168593
14083589914013	0.57859236	8.698499	-0.2353596
14083599914013	0.4118793	8.737725	-0.36284605
14083609814013	0.22555295	8.718112	-0.7649187
14083617914013	0.02941995	8.482752	-1.0198916
14083629614013	-0.2549729	8.365072	-1.0198916
14083639614013	-0.2745862	8.512172	-0.8139519
14083649914013	-0.34323275	8.914245	-0.35303938
14083659614013	-0.34323275	9.649743	0.16671304
14083669614013	-0.3138128	10.042009	0.56878567
14083679914013	-0.32361946	9.98317	1.0983448
14083689914013	-0.0784532	9.492837	1.0885382
14083699914013	0.00980665	8.973084	0.6668522
14083709614013	0.10787315	9.080957	-0.19613299
14083717614013	0.4118793	9.63013	-0.951245
14083725614013	0.6374322	9.95375	-1.5592573
14083739614013	1.4808041	10.140076	-2.4124358
14083749914013	1.8240368	10.385242	-1.9122967
14083757614013	2.0495899	11.003061	-1.1277647
14083765614013	2.2163029	11.218807	-0.7354987
14083780014013	2.186883	11.777786	-0.16671304
14083789614013	1.0100849	11.669913	-0.5393657
14083799614013	0.098066494	11.993532	-0.9120184
14083809614013	-0.0588399	12.405412	-0.9022118
14083817614013	0.588399	12.493671	-0.5393657
14083829614013	1.2552512	12.238699	-0.5491724
14083839614013	2.0888164	11.76798	0.1372931
14083850014013	2.1672697	11.258034	0.39226598
14083860014013	2.3339827	11.26784	0.36284605
14083870014013	2.5987623	11.513007	-0.28439283
14083880014013	2.1770763	11.434553	-1.3042845
14083890014013	2.0888164	11.140354	-2.0495899
14083899614013	1.8142302	10.257755	-2.128043
14083910014013	1.7259704	9.68897	-1.9711366
14083918014013	1.372931	9.404577	-1.5788707
14083929614013	0.30400613	9.277091	-0.3138128
14083939614013	-1.1866046	9.375157	0.70607877
14083949914013	-2.3732092	9.914523	1.7750036
14083959614013	-3.4225209	10.444082	2.3732092
14083969614013	-3.334261	11.924886	0.5393657
14083979914013	-2.7948952	13.003617	-1.8240368
14083990014013	-2.7654753	12.807485	-4.148213
14083999614013	-2.1182363	12.140633	-1.93191
14084007614013	-3.108708	11.875853	0.2157463
14084015914013	-3.697107	11.689527	1.9515233
14084023614013	-2.7262487	11.630687	1.8730701
14084039914013	0.0196133	12.513285	-0.6472389
14084049614013	0.75511205	12.523091	-1.8730701
14084059614013	1.2846711	11.934692	-1.1571847
14084069614013	1.5984839	11.130548	-0.0196133
14084079614013	1.6671305	10.385242	0.6374322
14084089614013	1.5004175	9.845877	1.9613299
14084099914013	1.7455837	9.679163	1.2748644
14084109814013	1.5004175	9.296704	0.5001391
14084119014013	1.0689248	8.767145	-0.02941995
14084126614013	0.5491724	8.188553	-0.00980665
14084139914013	-0.36284605	7.256921	-0.1372931
14084149914013	-0.89240515	6.825428	-0.4314926
14084159614013	-1.1964113	6.894075	-0.588399
14084169914013	-1.3631244	7.2961473	-0.6668522
14084179914013	-1.4709975	7.5511203	0.17651969
14084189914013	-1.4808041	7.864933	0.40207264
14084199614013	-1.4023509	7.953193	0.65704554
14084208614013	-1.4121575	7.335374	0.8629852
14084216914013	-1.4317709	6.8156214	1.0689248
14084229914013	-1.4513842	5.8643765	1.2062179
14084237914013	-1.2356379	5.4524975	1.2454445
14084245614013	-1.0100849	5.1288776	1.3533176
14084255614013	-0.74530536	4.7758384	1.4906107
14084263614013	-0.6472389	4.726805	1.6671305
14084271914013	-0.6374322	4.8935184	1.8240368
14084279614013	-0.5001391	5.040618	1.9809432
14084289614013	-0.4314926	5.491724	2.2064962
14084299614013	-0.2157463	5.933023	2.4222424
14084307614013	0.06864655	6.217416	2.7066352
14084319814013	0.4707192	6.6587152	3.3931007
14084329914013	0.9022118	6.9823346	3.7559469
14084339614013	1.3631244	7.453054	4.2070527
14084349614013	2.010363	7.9041595	5.040618
14084359614013	2.9027684	8.571012	6.0703163
14084369614013	3.559814	9.306511	7.227501
14084379614013	3.89324	10.110656	7.9728065
14084389614013	4.373766	11.826819	7.8845463
14084399914013	4.883712	13.121298	7.3451805
14084407614013	5.0504246	13.9842825	6.384129
14084415914013	4.7464185	14.111769	5.344624
14084423914013	4.2168593	13.680277	4.560092
14084431914013	3.559814	12.846711	3.8442068
14084440614013	2.608569	11.287454	3.3440676
14084449614013	1.7259704	9.826263	3.079288
14084459614013	0.9610517	8.875018	2.941995
14084469614013	0.36284605	9.698776	3.3538742
14084479614013	-0.8629852	12.071986	4.501252
14084489914013	-3.4225209	13.425303	2.2064962
14084499914013	-6.609682	12.611352	0.7649187
14084508614013	-7.3746004	12.307345	1.0689248
14084519614013	-4.9523582	14.258869	4.589512
14084529614013	-1.0493115	15.504313	3.9913065
14084540114013	0.89240515	14.543262	1.3631244
14084549614013	1.6573238	12.356379	-0.951245
14084560014013	1.6180972	10.071429	0.8041453
14084569614013	-0.44129923	6.746975	2.2849493
14084580014013	-2.441856	3.0596747	1.1375713
14084589614013	-3.0890946	0.8139519	0.34323275
14084600014013	-3.6774936	0.3138128	0.60801226
14084607614013	-3.7167203	0.7747253	1.1081514
14084619614013	-2.7360554	3.1185145	0.00980665
14084629614013	-1.5788707	5.6682434	-3.8834333
14084640014013	1.735777	12.630965	-7.63938
14084650014013	6.4233556	17.76965	-8.620045
14084659614013	8.423912	17.750036	-5.3642373
14084669014013	6.580262	15.27876	-2.0593965
14084680014013	3.8245933	12.375992	-0.3138128
14084690014013	2.853735	10.208722	2.6477954
14084700014013	2.2064962	8.825985	5.148491
14084707614013	1.0198916	8.404299	5.88399
14084719614013	-0.8139519	8.433719	4.5502853
14084730114013	-1.6180972	8.708305	1.7651969
14084739614013	-2.128043	9.031924	-1.0493115
14084749614013	-2.3437893	9.404577	-2.4222424
14084760014013	-1.8142302	9.89491	-2.6772153
14084769614013	0.9022118	10.238142	-2.0201697
14084780014013	2.3928225	9.698776	-0.92182505
14084790114013	2.490889	9.061344	0.2745862
14084799614013	1.90249	8.374879	1.5690639
14084807614013	1.4219642	8.16894	1.6180972
14084815614013	1.2454445	8.188553	1.2552512
14084829614013	1.0983448	8.698499	-0.89240515
14084839914013	1.0395049	8.8652115	-0.88259846
14084849614013	1.0689248	9.002504	-0.5001391
14084860014013	0.93163174	9.002504	-0.2157463
14084869614013	0.83356524	9.061344	0.19613299
14084879914013	0.40207264	8.894631	0.40207264
14084889914013	0.19613299	8.737725	0.2745862
14084899614013	0.049033247	8.629851	-0.049033247
14084907614013	-0.00980665	8.649466	-0.2353596
14084919614013	-0.22555295	8.482752	-0.588399
14084929614013	-0.3334261	8.482752	-0.9120184
14084939614013	-0.2157463	8.669079	-0.8727918
14084949614013	-0.10787315	9.071151	-0.93163174
14084959614013	-0.049033247	9.306511	-0.4118793
14084968614013	-0.18632634	9.502644	-0.0588399
14084976614013	-0.14709975	9.83607	0.3138128
14084990014013	-0.1569064	9.992976	0.55897903
14084999614013	0.20593965	9.826263	0.74530536
14085008614013	0.40207264	9.5320635	0.56878567
14085019614013	0.951245	9.257478	0.20593965
14085029814013	1.147378	9.100571	-0.56878567
14085039614013	1.2748644	9.218251	-1.343511
14085049614013	1.2748644	9.492837	-1.147378
14085059914013	1.1571847	10.149882	-0.6668522
14085069614013	0.97085834	10.689248	-0.38245934
14085079614013	0.8629852	10.885382	-0.14709975
14085089614013	0.49033248	10.659828	-0.19613299
14085099614013	0.0	10.718668	-0.74530536
14085107914013	0.02941995	11.493394	-0.951245
14085119614013	0.44129923	12.729032	-0.7649187
14085129614013	1.3827376	13.101684	-0.7354987
14085138614013	2.2457228	12.699612	-0.5001391
14085149614013	2.6281822	11.973919	-0.35303938
14085159614013	2.7654753	11.846433	-0.56878567
14085169614013	2.6379888	12.071986	-0.9022118
14085179614013	2.5105023	12.415218	-1.2258313
14085189614013	1.90249	12.189666	-1.3337044
14085199614013	1.343511	11.7973995	-1.1669914
14085207614013	0.9610517	11.53262	-0.89240515
14085219614013	0.28439283	10.257755	-0.57859236
14085229614013	-0.24516624	9.83607	0.0196133
14085239614013	-1.1179581	9.561483	0.1569064
14085249614013	-2.0888164	9.228058	-0.00980665
14085259614013	-2.9616082	9.394771	0.3334261
14085269614013	-2.9616082	10.169496	1.0689248
14085279614013	-2.432049	11.336487	0.0196133
14085289614013	-1.6377105	12.395605	-2.0005565
14085300014013	-1.5592573	12.111213	-2.4810824
14085307614013	-2.2751427	11.660107	-2.1378496
14085319614013	-2.7360554	11.454167	0.5295591
14085329614013	-3.304841	11.787593	2.010363
14085339614013	-2.4124358	12.03276	-0.2549729
14085350014013	-1.5690639	12.444638	-1.9613299
14085359614013	-1.0493115	12.385798	-3.697107
14085369614013	0.0	11.846433	-2.441856
14085380014013	0.36284605	10.885382	-0.098066494
14085390014013	0.588399	10.120462	1.1375713
14085400014013	1.539644	9.669356	1.6573238
14085407614013	1.9613299	9.767424	0.30400613
14085420014013	1.4808041	8.982891	0.0588399
14085430014013	1.1669914	8.590625	0.46091253
14085439614013	0.4707192	8.031646	0.049033247
14085450014013	-0.3334261	7.7766733	0.57859236
14085459614013	-1.1964113	7.4334407	0.42168593
14085469614013	-1.5592573	7.354987	0.5982056
14085480014013	-1.706357	7.58054	0.9904716
14085490014013	-1.5004175	8.090487	0.9022118
14085499614013	-1.4219642	8.316039	0.92182505
14085509614013	-1.3042845	8.355266	0.588399
14085519614013	-1.4317709	7.894353	0.34323275
14085529614013	-1.3042845	7.3255672	0.26477954
14085539614013	-0.89240515	6.7371683	0.38245934
14085547614013	-0.49033248	6.364516	0.46091253
14085555614013	-0.16671304	5.9134097	0.8727918
14085563614013	0.0	5.4721107	1.3631244
14085571614013	-0.02941995	5.1975245	2.1084297
14085580614013	-0.10787315	4.9131317	2.8733485
14085588614013	-0.0588399	4.9523582	3.1479347
14085599614013	0.20593965	5.2465577	3.8442068
14085608614013	0.46091253	5.5897903	3.9618864
14085616614013	0.8139519	5.8055367	3.971693
14085624614013	1.2650578	6.00167	4.2462792
14085632614013	1.7651969	6.187996	4.5502853
14085640614013	2.2261095	6.217416	5.0210047
14085649614013	2.6379888	6.413549	5.8643765
14085657614013	2.7556686	6.4723887	6.384129
14085669614013	2.824315	7.1882744	8.257199
14085679614013	2.8341217	7.9924197	8.472945
14085689614013	2.912575	8.943665	7.7962866
14085699914013	2.775282	9.98317	6.129156
14085709914013	2.775282	11.189387	4.06976
14085719914013	3.049868	12.199472	2.2359161
14085729914013	3.0694814	12.228892	1.0983448
14085739914013	2.824315	11.542427	1.4317709
14085749614013	2.441856	10.954028	3.0302548
14085757614013	1.9122967	10.375436	4.167826
14085769614013	1.0689248	9.002504	5.776117
14085779614013	0.2941995	7.5707335	6.0408964
14085789614013	-0.26477954	7.590347	6.266449
14085800014013	-1.147378	10.120462	7.2863407
14085809614013	-2.0299766	13.199751	5.315204
14085820014013	-3.5205872	14.827655	2.2261095
14085829614013	-4.7660317	15.700446	0.89240515
14085839614013	-4.030533	17.867716	2.0201697
14085849614013	0.0	19.593687	3.4029074
14085857614013	1.9221034	18.769928	1.9122967
14085869614013	1.2258313	12.748645	0.2745862
14085879614013	0.51975244	8.806372	2.745862
14085889614013	-1.6769371	4.3835726	3.471554
14085899614013	-4.0501466	0.83356524	1.1866046
14085910014013	-5.207331	-1.0002782	0.4118793
14085920014013	-5.599597	-1.0983448	1.4317709
14085930014013	-4.8935184	-0.0196133	3.0400615
14085940014013	-3.5205872	1.5690639	1.4709975
14085950114013	-1.6867437	4.962165	-4.0991797
14085958614013	1.1866046	12.081793	-8.021839
14085969614013	6.433162	18.465921	-9.787037
14085980014013	8.914245	19.240646	-8.659272
14085989614013	8.316039	16.641884	-4.658159
14085999614013	4.501252	12.797678	-1.5298374
14086009614013	3.0989013	10.296982	1.6867437
14086019614013	2.1770763	8.002226	5.2759776
14086029614013	0.12748645	6.9333014	8.002226
14086039614013	-1.343511	6.8058147	6.9627213
14086049614013	-2.0692031	7.021561	2.4614692
14086057614013	-2.0692031	7.404021	0.049033247
14086066614013	-1.706357	8.296426	-2.7262487
14086074614013	-0.9414384	9.57129	-4.2168593
14086089614013	1.4121575	12.03276	-4.991585
14086099614013	2.5006957	12.287732	-3.6088471
14086109914013	2.7360554	11.787593	-1.93191
14086119914013	2.4614692	10.502922	0.12748645
14086129914013	1.93191	8.904438	2.1378496
14086139914013	0.6374322	7.8453197	3.4617474
14086149614013	-0.5982056	7.7178335	3.2067745
14086158614013	-0.9610517	8.159133	1.9221034
14086170014013	-0.71588546	9.022118	0.17651969
14086179614013	-0.3138128	9.247671	-0.2353596
14086189914013	0.1372931	9.51245	-0.4511059
14086200014013	0.4707192	9.492837	-0.40207264
14086210014013	0.5295591	9.208445	-0.38245934
14086219614013	0.6766588	9.208445	-0.46091253
14086229614013	0.36284605	8.992698	-0.55897903
14086240014013	0.39226598	8.698499	-0.2745862
14086249614013	0.5982056	8.531785	0.0392266
14086257914013	0.60801226	8.531785	-0.0588399
14086269914013	0.57859236	8.835792	0.088259846
14086280014013	0.70607877	9.179024	-0.24516624
14086289914013	0.7747253	9.4241905	-0.4314926
14086299614013	0.55897903	9.63013	-0.51975244
14086309614013	0.34323275	9.45361	0.30400613
14086319614013	0.4707192	9.002504	1.0493115
14086329914013	0.5393657	8.776952	1.5984839
14086339814013	0.36284605	9.061344	1.8338435
14086349914013	0.5491724	9.57129	1.2846711
14086358014013	0.6864655	9.95375	0.57859236
14086369614013	1.0493115	10.110656	-0.9120184
14086379914013	1.2944778	10.463696	-1.4709975
14086389614013	1.5004175	10.983448	-1.343511
14086399614013	1.6082906	11.434553	-1.0002782
14086409614013	1.4709975	11.581654	-0.78453195
14086417614013	1.3631244	11.395327	-0.588399
14086427614013	1.0493115	11.012868	-0.2157463
14086435614013	0.8531785	11.248227	0.0392266
14086443614013	0.7747253	12.170053	-0.1372931
14086451914013	1.0591182	12.778065	-0.36284605
14086459614013	1.4906107	13.003617	-0.42168593
14086469614013	2.6968286	12.621159	-0.70607877
14086479614013	2.9321883	11.954306	-1.0100849
14086489614013	2.608569	11.473781	-0.9120184
14086499914013	2.2751427	11.346293	-0.48052585
14086509614013	1.9417167	11.7973995	-0.69627213
14086519614013	1.1277647	11.836626	-1.6573238
14086527614013	0.42168593	11.53262	-2.0397832
14086536614013	0.39226598	11.375713	-1.8044236
14086544614013	0.0196133	10.355823	-1.6377105
14086552614013	-0.36284605	10.228335	-1.6279038
14086561614013	-1.0885382	9.86549	-1.3238977
14086569614013	-1.6475172	9.767424	-1.1866046
14086579614013	-2.6772153	9.551677	-0.18632634
14086589614013	-3.1185145	9.973363	1.0787314
14086599614013	-3.8344	10.042009	1.6475172
14086607614013	-3.6088471	10.895188	0.98066497
14086615614013	-3.167548	11.728753	-0.40207264
14086629914013	-2.324176	11.3561	-0.8237586
14086639614013	-1.8338435	11.444361	-0.0588399
14086649814013	-2.853735	11.150161	2.2163029
14086657614013	-2.7948952	10.875574	1.2454445
14086669914013	-0.83356524	10.591182	-2.4712758
14086679914013	-0.30400613	11.209001	-2.608569
14086689614013	0.22555295	11.934692	-0.98066497
14086699614013	0.61781895	12.06218	0.42168593
14086709614013	1.176798	11.012868	1.9711366
14086719614013	1.9711366	10.650022	1.6180972
14086730014013	2.2359161	10.179302	0.46091253
14086739914013	1.7651969	9.228058	0.5393657
14086749814013	1.1179581	8.786758	0.42168593
14086757614013	0.79433864	8.463139	0.588399
14086769714013	-1.4121575	7.3255672	0.1569064
14086778614013	-1.9221034	7.0607877	0.2353596
14086786614013	-2.5595355	6.8548484	0.49033248
14086799814013	-2.745862	6.9823346	0.65704554
14086809914013	-2.6183755	7.423634	0.588399
14086819914013	-2.294756	7.6982203	0.49033248
14086829814013	-2.0005565	7.6982203	0.1372931
14086839614013	-1.7750036	7.247114	0.2353596
14086849614013	-1.6279038	6.6489086	0.5001391
14086858914013	-1.5690639	6.217416	0.9120184
14086866614013	-1.2944778	5.962443	1.0296983
14086874614013	-0.9610517	5.6094036	1.3925443
14086882614013	-0.69627213	5.2465577	1.5298374
14086890814013	-0.4707192	4.981778	1.7750036
14086899614013	-0.4118793	4.8739047	2.1182363
14086907614013	-0.2745862	5.119071	2.2359161
14086919614013	-0.098066494	5.491724	2.5693421
14086929614013	0.1569064	5.8447633	2.6772153
14086939614013	0.46091253	6.187996	2.9027684
14086949614013	0.78453195	6.5116153	3.1773546
14086957614013	1.0002782	6.9823346	3.3538742
14086969614013	1.3533176	7.0411744	3.7363336
14086979614013	1.6867437	7.5511203	4.275699
14086989614013	1.90249	8.16894	5.1975245
14086997614013	2.1770763	8.678885	6.021283
14087009614013	2.5595355	9.610517	6.7077484
14087019614013	2.941995	10.836348	7.2961473
14087029614013	3.5990405	12.532898	7.3255672
14087039614013	4.403186	14.062736	6.9333014
14087050014013	5.295591	15.210114	6.492002
14087057614013	5.9526362	15.239533	5.5799837
14087070014013	5.7270837	13.49395	3.7853668
14087079614013	4.589512	11.758173	3.167548
14087090014013	3.4029074	9.914523	3.108708
14087099614013	2.353596	7.7766733	4.0501466
14087109914013	1.8436501	5.5603704	4.6875787
14087119614013	1.8828768	5.040618	5.187718
14087129614013	1.0689248	8.217973	6.5018086
14087139614013	-0.28439283	12.797678	4.962165
14087149914013	-2.7948952	15.13166	0.88259846
14087157914013	-5.3642373	13.768537	-2.010363
14087169614013	-5.374044	13.58221	-2.7948952
14087179614013	-1.4808041	15.42586	-1.0493115
14087189614013	1.2356379	16.651691	-0.9120184
14087199614013	1.539644	15.27876	0.9022118
14087209614013	0.32361946	13.180138	4.2364726
14087219614013	-1.4415776	11.29726	5.9232163
14087229614013	-3.3538742	7.227501	3.8540134
14087239614013	-5.1975245	2.1672697	2.294756
14087249614013	-6.4527755	-0.18632634	1.6769371
14087257614013	-6.462582	-0.61781895	1.3533176
14087270014013	-5.4328837	0.24516624	-0.20593965
14087279614013	-3.1381278	2.3634026	-3.1773546
14087289614013	-0.61781895	7.678607	-7.4334407
14087299614013	4.059953	13.297817	-10.375436
14087309614013	7.472667	15.465087	-11.179581
14087319614013	7.4334407	15.769093	-8.257199
14087329914013	4.285506	13.680277	-3.0400615
14087339614013	3.383294	12.719225	1.7651969
14087350014013	3.9618864	12.366185	6.9921412
14087358914013	3.9324665	11.875853	8.8652115
14087366914013	2.3634026	11.140354	7.227501
14087374914013	0.9022118	9.816457	4.501252
14087389614013	-0.5099458	8.267006	-1.4611908
14087399914013	-0.51975244	7.8159	-3.0890946
14087409914013	0.22555295	7.8551264	-2.8733485
14087419614013	1.7259704	8.433719	-2.098623
14087429814013	2.0397832	8.924051	-1.7455837
14087439614013	1.6279038	9.071151	-0.75511205
14087450114013	1.0885382	8.973084	0.951245
14087457614013	0.8139519	9.247671	2.0005565
14087466614013	0.5982056	9.443804	1.5788707
14087474614013	0.6864655	9.502644	0.2941995
14087489614013	0.84337187	9.277091	-0.40207264
14087499614013	0.7747253	9.277091	0.06864655
14087510014013	0.6472389	9.277091	0.48052585
14087520014013	0.5099458	9.2378645	0.39226598
14087529614013	0.51975244	9.002504	0.16671304
14087540014013	0.51975244	8.669079	-0.06864655
14087549614013	0.40207264	8.482752	-0.3138128
14087558614013	0.14709975	8.521978	-0.36284605
14087569614013	0.0	8.767145	-0.2745862
14087579614013	0.02941995	8.894631	-0.42168593
14087589614013	0.0392266	9.080957	-0.06864655
14087599614013	0.2745862	9.080957	0.4314926
14087609914013	0.71588546	9.179024	0.70607877
14087619914013	1.1866046	9.139797	0.34323275
14087629914013	1.5004175	8.875018	-0.049033247
14087639614013	1.539644	8.688692	-0.10787315
14087649614013	1.2454445	8.816178	-0.0784532
14087657614013	0.7354987	8.973084	0.0
14087669914013	0.5295591	9.345737	-0.4314926
14087679614013	0.83356524	9.581097	-0.5491724
14087689614013	1.2062179	9.845877	-1.2160245
14087699614013	1.1179581	9.787037	-1.0002782
14087709614013	1.3827376	10.022396	-0.61781895
14087719614013	1.6671305	10.748088	-0.5001391
14087729914013	1.539644	11.110934	-0.5393657
14087737914013	1.3631244	11.218807	-0.6766588
14087745614013	1.1669914	11.209001	-0.71588546
14087753614013	0.951245	11.473781	-0.7649187
14087763614013	0.9904716	12.336765	-0.60801226
14087771614013	1.0689248	13.170331	-0.2353596
14087780614013	1.4023509	13.572403	-0.2353596
14087789614013	2.0692031	12.601545	-0.8727918
14087799614013	2.4810824	11.513007	-0.92182505
14087809614013	2.490889	10.983448	-0.4314926
14087819614013	2.687022	11.130548	0.20593965
14087829614013	2.5889556	11.728753	-0.1569064
14087839614013	1.8436501	11.640493	-0.78453195
14087849614013	1.0885382	10.885382	-0.7649187
14087857614013	0.9022118	10.679441	-0.70607877
14087869714013	0.5491724	9.345737	-0.6766588
14087879614013	0.22555295	9.384964	-0.84337187
14087889614013	-0.9904716	9.198637	-0.74530536
14087899914013	-1.9711366	9.335931	-1.0689248
14087909614013	-2.6281822	10.542149	-0.26477954
14087919914013	-3.0204482	11.62088	1.176798
14087929914013	-3.079288	12.562319	1.4415776
14087937614013	-3.1479347	12.817291	0.588399
14087949914013	-2.657602	13.05265	-0.0784532
14087957914013	-2.520309	13.121298	-0.39226598
14087969914013	-2.2457228	12.876131	1.4808041
14087979614013	-3.2950344	12.346572	0.4707192
14087989614013	-2.4124358	11.76798	-1.3140911
14087999614013	-1.4709975	11.826819	-1.7651969
14088009914013	-0.6276256	11.689527	-2.1378496
14088019814013	0.37265268	11.62088	-0.5982056
14088029614013	1.2258313	11.62088	0.5982056
14088039614013	1.1669914	10.885382	0.7747253
14088049914013	1.8926834	10.1989155	1.1571847
14088057614013	2.441856	9.98317	0.4511059
14088065614013	2.4516625	9.796844	0.12748645
14088079614013	1.1866046	8.914245	0.8041453
14088089614013	0.20593965	8.649466	0.69627213
14088099614013	-0.8041453	8.512172	0.37265268
14088109914013	-1.5592573	8.414105	0.14709975
14088119914013	-1.735777	8.610238	-0.55897903
14088129914013	-1.7750036	8.541592	-1.1866046
14088139914013	-1.5200307	8.286619	-1.3631244
14088149914013	-1.4808041	8.090487	-1.1669914
14088157614013	-1.5200307	7.8257065	-0.6864655
14088169614013	-1.4121575	7.149048	-0.1569064
14088179614013	-1.3337044	6.3939357	-0.32361946
14088189614013	-1.3337044	5.4524975	0.4314926
14088199614013	-1.1375713	4.8739047	1.0002782
14088209814013	-0.9904716	4.2462792	1.6573238
14088219614013	-0.7649187	3.6186538	2.5006957
14088230014013	-0.57859236	3.8442068	3.383294
14088240014013	-0.6766588	4.089373	3.0989013
14088249614013	-0.93163174	4.3835726	2.6477954
14088257614013	-0.8629852	4.677772	2.853735
14088269614013	-0.39226598	4.834678	3.0596747
14088279614013	0.14709975	4.883712	3.3146477
14088290014013	0.57859236	5.089651	3.471554
14088299614013	1.0100849	5.2269444	4.4129925
14088309614013	1.4513842	5.982056	5.4721107
14088319614013	1.8632635	7.0705943	6.335096
14088329614013	2.3830159	8.531785	7.0902076
14088339614013	2.9714148	10.287175	7.6295733
14088349614013	3.6186538	12.591739	7.3157606
14088357614013	4.2364726	14.876688	6.6292953
14088369614013	4.8935184	17.701002	5.8153434
14088379614013	4.305119	17.289124	4.059953
14088390014013	2.824315	13.954863	3.246001
14088399614013	2.0397832	11.29726	3.4029074
14088408614013	1.5690639	9.728196	3.697107
14088419614013	0.6472389	8.669079	4.089373
14088430014013	-0.35303938	9.080957	5.295591
14088440014013	-1.3827376	10.620602	6.384129
14088450014013	-3.0890946	11.258034	4.7660317
14088457614013	-4.2953124	10.718668	3.216581
14088465614013	-4.677772	10.718668	2.7654753
14088480014013	-2.294756	13.84699	3.2950344
14088489614013	0.32361946	17.00473	3.0694814
14088499614013	2.5987623	18.554182	0.0392266
14088509614013	2.2849493	15.729866	-3.383294
14088519614013	1.2748644	11.522814	-0.88259846
14088529914013	-0.38245934	7.1294346	2.3732092
14088539614013	-2.0495899	3.0596747	2.2555294
14088549614013	-3.7167203	-0.088259846	1.4317709
14088559614013	-4.7954516	-1.0198916	1.6279038
14088569614013	-5.060231	-0.2157463	2.186883
14088579614013	-4.3835726	1.1866046	2.3634026
14088589614013	-3.3146477	3.1969678	-0.46091253
14088599614013	-0.5295591	9.590903	-5.266171
14088609614013	3.9618864	15.141467	-8.767145
14088619614013	6.9921412	17.21067	-8.688692
14088629914013	7.953193	16.249619	-5.1779113
14088639914013	6.207609	13.886216	-0.5491724
14088649614013	4.3345394	11.964112	2.6772153
14088659614013	3.9324665	10.699055	6.5998755
14088669614013	2.0593965	9.247671	8.159133
14088679914013	0.26477954	8.825985	5.79573
14088689914013	-0.36284605	9.022118	1.5592573
14088699814013	-0.84337187	9.169217	-1.5200307
14088709914013	-0.3138128	9.7183895	-2.2359161
14088719614013	0.32361946	10.022396	-2.6379888
14088727614013	1.2062179	9.973363	-2.1770763
14088735614013	1.6965504	9.816457	-1.2650578
14088749614013	1.7651969	9.2378645	0.71588546
14088759614013	1.2062179	8.669079	1.7259704
14088769614013	0.55897903	8.374879	1.6769371
14088779614013	0.0784532	8.335652	0.2941995
14088789614013	-0.0196133	8.521978	-0.8139519
14088799614013	0.28439283	8.639658	-0.75511205
14088809914013	0.26477954	8.551398	-0.18632634
14088819614013	0.26477954	8.571012	-0.16671304
14088829914013	0.2745862	8.463139	-0.38245934
14088839814013	0.22555295	8.512172	-0.57859236
14088849914013	0.18632634	8.708305	-0.8041453
14088859914013	0.0196133	8.904438	-0.8041453
14088869614013	0.06864655	9.071151	-0.9904716
14088878914013	0.24516624	9.061344	-0.8531785
14088886614013	0.37265268	9.090764	-0.9120184
14088894614013	0.4511059	9.041731	-0.97085834
14088902614013	0.588399	9.208445	-0.84337187
14088910814013	0.56878567	9.316318	-0.7256921
14088919914013	0.3138128	9.433997	-0.5491724
14088929914013	0.34323275	9.787037	-0.049033247
14088939614013	0.1569064	9.885103	0.1372931
14088949914013	0.16671304	9.787037	0.32361946
14088959814013	0.20593965	9.649743	0.57859236
14088967614013	0.2157463	9.65955	0.57859236
14088979614013	0.74530536	9.669356	0.32361946
14088989614013	1.2160245	9.77723	-0.20593965
14088999614013	1.7750036	9.57129	-1.2944778
14089009614013	1.9122967	9.492837	-1.7455837
14089019614013	1.8730701	9.728196	-1.3925443
14089029614013	2.0299766	10.022396	-1.2062179
14089039614013	1.4906107	9.875297	-0.951245
14089049614013	0.6766588	9.855683	-0.7354987
14089059614013	-0.2157463	10.355823	-0.6864655
14089069614013	-0.4511059	11.41494	-0.69627213
14089079614013	-0.17651969	12.679998	-0.36284605
14089090014013	0.6864655	13.160524	-0.5982056
14089099614013	1.7161638	12.630965	-0.8041453
14089109914013	2.2751427	11.934692	-0.61781895
14089119614013	2.3143694	11.856239	-0.1372931
14089130014013	2.0495899	12.091599	-0.42168593
14089140014013	1.7750036	12.346572	-1.2258313
14089150014013	1.539644	11.9052725	-1.7946169
14089160014013	1.2062179	10.924608	-1.9711366
14089170014013	0.8237586	10.326403	-1.5788707
14089180014013	0.6276256	9.355544	-1.0885382
14089189614013	0.049033247	9.041731	-0.6374322
14089200014013	-1.1669914	8.825985	0.19613299
14089209614013	-2.1574628	9.179024	1.4709975
14089219614013	-2.9714148	9.63013	1.2552512
14089230014013	-3.5892339	10.228335	0.5295591
14089239614013	-2.7164419	11.718946	0.1176798
14089249614013	-2.0005565	12.984004	-1.3533176
14089260014013	-1.343511	12.905551	-1.147378
14089270014013	-1.4906107	12.572125	0.00980665
14089280014013	-1.7259704	12.6505785	2.353596
14089290014013	-1.6965504	12.170053	1.6671305
14089300014013	-0.49033248	11.67972	-2.7654753
14089310114013	0.1569064	11.9052725	-5.0210047
14089318614013	0.97085834	12.513285	-2.353596
14089327614013	1.3337044	12.346572	-0.8041453
14089339614013	1.4219642	11.2384205	0.9120184
14089348614013	1.8240368	10.355823	1.8338435
14089359614013	1.9221034	9.89491	1.5984839
14089370014013	1.99075	9.463417	0.74530536
14089380014013	1.8044236	9.267284	0.74530536
14089390014013	1.4611908	8.855405	0.6668522
14089400014013	0.5099458	8.188553	0.3138128
14089409614013	-0.8041453	7.531507	0.40207264
14089420014013	-1.6279038	7.1882744	0.61781895
14089429614013	-2.0790098	7.119628	1.0296983
14089440014013	-2.3143694	7.2961473	1.1081514
14089450014013	-2.3045628	7.4334407	0.88259846
14089459614013	-2.2359161	7.4432473	0.6668522
14089469614013	-2.010363	7.4432473	0.44129923
14089479614013	-1.9122967	7.198081	0.35303938
14089490014013	-1.8338435	6.7567816	0.19613299
14089500014013	-1.5788707	6.2860627	0.4314926
14089510014013	-1.1277647	6.0703163	0.5001391
14089520014013	-0.75511205	5.5309505	0.7649187
14089529614013	-0.65704554	5.3053975	1.147378
14089540014013	-0.5491724	5.2857842	1.6279038
14089549614013	-0.5001391	5.393657	2.0593965
14089560014013	-0.46091253	5.6192102	2.2555294
14089567614013	-0.35303938	5.8349566	2.3634026
14089575614013	-0.2549729	6.00167	2.490889
14089590014013	0.0784532	6.2762556	2.657602
14089600014013	0.36284605	6.609682	2.7948952
14089610014013	0.6766588	7.0411744	3.0596747
14089619614013	1.2160245	7.6295733	3.726527
14089629614013	1.7553903	8.296426	4.883712
14089640014013	2.2261095	8.845598	5.962443
14089649614013	3.1479347	9.296704	7.080401
14089659614013	4.3541527	10.277369	7.953193
14089669614013	5.5799837	11.875853	8.472945
14089679614013	6.6292953	13.425303	8.482752
14089689614013	6.580262	14.837461	7.276534
14089699614013	4.6973853	14.974754	5.9428296
14089709614013	3.0890946	14.1706085	5.0798445
14089719614013	2.0790098	12.581932	4.1285996
14089729614013	1.9221034	10.444082	4.0109196
14089740014013	2.324176	8.061066	4.059953
14089750014013	2.490889	5.76631	4.148213
14089759614013	3.000835	4.7954516	3.5107806
14089769614013	2.9223816	5.982056	3.86382
14089779614013	0.3334261	10.061623	5.7859235
14089789814013	-2.7654753	14.141189	3.3538742
14089800014013	-6.384129	15.886772	-1.0395049
14089809814013	-9.149604	17.112604	-1.5102241
14089818614013	-8.649466	18.279594	0.69627213
14089829614013	-1.5984839	17.191057	2.9027684
14089839814013	0.6472389	12.876131	2.3634026
14089849914013	2.0005565	10.189109	2.1182363
14089860014013	1.3042845	7.9728065	4.3541527
14089869614013	-3.0694814	5.060231	3.1479347
14089879914013	-4.981778	1.6475172	1.4415776
14089890014013	-4.864098	0.088259846	0.6766588
14089899614013	-3.9815	0.40207264	1.176798
14089909814013	-3.000835	1.7651969	1.5494506
14089920014013	-2.3143694	3.5794272	-0.2745862
14089929914013	-1.6867437	6.0114765	-2.3437893
14089939914013	2.3928225	14.700168	-5.491724
14089949914013	7.335374	18.897413	-8.1101
14089959614013	9.698776	18.181528	-6.4821954
14089969614013	7.8747396	14.131382	-2.7948952
14089979614013	4.2168593	11.091321	-1.5102241
14089989614013	2.7164419	8.992698	-0.20593965
14089999614013	1.9809432	7.6295733	0.951245
14090009614013	0.8041453	7.0607877	2.6968286
14090019914013	-0.34323275	7.119628	5.0994577
14090029614013	-1.2748644	7.4334407	5.7859235
14090039614013	-1.7848103	7.963	4.089373
14090049814013	-2.010363	8.335652	1.2748644
14090059614013	-2.2359161	9.002504	-1.3827376
14090069614013	-1.9711366	10.836348	-3.86382
14090079614013	-0.8727918	12.444638	-3.8736267
14090089614013	1.3533176	12.827098	-1.8142302
14090099614013	2.6477954	11.32668	-0.02941995
14090109614013	2.3143694	9.257478	1.0983448
14090119914013	1.176798	7.943386	1.2944778
14090129614013	0.69627213	7.913966	0.65704554
14090139614013	0.5982056	8.325846	-0.088259846
14090149614013	0.7256921	8.688692	-0.4118793
14090159614013	0.78453195	9.031924	-0.51975244
14090169614013	0.8531785	9.306511	-0.16671304
14090179614013	0.84337187	9.316318	-0.098066494
14090189614013	0.8531785	9.110377	-0.14709975
14090199614013	0.79433864	8.786758	-0.39226598
14090209614013	0.79433864	8.590625	-0.61781895
14090219614013	0.5295591	8.3846855	-0.8237586
14090229614013	0.42168593	8.4925585	-0.89240515
14090239614013	0.19613299	8.561205	-0.92182505
14090249614013	0.088259846	8.590625	-0.9904716
14090259614013	-0.14709975	8.443525	-0.39226598
14090269914013	-0.2157463	8.4925585	-0.06864655
14090279614013	-0.37265268	8.561205	-0.1372931
14090289614013	-0.49033248	9.022118	-0.0784532
14090297614013	-0.5393657	9.522257	0.2157463
14090305614013	-0.588399	9.826263	0.6374322
14090313614013	-0.70607877	9.86549	1.0493115
14090321614013	-0.70607877	9.89491	1.2650578
14090329614013	-0.6864655	9.68897	1.4808041
14090339614013	-0.1569064	9.669356	0.65704554
14090350014013	0.36284605	9.738003	-0.6864655
14090359614013	0.7747253	9.83607	-1.9613299
14090370014013	0.93163174	10.130269	-1.8534569
14090379614013	0.97085834	10.414662	-2.265336
14090389614013	0.97085834	10.551955	-1.4317709
14090400014013	1.2748644	11.022675	-0.56878567
14090407614013	1.4219642	11.199194	-0.1176798
14090415614013	1.3827376	11.2384205	-0.0392266
14090430014013	1.1866046	12.395605	-1.0100849
14090439614013	1.5592573	13.072264	-1.2650578
14090449614013	2.2064962	12.827098	-1.4513842
14090459614013	2.5497289	12.287732	-1.5004175
14090469614013	2.4614692	11.875853	-0.83356524
14090480014013	2.3437893	11.866046	0.1176798
14090489614013	2.3732092	12.238699	0.19613299
14090499914013	2.0299766	12.905551	-0.6864655
14090508614013	1.2258313	12.513285	-1.5004175
14090520014013	1.1179581	11.748366	-2.0495899
14090530014013	1.1277647	10.993255	-1.6867437
14090540014013	0.71588546	9.522257	-1.3827376
14090550014013	0.22555295	9.110377	-0.9022118
14090559614013	-0.83356524	8.835792	-0.44129923
14090569614013	-2.098623	8.472945	0.14709975
14090580014013	-3.049868	8.257199	1.0689248
14090589614013	-3.5794272	8.825985	1.4611908
14090599614013	-3.1479347	10.610795	0.97085834
14090609614013	-2.3928225	11.748366	-0.6374322
14090620014013	-1.0198916	11.62088	-0.088259846
14090629614013	-1.7455837	11.7973995	0.40207264
14090639614013	-2.2751427	12.140633	0.8041453
14090649614013	-1.6769371	12.366185	1.539644
14090659614013	-0.56878567	12.130826	-2.4614692
14090670014013	-0.0588399	11.983726	-4.756225
14090679614013	0.5491724	12.326959	-2.8439283
14090690014013	0.98066497	12.287732	-0.5491724
14090699614013	0.79433864	11.287454	2.010363
14090708614013	1.2748644	10.591182	2.608569
14090720014013	2.0888164	10.375436	1.539644
14090730014013	1.99075	9.708583	1.1571847
14090739614013	1.8044236	9.433997	1.1277647
14090749614013	1.1375713	8.747532	0.38245934
14090758614013	0.6276256	8.159133	0.2157463
14090769914013	-0.46091253	7.453054	0.1372931
14090779614013	-1.3631244	7.227501	0.049033247
14090790014013	-1.8338435	7.394214	0.2549729
14090799614013	-2.0397832	7.4432473	0.10787315
14090809614013	-2.010363	7.7472534	0.24516624
14090819614013	-1.93191	7.8257065	0.4707192
14090829614013	-1.7259704	7.7472534	0.7256921
14090839914013	-1.6965504	7.0411744	0.9610517
14090849614013	-1.4611908	6.413549	0.8727918
14090859614013	-1.4121575	5.8937964	0.98066497
14090869614013	-1.2062179	5.6976633	1.2650578
14090879614013	-1.0591182	5.325011	1.372931
14090889614013	-0.89240515	5.0798445	1.3827376
14090899114013	-0.79433864	5.1582975	1.6769371
14090907614013	-0.83356524	5.217138	1.9809432
14090915614013	-0.7256921	5.4819174	2.1574628
14090929614013	-0.4707192	5.8349566	2.3634026
14090939614013	-0.1176798	6.099736	2.520309
14090949614013	0.2157463	6.2860627	2.687022
14090959614013	0.60801226	6.541035	2.7262487
14090969614013	0.8727918	6.8450418	3.1283212
14090979614013	1.3042845	7.335374	3.7461402
14090989614013	1.735777	8.129713	5.0013914
14090999614013	2.3732092	9.198637	6.03109
14091009614013	2.8733485	10.267562	7.4922805
14091019614013	3.550007	11.934692	8.835792
14091029614013	4.3149257	13.827376	9.326124
14091039814013	5.217138	15.465087	8.786758
14091049614013	5.9232163	16.0731	7.109821
14091059614013	5.6094036	14.415775	4.579705
14091069614013	4.285506	12.219086	2.8047018
14091079614013	3.108708	10.257755	2.324176
14091089614013	2.6772153	9.257478	2.5105023
14091099914013	1.7848103	7.6295733	3.108708
14091109614013	1.5592573	8.276813	4.001113
14091119614013	1.0689248	10.395049	6.0703163
14091129614013	-0.8041453	12.640772	4.579705
14091139614013	-3.3440676	13.05265	2.5595355
14091149614013	-5.011198	12.621159	1.706357
14091159614013	-4.3149257	13.719503	2.4614692
14091169614013	-1.3238977	14.660941	2.0692031
14091179614013	1.0787314	13.5037565	-0.60801226
14091189614013	1.5690639	11.444361	-2.2457228
14091199614013	0.9610517	9.169217	-0.6766588
14091209614013	-0.5491724	6.913688	2.6772153
14091219614013	-2.1574628	4.815065	3.5990405
14091228614013	-2.7850885	3.6088471	2.9223816
14091239814013	-3.3440676	2.5791488	2.8635418
14091249914013	-3.8834333	2.432049	3.4029074
14091259614013	-4.403186	3.000835	2.2849493
14091269614013	-4.0403395	4.530672	-1.2944778
14091279914013	-1.9122967	8.296426	-6.00167
14091289614013	2.8733485	13.562596	-9.218251
14091299614013	6.9823346	16.553625	-8.502365
14091309614013	8.1101	15.837739	-5.2465577
14091319614013	6.3449025	12.9447775	-1.5984839
14091329914013	3.4813607	10.149882	0.6374322
14091339614013	2.687022	8.982891	3.275421
14091349614013	2.1476562	8.904438	5.874183
14091359614013	0.70607877	9.169217	6.717555
14091369914013	-0.16671304	9.345737	4.403186
14091379614013	-0.8727918	9.45361	0.88259846
14091389614013	-0.9610517	10.042009	-1.8632635
14091399914013	-0.8041453	10.463696	-3.0400615
14091409614013	-0.2353596	10.414662	-3.0400615
14091419614013	1.2748644	10.355823	-1.7750036
14091429614013	2.324176	9.92433	-0.20593965
14091439914013	2.0790098	9.149604	1.2944778
14091449914013	1.2650578	8.306232	2.2457228
14091459914013	0.5099458	8.070872	1.372931
14091469914013	0.36284605	8.237586	0.1569064
14091479914013	0.4511059	8.561205	-0.61781895
14091489914013	0.61781895	8.786758	-0.35303938
14091499614013	0.74530536	8.973084	-0.24516624
14091509614013	0.8727918	9.031924	-0.28439283
14091517614013	1.0002782	8.992698	-0.28439283
14091526614013	0.8237586	8.737725	-0.3334261
14091534614013	0.56878567	8.600431	-0.42168593
14091550014013	0.4314926	8.267006	-0.0392266
14091560014013	0.36284605	8.325846	-0.2549729
14091569614013	0.2941995	8.571012	-1.1375713
14091580014013	-0.0196133	8.571012	-1.4415776
14091590014013	-0.3334261	8.669079	-0.951245
14091599614013	-0.5001391	8.884825	-0.4511059
14091609614013	-0.42168593	9.296704	-0.098066494
14091619614013	-0.48052585	9.649743	0.37265268
14091628014013	-0.2941995	9.963556	0.57859236
14091635614013	-0.2745862	9.9047165	0.75511205
14091649914013	0.2157463	9.767424	0.9120184
14091660014013	0.84337187	9.649743	0.38245934
14091669914013	1.0395049	9.48303	-0.4314926
14091680014013	1.2650578	9.51245	-1.1669914
14091689914013	1.5494506	9.708583	-1.3631244
14091699614013	1.6180972	10.051816	-1.3140911
14091709014013	1.7259704	10.620602	-0.9904716
14091716614013	1.8730701	11.101128	-0.588399
14091730014013	1.4513842	11.003061	-0.6374322
14091739914013	0.951245	10.9442215	-0.7747253
14091750014013	0.4314926	10.826541	-0.8629852
14091759614013	0.12748645	11.29726	-0.88259846
14091769614013	0.3334261	12.228892	-0.6276256
14091779614013	0.8139519	13.05265	-0.3334261
14091789614013	1.5004175	13.062457	-0.19613299
14091799614013	2.0005565	12.434832	-0.2745862
14091810014013	2.2849493	11.983726	-0.22555295
14091820014013	2.2457228	11.885659	-0.32361946
14091829914013	1.7946169	12.121019	-0.88259846
14091839614013	1.2748644	12.081793	-1.3533176
14091849614013	0.92182505	11.454167	-1.4611908
14091860014013	0.5491724	10.973641	-1.0493115
14091869014013	0.34323275	10.081236	-0.89240515
14091877014013	0.10787315	9.845877	-0.8727918
14091889614013	-0.9022118	9.110377	-0.5001391
14091899614013	-1.8240368	8.806372	-0.71588546
14091909614013	-2.4026291	9.502644	-0.1569064
14091919614013	-2.9616082	10.051816	0.8139519
14091929614013	-2.5791488	11.258034	1.4219642
14091939614013	-1.9417167	12.287732	-1.147378
14091949614013	-1.0591182	12.454445	-2.0005565
14091959614013	-1.539644	11.9052725	-1.6769371
14091969914013	-1.9221034	11.493394	0.79433864
14091979614013	-2.1182363	11.699333	2.5693421
14091989914013	-1.2160245	11.042288	0.34323275
14091999614013	-0.32361946	10.708861	-1.6769371
14092009614013	0.00980665	11.41494	-3.079288
14092019614013	0.5982056	11.944499	-2.1182363
14092029614013	0.8531785	11.395327	-0.37265268
14092039614013	1.0885382	10.718668	1.343511
14092049614013	1.93191	10.277369	1.8338435
14092059614013	2.2457228	10.012589	1.2062179
14092069614013	2.4222424	9.620323	0.5295591
14092079614013	2.098623	9.041731	0.5099458
14092089614013	1.2944778	8.159133	0.36284605
14092099614013	0.4707192	7.58054	0.2941995
14092110014013	-0.57859236	7.3451805	0.46091253
14092119814013	-1.3533176	7.3255672	0.44129923
14092129914013	-1.7259704	7.6884136	0.55897903
14092139914013	-1.8828768	8.080679	0.46091253
14092149914013	-1.8142302	8.061066	0.32361946
14092160014013	-1.6573238	7.8551264	0.30400613
14092169614013	-1.6377105	7.227501	0.24516624
14092178614013	-1.5886773	6.639102	0.5295591
14092186614013	-1.3925443	6.1683826	0.6374322
14092199914013	-0.8531785	5.629017	0.22555295
14092209914013	-0.7354987	5.207331	0.56878567
14092219914013	-0.5982056	5.217138	0.78453195
14092229914013	-0.5491724	5.2857842	1.1179581
14092237914013	-0.4707192	5.315204	1.2650578
14092249914013	-0.4314926	5.4819174	1.7161638
14092259614013	-0.2941995	5.6682434	1.90249
14092270014013	0.00980665	5.9232163	2.186883
14092279914013	0.39226598	6.217416	2.3928225
14092290114013	0.74530536	6.550842	2.7948952
14092299614013	1.0885382	6.972528	3.3636808
14092309614013	1.2552512	7.560927	3.9618864
14092319614013	1.706357	8.433719	4.9131317
14092330014013	2.2064962	9.492837	5.64863
14092339614013	2.7066352	10.777508	6.550842
14092349614013	3.304841	12.130826	7.256921
14092360014013	4.001113	13.43511	7.4628606
14092370014013	4.8935184	14.278482	7.256921
14092380014013	5.6682434	14.180415	6.492002
14092390014013	5.8153434	13.05265	4.6091256
14092400014013	5.4819174	11.493394	3.1479347
14092410014013	4.6091256	9.973363	2.9518015
14092420014013	3.5794272	8.688692	3.3734875
14092430014013	2.3732092	8.188553	3.5794272
14092440014013	1.6180972	9.57129	5.0798445
14092449614013	1.0395049	12.042566	5.5897903
14092459614013	-0.46091253	14.052929	3.5107806
14092469614013	-2.6183755	15.210114	1.2356379
14092479914013	-4.0403395	16.230005	0.5295591
14092489614013	-4.148213	16.818405	0.34323275
14092499614013	-0.92182505	15.788706	-0.0784532
14092509614013	0.97085834	13.091877	-0.9610517
14092519614013	0.7649187	11.061901	-1.3631244
14092529614013	-0.0784532	8.325846	1.147378
14092539614013	-1.5102241	4.658159	4.305119
14092549614013	-3.1773546	1.0885382	5.148491
14092559614013	-4.6189322	-0.9022118	3.726527
14092569614013	-5.1681046	-1.1669914	2.324176
14092579914013	-4.7758384	0.02941995	1.8632635
14092589914013	-3.697107	1.7848103	0.2745862
14092599914013	-2.353596	3.9324665	-5.236751
14092609614013	1.3337044	12.258312	-10.149882
14092619914013	6.7862015	19.122967	-11.258034
14092629614013	9.2378645	19.593687	-8.070872
14092639614013	8.306232	19.044514	-2.0495899
14092649614013	4.756225	13.807763	2.4516625
14092658614013	3.559814	10.591182	4.3639593
14092666614013	2.8145084	8.13952	5.2563643
14092674614013	2.0790098	7.1294346	5.9722495
14092689614013	-1.2454445	5.5897903	5.2563643
14092699614013	-1.8534569	6.590069	2.657602
14092709614013	-1.7161638	8.149326	-0.098066494
14092719914013	-1.1179581	9.502644	-3.079288
14092729814013	0.0392266	10.8657675	-4.9719715
14092739914013	1.6475172	11.856239	-5.040618
14092749614013	2.8929617	11.915079	-3.4029074
14092759614013	3.0989013	11.032481	-0.39226598
14092769614013	2.7850885	10.071429	2.186883
14092779614013	1.706357	8.924051	3.80498
14092789614013	0.79433864	8.463139	2.8733485
14092800014013	0.5982056	8.708305	0.4707192
14092809914013	0.48052585	8.590625	-1.0689248
14092819614013	0.48052585	8.453332	-1.176798
14092830014013	0.6276256	8.414105	-0.60801226
14092840014013	0.69627213	8.521978	-0.2745862
14092850014013	0.56878567	8.571012	-0.26477954
14092860014013	0.32361946	8.472945	-0.60801226
14092870014013	0.2549729	8.296426	-0.8727918
14092879614013	0.26477954	8.423912	-0.97085834
14092889614013	0.19613299	8.737725	-1.3925443
14092899614013	0.19613299	8.973084	-1.1866046
14092909614013	0.14709975	9.18883	-1.0100849
14092919614013	-0.06864655	9.316318	-0.93163174
14092929614013	-0.49033248	9.257478	-0.39226598
14092939614013	-0.951245	9.15941	-0.0392266
14092949614013	-0.9022118	9.286898	0.44129923
14092959914013	-0.6864655	9.63013	0.30400613
14092969614013	-0.5393657	9.767424	0.0784532
14092979614013	-0.1176798	10.100849	0.5295591
14092989614013	0.46091253	10.326403	1.0100849
14092999614013	1.2062179	10.169496	0.7354987
14093009914013	1.5788707	9.845877	-0.4314926
14093019914013	1.6573238	9.757616	-1.7161638
14093029914013	1.6671305	10.159689	-1.4709975
14093039614013	1.6475172	10.591182	-1.2650578
14093049614013	1.3042845	10.581375	-0.48052585
14093060014013	0.7354987	10.7578945	-0.10787315
14093070614013	0.049033247	11.503201	-0.19613299
14093078914013	0.0392266	12.121019	-0.32361946
14093086614013	0.65704554	12.523091	-0.38245934
14093099914013	2.2359161	12.591739	-0.88259846
14093109914013	3.2067745	12.503478	-1.3827376
14093119614013	3.500974	12.258312	-1.176798
14093128614013	3.1871612	12.121019	-1.0983448
14093139614013	2.432049	12.346572	-0.83356524
14093149914013	1.0591182	12.013146	-1.4317709
14093159914013	0.0196133	11.346293	-1.706357
14093169614013	-0.18632634	11.32668	-1.2552512
14093179614013	-0.69627213	10.277369	-1.0591182
14093189614013	-0.98066497	9.7183895	-0.8531785
14093199614013	-1.4121575	9.022118	-0.5982056
14093209614013	-1.9613299	8.688692	0.1569064
14093219914013	-2.4026291	8.688692	0.36284605
14093229614013	-2.7164419	9.365351	0.9904716
14093239914013	-2.265336	10.7578945	1.1375713
14093249914013	-2.0299766	11.76798	0.36284605
14093259914013	-1.4808041	11.728753	0.30400613
14093269614013	-2.0397832	11.493394	-0.36284605
14093279614013	-2.1672697	11.826819	1.2552512
14093289914013	-2.490889	11.7973995	0.6668522
14093299614013	-1.7161638	11.660107	-1.735777
14093309614013	-0.5393657	11.601267	-3.89324
14093319614013	0.4511059	11.964112	-2.294756
14093329614013	1.0100849	11.817013	-0.06864655
14093339614013	1.1179581	11.189387	1.2062179
14093349614013	1.4415776	10.277369	1.6965504
14093359614013	2.1770763	9.973363	1.6377105
14093369614013	2.3045628	9.316318	1.2062179
14093379614013	2.186883	8.914245	1.0198916
14093389614013	1.8632635	8.541592	1.0493115
14093399614013	0.9022118	8.1101	0.56878567
14093409614013	-0.588399	7.482474	0.1569064
14093419614013	-1.5592573	7.2373075	0.3334261
14093429614013	-2.0790098	7.3157606	0.5099458
14093439614013	-2.186883	7.7962866	0.36284605
14093449914013	-2.0201697	8.3846855	0.2353596
14093459914013	-1.90249	8.747532	0.28439283
14093467914013	-1.8436501	8.394492	0.1372931
14093479614013	-1.5200307	8.16894	-0.00980665
14093489914013	-1.3140911	7.7668667	0.4314926
14093499814013	-1.1277647	7.256921	0.57859236
14093509914013	-0.9414384	6.7567816	0.6668522
14093519914013	-0.7649187	6.3449025	1.2944778
14093529914013	-0.588399	6.00167	1.6082906
14093539914013	-0.6472389	5.79573	1.8142302
14093549614013	-0.65704554	5.6094036	2.0495899
14093559914013	-0.5982056	5.79573	2.0201697
14093567614013	-0.5001391	6.0605097	2.0397832
14093575614013	-0.2549729	6.3743224	2.3437893
14093583614013	0.12748645	6.639102	2.5889556
14093592614013	0.55897903	6.8450418	2.6281822
14093609614013	1.3631244	7.149048	3.0694814
14093619614013	1.7455837	7.276534	3.4911673
14093629614013	2.128043	7.502087	4.0991797
14093639614013	2.5006957	7.923773	5.0798445
14093649614013	2.745862	8.423912	6.0899296
14093659614013	2.991028	9.198637	7.4628606
14093669614013	3.3931007	10.581375	8.551398
14093679614013	3.726527	12.209279	8.453332
14093690014013	3.5892339	13.37627	7.404021
14093699614013	3.2656143	13.905829	5.658437
14093709614013	2.6674087	13.288011	3.7461402
14093719614013	2.4026291	11.964112	2.657602
14093729614013	2.1966896	10.267562	2.5595355
14093739614013	1.7651969	8.806372	2.353596
14093750014013	1.5200307	8.149326	3.0989013
14093760014013	1.5102241	9.5320635	6.00167
14093770014013	-0.0588399	12.307345	6.266449
14093780014013	-2.4222424	13.425303	3.3734875
14093789614013	-4.285506	13.062457	2.0299766
14093799614013	-4.0501466	14.200028	1.8436501
14093809614013	-1.3238977	15.935806	2.0593965
14093820014013	1.3337044	16.131939	0.06864655
14093830014013	2.186883	14.131382	-1.8338435
14093840014013	2.1672697	11.071708	1.147378
14093850014013	1.0885382	7.5511203	4.403186
14093859614013	-1.0493115	3.5892339	3.216581
14093868914013	-2.441856	1.5788707	1.4317709
14093879914013	-4.0109196	-0.1176798	0.98066497
14093890014013	-4.3149257	-0.00980665	1.6082906
14093900014013	-3.8344	0.9904716	2.186883
14093909614013	-2.6379888	2.7262487	-0.46091253
14093918614013	-0.69627213	8.8652115	-4.628739
14093927614013	2.5595355	13.69989	-6.354709
14093935614013	5.982056	16.308458	-8.482752
14093949614013	8.571012	17.661776	-6.541035
14093959914013	6.8744617	15.4847	-1.8534569
14093969614013	4.4620256	13.08207	1.539644
14093980014013	3.7657535	11.012868	5.0504246
14093989614013	1.6573238	9.404577	6.7371683
14093999614013	-0.2157463	8.767145	5.070038
14094009614013	-1.3238977	8.806372	1.93191
14094019614013	-1.7455837	9.0515375	-1.0983448
14094029614013	-2.0692031	9.071151	-2.883155
14094039614013	-2.128043	9.639936	-3.108708
14094049914013	-1.5200307	10.130269	-2.441856
14094059914013	0.6472389	10.208722	-1.0983448
14094068614013	1.6180972	9.65955	0.0392266
14094077614013	1.372931	8.845598	0.65704554
14094089614013	0.79433864	8.051259	0.6276256
14094099614013	0.46091253	7.913966	-0.16671304
14094109614013	0.5393657	8.100293	-0.9414384
14094119614013	0.84337187	8.276813	-1.0689248
14094129614013	1.0002782	8.4925585	-0.88259846
14094140014013	0.88259846	8.747532	-0.6276256
14094149614013	0.61781895	8.933858	-0.74530536
14094159614013	0.49033248	8.992698	-0.37265268
14094169914013	0.42168593	8.825985	-0.16671304
14094179614013	0.36284605	8.727919	-0.49033248
14094189614013	0.2353596	8.757339	-0.88259846
14094199614013	0.16671304	8.708305	-1.0296983
14094209614013	0.22555295	8.718112	-1.2846711
