accelerometer_timestamp	accelerometer_x_data	accelerometer_y_data	accelerometer_z_data
895577641890247	1.4039307	3.1749268	-0.7989044
895577646956164	1.085495	3.4849854	-1.326828
895577652022082	0.63420105	3.7519379	-1.8583374
895577657057483	0.003326416	4.0955048	-2.465271
895577662123401	-0.7759857	4.5180817	-3.160797
895577667189319	-1.7085266	5.1417694	-3.986786
895577672285754	-2.8541565	6.01326	-4.931305
895577677351672	-4.002182	7.0319824	-6.076935
895577682417590	-5.208847	8.351196	-7.2022095
895577687514026	-6.4466553	10.015167	-8.194595
895577692579944	-7.773041	12.189102	-9.048126
895577697676379	-9.180832	14.943634	-9.6658325
895577702742297	-11.081833	17.981873	-10.271576
895577707808215	-13.804031	20.981812	-10.935959
895577712904651	-17.969955	23.58191	-10.46431
895577717970569	-22.619492	25.054337	-8.751251
895577723036487	-24.075165	24.510864	-7.6582947
895577728132922	-21.771942	21.576767	-7.4128876
895577733198840	-18.007065	17.865753	-7.3171234
895577738295276	-13.977615	15.062149	-7.2141724
895577743483264	-10.874725	12.721817	-7.3003693
895577748488147	-8.453003	10.780106	-7.256073
895577753493030	-6.635803	9.45372	-7.178253
895577758558948	-5.3992004	8.282959	-6.3857727
895577763624866	-4.0644226	6.8859406	-5.28804
895577768690784	-2.8828888	5.3955536	-4.3411255
895577773756702	-2.0951996	3.8931885	-3.258957
895577778822620	-1.156662	2.6290588	-2.267746
895577783888538	-0.9483795	1.9610748	-1.469284
895577788954455	-1.3625641	2.0460663	-0.7342682
895577794020373	-1.2895508	2.8373413	0.17074585
895577799086291	-0.77479553	4.129013	1.4408722
895577804152209	0.29421997	5.497299	2.89534
895577809218127	1.7199707	6.7626343	4.12117
895577814284045	3.053543	8.11058	4.5736847
895577819349963	4.0603027	10.137268	4.7424774
895577824415881	4.3883057	13.030655	5.163849
895577829481799	4.090225	16.459152	5.1027985
895577834578235	3.2115479	19.301071	4.507843
895577839644153	2.6010284	20.611908	4.0038605
895577844710071	3.3923187	20.748367	1.286438
895577849775989	4.4900513	19.189743	-2.4700623
895577854841907	4.200363	15.99469	-5.521469
895577859907825	2.298172	12.542252	-7.002289
895577864973743	0.90953064	10.221069	-5.311981
895577870070178	0.18289185	9.002411	-2.0271301
895577875136096	-0.7580261	8.217117	0.82914734
895577880202014	-1.7755737	7.534775	2.5422058
895577885267932	-2.805069	6.8224945	3.3334808
895577890333850	-3.6274872	6.469345	3.7812042
895577895399768	-4.045273	6.499283	4.080475
895577900465686	-4.0787964	6.4789276	4.2061615
895577905531604	-3.8321838	6.211975	4.109207
895577910628039	-3.4670715	5.611023	3.8063354
895577915693957	-3.109146	5.1489563	3.7740173
895577920759875	-3.030136	5.278244	4.2061615
895577925825793	-3.006195	5.6601105	4.803528
895577930891711	-2.6159363	6.0240326	5.4786835
895577935957629	-2.1430817	6.6094055	6.025757
895577941023547	-1.7276917	7.264221	5.9874573
895577946089465	-1.5098114	8.067474	5.697754
895577951155383	-1.7025452	8.927002	5.428406
895577956251819	-2.1227264	9.694336	5.021393
895577961317737	-2.4076385	10.18515	4.317505
895577966383655	-2.319046	10.605331	3.2257385
895577971449573	-2.029358	10.990799	2.0322266
895577976515491	-1.7037506	11.337967	1.286438
895577981581409	-1.4978485	11.476822	1.0709686
895577986647327	-1.338623	11.263748	0.8925934
895577991743762	-1.433197	10.805252	0.3179779
895577996809680	-1.4703064	10.0858	-0.13931274
895578001875598	-1.5732574	9.255005	-0.42541504
895578006941516	-2.022171	8.584625	-0.4709015
895578012007434	-1.8976746	7.883133	-0.4230194
895578017073352	-1.9024658	7.222336	-0.17881775
895578022139270	-1.9778748	6.9206543	-0.02319336
895578027205188	-1.9395752	6.887146	0.18510437
895578032301623	-1.9335938	6.9445953	0.4257202
895578037367541	-1.7767639	7.151703	0.71302795
895578042433459	-1.3134918	7.4737244	0.84350586
895578047499377	-1.077652	7.6329346	0.89738464
895578052565295	-1.0848389	7.661667	1.0218811
895578057631213	-1.0297699	7.6448975	1.4312897
895578062697131	-0.9675293	7.4665375	1.9412537
895578067763049	-0.88612366	7.306122	2.4464264
895578072859485	-0.60002136	7.3516083	2.8378754
895578077925403	-0.5186157	7.5766754	3.006668
895578082991321	-0.83943176	7.7035675	3.0761108
895578088057239	-1.1087799	7.769409	3.0366058
895578093123157	-1.1985626	7.8412323	2.8450623
895578098189075	-1.3015137	7.927414	2.5326233
895578103254993	-1.5241852	7.9525604	2.1806793
895578108320911	-1.7767639	7.8963013	1.8011932
895578113417346	-2.0317535	7.804123	1.4540405
895578118483264	-2.204132	7.8472137	1.1499634
895578123549182	-2.453125	7.8065186	0.85787964
895578128615100	-2.7978973	7.7753906	0.6878967
895578133681018	-2.96669	7.771805	0.58255005
895578138746936	-3.1402588	7.7310944	0.66993713
895578143812854	-3.231247	7.7466583	0.894989
895578148909289	-3.1486511	7.808914	1.1990509
895578153975207	-3.0277405	7.8963013	1.5809326
895578159041125	-2.884079	7.978897	1.9723816
895578164107043	-2.8314056	8.061493	2.2955933
895578169172961	-2.8769073	8.151276	2.3327026
895578174238879	-2.9259796	8.310486	2.1818695
895578179304797	-3.0959778	8.541534	1.8969574
895578184401233	-3.2731476	8.851578	1.5210724
895578189467151	-3.4143982	9.170013	1.049408
895578194533069	-3.571228	9.484848	0.6866913
895578199598987	-3.6765594	9.870316	0.3862152
895578204664905	-3.6993103	10.219864	0.23898315
895578209761340	-3.87648	10.515549	0.17433167
895578214827258	-4.066818	10.959671	0.32756042
895578219893176	-4.242798	11.4157715	0.5909271
895578224959094	-4.5420685	11.771317	0.91773987
895578230025012	-4.7707214	11.987991	1.2170105
895578235090930	-4.9730225	11.998764	1.5641632
895578240156848	-5.140625	11.736603	1.701828
895578245222766	-5.1346283	11.337967	1.5677643
895578250288684	-5.0723877	10.927353	1.2349701
895578255354602	-5.3285675	10.570618	0.9129486
895578260420520	-5.7403717	10.498795	0.86027527
895578265486438	-6.0121155	10.5742035	0.8375244
895578270552356	-6.034851	10.801666	0.94047546
895578275648791	-5.961838	11.166779	0.9835663
895578280714709	-5.7439575	11.551041	0.9213257
895578285780627	-5.6218567	11.809616	0.88061523
895578290846545	-5.587143	11.9496765	0.92251587
895578295912463	-5.5512238	12.14241	0.989563
895578300978381	-5.5452423	12.227402	1.0326538
895578306074817	-5.5847473	12.254944	1.0158997
895578311140735	-5.45665	12.251343	1.0362396
895578316206653	-5.1705475	12.087341	1.1020813
895578321272571	-4.886841	11.680328	1.1667328
895578326338489	-4.6965027	11.062622	1.1846924
895578331404407	-4.6138916	10.456894	1.0015259
895578336470325	-4.5648193	9.96489	0.697464
895578341536243	-4.386444	9.568649	0.57177734
895578346632678	-3.9207764	9.249023	0.60528564
895578351698596	-3.3126526	8.863556	0.30122375
895578356764514	-2.6494598	8.427811	-0.3835144
895578361830432	-1.8282471	8.114166	-1.2574005
895578366896350	-1.1925812	8.121353	-2.2928925
895578371962268	-0.95196533	8.5499115	-3.2565613
895578377028186	-0.98428345	9.368729	-3.6923065
895578382094104	-0.7352905	10.6604	-3.485199
895578387190539	-0.30792236	12.374649	-2.453308
895578392256457	0.42829895	13.908142	-0.8432007
895578397322375	1.3392944	15.139954	1.0829315
895578402388293	2.4477997	16.441208	2.9097137
895578407454211	3.3743591	17.536545	4.3162994
895578412520129	3.693985	18.23207	5.34581
895578417586047	3.3923187	18.204529	5.5541077
895578422651965	2.8057404	17.67781	5.017807
895578427748401	2.6836243	16.80632	4.0050507
895578432814319	2.476532	15.685837	2.6726837
895578437880237	1.7271423	14.658722	1.404953
895578442946155	0.5851135	13.510696	0.4436798
895578448012073	-1.2081451	12.597305	0.20425415
895578453077991	-2.7823334	12.426132	0.30003357
895578458143909	-3.7376251	12.438095	0.45205688
895578463209827	-4.339752	12.520691	-0.08782959
895578468306262	-4.0368958	12.71463	-1.0383301
895578473372180	-3.7471924	12.81279	-1.718277
895578478438098	-4.220047	12.550629	-1.9062347
895578483534534	-5.212448	11.96405	-0.9916382
895578488600452	-4.9610596	11.876663	0.0067443848
895578493666370	-4.121887	11.947281	-0.036361694
895578498732288	-3.883667	11.776093	-0.48406982
895578503798205	-3.907608	11.366684	-1.1939545
895578508864123	-3.5772095	10.756165	-1.594986
895578513930041	-2.5644531	10.082199	-1.3244324
895578519026477	-2.0269623	9.262192	-0.8252411
895578524092395	-2.4519348	8.327255	-0.47210693
895578529158313	-1.9120331	7.6173706	0.05821228
895578534224231	-2.480667	6.7626343	0.37065125
895578539290149	-2.496231	5.9210815	0.3945923
895578544356067	-2.4902344	5.139374	0.48916626
895578549421985	-2.5261536	4.491745	0.51431274
895578554487903	-2.3394012	3.8357239	0.18870544
895578559553821	-1.8749237	3.1282501	0.6531677
895578564619739	-2.3813019	2.8493195	-0.9186249
895578569685657	-2.338211	2.6912994	-1.5770264
895578574782092	-1.8354187	2.372879	-1.4860535
895578579848010	-1.2739868	2.032898	-1.5686493
895578584913928	-0.9244232	1.8880463	-1.8715057
895578589979846	-0.7340851	1.799469	-1.8188324
895578595045764	-0.5569153	1.7144623	-1.5854034
895578600111682	-0.20976257	1.6186981	-1.5494995
895578605177600	0.0069122314	1.5564575	-1.4070435
895578610243518	0.48335266	1.546875	-1.0706482
895578615309436	0.87002563	1.6294708	-0.6552582
895578620375354	1.2363434	1.7192535	-0.2350769
895578625441272	1.4709625	1.7312317	0.13841248
895578630537707	1.6601105	1.8341827	0.50712585
895578635603625	1.9019318	1.9359283	0.8961792
895578640669543	1.9689636	2.0520477	1.3510895
895578645735461	2.2107697	2.166977	1.6036682
895578650801379	2.298172	2.2866821	1.7126007
895578655867297	2.3448486	2.4315338	1.7293701
895578660933215	2.2047882	2.5679932	1.6754913
895578665999133	2.0168457	2.709259	1.4480438
895578671095569	1.9222717	2.8600922	1.0518036
895578676161487	1.6636963	3.0719757	0.60289
895578681227405	1.4482269	3.3556976	0.15158081
895578686293323	1.259079	3.6441956	-0.3140869
895578691359241	1.0160675	3.9315033	-0.7450409
895578696425159	0.5647583	4.277466	-1.2250824
895578701491077	-0.03617859	4.53244	-1.7984924
895578706556995	-0.6742401	4.8688354	-2.4592896
895578711653430	-1.3506012	5.255493	-3.1679688
895578716719348	-2.1706085	5.85524	-4.0837555
895578721785266	-3.318634	6.732712	-5.089325
895578726851184	-4.62706	7.9202423	-6.2229767
895578731917102	-5.9570465	9.39267	-7.299164
895578736983020	-7.145767	11.116501	-8.301147
895578742048938	-8.73671	13.108475	-9.166641
895578747114856	-10.304916	15.307541	-9.550919
895578752211291	-11.972473	17.313889	-9.5952
895578757277209	-14.541458	18.829422	-9.307907
895578762343127	-17.486328	19.832596	-8.333466
895578767409045	-19.692581	20.191711	-6.707794
895578772474963	-20.068466	19.772736	-5.074951
895578777540881	-18.864182	18.414017	-4.295639
895578782606799	-16.965576	16.521408	-4.4117584
895578787703235	-15.069382	14.817932	-4.8032074
895578792769153	-12.865509	13.256912	-5.28804
895578797835071	-10.462936	11.694702	-5.837509
895578802900989	-8.275833	10.1037445	-6.342682
895578807966907	-6.519684	8.523575	-6.4324646
895578813032825	-4.6486053	7.030792	-6.3809967
895578818098743	-3.4934082	5.851654	-5.9644012
895578823195178	-2.6913452	4.895157	-4.9767914
895578828261096	-2.0652618	4.198456	-3.8682709
895578833327014	-1.2799683	3.5699768	-3.164383
895578838392932	-0.6742401	3.179718	-2.6831512
895578843458850	-0.51382446	3.1701355	-2.140854
895578848524768	-0.51501465	3.7172241	-1.4585114
895578853590686	-0.32946777	4.890381	-0.6085663
895578858656604	0.3983612	6.2897797	0.5011444
895578863722522	1.4314575	7.4713287	1.4743805
895578868788440	2.4418182	8.638504	2.385376
895578873884875	3.1744385	10.28331	3.1970062
895578878950793	3.3348541	12.157974	3.7871857
895578884016711	2.9912872	14.263672	4.3210907
895578889082629	2.547165	16.988281	4.5377655
895578894148547	2.2311249	19.542892	3.712967
895578899214465	2.1964111	20.955475	2.5338135
895578904280383	2.5531464	20.457474	1.5102997
895578909346301	2.4118958	17.83702	0.21144104
895578914442737	0.6365814	13.199448	-2.2330322
895578919508655	-0.9495697	9.245422	-3.260147
895578924574573	-0.9711151	6.926651	-2.1875458
895578929640491	-0.83703613	5.7977753	-0.16923523
895578934736926	-1.6426849	5.552368	1.4731903
895578939802844	-2.702118	5.5775146	2.3518524
895578944868762	-3.4191895	5.51886	2.8498535
895578949934680	-3.880066	5.5296326	3.1898346
895578955000598	-4.0153503	5.7546844	3.2604523
895578960097034	-3.9854126	6.188034	3.1575012
895578965162952	-3.835785	6.875168	2.9360504
895578970228870	-3.6837463	7.4545593	2.6654968
895578975294788	-3.4658813	7.898697	2.677475
895578980360705	-3.248001	8.195572	3.1132202
895578985426623	-2.9415436	8.462524	3.96315
895578990492541	-2.2939148	8.704346	4.844223
895578995588977	-1.5636749	8.790527	5.223709
895579000654895	-1.3182831	8.86235	5.018997
895579005720813	-1.4571381	9.175995	4.5461426
895579010786731	-1.3529968	9.519562	4.096039
895579015852649	-1.3637695	9.812851	3.508255
895579020918567	-1.2859497	10.071426	2.7600708
895579025984485	-0.92681885	10.223465	1.9604034
895579031050403	-0.6275482	10.18396	1.4971313
895579036116321	-0.4072876	10.023544	1.2852478
895579041212756	-0.56889343	9.779343	1.2361603
895579046278674	-0.9687195	9.325638	1.0410309
895579051344592	-1.2680054	8.837219	0.7692871
895579056410510	-1.9707031	8.44696	0.7393646
895579061476428	-2.3250427	8.414642	0.8447113
895579066542346	-2.1047668	8.114166	0.58613586
895579071608264	-2.1945496	7.5970154	0.34072876
895579076674182	-2.3956604	7.3252716	0.36946106
895579081770618	-2.4734802	7.302536	0.2449646
895579086836536	-2.5895996	7.3204956	0.2856598
895579091902454	-2.508194	7.3671722	0.4436798
895579096968372	-2.2460327	7.440201	0.4831848
895579102034289	-1.769577	7.547943	0.5514221
895579107100207	-1.6726227	7.544342	0.6531677
895579112166125	-1.6726227	7.357605	0.80281067
895579117232043	-1.4212341	7.105011	1.1236267
895579122328479	-1.1231537	7.132553	1.3977661
895579127394397	-0.86457825	7.2582397	1.5809326
895579132460315	-0.86816406	7.302536	1.6300049
895579137526233	-0.89450073	7.5216064	1.8287201
895579142592151	-0.9531555	7.8472137	1.8227386
895579147658069	-1.0920258	8.033966	1.780838
895579152723987	-1.2380676	8.138107	1.7102203
895579157789905	-1.3553925	8.254227	1.6994324
895579162886340	-1.7947235	8.2135315	1.6204376
895579167952258	-1.9994202	8.221909	1.4947357
895579173018176	-2.2484283	8.124939	1.3582611
895579178084094	-2.65065	8.019592	1.2265778
895579183150012	-2.7631836	7.954956	1.207428
895579188215930	-2.9092255	7.804123	1.2529144
895579193281848	-3.026535	7.563507	1.389389
895579198347766	-3.0528717	7.409073	1.6084595
895579203413684	-3.030136	7.4425964	1.8634491
895579208510120	-2.9882355	7.5730743	2.0609589
895579213576038	-2.9582977	7.702362	2.151947
895579218641955	-2.9738617	7.8927	2.081314
895579223707873	-3.0684357	8.135712	1.8406982
895579228773791	-3.2252655	8.352386	1.5438232
895579233839709	-3.3174286	8.555893	1.222992
895579238905627	-3.404831	8.748627	0.9716034
895579244002063	-3.433548	8.851578	0.80400085
895579249067981	-3.4598846	9.075439	0.80400085
895579254133899	-3.591568	9.314865	0.90457153
895579259199817	-3.8250122	9.61055	0.95843506
895579264265735	-4.1075287	10.001999	1.2241974
895579269331653	-4.4283447	10.531113	1.4911499
895579274397571	-4.5779877	11.003967	1.7640839
895579279494006	-4.7000885	11.346344	2.128006
895579284559924	-4.8389435	11.5342865	2.40094
895579289625842	-4.8509216	11.592941	2.4895325
895579294691760	-4.7012787	11.430145	2.32193
895579299757678	-4.465454	11.217056	1.8885803
895579304823596	-4.3996124	11.056641	1.4624176
895579309889514	-4.5983276	11.050659	1.1655273
895579314955432	-4.886841	11.310425	1.0302582
895579320021350	-5.1274567	11.76532	1.0242767
895579325117786	-5.2328033	12.184311	1.0194855
895579330183704	-5.220825	12.441681	0.98716736
895579335249622	-5.1741333	12.517105	1.0206909
895579340315539	-5.183716	12.472809	1.0817413
895579345381457	-5.263916	12.321976	1.2361603
895579350447375	-5.3596954	12.210648	1.3642578
895579355513293	-5.449478	12.251343	1.3570709
895579360609729	-5.43631	12.343521	1.2409515
895579365675647	-5.1621704	12.418945	1.2577057
895579370741565	-4.5420685	12.174728	1.3953705
895579375807483	-4.153015	11.546249	1.5222626
895579380873401	-4.228424	10.839966	1.6527557
895579385939319	-4.3601074	10.365921	1.4707947
895579391005237	-4.4307404	9.956512	1.0218811
895579396071155	-4.393631	9.555481	0.6759186
895579401167590	-4.2332153	9.228668	0.35510254
895579406233508	-3.8776855	8.858765	0.061798096
895579411299426	-3.2731476	8.481674	-0.16444397
895579416365344	-2.461502	8.261414	-0.47450256
895579421431262	-1.6259308	8.430206	-0.94496155
895579426497180	-1.1698303	8.676804	-1.7170868
895579431563098	-0.95436096	9.007202	-2.4832306
895579436629016	-0.60121155	9.596176	-3.2326202
895579441725452	-0.09364319	10.534714	-3.737793
895579446791370	0.47857666	11.828766	-3.7114563
895579451857288	1.001709	13.414932	-2.920166
895579456923205	1.8708038	14.8945465	-1.4740753
895579461989123	2.986496	16.086853	0.28926086
895579467055041	4.0160065	16.918839	2.0908966
895579472120959	4.7318726	17.243256	3.681839
895579477217395	4.9018555	17.164246	4.6395264
895579482283313	4.7115173	16.740479	4.7304993
895579487349231	4.480484	16.07608	4.0637207
895579492415149	4.1069794	15.233322	3.0497742
895579497481067	3.39711	14.298386	1.8670349
895579502546985	2.2299347	13.392181	0.7908325
895579507612903	0.87002563	12.834335	-0.06867981
895579512709338	0.15055847	12.775681	-0.51638794
895579517775256	-0.9316101	13.006714	-0.8312378
895579522841174	-2.116745	13.258118	-1.4561157
895579527907092	-2.619522	13.395782	-2.3730927
895579532973010	-3.4239807	13.370636	-2.5670319
895579538038928	-3.9890137	13.341904	-2.7238464
895579543104846	-4.788666	12.75293	-2.5718231
895579548170764	-5.892395	12.005936	-1.5135803
895579553236682	-5.073578	11.700684	-0.638504
895579558333118	-3.8657074	11.444504	-0.40985107
895579563399036	-4.1458282	10.842361	-0.98565674
895579568464954	-4.0321045	10.215088	-1.3711243
895579573530872	-3.4898224	9.490829	-1.4573212
895579578596789	-3.325821	8.687576	-1.2454224
895579583662707	-3.5616455	7.9178467	-0.7366638
895579588728625	-4.0596313	7.21994	-0.2973175
895579593794543	-4.029709	6.5411835	0.11328125
895579598860461	-3.7041016	5.734329	0.36946106
895579603956897	-3.5580597	4.9609985	0.4736023
895579609022815	-3.370102	4.2331696	0.37904358
895579614088733	-3.026535	3.5244904	0.20785522
895579619154651	-2.358551	2.879242	0.2569275
895579624220569	-2.9211884	2.7332	-0.62413025
895579629286487	-3.0145721	3.0408478	-1.5590668
895579634382922	-1.2632141	2.6350403	-1.2011414
895579639448840	-0.9591522	2.3836517	-1.0981903
895579644514758	-0.528183	2.2280273	-0.92700195
895579649580676	-0.21574402	2.0161438	-0.6672363
895579654646594	-0.06011963	1.8557281	-0.63131714
895579659712512	0.38160706	1.7719269	-0.6301117
895579664778430	0.75509644	1.783905	-0.6839905
895579669844348	0.93466187	1.8186188	-0.7342682
895579674910266	1.1345825	1.8401642	-0.7593994
895579680006702	1.2961884	1.9359283	-0.6325073
895579685072620	1.5547638	2.0580292	-0.4337921
895579690138538	1.8049622	2.1813354	-0.16923523
895579695204455	2.0228271	2.3166046	0.066589355
895579700270373	2.2694397	2.5237122	0.33235168
895579705336291	2.5615234	2.6757355	0.45803833
895579710402209	2.571106	2.8732605	0.5226898
895579715468127	2.5746918	3.1042938	0.55740356
895579720564563	2.4932861	3.219223	0.5801544
895579725630481	2.366394	3.250351	0.43530273
895579730696399	2.0743103	3.2683105	0.1695404
895579735762317	1.7846069	3.3820343	-0.13331604
895579740828235	1.4589996	3.610672	-0.46492004
895579745894153	1.1321869	3.8572845	-0.9006653
895579750960071	0.7598877	4.03685	-1.3866882
895579756025989	0.1816864	4.1062775	-1.9062347
895579761122424	-0.5174103	4.2104187	-2.5430908
895579766188342	-1.4044647	4.37323	-3.2493744
895579771254260	-2.4591064	4.7347565	-4.022705
895579776320178	-3.7124786	5.4458313	-4.9851685
895579781386096	-5.104706	6.4262543	-5.97876
895579786452014	-6.165344	7.7909546	-6.841873
895579791517932	-7.3516693	9.381897	-7.58049
895579796583850	-8.645737	11.050659	-8.179031
895579801680286	-9.568695	12.8858185	-8.519012
895579806746204	-11.068665	14.713791	-8.706955
895579811812122	-13.449692	16.39331	-8.876953
895579816878039	-16.295212	17.925613	-8.697388
895579821943957	-19.259232	19.121506	-7.8151245
895579827009875	-20.986649	19.732025	-6.69223
895579832075793	-20.542526	19.51535	-5.7632904
895579837172229	-18.497864	18.22728	-5.36705
895579842238147	-15.354279	16.304733	-5.6411896
895579847304065	-12.604538	14.212204	-5.896164
895579852369983	-10.182816	12.317184	-6.05777
895579857435901	-7.955002	10.663986	-6.1631165
895579862501819	-5.959442	9.11734	-6.1834717
895579867567737	-4.512146	7.7227173	-5.8351135
895579872633655	-3.38208	6.5998383	-5.2389526
895579877699573	-2.5931854	5.583496	-4.4512634
895579882765491	-1.8210602	4.6318054	-3.7006836
895579887831409	-0.87535095	3.875229	-2.9441223
895579892897327	-0.26722717	3.7100372	-2.1276855
895579897963245	-0.0062561035	4.282242	-1.2442322
895579903029163	0.58869934	5.516464	-0.0806427
895579908125598	1.4937134	7.08107	0.9213257
895579913191516	2.8584137	8.664841	1.9101257
895579918257434	4.117752	9.982849	2.6595154
895579923323352	4.942566	11.504364	3.3705902
895579928389270	5.5447083	13.634003	3.6914215
895579933455188	5.8942566	15.99469	2.9971008
895579938521106	6.058258	17.99504	1.6946564
895579943587024	5.9110107	19.350159	0.35031128
895579948683459	5.780533	19.961868	0.18270874
895579953749377	6.6484222	18.821045	-0.5882263
895579958815295	7.3331757	16.158691	-1.9936218
895579963881213	6.1636047	12.608078	-2.4868164
895579968947131	2.1784515	9.237045	-1.4417572
895579974013049	-1.6558533	7.231903	0.59451294
895579979078967	-3.1570282	6.219162	2.472763
895579984144885	-3.1809692	5.7379303	3.420868
895579989241321	-3.042099	5.713974	3.7835846
895579994307239	-3.5772095	5.958191	4.2372894
895579999373157	-4.4031982	6.018051	4.7700043
895580004439075	-4.9431	6.0719147	5.3649597
895580009504993	-5.3764496	6.1461334	5.9084473
895580014570911	-5.8193817	6.179657	6.1382904
895580019667346	-5.9259186	6.283798	6.196945
895580024733264	-5.8480988	6.441818	6.1454773
895580029799182	-5.571579	6.8021393	5.922806
895580034865100	-4.889221	7.3887177	5.4272156
895580039961536	-4.042877	7.994461	4.7113495
895580045027454	-3.389267	8.610962	3.918869
895580050093372	-2.7164917	9.207123	3.4376373
895580055159289	-2.1730042	9.814056	3.1994019
895580060225207	-1.68219	10.192337	2.582901
895580065291125	-1.5900116	10.399429	1.7293701
895580070357043	-1.5146027	10.36113	1.088913
895580075422961	-1.5110168	10.206696	0.9416809
895580080488879	-1.1494904	9.954117	1.0996857
895580085554797	-0.60121155	9.733841	0.7477417
895580090620715	-0.09124756	9.409439	0.0031433105
895580095686633	0.40673828	9.104172	-0.074661255
895580100752551	0.66770935	8.837219	-0.010025024
895580105818469	0.40673828	8.308105	-0.120147705
895580110914905	-0.32588196	7.6006165	-0.11656189
895580115980823	-0.6718445	7.200775	0.23538208
895580121046741	-0.42045593	7.046356	0.6352234
895580126112659	-0.094833374	6.8380585	0.8674469
895580131178577	0.101486206	6.6525116	1.044632
895580136244495	0.123031616	6.574692	1.2146149
895580141310413	0.21879578	6.6453247	1.5246582
895580146406848	0.22956848	7.1983795	1.8813934
895580151472766	0.051208496	7.6951904	2.3674164
895580156538684	-0.3534088	8.100998	2.9312592
895580161604602	-0.646698	8.516388	3.3251038
895580166670520	-0.7795868	8.833633	3.3238983
895580171736438	-1.3027191	8.949738	3.0401917
895580176802356	-1.68219	9.100586	2.71698
895580181868274	-1.958725	9.253815	2.4260864
895580186964709	-2.3022919	9.181976	1.9915314
895580192030627	-2.8098602	9.086212	1.5928955
895580197096545	-3.2336426	8.955734	1.0865173
895580202162463	-3.7208557	8.809677	0.66633606
895580207228381	-4.1027374	8.595398	0.29882813
895580212294299	-4.2308197	8.413437	-0.072265625
895580217390735	-4.194916	8.193176	-0.33921814
895580222456653	-4.2463837	7.8903046	-0.619339
895580227522571	-4.180542	7.5970154	-0.7474365
895580232588489	-4.1817474	7.322891	-0.5774536
895580237654407	-4.218857	7.182831	-0.112976074
895580242720325	-4.1266785	7.2893677	0.657959
895580247816760	-3.8561249	7.4593506	1.6072693
895580252882678	-3.5783997	7.5850525	2.4763641
895580257948596	-3.2815247	7.662857	3.085678
895580263014514	-3.0516815	7.726303	3.4472046
895580268080432	-2.915207	7.8029175	3.4747467
895580273146350	-2.8278198	7.9022827	3.2449036
895580278242786	-2.824234	7.907074	2.8726044
895580283308704	-2.7787323	7.9573517	2.4763641
895580288374622	-2.7512054	8.048325	2.0837097
895580293440539	-2.7093048	8.262604	1.7581024
895580298506457	-2.5860138	8.601395	1.5378265
895580303572375	-2.5728455	9.102966	1.2637024
895580308638293	-2.5752258	9.677582	0.894989
895580313734729	-2.5812225	10.243805	0.62564087
895580318800647	-2.6686096	10.762161	0.5095215
895580323866565	-2.947525	11.225433	0.5909271
895580328932483	-3.3808746	11.642029	0.7645111
895580333998401	-3.8692932	11.913773	1.1116638
895580339064319	-4.2152557	12.065796	1.6934509
895580344130237	-4.503769	11.953278	2.2680664
895580349196155	-4.539673	11.600128	2.4584045
895580354292590	-4.5169373	11.005173	2.2536926
895580359358508	-4.508545	10.434143	1.8406982
895580364424426	-4.6952972	10.097763	1.3917847
895580369490344	-4.9431	10.047485	1.0853271
895580374556262	-4.975418	10.313248	0.9823761
895580379622180	-4.92395	10.7717285	0.8303375
895580384688098	-4.856903	11.272125	0.6208496
895580389754016	-4.697693	11.688705	0.3922119
895580394850452	-4.5420685	11.903	0.22341919
895580399916370	-4.5731964	11.946091	0.13482666
895580404982288	-4.7635345	11.894608	0.08454895
895580410048205	-4.903595	11.873062	0.05342102
895580415114123	-4.9694366	11.966446	0.09413147
895580420180041	-4.831772	12.095718	0.19348145
895580425245959	-4.273926	12.050232	0.43530273
895580430311877	-3.7483978	11.683929	0.8375244
895580435408313	-3.5293274	11.167969	1.2660828
895580440474231	-3.4120026	10.6089325	1.460022
895580445540149	-3.330597	10.0642395	1.4528351
895580450606067	-3.3808746	9.43338	1.3403168
895580455671985	-3.2527924	8.813278	1.2984161
895580460737903	-3.057663	8.32605	1.2337646
895580465803821	-2.7631836	7.8855286	0.9524536
895580470900256	-2.468689	7.520401	0.4628296
895580475966174	-1.8964691	7.349228	-0.43737793
895580481032092	-1.3398285	7.571884	-1.5075989
895580486098010	-1.096817	8.141708	-2.3719025
895580491163928	-1.0381622	9.232254	-2.9620667
895580496229846	-0.74845886	10.658005	-3.1344604
895580501295764	-0.17025757	12.506332	-2.6987152
895580506361682	0.5240631	14.340286	-1.6668091
895580511427600	1.3859711	15.774414	-0.2757721
895580516524036	2.4621735	17.058899	1.0793457
895580521589954	3.5192108	18.072845	2.230957
895580526655872	4.010025	18.469086	3.0641327
895580531721789	4.077057	18.548096	3.453186
895580536787707	4.172821	18.48825	3.3873444
895580541853625	4.298523	18.090805	2.831894
895580546950061	4.145294	17.389313	1.9520264
895580552015979	3.5012512	16.485489	1.0541992
895580557081897	2.0084686	15.149536	0.49754333
895580562147815	0.52285767	14.134384	0.7273865
895580567213733	-1.0166016	13.774063	1.1487732
895580572279651	-2.1334991	13.533447	1.0398407
895580577345569	-2.9750671	13.442459	0.48199463
895580582411487	-3.543686	13.262894	-0.519989
895580587507922	-3.8262024	13.134811	-1.0921936
895580592573840	-3.598755	12.8510895	-1.7158966
895580597670276	-4.223648	12.226212	-1.6440582
895580602736194	-4.464264	11.958054	-1.148468
895580607802112	-4.018936	11.700684	-0.95573425
895580612868030	-3.7244568	11.325989	-0.816864
895580617933948	-3.6011505	10.807648	-0.7845459
895580622999866	-3.0708313	10.337189	-0.8791199
895580628065784	-1.630722	9.785324	-0.7354584
895580633131702	-1.1087799	8.989243	-0.27697754
895580638228137	-2.0030212	8.193176	-0.20036316
895580643294055	-2.6278992	7.47612	-0.36315918
895580648359973	-2.8960571	6.6525116	-0.4134369
895580653425891	-2.817047	5.7702484	-0.33084106
895580658491809	-3.2503967	5.2602844	0.0965271
895580663557727	-1.5924072	4.0631866	0.43530273
895580668654163	0.7191925	1.5121613	-0.48646545
895580673720080	-7.4665833	5.2207794	-1.366333
895580678785998	-3.394043	4.5444183	-1.5016022
895580683851916	-1.6486816	3.3592834	-1.3795013
895580688917834	-1.9323883	3.1054993	-1.6057587
895580693983752	-1.4344025	2.966629	-1.6392822
895580699049670	-1.2464447	2.6350403	-1.3435974
895580704115588	-1.0118256	2.4255524	-1.0562897
895580709181506	-0.6455078	2.1849213	-0.7917328
895580714247424	-0.51501465	1.9838104	-0.6325073
895580719313342	-0.1546936	1.9754333	-0.42182922
895580724379260	0.38041687	1.9850159	-0.16923523
895580729445178	0.8664398	1.9490967	0.08934021
895580734511096	0.93226624	1.907196	0.4041748
895580739577014	1.1692963	1.8724823	0.66275024
895580744642932	1.5643463	1.7755127	0.98716736
895580749708850	1.748703	1.7396088	1.2852478
895580754805286	1.8516388	1.8305817	1.5019226
895580759871204	2.0958557	1.9790192	1.686264
895580764937122	2.2646484	2.0711975	1.8502808
895580770003039	2.4466095	2.104721	1.8418884
895580775068957	2.5136414	2.1178894	1.7401428
895580780134875	2.425064	2.15979	1.4564209
895580785200793	2.2263336	2.1657715	0.9620209
895580790266711	1.9976959	2.2088623	0.3934021
895580795363147	1.709198	2.2471771	-0.2135315
895580800429065	1.3153381	2.2411957	-0.9006653
895580805494983	0.8484802	2.144226	-1.555481
895580810560901	0.2642975	1.993393	-2.2138824
895580815626819	-0.3139038	1.8796692	-2.966858
895580820692737	-1.0034332	1.7587585	-3.7796936
895580825758655	-1.8497925	1.7467957	-4.694275
895580830824573	-2.6686096	2.2770996	-5.5106964
895580835921008	-3.389267	3.2060547	-6.2385406
895580840986926	-4.085968	4.431885	-6.856247
895580846052844	-4.9059906	5.807358	-7.3243103
895580851118762	-6.067169	7.263031	-7.7408905
895580856184680	-7.1278076	8.9257965	-8.029404
895580861250598	-8.4314575	10.731033	-8.146713
895580866316516	-10.047531	12.701462	-8.102417
895580871382434	-11.780945	14.919693	-7.9539795
895580876478870	-13.69989	17.172638	-7.615204
895580881544788	-15.9743805	19.467468	-6.8909607
895580886610705	-18.57927	21.55043	-5.971588
895580891676623	-19.424423	23.07074	-5.138397
895580896742541	-17.485123	23.713593	-4.7397614
895580901808459	-14.170349	22.765488	-4.7445526
895580906874377	-10.541946	20.225235	-5.311981
895580911940295	-7.7874146	16.959549	-5.8518677
895580917036731	-6.4586334	14.015869	-5.942856
895580922102649	-5.5536194	11.590546	-5.6806946
895580927168567	-4.4989777	9.557877	-5.398178
895580932234485	-3.4515076	7.81369	-5.066574
895580937300403	-2.4698944	6.234726	-4.6739197
895580942366321	-1.7324677	4.9023438	-4.1268463
895580947432239	-1.2248993	4.0631866	-3.6144867
895580952528674	-0.92323303	3.863266	-2.9082031
895580957594592	-0.6239624	4.3444977	-1.761383
895580962660510	-0.16667175	5.224365	-0.1560669
895580967726428	1.0795135	6.528015	1.4791718
895580972792346	2.5220184	7.9250336	2.7062073
895580977858264	3.4629517	8.877914	3.3861542
895580982924182	4.2267	9.656036	3.44841
895580987990100	4.892288	10.666382	3.164688
895580993086536	5.404648	12.112488	2.840271
895580998152454	5.5375214	13.718994	2.6104279
895581003218372	5.3172607	15.110031	2.0908966
895581008284289	4.919815	16.091644	1.6898651
895581013350207	4.429001	16.777588	1.4432526
895581018416125	3.7897491	17.064896	0.12884521
895581023482043	1.9701538	16.673447	-2.164795
895581028547961	-1.7205048	15.065735	-2.377884
895581033644397	-3.9973907	13.231781	0.2856598
895581038710315	-4.243988	11.484009	3.1096191
895581043776233	-4.515732	9.696732	4.310318
895581048842151	-4.592346	8.236267	4.038574
895581053908069	-4.698883	7.184021	3.571701
895581058973987	-5.010132	6.2012024	3.54776
895581064039905	-5.1980743	5.1692963	3.4400177
895581069136340	-5.2028656	4.4809723	3.424469
895581074202258	-5.1669617	4.388794	3.7033844
895581079268176	-4.967041	4.595886	4.2528534
895581084334094	-4.5887604	5.0148773	4.969925
895581089400012	-4.1829376	5.6828613	5.5936127
895581094465930	-3.3138428	6.444214	5.817459
895581099531848	-2.2364502	7.2414856	5.6115723
895581104597766	-1.338623	7.8747406	5.234482
895581109694202	-0.7065582	8.468506	4.803528
895581114760120	-0.27799988	9.029953	4.295944
895581119826038	0.199646	9.3914795	3.7345123
895581124891955	0.6473694	9.670395	3.0210419
895581129957873	0.93107605	9.7673645	2.5158691
895581135023791	0.9586029	9.762573	2.1986237
895581140089709	1.3321075	9.824829	1.7341614
895581145186145	1.4362488	9.641663	1.4947357
895581150252063	1.3572388	9.501602	1.4947357
895581155317981	0.9586029	9.420212	1.270874
895581160383899	0.4043579	9.210709	0.8770294
895581165449817	-0.075683594	8.757019	0.49516296
895581170515735	-0.42523193	8.339218	0.3826294
895581175581653	-0.7628174	7.871155	0.45684814
895581180647571	-1.1219482	7.6329346	0.5813446
895581185713489	-1.4008789	7.373169	0.5729675
895581190809924	-1.5313568	7.21994	0.5334625
895581195875842	-1.393692	7.278595	0.63282776
895581200941760	-1.3206635	7.5383606	1.0075226
895581206007678	-1.4870605	7.749054	1.4959259
895581211073596	-1.6833954	7.9537506	1.8825989
895581216139514	-1.6845856	8.20993	2.2596893
895581221205432	-1.5588989	8.426605	2.6523285
895581226301868	-1.5600891	8.741455	3.0090637
895581231367786	-1.9491425	8.904251	3.2652435
895581236433704	-2.2460327	9.007202	3.374176
895581241499622	-2.2520142	9.164032	3.3203125
895581246565539	-2.326233	9.209518	2.9156952
895581251631457	-2.4746704	9.263382	2.4117126
895581256697375	-2.5548859	9.15564	1.9173126
895581261763293	-2.8122559	8.970093	1.5090942
895581266859729	-3.034912	8.956924	1.1775055
895581271925647	-3.1809692	8.913834	0.90457153
895581276991565	-3.279129	8.786942	0.71421814
895581282057483	-3.366516	8.619339	0.6388092
895581287123401	-3.3748932	8.3320465	0.57655334
895581292189319	-3.4670715	7.9693146	0.62564087
895581297255237	-3.5269318	7.658066	0.8518982
895581302351672	-3.4958038	7.508438	1.211029
895581307417590	-3.496994	7.4892883	1.5833282
895581312483508	-3.4431305	7.519211	1.9053345
895581317549426	-3.4191895	7.6281433	2.1004639
895581322615344	-3.4203796	7.9441833	2.2453156
895581327681262	-3.3318024	8.2973175	2.2740479
895581332747180	-3.2719421	8.636108	2.2632751
895581337813098	-3.2144775	9.0203705	2.1375732
895581342909534	-3.1582184	9.3124695	1.9508362
895581347975452	-3.0804138	9.47168	1.7401428
895581353041370	-3.006195	9.642868	1.6659241
895581358107288	-2.918808	9.696732	1.5917053
895581363173205	-2.9882355	9.678772	1.4396667
895581368239123	-3.0205536	9.7099	1.2373657
895581373305041	-3.073227	9.823624	1.1236267
895581378370959	-3.2432098	9.834396	0.9847717
895581383467395	-3.3329926	9.924179	0.8878021
895581388533313	-3.5544586	10.054672	0.99794006
895581393599231	-3.8118439	10.094177	1.2098236
895581398665149	-4.057251	10.24501	1.4193115
895581403731067	-4.3289795	10.449707	1.7353516
895581408796985	-4.5420685	10.647232	2.0693512
895581413862903	-4.583969	10.770538	2.1459656
895581418928821	-4.5061493	10.702301	1.978363
895581424025256	-4.6019287	10.522736	1.622818
895581429091174	-4.792267	10.357529	1.2182007
895581434157092	-4.974228	10.285706	0.84950256
895581439223010	-5.0089417	10.400635	0.65556335
895581444288928	-4.946686	10.73822	0.58374023
895581449354846	-4.816208	11.235016	0.53585815
895581454420764	-4.7754974	11.7868805	0.55740356
895581459486682	-4.7910614	12.248947	0.6388092
895581464583118	-4.908386	12.568588	0.6603546
895581469649036	-4.986191	12.740967	0.78126526
895581474714954	-5.014923	12.907364	0.88900757
895581479780872	-4.910782	12.999542	1.0278625
895581484846789	-4.635437	12.767303	1.1739197
895581489912707	-4.295471	12.270508	1.2660828
895581494978625	-4.109909	11.66716	1.1104584
895581500044543	-4.1194916	11.097351	0.82795715
895581505140979	-4.029709	10.568222	0.61605835
895581510206897	-3.6933289	10.207901	0.49635315
895581515272815	-3.255188	9.986435	0.4688263
895581520338733	-2.7105103	9.8068695	0.40896606
895581525404651	-2.0006256	9.604553	0.049835205
895581530470569	-1.2859497	9.468094	-0.5391388
895581535536487	-0.6239624	9.562668	-1.421402
895581540602405	-0.13554382	9.86673	-2.350357
895581545698840	0.101486206	10.332397	-3.078186
895581550764758	0.22717285	10.963272	-3.3714752
895581555830676	0.74671936	11.801239	-2.8710938
895581560896594	1.4793549	12.957642	-1.5889893
895581565962512	2.4753418	14.19783	0.092926025
895581571028430	3.686798	15.082489	1.8789978
895581576094348	4.5379333	15.66069	3.4555817
895581581160266	4.903061	15.970734	4.7472534
895581586256702	4.62294	15.99469	5.4463654
895581591322620	3.819687	15.623581	5.263214
895581596388538	3.1002197	14.999893	4.246872
895581601454455	2.7183533	14.29599	3.006668
895581606520373	2.3544312	13.753708	1.6527557
895581611586291	1.5942688	13.329941	0.35031128
895581616652209	0.88319397	13.006714	-0.6361084
895581621748645	0.3660431	12.83194	-1.311264
895581626814563	-0.23609924	12.946869	-1.891861
895581631880481	-1.0501251	13.162338	-2.0905762
895581636946399	-2.2735596	13.194672	-1.9684753
895581642012317	-3.4227753	13.013901	-1.603363
895581647078235	-4.062027	12.769699	-1.3316193
895581652144153	-4.297867	12.65477	-1.7254639
895581657210071	-4.101532	12.539856	-1.8870697
895581662306506	-3.8609161	12.355499	-1.2358551
895581667372424	-4.2882843	12.023895	-0.8671417
895581672438342	-4.714447	11.510345	-0.77137756
895581677504260	-4.931122	10.924957	-0.8503876
895581682570178	-3.8058472	10.350357	-0.9317932
895581687636096	-2.7308502	9.517166	-0.78334045
895581692702014	-2.7907104	8.492447	-0.38232422
895581697767932	-3.2527924	7.6592712	0.004348755
895581702833850	-3.8549347	6.749466	0.39698792
895581707930286	-3.6873322	5.741516	0.5741577
895581712996204	-3.6418457	4.9526215	0.5167084
895581718062122	-3.3880615	4.2164154	0.3431244
895581723128039	-3.030136	3.4598389	0.34791565
895581728193957	-2.3597565	2.5165253	0.23298645
895581733259875	-3.2408142	2.7272186	-0.792923
895581738325793	-2.4938354	2.5835571	-0.8036957
895581743391711	-1.4140472	2.1693726	-0.64328
895581748488147	-1.1434937	1.9347382	-0.7079315
895581753554065	-0.7317047	1.704895	-0.8049011
895581758619983	-0.3857422	1.562439	-0.71032715
895581763685901	-0.21574402	1.4499054	-0.64567566
895581768751819	0.18647766	1.4175873	-0.5786438
895581773817737	0.38519287	1.4068146	-0.6444855
895581778914172	0.54081726	1.4487152	-0.7091217
895581783980090	0.67489624	1.5061646	-0.6253357
895581789046008	0.87361145	1.531311	-0.52716064
895581794111926	1.0244446	1.5684204	-0.42422485
895581799177844	1.3368988	1.6318665	-0.3045044
895581804243762	1.6625061	1.6210938	-0.086639404
895581809309680	1.9533997	1.6773529	0.16835022
895581814375598	2.1341553	1.7420044	0.42092896
895581819441516	2.3161163	1.8521271	0.6076813
895581824507434	2.524414	2.0676117	0.74534607
895581829573352	2.6249695	2.2735138	0.7082367
895581834639270	2.6130066	2.377655	0.62324524
895581839735705	2.369995	2.4686432	0.42811584
895581844801623	2.1186066	2.5943298	0.14201355
895581849867541	1.9689636	2.7990417	-0.18121338
895581854933459	1.6194153	3.0432434	-0.5307617
895581859999377	1.3273163	3.265915	-0.9126282
895581865065295	0.8748169	3.452652	-1.3364105
895581870131213	0.36724854	3.7172241	-1.8332062
895581875197131	-0.27200317	3.8919983	-2.3455658
895581880263049	-1.1889954	4.152954	-3.0255127
895581885359485	-2.216095	4.598282	-3.729416
895581890425403	-3.4742584	5.3273163	-4.469223
895581895491321	-4.823395	6.3436584	-5.4400635
895581900557239	-5.880432	7.832855	-6.3654327
895581905623157	-6.848877	9.511185	-7.3398743
895581910689075	-8.203995	11.27092	-8.048553
895581915754993	-9.447784	13.370636	-8.157486
895581920851428	-10.968109	15.688232	-8.272415
895581925917346	-12.897827	18.083618	-8.717728
895581930983264	-14.995148	20.417969	-8.812302
895581936049182	-18.423645	22.158554	-7.8821564
895581941115100	-20.767578	22.99533	-6.7485046
895581946181018	-20.464706	22.43509	-6.11882
895581951246936	-18.376968	20.500565	-5.999115
895581956312854	-15.196274	17.923218	-6.0805206
895581961378772	-12.021561	15.348251	-6.4121094
895581966475207	-9.176041	13.024673	-6.861023
895581971541125	-6.7483215	10.917786	-7.0250244
895581976607043	-4.777893	9.05748	-6.5856934
895581981672961	-3.085205	7.345627	-5.885391
895581986738879	-1.4607391	5.607437	-5.1360016
895581991804797	-0.35221863	4.1781006	-4.094528
895581996870715	-0.4874878	4.0272675	-2.8686981
895582001967151	0.08831787	4.5994873	-2.1564178
895582007033069	0.75749207	5.7403107	-1.6524353
895582012098987	0.83291626	7.692795	-1.085022
895582017164905	1.1453552	9.59259	-0.14768982
895582022230823	1.9940948	10.830383	1.2828522
895582027296741	3.010437	11.894608	3.1886292
895582032362659	3.7753906	13.074951	4.9806976
895582037428577	3.8711548	14.166718	5.3996735
895582042525012	3.702362	15.125595	4.531784
895582047590930	3.4940643	16.072495	3.424469
895582052656848	3.3121033	16.418457	2.950409
895582057722766	2.9912872	15.434433	3.0545502
895582062788684	2.3149261	12.934891	2.6571198
895582067854602	1.1705017	9.530334	1.132019
895582072920520	0.20562744	6.872772	-1.3040924
895582077986438	0.3073883	5.1776733	-3.4588623
895582083052356	0.69644165	4.500122	-3.612091
895582088148791	0.491745	4.9598083	-1.8391876
895582093214709	-0.428833	6.220352	0.36227417
895582098280627	-1.4846802	7.2342987	1.804779
895582103346545	-2.2232819	7.9765015	2.7241516
895582108412463	-2.690155	8.400269	3.1048431
895582113508899	-3.0636444	8.382324	3.2161713
895582118574817	-3.239624	8.317673	3.1491241
895582123640735	-3.3437653	8.063889	3.2832031
895582128706653	-3.5388947	7.702362	3.6830292
895582133772571	-3.5700226	7.3923187	4.231308
895582138838489	-3.2216644	7.437805	4.866974
895582143904407	-2.8062744	7.6125793	5.282364
895582148970325	-2.6434631	7.8735504	5.3434143
895582154036243	-2.5022125	8.293732	5.1267395
895582159102161	-2.4794617	8.966507	4.682617
895582164198596	-2.7248688	9.723068	4.1499023
895582169264514	-3.0193634	10.231842	3.4711456
895582174330432	-2.9295807	10.656815	2.567337
895582179396350	-2.4722748	10.971649	1.8921661
895582184462268	-1.9156342	11.161987	1.6467743
895582189528186	-1.6594543	11.115295	1.7149963
895582194594104	-1.4631195	10.63765	1.7904205
895582199660022	-1.2727814	10.039108	1.3726349
895582204756457	-0.6634674	9.486053	0.9847717
895582209822375	-0.7185364	8.942566	0.92251587
895582214888293	-0.7029724	8.2686	0.74295044
895582219954211	-0.82507324	7.437805	0.61486816
895582225020129	-1.3063049	6.8033447	0.8542938
895582230086047	-1.3087006	6.8691864	1.2289734
895582235182483	-1.1877899	7.073883	1.3367157
895582240248401	-0.9854889	7.1313477	1.2996063
895582245314319	-0.71733093	7.246277	1.286438
895582250380237	-0.54255676	7.4318237	1.2457428
895582255446155	-0.51142883	7.532379	1.404953
895582260512073	-0.5760803	7.580261	1.6455688
895582265577991	-0.61079407	7.5503387	1.9424438
895582270643909	-0.607193	7.631729	2.096878
895582275740344	-0.6215668	7.7239075	2.1100464
895582280806262	-0.75564575	7.8112946	2.1064606
895582285872180	-1.1590576	8.021988	2.1411743
895582290968616	-1.5385437	8.100998	2.207016
895582296034534	-1.6797943	8.1740265	2.1902466
895582301100452	-1.8354187	8.312881	2.0382233
895582306166370	-2.1071625	8.327255	1.8239441
895582311232288	-2.3813019	8.261414	1.5605774
895582316298205	-2.4423523	8.195572	1.4181213
895582321364123	-2.4363708	8.14769	1.381012
895582326460559	-2.4243927	7.97171	1.325943
895582331526477	-2.2544098	7.8496094	1.3223572
895582336592395	-2.2244873	7.7310944	1.3798065
895582341658313	-2.2460327	7.6281433	1.4360809
895582346724231	-2.2292633	7.4653473	1.4959259
895582351790149	-2.1347046	7.3707733	1.6216278
895582356856067	-2.0951996	7.365982	1.6934509
895582361921985	-2.1969452	7.47612	1.7592926
895582367018420	-2.1430817	7.685608	1.7736664
895582372084338	-2.0724487	7.87236	1.7521057
895582377150256	-2.0125885	8.023193	1.6754913
895582382216174	-1.91922	8.123749	1.5162811
895582387282092	-1.9611206	8.219513	1.3199615
895582392348010	-2.1047668	8.290146	1.1810913
895582397413928	-2.2651825	8.426605	1.0554047
895582402479846	-2.4543304	8.813278	1.0673676
895582407545764	-2.6710052	9.283737	1.1954651
895582412642200	-2.9355621	9.8463745	1.3726349
895582417708118	-3.1785736	10.401825	1.5498047
895582422774036	-3.425171	10.786102	1.6012726
895582427839954	-3.5700226	11.002777	1.5749359
895582432905872	-3.7711334	11.105728	1.5509949
895582437971789	-4.0201263	11.081787	1.6012726
895582443037707	-4.2930756	11.019531	1.6766968
895582448134143	-4.5456543	10.978836	1.7042236
895582453200061	-4.741989	10.89743	1.5821228
895582458265979	-4.7874756	10.756165	1.420517
895582463331897	-4.8186035	10.543091	1.3031921
895582468397815	-5.2256165	10.442535	1.222992
895582473463733	-5.623047	10.636459	1.302002
895582478529651	-5.8157806	11.140442	1.4636078
895582483626086	-5.8062134	11.774902	1.4672089
895582488692004	-5.6577606	12.293243	1.2828522
895582493757922	-5.43631	12.514709	1.0589905
895582498823840	-5.2926483	12.548233	0.9021759
895582503889758	-5.1669617	12.454849	0.8818207
895582508955676	-5.0675964	12.440491	1.0170898
895582514021594	-5.19928	12.424927	1.128418
895582519087512	-5.1226654	12.506332	1.1978607
895582524153430	-4.928726	12.63562	1.1296234
895582529249866	-4.5504456	12.667938	0.9931488
895582534315784	-3.994995	12.471619	0.8542938
895582539381702	-3.4910126	11.990387	0.721405
895582544447620	-3.3617249	11.367889	0.5406494
895582549513538	-3.4622803	10.898621	0.4903717
895582554579455	-3.4993896	10.610123	0.5167084
895582559645373	-3.3509521	10.437744	0.48558044
895582564711291	-3.042099	10.2222595	0.2916565
895582569807727	-2.5608673	9.88707	-0.07826233
895582574873645	-1.9635162	9.411819	-0.5977936
895582579939563	-1.3649597	9.028748	-1.3256378
895582585005481	-0.7927551	8.8420105	-2.034317
895582590071399	-0.3713684	8.824051	-2.6903229
895582595137317	0.09669495	9.03952	-3.2218475
895582600233752	0.5108948	9.694336	-3.5606232
895582605299670	0.84487915	10.798065	-3.4672546
895582610365588	1.472168	12.15918	-2.7585602
895582615431506	2.1976013	13.414932	-1.4142151
895582620497424	3.2199402	14.379791	0.18630981
895582625563342	4.0794525	15.013062	1.8778076
895582630629260	4.6301117	15.451202	3.3837585
895582635695178	4.809677	15.734909	4.4024963
895582640791614	4.4433746	15.707382	4.7113495
895582645857532	3.7035675	15.211777	4.289963
895582650923450	3.1876068	14.59407	3.4256592
895582655989368	2.8308716	14.084106	2.4619904
895582661055286	2.445404	13.611252	1.5402222
895582666121204	1.5463867	13.186279	0.7788696
895582671187122	0.24873352	12.770889	0.28086853
895582676253039	-0.9866791	12.7517395	-0.1668396
895582681349475	-2.4232025	12.707443	-0.5020294
895582686415393	-3.4000397	12.824753	-0.9437561
895582691481311	-3.7938843	12.91095	-1.436966
895582696547229	-4.255966	12.940872	-1.5770264
895582701613147	-4.7551575	12.758926	-1.9373474
895582706679065	-5.7212067	12.153183	-2.0271301
895582711744983	-5.5608063	11.656387	-1.4225922
895582716810901	-4.0764008	11.546249	-1.0670624
895582721876819	-3.6502228	11.183533	-1.1041718
895582726942737	-3.5580597	10.703491	-1.500412
895582732008655	-3.1426544	10.306061	-1.7254639
895582737074573	-2.7404327	10.030731	-1.5111847
895582742140491	-2.3681335	9.241837	-1.2729645
895582747236926	-2.0473175	8.407455	-0.7941284
895582752302844	-2.8780975	7.5862427	-0.32365417
895582757368762	-3.2731476	6.847641	-0.0471344
895582762434680	-2.9211884	6.1269836	0.088134766
895582767500598	-2.8505707	5.611023	0.23059082
895582772566516	-2.8122559	5.049591	0.054626465
895582777632434	-2.9331665	4.5372314	0.047439575
895582782698352	-2.6781769	3.9925537	-0.37393188
895582787794788	-2.0078125	3.6453857	-0.8862915
895582792860705	-1.8270416	3.377243	-1.3471832
895582797926623	-1.2213135	3.1222534	-1.5339355
895582802992541	-0.78915405	2.9199524	-1.4034424
895582808058459	-0.528183	2.7703094	-1.302887
895582813124377	-0.3210907	2.693695	-1.1951447
895582818190295	-0.14511108	2.5919495	-1.089798
895582823256213	0.01889038	2.542862	-0.93896484
895582828352649	0.3145752	2.4195557	-0.8791199
895582833418567	0.55877686	2.3740692	-0.8432007
895582838484485	0.6796875	2.3549194	-0.6839905
895582843550403	0.80537415	2.3154144	-0.36076355
895582848616321	0.9837494	2.2687225	-0.0184021
895582853682239	1.0974731	2.1885223	0.31918335
895582858748157	1.3452759	2.190918	0.6100769
895582863814075	1.5152588	2.2160492	0.8076019
895582868879993	1.5834961	2.211258	0.92251587
895582873976428	1.6876373	2.3034363	0.98716736
895582879042346	1.709198	2.3609009	1.0027313
895582884108264	1.6864471	2.4458923	0.95484924
895582889174182	1.6050415	2.527298	0.79922485
895582894240100	1.4099121	2.597931	0.50354004
895582899306018	1.2159882	2.7427826	0.15997314
895582904371936	1.0088806	2.9606476	-0.15725708
895582909468372	0.7790375	3.2180328	-0.47808838
895582914534289	0.5539856	3.492157	-0.8144684
895582919600207	0.19606018	3.658554	-1.2154999
895582924666125	-0.21455383	3.8261566	-1.6273041
895582929732043	-0.8274689	4.0284576	-2.1899414
895582934797961	-1.6283264	4.3229523	-2.884262
895582939863879	-2.501007	4.9095306	-3.6887054
895582944929797	-3.5377045	5.7905884	-4.5135193
895582950026233	-4.5779877	6.985306	-5.369446
895582955092151	-5.445877	8.44696	-6.2026215
895582960158069	-6.3365173	9.96489	-7.0010834
895582965223987	-7.3289185	11.578583	-7.6582947
895582970289905	-8.432648	13.38739	-8.058136
895582975355823	-9.932617	15.359024	-8.477112
895582980421741	-11.8515625	17.206146	-8.76561
895582985518176	-14.304428	18.94194	-8.612381
895582990584094	-17.064941	20.331787	-7.781601
895582995650012	-18.994675	21.124268	-6.6383667
895583000715930	-18.551743	21.063202	-5.7956085
895583005781848	-16.437668	19.591965	-5.5334473
895583010847766	-14.061417	17.383316	-5.5777435
895583015913684	-11.747421	15.172272	-5.841095
895583021010120	-9.429825	13.05101	-6.27565
895583026076038	-7.4402466	11.0243225	-6.4552155
895583031141955	-5.6326294	9.557877	-6.643158
895583036207873	-4.543274	8.335632	-6.5270386
895583041273791	-3.5388947	7.1313477	-5.920105
895583046339709	-2.319046	5.980942	-5.3012085
895583051405627	-1.369751	5.125	-4.7481384
895583056502063	-0.5988159	4.800598	-4.1699524
895583061567981	-0.044555664	5.0555725	-3.715042
895583066603381	0.06677246	5.7977753	-3.3176117
895583071699817	0.058395386	6.890732	-2.7561646
895583076765735	0.4462433	8.099808	-1.7266693
895583081831653	1.223175	9.184372	-0.21711731
895583086897571	2.2861938	10.241409	2.1806793
895583091963489	2.9733276	11.482803	5.100403
895583097059924	2.8428497	12.81398	7.1582184
895583102125842	2.030014	14.408524	7.590378
895583107222278	0.85206604	16.179031	6.25441
895583112288196	-0.13194275	17.392899	4.222931
895583117354114	-0.523407	17.467117	2.9025269
895583122420032	-0.39172363	15.787582	2.3003845
895583127485950	-0.5808563	12.246567	1.5354309
895583132551868	-0.8382416	8.94017	-0.072265625
895583137617786	-0.28279114	6.7865906	-2.0319214
895583142683704	0.70961	5.4697723	-3.203888
895583147749622	1.5152588	5.061554	-2.9620667
895583152846057	1.4542084	5.2854156	-1.6847687
895583157911975	0.43069458	5.4937134	-0.093811035
895583162977893	-0.95196533	5.484131	1.2289734
895583168043811	-1.7157135	5.623001	2.2848206
895583173109729	-1.9479523	6.0431824	3.0785065
895583178175647	-1.9455566	6.362808	3.408905
895583183241565	-1.8497925	6.607025	3.4280548
895583188307483	-1.7995148	6.8536224	3.5298004
895583193373401	-1.7899323	7.0164337	4.030197
895583198469836	-1.5960083	7.4473877	4.892105
895583203535754	-1.2859497	7.950165	5.7432404
895583208601672	-1.2069397	8.531952	6.2136993
895583213667590	-1.2775726	9.165222	6.461502
895583218733508	-1.6079712	9.741028	6.389679
895583223799426	-2.2448273	10.297684	6.0592804
895583228865344	-2.8350067	10.75856	5.234482
895583233961780	-3.1953278	10.974045	4.0158234
895583239027698	-3.0528717	11.029114	2.7875977
895583244093616	-2.5812225	10.940521	1.8490753
895583249159534	-2.0102081	10.636459	1.2481384
895583254225452	-1.6019897	10.280914	0.8482971
895583259291370	-1.4786835	9.909821	0.49754333
895583264357288	-1.4918518	9.300491	0.13722229
895583269423205	-1.3529968	8.813278	-0.105789185
895583274519641	-1.3158875	8.539139	-0.14050293
895583279585559	-1.7863464	8.112976	0.05581665
895583284651477	-2.3441925	7.789749	0.23898315
895583289717395	-2.7667694	7.764618	0.45924377
895583294783313	-2.547699	7.757431	0.5849457
895583299849231	-1.6654358	7.4306183	0.5274811
895583304915149	-1.7037506	7.148102	0.61128235
895583310011584	-1.9527435	7.029602	0.66275024
895583315077502	-1.9240112	7.176834	0.7393646
895583320143420	-1.7540283	7.4749146	0.76091003
895583325209338	-1.5816345	7.7586365	0.7405548
895583330275256	-1.4918518	7.8963013	0.80400085
895583335341174	-1.3027191	7.9130554	1.0829315
895583340407092	-1.0632935	7.907074	1.389389
895583345473010	-0.9100647	7.9657288	1.6719055
895583350569446	-0.80352783	8.104599	1.7868347
895583355635364	-0.81788635	8.272186	1.8694305
895583360701282	-1.1578674	8.311691	2.0106812
895583365767200	-1.112381	8.322464	2.025055
895583370833118	-1.1530762	8.340424	1.9448395
895583375899036	-1.4212341	8.303314	1.6695099
895583380964954	-1.7336731	8.229095	1.4241028
895583386030872	-1.967102	8.218323	1.2289734
895583391127307	-2.1394806	8.299713	1.1164551
895583396193225	-2.2843323	8.282959	1.1104584
895583401259143	-2.456726	8.163254	1.1332092
895583406325061	-2.501007	8.061493	1.147583
895583411390979	-2.4758759	7.9214325	1.2684784
895583416456897	-2.460312	7.716736	1.4612122
895583421522815	-2.4160156	7.5227966	1.6790924
895583426619250	-2.3573608	7.373169	1.8897858
895583431685168	-2.2400513	7.3085175	2.0501862
895583436751086	-2.188568	7.282181	2.1770782
895583441817004	-2.2184906	7.274994	2.0741272
895583446882922	-2.2699738	7.3600006	1.9747772
895583451948840	-2.3848877	7.503647	1.8071747
895583457014758	-2.5488892	7.6604614	1.633606
895583462111194	-2.6997375	7.8735504	1.3869934
895583467177112	-2.8074646	8.163254	1.2529144
895583472243030	-2.923584	8.490051	1.0613861
895583477308948	-3.1390686	8.904251	0.8638611
895583482374866	-3.3617249	9.426193	0.64479065
895583487440784	-3.6059418	10.0199585	0.45924377
895583492506702	-3.8321838	10.721451	0.440094
895583497572620	-4.0129547	11.236206	0.51789856
895583502669055	-4.062027	11.631256	0.7357788
895583507734973	-4.0991364	11.794052	1.0362396
895583512800891	-4.1745605	11.616882	1.3175659
895583517866809	-4.1661835	11.245789	1.4468536
895583522932727	-4.282303	10.847153	1.5282593
895583527998645	-4.484604	10.565826	1.5533905
895583533064563	-4.631851	10.557449	1.6719055
895583538160998	-4.6809387	10.886658	1.7521057
895583543226916	-4.666565	11.39064	1.7377472
895583548292834	-4.6522064	11.999954	1.5222626
895583553358752	-4.6677704	12.603302	1.0266724
895583558424670	-4.616287	12.997147	0.578949
895583563490588	-4.515732	13.125229	0.2772827
895583568556506	-4.4714355	13.006714	0.18270874
895583573622424	-4.6043243	12.845108	0.30003357
895583578718860	-4.651001	12.755325	0.53944397
895583583784778	-4.7910614	12.688293	0.74176025
895583588850696	-4.817398	12.685898	0.93807983
895583593916614	-4.666565	12.706253	1.0458221
895583598982532	-4.3002625	12.598511	0.9859619
895583604048450	-3.9566803	12.183121	0.8590698
895583609114368	-3.9842224	11.590546	0.54663086
895583614180286	-4.021332	11.017136	0.16116333
895583619246204	-4.027313	10.446121	-0.05430603
895583624342639	-3.8657074	9.889465	-0.09262085
895583629408557	-3.5472717	9.298096	-0.050720215
895583634474475	-3.1402588	8.767792	-0.043533325
895583639540393	-2.5225677	8.3320465	-0.24824524
895583644606311	-1.7624054	8.062698	-0.84799194
895583649672229	-1.0297699	8.150085	-1.5686493
895583654738147	-0.47790527	8.527161	-2.429367
895583659834582	-0.22293091	9.130508	-3.4049988
895583664900500	0.32174683	10.022354	-4.1950836
895583669966418	1.1166229	11.39064	-4.1974792
895583675032336	1.7702484	13.103683	-3.2936707
895583680098254	2.4190674	14.633575	-1.5602722
895583685164172	3.6580658	15.842651	0.6783142
895583690230090	5.077835	16.741669	2.9803314
895583695296008	5.9732666	17.228897	4.8334503
895583700361926	5.8870697	17.354584	5.9539337
895583705458362	5.0131836	17.018204	6.0473022
895583710524280	4.5104065	16.436417	5.163849
895583715590198	4.310486	15.750473	3.8853455
895583720656116	3.6796265	14.977142	2.6128235
895583725722034	2.4873047	14.121216	1.3247528
895583730787952	0.48695374	13.085724	0.3945923
895583735884387	-1.4810791	12.689484	-0.21592712
895583740950305	-3.0528717	12.61647	-0.61694336
895583746016223	-3.6873322	12.834335	-1.0910034
895583751082141	-3.9064026	13.175507	-1.6883545
895583756148059	-4.314621	13.315567	-2.2174683
895583761213977	-4.745575	13.062988	-2.6879425
895583766279895	-5.386032	12.356689	-2.3012695
895583771376330	-5.303421	11.725815	-0.8060913
895583776442248	-4.6569977	11.557037	-0.08303833
895583781508166	-4.0476685	11.422958	-0.4517517
895583786574084	-3.7471924	11.147629	-1.3483734
895583791640002	-3.2731476	10.729828	-2.1073456
895583796705920	-2.697342	10.078613	-2.2881012
895583801771838	-2.3286285	9.280151	-1.8415833
895583806837756	-2.3406067	8.521179	-0.89945984
895583811903674	-2.6243134	7.4916687	-0.31648254
895583817000110	-3.1953278	6.50885	0.23777771
895583822066028	-3.6813507	5.745102	0.49993896
895583827131946	-3.9842224	5.0759277	0.65197754
895583832197864	-3.8812714	4.290634	0.6603546
895583837263782	-3.1402588	3.5388489	0.20904541
895583842329700	-3.136673	2.9797974	-0.22190857
895583847395618	-3.069641	2.5129395	-0.6301117
895583852461536	-2.6231232	2.3118134	-0.9317932
895583857557971	-2.1777954	2.2364044	-1.0251617
895583862623889	-1.9407654	2.2399902	-0.97488403
895583867689807	-1.5385437	2.0843658	-0.9102478
895583872755725	-1.1794128	1.9957886	-0.77975464
895583877821643	-0.686203	2.017334	-0.6947632
895583882887561	-0.17384338	2.0340881	-0.71751404
895583887953479	0.19725037	2.087967	-0.71391296
895583893049914	0.55758667	2.065216	-0.6803894
895583898115832	0.92388916	2.0855713	-0.5092163
895583903181750	1.2686615	2.1382446	-0.2853546
895583908247668	1.6038513	2.1609802	-0.048324585
895583913313586	1.927063	2.15979	0.20187378
895583918379504	2.2143707	2.166977	0.41854858
895583923445422	2.4334412	2.2483673	0.60409546
895583928541858	2.6297607	2.3034363	0.73817444
895583933607776	2.836853	2.3106232	0.8447113
895583938673694	2.970932	2.333374	0.8423157
895583943739612	2.958969	2.3309784	0.7980194
895583948805530	2.8787537	2.2375946	0.6280365
895583953871448	2.7243347	2.2723236	0.37664795
895583958937366	2.4897003	2.401596	0.047439575
895583964003284	2.2837982	2.5679932	-0.25782776
895583969069202	2.0563507	2.8253784	-0.619339
895583974165637	1.7103882	3.0588074	-0.98565674
895583979231555	1.3009796	3.2395782	-1.3926697
895583984297473	0.7048187	3.4490662	-1.821228
895583989363391	-0.04576111	3.657364	-2.3335876
895583994429309	-0.9423828	3.9326935	-2.9872131
895583999495227	-1.9754791	4.3528748	-3.7246246
895584004561145	-3.033722	5.081909	-4.6763153
895584009627063	-4.1063232	6.2143707	-5.6651306
895584014723498	-5.26033	7.804123	-6.658722
895584019789416	-6.370041	9.815247	-7.767227
895584024855334	-7.1697083	12.140015	-8.7560425
895584029921252	-8.166885	14.805969	-9.443176
895584034987170	-10.140915	17.517395	-9.996231
895584040053088	-12.5195465	19.952301	-10.373322
895584045119006	-15.57814	21.803009	-10.114746
895584050184924	-19.307114	22.93428	-8.637527
895584055281360	-20.954315	23.143768	-6.6323853
895584060347278	-19.70694	22.174118	-5.4867554
895584065413196	-17.15712	19.959488	-5.4759827
895584070479114	-14.337952	17.122345	-5.7237854
895584075545032	-11.771362	14.59407	-5.8662415
895584080610950	-9.103027	12.415344	-6.035034
895584085707385	-6.16774	10.256973	-6.4276733
895584090773303	-4.36969	8.506821	-6.426483
895584095839221	-3.7699432	7.713135	-5.485565
895584100905139	-2.4315796	6.9757233	-4.414154
895584105971057	-0.5653076	5.4625854	-3.8024292
895584111036975	-0.2121582	4.483368	-3.358307
895584116102893	-0.5748749	4.9131165	-3.2062836
895584121168811	-0.11160278	5.5056915	-3.1344604
895584126234729	-0.012237549	6.4501953	-2.7250519
895584131331164	0.32893372	7.4581604	-1.9265747
895584136397082	1.1178284	8.177612	-0.52716064
895584141463000	2.1257782	8.711517	1.420517
895584146528918	2.994873	9.322037	3.6686707
895584151594836	3.4497833	10.28331	5.6355133
895584156691272	3.08107	11.592941	6.599167
895584161726672	2.2921753	13.553787	5.9491425
895584166823108	1.3345032	15.732513	4.5030518
895584171889026	0.85206604	17.157074	3.3981323
895584176954944	1.1094513	17.305511	2.8115387
895584182020862	1.2447205	15.810333	2.3925629
895584187086780	0.8999481	12.682312	0.92611694
895584192152698	0.24752808	9.565048	-1.8020782
895584197218616	0.3038025	7.4102783	-3.9808044
895584202284534	0.80418396	6.165283	-4.1878967
895584207380969	0.8891754	5.681656	-2.5765991
895584212446887	0.106277466	5.8612213	-0.31767273
895584217512805	-1.4056702	6.3113403	1.3881989
895584222578723	-2.3944702	6.5806885	2.6271973
895584227644641	-2.8769073	6.8895416	3.3370667
895584232710559	-3.0612488	7.16127	3.7261353
895584237776477	-2.9259796	7.1181793	3.697403
895584242842395	-2.618332	6.793762	3.563324
895584247908313	-2.6291046	6.472946	3.7009888
895584253004748	-2.8098602	6.401123	3.94281
895584258070666	-2.635086	6.6525116	4.342636
895584263136584	-2.2101135	7.1229706	4.8861237
895584268202502	-1.8761292	7.7442627	5.455948
895584273268420	-1.6941681	8.389496	5.8294373
895584278334338	-1.725296	9.15564	5.8749237
895584283430774	-2.3693237	9.852356	5.244049
895584288496692	-2.4267883	10.494003	4.5054474
895584293562610	-2.1610413	10.93573	3.4711456
895584298628528	-1.9216156	11.209869	2.4224854
895584303694446	-1.5900116	11.287689	1.6563416
895584308760364	-1.2057495	11.105728	1.0721588
895584313826282	-0.8526001	10.838776	0.5705719
895584318892200	-0.70536804	10.367111	-0.050720215
895584323958118	-0.57847595	9.751801	-0.440979
895584329054553	-0.97351074	9.128113	-0.35359192
895584334120471	-1.84021	8.626526	0.052230835
895584339186389	-2.3465881	8.195572	0.31559753
895584344252307	-1.8545837	7.774185	0.23179626
895584349318225	-1.3098907	7.393509	0.25813293
895584354414661	-1.5241852	7.1947937	0.3143921
895584359480579	-1.7133179	7.093048	0.34910583
895584364546497	-1.8330231	7.0511475	0.479599
895584369612414	-1.7863464	7.314499	0.5621948
895584374678332	-1.6319122	7.7071533	0.47120667
895584379744250	-1.5361481	7.9010773	0.4221344
895584384810168	-1.4810791	8.005234	0.484375
895584389876086	-1.3793335	7.8867188	0.6902771
895584394942004	-1.1985626	7.7945404	1.1092682
895584400007922	-1.0704803	7.832855	1.5641632
895584405104358	-0.8119049	7.8615875	1.9376678
895584410170276	-0.9567566	7.708359	2.3243256
895584415236194	-0.9292145	7.6006165	2.5661469
895584420302112	-0.92204285	7.6281433	2.6176147
895584425368030	-1.017807	7.512024	2.511078
895584430433948	-1.156662	7.4749146	2.3350983
895584435530383	-1.3362274	7.4545593	2.1052551
895584440596301	-1.4942474	7.464142	1.8610535
895584445662219	-1.6905823	7.503647	1.6515503
895584450728137	-1.8557739	7.5251923	1.4396667
895584455794055	-2.0161896	7.5814514	1.3355255
895584460859973	-2.1514587	7.516815	1.3666382
895584465925891	-2.350174	7.4354095	1.5330353
895584470991809	-2.3489838	7.455765	1.8658295
895584476057727	-2.3681335	7.4665375	2.160324
895584481154163	-2.3130646	7.527588	2.3327026
895584486220080	-2.2675781	7.678421	2.2321472
895584491285998	-2.3154602	7.8663635	1.969986
895584496351916	-2.271164	8.13092	1.6766968
895584501417834	-2.3166656	8.463715	1.3055878
895584506483752	-2.3884888	8.808487	0.9129486
895584511549670	-2.540512	9.123322	0.5418396
895584516646106	-2.7045135	9.404648	0.33114624
895584521712024	-2.8900757	9.7099	0.3239746
895584526777942	-3.1558228	10.015167	0.5442352
895584531843860	-3.488617	10.268951	0.80400085
895584536909778	-3.9183807	10.602936	1.1607513
895584541975696	-4.2547607	10.820816	1.4863586
895584547041614	-4.4463043	10.966858	1.7066193
895584552107532	-4.682129	11.108124	1.8215485
895584557173450	-4.832962	11.236206	1.8885803
895584562269885	-4.9454956	11.304443	1.7904205
895584567335803	-4.928726	11.430145	1.6790924
895584572401721	-4.6282654	11.589355	1.4672089
895584577467639	-4.520523	11.574982	1.1966553
895584582533557	-4.532486	11.4157715	0.9919586
895584587599475	-4.6330566	11.261353	0.7501373
895584592665393	-4.697693	11.25296	0.7573242
895584597761829	-4.7910614	11.335571	0.8542938
895584602827747	-4.6725464	11.624069	1.0063171
895584607893664	-4.440323	11.912567	1.1535645
895584612959582	-4.2703247	12.06221	1.1990509
895584618025500	-4.117096	12.248947	1.3367157
895584623091418	-4.1422424	12.377045	1.5306549
895584628157336	-4.2224426	12.422531	1.6084595
895584633223254	-4.2655334	12.465637	1.641983
895584638319690	-4.266739	12.482391	1.5952911
895584643385608	-4.1661835	12.385422	1.4516449
895584648451526	-3.8381805	12.223816	1.207428
895584653517444	-3.677765	11.94249	1.0721588
895584658583362	-3.7005005	11.663574	0.92970276
895584663649280	-3.7759247	11.443298	0.73098755
895584668715198	-3.757965	11.215851	0.5490265
895584673811633	-3.5424957	10.868698	0.37904358
895584678877551	-3.1007538	10.465271	0.19708252
895584683943469	-2.5512848	10.023544	-0.062698364
895584689009387	-1.8833008	9.5542755	-0.32725525
895584694075305	-1.1195526	9.280151	-0.7665863
895584699141223	-0.37495422	9.325638	-1.3723145
895584704207141	0.044021606	9.410629	-2.243805
895584709273059	0.41033936	9.683563	-3.3523254
895584714369495	0.47857666	10.405426	-4.1747284
895584719435413	0.6880646	11.600128	-4.2896576
895584724501330	1.3488617	12.776871	-3.4684448
895584729567248	2.1150055	13.86026	-1.792511
895584734633166	3.0212097	14.71019	0.29763794
895584739699084	4.0315704	15.490707	2.1794739
895584744765002	4.8827057	16.11319	3.5489655
895584749861438	5.2418365	16.516617	4.579666
895584754927356	5.0359344	16.621964	5.0716705
895584759993274	4.511612	16.31192	4.8968964
895584765059192	4.315277	15.822296	4.224121
895584770125110	3.8939056	15.102844	3.0868835
895584775191028	2.8500214	14.216995	1.8670349
895584780256946	1.2411194	13.309586	1.2804565
895584785322864	-0.18821716	12.994751	1.033844
895584790419299	-1.8126831	12.767303	0.7680969
895584795485217	-3.0839996	12.700256	0.15397644
895584800551135	-3.8178253	12.676315	-1.0874176
895584805617053	-4.3170166	12.938492	-1.6177216
895584810682971	-4.405594	13.286835	-2.3551483
895584815748889	-5.0915375	12.8918	-2.4952087
895584820845325	-5.757126	12.204666	-1.1352997
895584825911243	-5.1142883	11.846725	-0.3907013
895584830977161	-4.0991364	11.577377	-0.654068
895584836043079	-3.702896	11.160797	-1.2178955
895584841108997	-3.6358643	10.604141	-1.5542755
895584846174914	-3.4658813	9.954117	-1.4261932
895584851240832	-2.982254	9.258591	-0.9138336
895584856306750	-2.5153809	8.606171	-0.25543213
895584861372668	-2.0257568	7.7753906	0.23658752
895584866438586	-2.4196167	6.653702	0.4736023
895584871535022	-2.9738617	5.516464	0.36108398
895584876600940	-2.6207275	4.716797	0.21862793
895584881666858	-2.0425262	4.246338	0.2952423
895584886732776	-1.8078918	3.634613	0.06539917
895584891798694	-1.6367035	3.0552216	-0.2853546
895584896864612	-1.567276	2.6242676	-0.42422485
895584901930530	-1.3051147	2.4099884	-0.42422485
895584907026965	-1.1650543	2.33815	-0.4481659
895584912092883	-0.83943176	2.1933136	-0.31767273
895584917158801	-0.76641846	2.0795898	-0.35359192
895584922224719	-0.60479736	2.0508575	-0.401474
895584927290637	-0.2851715	2.0077515	-0.44696045
895584932356555	-0.058929443	1.9251556	-0.4589386
895584937422473	0.18647766	1.9395294	-0.63131714
895584942518909	0.491745	2.0233154	-0.7474365
895584947584827	0.65693665	2.0688019	-0.7462311
895584952650745	0.8173523	2.1502075	-0.60617065
895584957716663	1.061554	2.2878723	-0.2470398
895584962782580	1.3153381	2.3752594	0.18510437
895584967848498	1.6708832	2.4626617	0.5490265
895584972914416	1.9929047	2.5703888	0.82914734
895584977980334	2.34964	2.7511597	0.9237213
895584983076770	2.5890656	2.9151611	1.1092682
895584988142688	2.7638397	3.0348663	1.2205963
895584993208606	2.8105316	3.0276794	1.2601013
895584998274524	2.7470703	3.06839	1.1691284
895585003340442	2.5974426	3.04924	0.9536438
895585008406360	2.3915405	2.9989624	0.57655334
895585013472278	2.1712646	3.0516357	0.07736206
895585018538196	1.9079132	3.06958	-0.42422485
895585023634631	1.6002502	3.0815582	-0.9473572
895585028700549	1.1286011	3.1390228	-1.4980164
895585033766467	0.63539124	3.1426086	-2.1097412
895585038832385	0.036834717	3.1461945	-2.820816
895585043898303	-0.58325195	3.188095	-3.5941467
895585048964221	-1.3027191	3.361679	-4.41774
895585054030139	-2.2939148	3.8860016	-5.283249
895585059126575	-3.4658813	4.773056	-6.164322
895585064192493	-4.6258698	6.1389465	-6.9747467
895585069258411	-5.8744354	7.83165	-7.877365
895585074324329	-6.623825	9.811661	-8.812302
895585079390247	-7.549179	12.098114	-9.559296
895585084456164	-8.9857025	14.805969	-10.080032
895585089522082	-10.680801	17.693375	-10.730057
895585094588000	-13.079788	20.237213	-10.932373
895585099684436	-17.426468	22.207642	-10.086014
895585104750354	-20.977066	23.657333	-8.242477
895585109816272	-21.637863	24.17926	-6.268463
895585114882190	-19.96193	23.264679	-5.343109
895585119948108	-16.99791	21.060822	-5.315567
895585125014026	-13.483215	18.25241	-5.38501
895585130079944	-10.459335	15.386551	-5.7513123
895585135176379	-7.935852	12.848709	-6.310364
895585140242297	-5.603897	10.792084	-6.4959106
895585145308215	-3.8848572	8.968903	-6.0685425
895585150374133	-2.5441132	7.5850525	-5.351486
895585155440051	-1.4583435	6.0515594	-4.3171844
895585160505969	-0.4767151	4.682083	-3.5270996
895585165571887	-0.121170044	3.9853668	-3.4038086
895585170668323	0.04762268	3.9446716	-3.2469788
895585175734241	0.32055664	4.4151306	-2.8256073
895585180800159	0.5420227	5.4183044	-2.041504
895585185866077	1.164505	6.4717407	-0.86953735
895585190931995	2.298172	7.413864	0.74534607
895585195997913	3.448578	8.231491	2.919281
895585201063830	4.38591	9.283737	5.5265656
895585206129748	4.4900513	10.604141	7.2851105
895585211226184	3.9609375	12.731384	7.275528
895585216292102	2.8619995	15.439224	6.3561554
895585221358020	1.8049622	17.702942	5.2668
895585226423938	1.8013611	18.556473	4.116379
895585231489856	2.1928253	17.586823	3.183838
895585236555774	1.7606659	14.527039	2.1699066
895585241621692	0.40315247	11.000381	-0.21832275
895585246687610	-0.16427612	8.381119	-2.851944
895585251784045	0.33132935	6.5447693	-3.888626
895585256849963	0.8963623	5.800171	-3.2397919
895585261915881	0.5647583	6.045578	-1.5423126
895585266981799	-0.61917114	6.7075806	0.3359375
895585272047717	-1.6582489	6.8787537	1.7066193
895585277113635	-2.123932	6.9637604	2.591278
895585282210071	-2.3465881	7.2378845	2.950409
895585287275989	-2.4878387	7.3157043	3.084488
895585292341907	-2.4555206	7.0511475	3.2389069
895585297407825	-2.3633423	6.737503	3.3753815
895585302473743	-2.101181	6.615402	3.8350677
895585307539661	-1.6786041	6.662079	4.564102
895585312605579	-1.1734314	6.8967133	5.100403
895585317671497	-0.8310547	7.23909	5.481079
895585322737414	-0.73768616	7.701172	5.658249
895585327803332	-0.7580261	8.3069	5.6917725
895585332899768	-0.92562866	9.123322	5.7983093
895585337965686	-1.1243439	10.00679	5.6773987
895585343031604	-1.393692	10.561035	5.0477295
895585348097522	-1.5397339	10.940521	3.930832
895585353163440	-1.5002289	11.173965	2.7732391
895585358229358	-1.2847595	11.145233	1.8191528
895585363295276	-0.820282	10.901016	1.0362396
895585368391711	-0.528183	10.489212	0.57177734
895585373457629	-0.4001007	10.084595	0.31918335
895585378523547	-0.88253784	9.6297	0.07019043
895585383589465	-1.3805237	8.72229	-0.16564941
895585388655383	-1.8078918	7.9681244	-0.067474365
895585393721301	-2.2687683	7.4114685	0.13482666
895585398787219	-2.108368	6.9529877	0.16355896
895585403853137	-1.8294373	6.738693	0.018707275
895585408919055	-1.7516327	6.7590485	0.13961792
895585414015491	-1.6630402	7.0080414	0.35987854
895585419081409	-1.4942474	7.373169	0.44488525
895585424147327	-1.3901062	7.835251	0.39698792
895585429213245	-1.4822845	8.124939	0.23179626
895585434279163	-1.4858704	8.178818	0.2677002
895585439345080	-1.4020691	8.190781	0.49754333
895585444410998	-1.3458099	8.010025	0.80281067
895585449476916	-1.0980072	7.939392	1.1260223
895585454573352	-1.3098907	7.8460236	1.6443787
895585459639270	-1.551712	7.6987762	2.1351776
895585464705188	-1.5050201	7.6341248	2.4045258
895585469771106	-1.4236145	7.6101837	2.464386
895585474837024	-1.5600891	7.532379	2.361435
895585479902942	-1.7037506	7.5072327	2.0849
895585484999377	-1.809082	7.5455475	1.7880249
895585490065295	-1.8869019	7.685608	1.4672089
895585495131213	-1.9563293	7.9286194	1.222992
895585500197131	-2.0030212	8.13092	0.95843506
895585505263049	-2.0054169	8.194382	0.8423157
895585510328967	-2.0389252	8.261414	0.8854065
895585515394885	-2.0125885	8.20874	1.0015259
895585520460803	-2.0413208	8.012421	1.3211517
895585525557239	-2.0030212	7.9178467	1.638382
895585530623157	-2.0628662	7.840027	1.9113312
895585535689075	-2.1586456	7.808914	2.128006
895585540754993	-2.1382904	7.749054	2.2177887
895585545820911	-2.2939148	7.804123	2.120819
895585550886829	-2.477066	7.97171	1.859848
895585555952747	-2.626709	8.250641	1.6012726
895585561018664	-2.7679596	8.694763	1.3091888
895585566115100	-2.7835236	9.202332	1.0769501
895585571181018	-2.659027	9.723068	0.84710693
895585576246936	-2.5297394	10.126495	0.59690857
895585581312854	-2.4004517	10.48204	0.3527069
895585586378772	-2.3848877	10.810043	0.25334167
895585591444690	-2.4986115	11.147629	0.26651
895585596510608	-2.674591	11.466049	0.47720337
895585601576526	-2.9319763	11.704269	0.7860565
895585606672961	-3.2839203	11.797653	1.1212463
895585611738879	-3.6645966	11.813217	1.4624176
895585616804797	-4.1745605	11.784485	1.6922607
895585621870715	-4.880844	11.76413	1.7341614
895585626936633	-5.5608063	11.841934	1.6635284
895585632002551	-6.106674	11.868271	1.4241028
895585637098987	-6.4993286	11.750961	1.0386353
895585642164905	-6.8895874	11.547455	0.6795044
895585647230823	-7.2259674	11.329575	0.41973877
895585652296741	-7.366028	11.184738	0.2677002
895585657362659	-7.339691	11.208679	0.21981812
895585662428577	-7.0595703	11.42894	0.24736023
895585667494495	-6.698044	11.784485	0.28086853
895585672560413	-6.219208	12.186707	0.2952423
895585677656848	-5.75354	12.569778	0.35031128
895585682722766	-5.2423706	12.915741	0.54304504
895585687783827	-4.6522064	13.076157	0.6004944
895585692849745	-4.0680237	13.034256	0.6064911
895585697915663	-3.6454468	12.701462	0.48916626
895585702981581	-3.449112	12.130447	0.24256897
895585708047499	-3.2994843	11.359512	0.10369873
895585713113417	-2.994217	10.60054	0.119262695
895585718209852	-2.5907898	10.0594635	0.38381958
895585723275770	-2.1466675	9.667999	0.5119171
895585728341688	-1.7145233	9.172409	0.32637024
895585733407606	-1.1470947	8.667236	-0.124938965
895585738473524	-0.5772705	8.399078	-0.9437561
895585743569960	-0.22532654	8.421829	-1.900238
895585748635878	0.016494751	8.680405	-2.7286377
895585753701796	0.2104187	9.345978	-3.3894348
895585758767714	0.85206604	10.454498	-3.658783
895585763833632	1.693634	12.165161	-2.990799
895585768899550	2.7602386	14.19664	-1.5351257
895585773965468	3.9800873	16.027008	0.440094
895585779031386	5.311264	17.385712	2.4224854
895585784097304	6.2893066	18.089615	4.0361786
895585789193739	6.3359833	18.185379	5.0166016
895585794259657	5.7625732	17.876526	5.234482
895585799325575	5.2143097	17.28157	4.7700043
895585804391493	5.010788	16.475922	3.8769684
895585809457411	4.3200684	15.445221	2.6762695
895585814523329	3.310913	14.488724	1.2170105
895585819589247	2.0348053	13.70343	-0.21232605
895585824655165	0.8652344	13.284454	-1.2286682
895585829721083	-0.15350342	13.035446	-1.9912262
895585834817518	-1.5529022	12.8905945	-2.0331268
895585839883436	-3.049286	12.915741	-1.6644135
895585844949354	-3.6993103	13.043823	-1.4884338
895585850015272	-3.584381	13.143188	-1.5255432
895585855081190	-3.389267	13.03186	-1.7841187
895585860147108	-4.279907	12.344727	-1.5937805
895585865243544	-4.9885864	11.704269	-1.029953
895585870309462	-4.694107	11.298462	-0.7761688
895585875375380	-4.0632324	11.138046	-0.50801086
895585880441298	-3.6215057	10.893829	-0.57385254
895585885507216	-3.1989288	10.436539	-0.62054443
895585890573134	-2.8816833	9.791306	-0.54751587
895585895639052	-2.8960571	9.181976	-0.18359375
895585900704970	-3.2432098	8.634903	0.39100647
895585905770888	-3.2037048	7.859192	0.78245544
895585910867323	-2.923584	7.137329	1.108078
895585915933241	-2.461502	6.4118958	1.1775055
895585920999159	-1.4918518	5.729538	1.2804565
895585926065077	-2.1155396	5.0280457	1.2062378
895585931130995	-2.7476196	4.3684387	0.7333832
895585936196913	-2.1777954	3.6992645	0.4508667
895585941262831	-1.9323883	3.0983124	0.34910583
895585946359266	-1.6941681	2.716446	0.4149475
895585951425184	-1.2320862	2.3716736	0.41615295
895585956491102	-0.92323303	2.104721	0.28805542
895585961557020	-0.4862976	1.9490967	0.2162323
895585966622938	0.04283142	1.8449554	0.03187561
895585971688856	0.60905457	1.7384033	-0.23149109
895585976754774	0.8317108	1.6665802	-0.31767273
895585981820692	1.1896515	1.6127167	-0.44337463
895585986917128	1.4003448	1.5085602	-0.5870209
895585991983046	1.5188599	1.4151917	-0.6325073
895585997048964	1.59906	1.2954865	-0.6791992
895586002114882	1.6996155	1.1530304	-0.579834
895586007180800	1.9593811	1.0464783	-0.3942871
895586012246718	2.3556213	1.052475	-0.15487671
895586017312636	2.7123566	1.1326752	0.092926025
895586022378554	3.1708527	1.2607727	0.20425415
895586027444472	3.5419464	1.4415283	0.22341919
895586032540907	3.788559	1.5001831	0.20904541
895586037606825	3.7430725	1.5887756	0.13243103
895586042672743	3.551529	1.7192535	0.02947998
895586047738661	3.2953491	1.8054504	-0.15367126
895586052804579	2.935028	1.9898071	-0.4230194
895586057870497	2.6177979	2.293869	-0.8455963
895586062936415	2.124588	2.6589813	-1.3148651
895586068032850	1.2650604	3.0037384	-1.8619385
895586073098768	0.38041687	3.2910461	-2.4521027
895586078164686	-0.6036072	3.540039	-3.0769958
895586083230604	-1.7659912	3.8129883	-3.7713165
895586088296522	-3.1270905	4.2798615	-4.6104736
895586093362440	-4.6402283	5.1417694	-5.584915
895586098428358	-5.9726105	6.4262543	-6.565338
895586103524794	-6.887192	8.0794525	-7.529007
895586108590712	-7.694031	10.022354	-8.472321
895586113656630	-8.687622	12.166351	-9.183411
895586118722548	-9.854797	14.527039	-9.577255
895586123788466	-11.667221	16.959549	-9.524582
895586128854384	-14.879028	19.07483	-9.274384
895586133920302	-19.012619	20.546066	-8.6483
895586138986220	-20.313873	21.554016	-7.448807
895586144082655	-18.83545	22.049622	-6.4049377
895586149148573	-16.544205	21.473816	-5.9368744
895586154214491	-14.439697	19.848145	-5.872223
895586159280409	-12.167603	17.651474	-5.8351135
895586164346327	-9.700378	15.60083	-5.6411896
895586169412245	-7.405533	13.715408	-5.5178833
895586174478163	-5.3201904	12.08017	-5.631607
895586179574598	-3.4311523	10.720261	-5.7118073
895586184640516	-1.6283264	9.6297	-5.38501
895586189706434	0.07156372	8.691177	-4.7134247
895586194772352	1.2542877	7.9334106	-4.33873
895586199838270	1.6840515	8.755814	-3.8694763
895586204904188	1.5930786	10.20311	-3.2852936
895586210000624	1.4254761	12.203461	-2.9129944
895586215066542	1.338089	13.836304	-2.0331268
895586220132460	1.4577942	14.925674	-0.7845459
895586225198378	2.2850037	15.868988	1.033844
895586230264296	3.1696472	16.404099	3.6136017
895586235330214	3.4916687	16.36818	5.560089
895586240396132	2.871582	15.950394	5.3206635
895586245462050	2.037201	14.914902	2.958786
895586250527968	1.8624268	12.688293	0.8662567
895586255593886	2.4980774	9.389084	0.7513428
895586260690321	3.0451508	5.8265076	1.6036682
895586265756239	3.5826569	3.04924	1.7688751
895586270822157	4.4313965	1.2966766	0.43888855
895586275888075	5.2777557	0.4096222	-2.2114868
895586280953993	5.778137	0.5652466	-3.4133759
895586286019911	5.2777557	1.749176	-1.9732666
895586291085829	3.6496887	2.7822876	0.5993042
895586296151747	2.0599365	3.535263	2.8809814
895586301248182	0.57792664	4.419922	4.6574707
895586306314100	-0.43840027	5.662506	5.7875366
895586311380018	-1.0800476	7.151703	6.0640717
895586316445936	-1.2081451	8.554703	5.3565826
895586321511854	-1.1782227	9.61055	4.4587555
895586326577772	-1.3805237	10.307251	4.155884
895586331643690	-2.0161896	10.796875	4.4791107
895586336740126	-3.033722	11.148819	4.9723206
895586341806044	-4.239197	11.578583	5.6809998
895586346871962	-5.468628	11.986786	6.7236786
895586351937880	-6.58432	12.384232	7.432358
895586357003798	-7.477356	12.687088	7.2503967
895586362069716	-8.025635	12.684692	6.310669
895586367166151	-8.123795	12.225006	4.6514893
895586372232069	-7.659317	11.546249	2.629593
895586377297987	-6.5460205	10.654419	0.5119171
895586382363905	-4.3720856	9.814056	-0.5930023
895586387429823	-2.4974213	9.251419	-0.9712982
895586392495741	-1.354187	8.682785	-0.9186249
895586397561659	-0.6060028	7.9968567	-0.7582092
895586402627577	-0.39411926	7.5371704	-0.654068
895586407724013	-0.6095886	7.101425	-0.5702667
895586412789931	-0.47073364	6.7351074	-0.35838318
895586417855848	-0.061325073	6.5567474	-4.4250488E-4
895586422921766	-0.1151886	6.563919	0.55740356
895586427987684	-0.44200134	6.713562	1.0973053
895586433053602	-0.2301178	6.768631	1.2277832
895586438119520	-0.24328613	6.8847504	1.3774261
895586443185438	-0.2803955	7.1469116	1.4420624
895586448251356	-0.21095276	7.488083	1.5258636
895586453347792	-0.27200317	7.741867	1.5976868
895586458413710	-0.22891235	7.9369965	1.515091
895586463479628	-0.25405884	8.016006	1.3379211
895586468545546	-0.35820007	8.114166	0.95843506
895586473611464	-0.44918823	8.162048	0.61605835
895586478677382	-0.5162201	8.190781	0.43649292
895586483743300	-0.7723999	8.261414	0.3527069
895586488809218	-1.0668793	8.219513	0.578949
895586493875136	-1.1614532	8.221909	0.9021759
895586498971571	-1.5313568	8.151276	1.3379211
895586504037489	-1.7995148	7.9369965	1.7197876
895586509103407	-1.8605652	7.781372	1.9280853
895586514169325	-1.9503479	7.5551147	1.9627991
895586519235243	-2.0018158	7.3516083	1.8933716
895586524331679	-1.9683075	7.2570496	1.7712708
895586529397597	-1.8964691	7.1792297	1.6527557
895586534463515	-1.7959137	7.1744385	1.4923401
895586539529432	-1.6546631	7.2809906	1.3223572
895586544595350	-1.701355	7.422241	1.270874
895586549661268	-1.8737335	7.5216064	1.2457428
895586554727186	-1.9778748	7.7753906	1.3462982
895586559823622	-1.9072571	8.037552	1.4707947
895586564889540	-1.8869019	8.172821	1.5270538
895586569955458	-1.9694977	8.220703	1.4815674
895586575021376	-2.1059723	8.231491	1.404953
895586580087294	-2.3717194	8.308105	1.341507
895586585153212	-2.7667694	8.432602	1.1810913
895586590219130	-3.3593292	8.596603	0.9356842
895586595285048	-3.7986755	8.685181	0.6878967
895586600381483	-4.204483	8.78334	0.5454407
895586605447401	-4.5588226	8.985657	0.52867126
895586610513319	-4.800644	9.319656	0.6208496
895586615579237	-4.94429	9.785324	0.7752838
895586620645155	-5.006546	10.284515	1.0075226
895586625711073	-5.0711823	10.663986	1.2672882
895586630776991	-5.0687866	10.881866	1.618042
895586635842909	-5.1118927	11.008759	1.9400635
895586640939345	-5.1585693	11.078186	2.2369385
895586646005263	-4.9167633	11.085373	2.286026
895586651071181	-4.539673	11.120087	2.1028595
895586656137098	-4.299057	11.151215	1.8071747
895586661203016	-4.345749	11.292465	1.4911499
895586666268934	-4.4283447	11.625259	1.2948151
895586671334852	-4.5492554	12.204666	1.2170105
895586676400770	-4.4834137	12.853485	1.2660828
895586681497206	-4.3984222	13.339508	1.2445374
895586686563124	-4.3529205	13.612457	1.310379
895586691629042	-4.240402	13.6375885	1.3642578
895586696694960	-4.1865234	13.516678	1.4408722
895586701760878	-4.2858887	13.455627	1.4863586
895586706826796	-4.3732758	13.531052	1.3798065
895586711892714	-4.393631	13.70224	1.2756653
895586716958632	-4.232025	13.837509	1.3391113
895586722055067	-3.9279633	13.634003	1.4887543
895586727120985	-3.6849518	13.096497	1.5797272
895586732186903	-3.6514282	12.442886	1.6886597
895586737252821	-3.8501434	11.809616	1.5749359
895586742318739	-3.9662628	11.218246	1.2205963
895586747384657	-3.678955	10.690323	0.83992004
895586752450575	-3.0756226	10.274933	0.36946106
895586757547011	-2.5991821	9.912216	-0.14170837
895586762612929	-2.0496979	9.755386	-0.4816742
895586767678847	-1.4008789	9.744614	-0.85157776
895586772744765	-0.80592346	9.805679	-1.4800568
895586777810682	-0.31150818	9.895462	-2.3886566
895586782876600	0.13500977	10.1241	-3.378662
895586787942518	0.536026	10.557449	-4.1747284
895586793008436	1.0902863	11.094955	-4.383026
895586798104872	1.8743896	12.1627655	-3.6791382
895586803170790	2.7027893	13.426895	-2.161209
895586808236708	3.6137848	14.613235	-0.37034607
895586813302626	4.54393	15.637955	1.420517
895586818368544	5.1388855	16.187424	3.1000519
895586823434462	5.306473	16.107208	4.2851715
895586828500380	5.263382	15.631958	4.7113495
895586833566298	4.7426453	14.823914	4.3797455
895586838662733	4.235077	13.78363	3.587265
895586843728651	3.91185	12.742157	2.385376
895586848794569	3.2797852	11.940109	1.0410309
895586853860487	2.413086	11.446899	-0.2243042
895586858926405	1.5439911	11.276901	-1.1281128
895586863992323	0.86283875	11.450485	-1.7793427
895586869058241	0.3038025	12.04306	-2.2605743
895586874124159	-0.59762573	12.5937195	-2.5239258
895586879220595	-1.8054962	12.725403	-2.331192
895586884286513	-2.7200775	12.73497	-1.9134064
895586889352431	-3.1905365	12.531464	-1.7266693
895586894418348	-3.366516	12.071777	-1.7314453
895586899484266	-3.2216644	11.42894	-1.836792
895586904550184	-3.1306915	10.770538	-1.8116608
895586909616102	-3.06604	10.550262	-1.1005859
895586914712538	-2.8062744	10.4904175	-0.48646545
895586919778456	-2.6278992	9.970871	-0.14529419
895586924844374	-3.9925995	9.228668	0.37425232
895586929910292	-4.8772583	8.571457	0.92012024
895586934976210	-4.5803833	7.8172913	1.2002411
895586940042128	-4.2296295	6.9050903	1.215805
895586945108046	-4.678543	6.053955	1.246933
895586950173964	-4.240402	5.4434357	1.0805359
895586955270399	-3.4778442	4.8293304	0.5226898
895586960336317	-3.2982788	4.409134	-0.01121521
895586965402235	-3.2420197	4.1134644	-0.39309692
895586970468153	-3.033722	3.7950287	-0.7127228
895586975534071	-2.477066	3.3796387	-1.0287476
895586980599989	-1.8521881	3.1198578	-1.2095184
895586985665907	-1.3901062	3.0396576	-1.0275574
895586990762343	-0.85380554	2.9378967	-0.85157776
895586995828261	-0.30552673	3.006134	-0.64208984
895587000894179	0.19485474	3.0707855	-0.4984436
895587005960097	0.53125	3.0564117	-0.4230194
895587011026015	0.88438416	2.9786072	-0.32844543
895587016091932	1.2016144	2.9474792	-0.3152771
895587021157850	1.4996948	2.8756561	-0.3763275
895587026254286	1.8013611	2.8816376	-0.42900085
895587031320204	1.9498138	2.882843	-0.55111694
895587036386122	2.0647278	2.9043884	-0.6085663
895587041452040	2.2682343	2.9151611	-0.5870209
895587046517958	2.4980774	2.9235382	-0.4876709
895587051583876	2.7231293	2.934311	-0.35238647
895587056649794	2.7578583	2.9378967	-0.2350769
895587061715712	2.7327118	2.8600922	-0.1560669
895587066812147	2.610611	2.796646	-0.096206665
895587071878065	2.4585724	2.6912994	-0.13212585
895587076943983	2.3149261	2.6350403	-0.2135315
895587082009901	2.1916199	2.7272186	-0.40386963
895587087075819	2.2383118	2.9391022	-0.8791199
895587092141737	2.234726	3.0600128	-1.7709503
895587097207655	1.4003448	3.0396576	-1.3244324
895587102304091	1.0507813	3.0109253	-1.4465485
895587107370009	0.7814331	3.1940765	-2.0702362
895587112435927	0.4737854	3.5412445	-2.7166595
895587117501845	0.041625977	3.8405151	-3.4636536
895587122567763	-0.6754303	4.192459	-4.134033
895587127633681	-1.6390991	4.8221436	-5.1180573
895587132699598	-2.8864746	5.9294586	-6.268463
895587137796034	-4.378067	7.5024567	-7.3925476
895587142861952	-5.9031677	9.345978	-8.516617
895587147927870	-7.252304	11.343948	-9.334244
895587152993788	-8.359619	13.732162	-9.769989
895587158059706	-9.755447	16.246078	-10.287125
895587163125624	-12.051483	18.515778	-10.532532
895587168191542	-14.916138	20.370087	-10.194962
895587173257460	-17.550964	21.811401	-8.631546
895587178353895	-20.12114	22.24115	-6.7796326
895587183419813	-20.592804	21.50734	-5.9620056
895587188485731	-17.626389	19.94632	-5.821945
895587193551649	-13.690308	17.887299	-5.9308777
895587198617567	-10.382721	15.695404	-6.3797913
895587203683485	-7.7000275	13.46521	-6.7808228
895587208749403	-5.3201904	11.25177	-6.8478546
895587213815321	-3.1905365	9.278946	-6.4803467
895587218881239	-1.5900116	7.4629517	-5.9775696
895587223977675	-0.7149353	5.729538	-5.3442993
895587229043593	0.011703491	4.301407	-4.509918
895587234109511	0.52285767	3.2922516	-3.5307007
895587239175429	0.7479248	2.9845886	-2.5802002
895587244241347	0.8879852	3.4777985	-1.8499603
895587249307265	1.3680115	4.69046	-0.94854736
895587254403700	2.3233032	6.317322	0.24615479
895587259469618	3.7478485	8.102203	1.5869141
895587264535536	5.113739	10.036713	3.4891052
895587269601454	6.114517	12.502747	6.0712585
895587274667372	5.900238	15.221359	7.7447968
895587279733290	4.6145477	17.827438	7.986618
895587284799208	3.7071533	20.71724	6.702118
895587289865126	3.7107391	21.975403	4.974701
895587294931044	4.266205	20.876465	3.8973236
895587300027479	4.0399475	17.145096	2.713379
895587305093397	1.6086273	12.00116	0.51789856
895587310159315	-0.77838135	7.958542	-2.3144379
895587315225233	-1.6570587	5.2363434	-3.7641296
895587320291151	-1.4212341	3.7986145	-3.3906403
895587325357069	-1.1303253	3.5268707	-1.8942566
895587330422987	-1.6175537	4.1182404	0.07019043
895587335519423	-2.1442719	5.3799896	1.7557068
895587340585341	-2.5117798	6.6046295	2.6810608
895587345651259	-2.5668488	7.349228	3.2305298
895587350717177	-2.6937408	7.5072327	3.6842346
895587355783095	-2.927185	7.2654266	3.9260406
895587360849013	-2.9211884	6.9170685	3.7488708
895587365945448	-2.8421936	6.6441345	3.6914215
895587371011366	-2.5740356	6.634552	3.997879
895587376077284	-2.0844269	6.9374237	4.662262
895587381143202	-1.464325	7.349228	5.1027985
895587386209120	-1.0644989	7.843628	5.283554
895587391275038	-0.7005768	8.560684	5.397278
895587396340956	-0.7939453	9.380707	5.4140472
895587401406874	-1.3996735	9.914612	5.428406
895587406472792	-2.029358	10.260574	5.172226
895587411569227	-2.4495392	10.473648	4.488678
895587416635145	-2.4279938	10.686737	3.3873444
895587421701063	-2.1430817	10.768143	2.0753326
895587426766981	-1.8749237	10.889053	1.0482178
895587431832899	-1.6510773	10.656815	0.27249146
895587436898817	-1.3410187	10.377884	-0.45533752
895587441964735	-1.0680847	9.9014435	-0.7582092
895587447030653	-1.2680054	9.2574005	-0.654068
895587452127089	-1.5648804	8.584625	-0.35359192
895587457193007	-1.4499512	7.79335	-0.09501648
895587462258925	-1.5229797	7.1864166	0.27130127
895587467355360	-1.8928833	6.7913666	0.62564087
895587472421278	-1.7384644	6.7638397	0.7285919
895587477487196	-1.2248993	7.006851	0.75971985
895587482553114	-0.78796387	7.2127533	0.618454
895587487619032	-0.6275482	7.5287933	0.44966125
895587492684950	-0.6490936	7.717926	0.27848816
895587497750868	-0.6347351	7.8891144	0.27009583
895587502816786	-0.4467926	8.036362	0.3574829
895587507882704	-0.32229614	8.041138	0.7285919
895587512948622	-0.14511108	8.124939	1.1691284
895587518014540	-0.16546631	8.184799	1.6060638
895587523080458	-0.34384155	8.036362	2.0274506
895587528176893	-0.5341797	7.966919	2.32193
895587533242811	-0.66944885	8.011215	2.4703674
895587538308729	-0.96154785	7.963333	2.4775543
895587543374647	-1.2680054	7.927414	2.3686218
895587548440565	-1.4355927	7.97171	2.1890564
895587553506483	-1.5684662	7.978897	1.9903412
895587558572401	-1.709732	7.9920654	1.8227386
895587563668837	-1.7229004	7.9753113	1.6563416
895587568734755	-1.745636	7.8867188	1.5222626
895587573800673	-1.7468414	7.7442627	1.5964813
895587578866591	-1.7743683	7.745468	1.8035889
895587583932509	-1.8306427	7.7586365	2.0142822
895587588998427	-1.8210602	7.7622223	2.330307
895587594064345	-1.7540283	7.824463	2.5613556
895587599130263	-1.7121277	7.9334106	2.6188202
895587604226698	-1.8509827	7.9609375	2.4787598
895587609292616	-2.061676	7.9992523	2.2453156
895587614358534	-2.3202515	8.072266	1.8383026
895587619424452	-2.602768	8.322464	1.3822021
895587624490370	-2.8948517	8.692368	1.0075226
895587629556288	-3.2025146	9.094589	0.697464
895587634622206	-3.4790497	9.597382	0.48078918
895587639688124	-3.6693878	10.088181	0.2952423
895587644784559	-3.8932343	10.5694275	0.16714478
895587649850477	-4.1578064	11.07579	0.107299805
895587654916395	-4.402008	11.60611	0.21502686
895587659982313	-4.6486053	12.070587	0.46522522
895587665048231	-5.0125275	12.311203	0.8482971
895587670114149	-5.244766	12.466827	1.2672882
895587675180067	-5.283081	12.501541	1.5294495
895587680276503	-5.2902527	12.49675	1.6886597
895587685342421	-5.156189	12.432114	1.5641632
895587690408339	-4.9383087	12.189102	1.2182007
895587695474257	-5.006546	11.918549	0.8147888
895587700540175	-5.2902527	11.6492	0.4628296
895587705606093	-5.5141144	11.541473	0.2677002
895587710672011	-5.5907288	11.6923065	0.27130127
895587715737929	-5.559601	11.995163	0.32637024
895587720803847	-5.4710236	12.2968445	0.3574829
895587725869765	-5.3955994	12.440491	0.44488525
895587730935682	-5.286667	12.719421	0.5490265
895587736001600	-5.27948	12.972	0.6819
895587741067518	-5.2651215	13.198257	0.90097046
895587746133436	-4.8772583	13.369446	1.2720795
895587751229872	-4.355316	13.286835	1.5797272
895587756295790	-3.8824615	12.881027	1.736557
895587761361708	-3.4443207	12.347122	1.7497253
895587766427626	-3.1594238	11.596542	1.4492493
895587771493544	-2.776352	10.781311	1.2277832
895587776559462	-2.1371002	10.125305	1.0601807
895587781655897	-1.5397339	9.488434	0.7956238
895587786721815	-1.0644989	9.017975	0.2952423
895587791787733	-0.6898041	8.74025	-0.56188965
895587796853651	-0.31629944	8.791733	-1.7098999
895587801919569	-0.13194275	9.29332	-2.753769
895587806985487	0.07873535	10.188751	-3.5079498
895587812051405	0.7024231	11.161987	-3.6815338
895587817117323	1.4027405	12.404572	-2.8938293
895587822213759	2.1676788	13.851868	-1.429779
895587827279677	3.0427551	15.08609	0.32157898
895587832345595	4.108185	16.036575	2.1148376
895587837411513	5.1628265	16.76323	3.673462
895587842477431	5.7111053	17.01941	4.945984
895587847543348	5.45253	16.668655	5.4355927
895587852609266	4.689972	15.8749695	4.859787
895587857675184	3.9286194	14.784409	3.8147125
895587862771620	3.4078827	13.726181	2.6319885
895587867837538	2.7015839	12.788849	1.3439026
895587872903456	1.9079132	12.333954	0.05102539
895587877969374	0.9945221	12.30043	-0.9545288
895587883035292	-0.12716675	12.41655	-1.4405518
895587888131727	-0.68859863	13.016296	-1.7158966
895587893197645	-1.3577881	13.4592285	-2.278534
895587898263563	-1.6762085	13.52507	-2.492813
895587903329481	-1.4451752	13.534637	-2.6891327
895587908395399	-1.4583435	13.490341	-2.4916077
895587913461317	-1.5900116	13.141998	-2.247406
895587918527235	-1.9120331	12.287262	-1.1125488
895587923593153	-2.9894257	11.574982	0.26651
895587928659071	-3.2264557	11.207474	0.48797607
895587933724989	-2.7081146	11.008759	0.484375
895587938790907	-2.1753998	10.464081	0.37304688
895587943887343	-2.4196167	9.565048	0.23538208
895587948953261	-2.1861725	8.608566	0.29763794
895587954019179	-2.3633423	7.954956	0.6076813
895587959085097	-2.9726715	7.3444366	0.736969
895587964151015	-2.6829681	6.572296	0.5813446
895587969216932	-2.8493652	5.7834167	0.53227234
895587974313368	-2.796692	5.081909	0.20904541
895587979379286	-2.8266296	4.400757	-0.15248108
895587984445204	-2.832611	3.7662964	-0.32844543
895587989511122	-2.7308502	3.2000732	-0.4122467
895587994607557	-2.2400513	2.678131	-0.48646545
895587999673475	-1.8701477	2.305832	-0.5128021
895588004739393	-1.7049408	2.0053558	-0.6265259
895588009805311	-1.2727814	1.759964	-0.70314026
895588014871229	-0.92204285	1.5911713	-0.6361084
895588019937147	-0.5581207	1.4511108	-0.3715515
895588025003065	-0.17144775	1.3062592	-0.18240356
895588030068983	0.17810059	1.1410522	-0.081848145
895588035134901	0.5647583	1.1614075	-0.07826233
895588040200819	0.8377075	1.2918854	-0.16923523
895588045266737	1.080719	1.4690552	-0.2243042
895588050332655	1.2135925	1.610321	-0.30091858
895588055429091	1.3716125	1.7132721	-0.2745819
895588060495009	1.5882874	1.8461456	-0.098602295
895588065560927	1.8839722	1.9993744	0.013916016
895588070626845	2.0623322	2.2567596	0.23059082
895588075692763	2.227539	2.5787811	0.46643066
895588080758681	2.4992828	2.8852386	0.6364136
895588085855116	2.6441345	3.1509857	0.7441559
895588090921034	2.6525116	3.3413239	0.8147888
895588095986952	2.5998383	3.4059753	0.7848511
895588101052870	2.3568268	3.3748474	0.55381775
895588106118788	2.116211	3.361679	0.12046814
895588111184706	1.9964905	3.5615997	-0.31169128
895588116250624	1.911499	3.8740387	-0.86834717
895588121316542	1.6636963	4.2487335	-1.5650482
895588126412977	1.4063263	4.534836	-2.2569733
895588131478895	0.8975525	4.8628387	-3.0135498
895588136544813	0.2283783	5.2997894	-3.892212
895588141610731	-0.90527344	5.729538	-4.8427124
895588146676649	-2.2771606	6.277817	-5.829132
895588151742567	-3.7950745	7.0511475	-6.828705
895588156808485	-4.694107	8.158463	-7.6930084
895588161874403	-5.3560944	9.381897	-8.526199
895588166970839	-6.397583	10.751389	-9.046936
895588172036757	-7.618622	12.532669	-9.283966
895588177102675	-9.384338	14.567734	-9.61676
895588182168593	-11.615738	16.584854	-10.0130005
895588187234511	-14.402588	18.72647	-10.102783
895588192300429	-17.594055	20.7771	-9.560486
895588197366347	-20.117554	21.939484	-8.580063
895588202462782	-20.14508	21.70366	-7.691818
895588207528700	-17.895737	19.96547	-7.3578186
895588212594618	-14.257736	17.4348	-7.354233
895588217691054	-10.574265	14.911301	-7.4045105
895588222756972	-8.281815	12.608078	-7.722946
895588227822890	-6.117447	10.741806	-7.75766
895588232888807	-4.208084	9.2957	-7.3697968
895588237954725	-3.1438599	8.662445	-6.4564056
895588243020643	-1.5995941	8.346405	-5.7991943
895588248086561	0.28823853	7.6161804	-5.2581177
895588253152479	0.9035492	7.23909	-4.381836
895588258248915	0.32414246	7.837631	-3.5103455
895588263314833	0.53125	8.370346	-2.7920837
895588268380751	0.6138458	8.636108	-1.8188324
895588273446669	0.83410645	8.863556	-0.09980774
895588278512587	1.7008057	9.190369	2.409317
895588283578505	2.8655853	9.677582	4.7676086
895588288644423	3.872345	10.478439	5.3039093
895588293740858	4.80011	11.596542	4.19899
895588298806776	5.222687	12.600906	2.6990204
895588303872694	5.29451	13.443665	2.1543427
895588308938612	5.5099792	13.778854	2.9695587
895588314004530	5.651245	13.168335	3.5740967
895588319070448	5.6165314	11.298462	2.5960693
895588324136366	4.9006653	8.522385	0.30361938
895588329202284	3.6377258	5.903122	-2.200714
895588334298720	2.900299	4.5683594	-3.3954163
895588339364638	2.3628082	4.5492096	-2.6723785
895588344430556	1.5978546	5.352463	-0.59181213
895588349496473	0.3073883	6.152115	1.3678436
895588354562391	-1.3027191	6.9877014	2.8271027
895588359628309	-2.1430817	8.157257	3.8937225
895588364694227	-2.7643738	9.23465	4.8418274
895588369790663	-3.425171	9.981644	5.534958
895588374856581	-4.1147003	10.34198	5.6762085
895588379922499	-4.907181	10.376694	5.223709
895588384988417	-5.378845	10.298874	4.7041626
895588390054335	-5.7236023	10.180359	4.7676086
895588395120253	-6.0324554	9.986435	5.598404
895588400186171	-6.185684	9.702728	6.2089233
895588405282606	-6.0049286	9.344788	6.2891235
895588410348524	-5.238785	9.129303	5.781555
895588415414442	-4.4151764	8.86235	4.61557
895588420480360	-3.607132	8.651672	3.3035583
895588425546278	-2.657837	8.590622	2.0513916
895588430612196	-1.6438904	8.70195	0.9787903
895588435678114	-0.8095093	8.807297	0.26890564
895588440744032	0.023666382	9.006012	-0.27697754
895588445840468	0.44863892	9.086212	-0.42900085
895588450906386	0.47018433	9.104172	-0.2973175
895588455972304	0.3696289	9.116135	0.042648315
895588461038222	0.09429932	9.026352	0.32276917
895588466104140	-0.092453	8.877914	0.40298462
895588471170057	-0.32348633	8.500839	0.49276733
895588476235975	-0.63113403	8.121353	0.48558044
895588481301893	-1.041748	7.7514496	0.67352295
895588486398329	-1.3206635	7.5287933	1.0637817
895588491464247	-1.5110168	7.2414856	1.349884
895588496530165	-1.2093353	7.00206	1.4324799
895588501596083	-0.99147034	6.915863	1.4779816
895588506662001	-1.0453339	6.906296	1.4073486
895588511727919	-0.9196472	7.101425	1.3965759
895588516793837	-0.88612366	7.2738037	1.1990509
895588521890272	-0.883728	7.365982	1.0015259
895588526956190	-0.84780884	7.666458	1.0326538
895588532022108	-0.9579468	7.9537506	1.0757446
895588537088026	-1.1494904	8.121353	1.2289734
895588542153944	-1.1710358	8.267395	1.4037628
895588547219862	-1.1470947	8.44577	1.6144409
895588552285780	-1.2584229	8.531952	1.8706207
895588557351698	-1.230896	8.569061	2.0166779
895588562417616	-1.3266602	8.587021	2.1172333
895588567514052	-1.3912964	8.514008	2.1842651
895588572579970	-1.3098907	8.321274	2.1734924
895588577645888	-1.175827	8.142899	2.0896912
895588582711806	-1.1423035	7.898697	1.914917
895588587777723	-1.1039886	7.6365204	1.804779
895588592843641	-0.98069763	7.400696	1.6850739
895588597940077	-0.9280243	7.121765	1.562973
895588603005995	-1.0070343	6.9481964	1.4755859
895588608071913	-1.0992126	6.906296	1.523468
895588613137831	-1.2296906	6.951782	1.6527557
895588618203749	-1.3841248	7.128952	1.7928162
895588623269667	-1.50383	7.361191	1.8347168
895588628335585	-1.6007996	7.6125793	1.859848
895588633401503	-1.7348633	7.8029175	1.7928162
895588638497938	-1.9898529	8.014816	1.6683197
895588643563856	-2.3441925	8.330841	1.5282593
895588648629774	-2.7344513	8.736664	1.389389
895588653695692	-3.049286	9.207123	1.2385559
895588658761610	-3.409607	9.6332855	1.084137
895588663827528	-3.6969147	10.005585	0.90097046
895588668893446	-3.859726	10.286911	0.7297821
895588673989882	-4.065628	10.547867	0.6316223
895588679055800	-4.2882843	10.896225	0.68310547
895588684121718	-4.472641	11.274521	0.8746338
895588689187636	-4.603119	11.618088	1.0829315
895588694253554	-4.721634	11.911377	1.3151703
895588699319472	-4.8533173	12.186707	1.5090942
895588704385390	-4.8856354	12.324371	1.5689545
895588709451307	-4.8030396	12.312408	1.4731903
895588714547743	-4.556427	12.124451	1.1966553
895588719613661	-4.503769	11.857498	0.8854065
895588724679579	-4.5456543	11.676743	0.57655334
895588729745497	-4.671356	11.669556	0.37425232
895588734811415	-4.6438293	11.730606	0.30480957
895588739877333	-4.54805	11.925735	0.34552002
895588744943251	-4.488205	12.118469	0.41255188
895588750009169	-4.4235535	12.266907	0.52627563
895588755105604	-4.402008	12.381836	0.73217773
895588760171522	-4.3529205	12.545837	0.9356842
895588765237440	-4.460663	12.5386505	1.0601807
895588770303358	-4.497772	12.652374	1.0781403
895588775369276	-4.6007233	12.836731	1.0973053
895588780435194	-4.575592	12.878632	1.1799011
895588785531630	-4.4474945	12.727798	1.2433472
895588790597548	-4.37088	12.374649	1.3091888
895588795663466	-4.4307404	11.958054	1.2026367
895588800729384	-4.5193176	11.469635	0.9967346
895588805795302	-4.3804626	11.001572	0.74295044
895588810861220	-3.9255676	10.492813	0.6507721
895588815927138	-3.2611694	10.069031	0.5226898
895588820993056	-2.5117798	9.662018	0.18151855
895588826089491	-1.7288818	9.356766	-0.440979
895588831155409	-0.96632385	9.334015	-1.3591461
895588836221327	-0.34024048	9.484848	-2.473648
895588841287245	0.14936829	9.882294	-3.416977
895588846353163	0.36006165	10.647232	-3.8155975
895588851419081	1.041214	11.803635	-3.64682
895588856484999	2.100647	13.107269	-2.5502625
895588861550917	3.1109924	14.361832	-0.8791199
895588866647352	4.1069794	15.34227	0.94047546
895588871713270	5.1664124	16.104813	2.697815
895588876748671	5.8391876	16.511826	4.0996246
895588881845106	5.8703156	16.47113	4.8885193
895588886911024	5.278946	15.908493	4.907669
895588891976942	4.528366	15.051361	4.2528534
895588897042860	3.9956512	14.200226	3.3274994
895588902108778	3.551529	13.343109	2.3051758
895588907174696	2.7303162	12.63681	1.2648926
895588912271132	1.7187653	12.333954	0.2677002
895588917337050	0.89875793	12.357895	-0.7342682
895588922402968	-0.56889343	12.178329	-1.1436768
895588927468886	-2.216095	12.41655	-1.243042
895588932534804	-2.884079	13.039047	-1.247818
895588937600722	-2.1610413	13.535843	-1.7326508
895588942697157	-1.3374329	13.672302	-2.2881012
895588947763075	-1.4918518	13.757309	-2.386261
895588952828993	-2.4818573	13.198257	-2.2976837
895588957894911	-3.6334686	12.290848	-1.1891632
895588962960829	-4.1266785	11.719833	0.068984985
895588968026747	-3.464676	11.530701	0.08454895
895588973092665	-2.9595032	11.2816925	-0.23626709
895588978189100	-2.9056396	10.993195	-0.3212738
895588983255018	-2.4758759	10.447311	-0.28295898
895588988320936	-2.3705292	9.395065	-0.4337921
895588993386854	-2.460312	8.542725	-0.14768982
895588998452772	-2.5213623	7.9645233	0.23898315
895589003518690	-2.6015625	7.180435	0.37065125
895589008584608	-2.8816833	6.361618	0.62324524
895589013650526	-2.9535217	5.5140686	0.5298767
895589018746962	-3.0049896	4.6796875	0.28207397
895589023812880	-2.9810486	3.856079	0.121658325
895589028878798	-2.4160156	3.092331	-0.2649994
895589033944716	-2.4243927	2.6027222	-0.3511963
895589039010634	-2.0568848	2.190918	-0.7055359
895589044076552	-1.527771	1.9191742	-0.8815155
895589049142470	-1.0621033	1.7264404	-0.9689026
895589054208388	-0.4180603	1.6234894	-0.9078522
895589059274306	-0.28279114	1.4403381	-0.77256775
895589064370741	-0.0038604736	1.2128754	-0.7258911
895589069436659	0.43069458	1.1290894	-0.56307983
895589074502577	0.6653137	1.1458435	-0.38591003
895589079568495	0.85206604	1.1829529	-0.24584961
895589084634413	1.0483856	1.175766	-0.21232605
895589089700331	1.1022644	1.1661987	-0.12374878
895589094796766	1.2734528	1.1985168	-0.03515625
895589099862684	1.401535	1.3026581	0.13841248
895589104928602	1.6421509	1.4367371	0.38742065
895589109994520	1.8253174	1.5348969	0.5119171
895589115060438	2.0707092	1.7180634	0.6567688
895589120126356	2.223938	1.8700867	0.66633606
895589125192274	2.3292847	2.0700073	0.6208496
895589130258192	2.3436584	2.223236	0.48558044
895589135354628	2.2969666	2.341751	0.32037354
895589140420546	2.0886688	2.4853973	0.13363647
895589145486464	1.8624268	2.7355957	-0.04953003
895589150552382	1.690033	3.025299	-0.27937317
895589155618300	1.4350586	3.3149872	-0.58343506
895589160684218	1.0950775	3.6717224	-0.9700928
895589165750136	0.71559143	4.014099	-1.4704895
895589170846571	0.199646	4.321747	-2.0175629
895589175912489	-0.43122864	4.627014	-2.6184998
895589180978407	-1.211731	5.020859	-3.3080292
895589186044325	-2.1131592	5.633774	-4.0646057
895589191110243	-3.1989288	6.50766	-4.8618774
895589196176161	-4.208084	7.606598	-5.6759033
895589201272597	-5.078369	8.972488	-6.430069
895589206338515	-5.943878	10.619705	-7.074112
895589211404432	-6.6920624	12.638016	-7.5589447
895589216470350	-8.055557	14.957993	-7.912079
895589221536268	-9.349625	17.382126	-8.377762
895589226602186	-11.417023	19.645844	-8.967926
895589231668104	-14.159576	21.581558	-9.31987
895589236734022	-16.590897	22.85167	-8.995453
895589241799940	-17.066132	22.960617	-8.182632
895589246896376	-15.938477	21.56839	-7.6092224
895589251962294	-13.835159	18.976654	-7.201004
895589257028212	-11.50441	16.183823	-6.936447
895589262094130	-9.663269	13.794418	-6.7724457
895589267160048	-7.623413	11.66597	-6.5701294
895589272225966	-5.794235	10.054672	-6.3438873
895589277291884	-4.3098297	8.89946	-6.102066
895589282388319	-2.635086	8.011215	-5.662735
895589287454237	-1.385315	7.077484	-5.1084747
895589292520155	-0.6502991	6.325699	-4.2369843
895589297586073	-0.46594238	6.2083893	-3.421753
895589302651991	0.06677246	6.4669647	-3.2421875
895589307717909	0.68447876	7.010437	-3.3271942
895589312783827	0.7371521	8.023193	-3.0841827
895589317880263	0.2642975	9.572235	-2.2976837
895589322946181	0.77545166	11.008759	-0.8348236
895589328012098	2.334076	12.078964	1.2205963
895589333078016	3.377945	13.216217	3.5800781
895589338143934	3.6616669	14.480347	5.2129364
895589343209852	3.4497833	15.640335	5.137512
895589348275770	3.1504974	16.463943	4.02182
895589353341688	3.00206	16.38733	2.8223267
895589358438124	3.065506	14.7760315	2.5422058
895589363504042	3.1780396	11.725815	2.3566437
895589368569960	2.6010284	8.05072	1.4695892
895589373635878	1.8013611	5.2147827	0.1300354
895589378701796	1.9055176	3.4347076	-1.0574799
895589383767714	2.361618	2.5249023	-1.7027283
895589388833632	2.595047	2.693695	-1.2705688
895589393930067	1.8983307	3.547226	-0.041137695
895589398995985	0.53842163	4.376816	1.2888336
895589404061903	-0.7915497	5.1657104	2.614029
895589409127821	-1.5349579	6.1293793	3.8183136
895589414193739	-1.879715	7.251053	4.8250732
895589419259657	-2.1035767	8.505615	5.386505
895589424325575	-2.353775	9.575821	5.3254547
895589429391493	-2.7859192	10.338379	4.9100647
895589434487929	-3.3365936	10.824402	4.627548
895589439553847	-3.7280426	11.184738	4.661072
895589444619765	-3.9914093	11.339157	5.0800476
895589449685682	-4.137451	11.457672	5.670227
895589454751600	-4.218857	11.296066	5.974289
895589459817518	-4.1937103	10.997986	5.871338
895589464883436	-3.840561	10.650818	5.3553925
895589469949354	-3.5939636	10.365921	4.2815857
895589475045790	-3.1725922	10.140854	2.8761902
895589480111708	-2.037735	9.963684	1.3223572
895589485177626	-0.9639282	9.654831	0.49276733
895589490243544	-0.28877258	9.462097	0.1587677
895589495309462	0.26309204	9.367538	0.06060791
895589500375380	0.60546875	9.146072	0.17553711
895589505441298	0.8269348	8.74025	0.13243103
895589510537733	0.4953308	8.221909	0.24975586
895589515603651	0.22598267	7.73468	0.46762085
895589520669569	0.07035828	7.354004	0.7297821
895589525735487	-0.29833984	7.120575	1.0721588
895589530801405	-0.4108734	7.089447	1.701828
895589535867323	-0.1906128	6.9805145	2.203415
895589540933241	-0.2301178	6.7626343	2.373413
895589545999159	-0.32588196	6.6800385	2.4141083
895589551065077	-0.28398132	6.951782	2.5158691
895589556130995	-0.27560425	7.4713287	2.448822
895589561196913	-0.39291382	7.8735504	2.1495514
895589566262831	-0.5664978	8.20874	1.8227386
895589571328749	-0.67303467	8.443375	1.4528351
895589576425184	-0.641922	8.519989	1.1487732
895589581491102	-0.7843628	8.512802	1.0158997
895589586557020	-0.8083191	8.651672	1.044632
895589591622938	-1.2703857	8.737854	1.3845978
895589596688856	-1.4667206	8.676804	1.6036682
895589601754774	-1.4739075	8.535553	1.6599426
895589606820692	-1.6558533	8.381119	1.6790924
895589611886610	-1.8833008	8.260208	1.6324005
895589616983046	-2.0604858	8.12854	1.3917847
895589622048964	-2.152649	8.086639	1.1631317
895589627114882	-2.0592804	8.100998	0.9309082
895589632180800	-2.1275177	8.108185	0.6711273
895589637246718	-2.0628662	8.072266	0.61128235
895589642312636	-2.0401306	7.9753113	0.57536316
895589647378554	-2.0389252	7.903473	0.6783142
895589652444472	-2.0006256	7.7430725	0.91174316
895589657540907	-2.0401306	7.702362	1.3175659
895589662606825	-2.013794	7.853195	1.765274
895589667672743	-2.0568848	8.078262	2.1591187
895589672738661	-2.0413208	8.317673	2.4500275
895589677804579	-2.1502686	8.594208	2.5014954
895589682901015	-2.3549652	8.942566	2.3829803
895589687966932	-2.6398773	9.3364105	2.1351776
895589693032850	-2.8553467	9.754196	1.8538666
895589698098768	-3.0612488	10.126495	1.4743805
895589703164686	-3.1534271	10.461685	1.1272278
895589708230604	-3.129486	10.610123	0.8243561
895589713296522	-3.1558228	10.644836	0.57536316
895589718362440	-3.310257	10.703491	0.41973877
895589723428358	-3.4874268	10.751389	0.34072876
895589728524794	-3.7388153	10.930954	0.42453003
895589733560194	-4.070404	11.0638275	0.5502167
895589738656630	-4.315811	11.258957	0.7393646
895589743722548	-4.5731964	11.501968	0.9249115
895589748788466	-4.788666	11.722229	1.0661774
895589753854384	-5.010132	11.883835	1.0781403
895589758920302	-5.2339935	11.92334	1.0398407
895589764016737	-5.326172	11.855103	0.9787903
895589769082655	-5.338135	11.66716	0.84950256
895589774148573	-5.3201904	11.511536	0.6855011
895589779214491	-5.223221	11.446899	0.4724121
895589784280409	-5.025696	11.492386	0.24615479
895589789346327	-4.745575	11.753357	0.030685425
895589794412245	-4.481018	12.076569	-0.112976074
895589799478163	-4.2451935	12.435699	-0.1560669
895589804574598	-4.05365	12.681107	-0.16804504
895589809640516	-3.8860626	12.772095	-0.120147705
895589814706434	-3.8190155	12.822372	0.016311646
895589819772352	-3.79747	12.776871	0.20066833
895589824838270	-3.6753693	12.658356	0.48078918
895589829904188	-3.5975494	12.460846	0.82077026
895589834970106	-3.5197449	12.235794	1.2014465
895589840066542	-3.3389893	11.899399	1.2804565
895589845132460	-3.1498413	11.17276	1.0554047
895589850198378	-2.8924713	10.094177	0.77049255
895589855264296	-2.499817	9.040726	0.5885315
895589860330214	-1.9898529	8.172821	0.519104
895589865396132	-1.5552979	7.440201	0.18630981
895589870462050	-1.0489349	6.9577637	-0.57385254
895589875527968	-0.46473694	6.8787537	-1.8332062
895589880624403	-0.039779663	7.1229706	-3.1955109
895589885690321	0.27386475	7.8699646	-4.08255
895589890756239	0.79460144	9.266983	-4.354294
895589895822157	1.7259521	11.068619	-3.7760925
895589900888075	2.5699005	12.926514	-2.2485962
895589905953993	3.41745	14.43367	-0.27218628
895589911019911	4.5259705	15.672668	1.6886597
895589916085829	5.852356	16.76442	3.5597382
895589921182265	6.496399	17.457535	4.981888
895589926248182	6.18515	17.525772	5.737259
895589931314100	5.326828	16.976303	5.6558533
895589936410536	4.634903	16.097641	5.021393
895589941476454	4.339218	14.957993	4.0110474
895589946542372	3.6197662	13.984756	2.8271027
895589951608290	2.2850037	13.4640045	1.5749359
895589956674208	0.3540802	13.021088	0.7250061
895589961740126	-0.9567566	12.9145355	0.1982727
895589966836561	-2.1837769	13.253326	-0.45654297
895589971902479	-2.8230286	13.4795685	-1.3483734
895589976968397	-3.088791	13.557388	-1.9624939
895589982034315	-3.4024353	13.559784	-2.2845154
895589987100233	-3.5257263	13.565765	-2.4844208
895589992166151	-3.6765594	13.055801	-2.2210693
895589997232069	-4.2296295	12.282471	-1.1376953
895590002297987	-4.429535	11.867081	-0.6325073
895590007394423	-3.7148743	11.740189	-0.8934784
895590012460341	-2.903244	11.570206	-1.1281128
895590017526259	-2.7643738	11.152405	-1.342392
895590022592177	-2.8182373	10.565826	-1.2143097
895590027658095	-2.2101135	9.931366	-0.7965088
895590032724013	-1.4918518	9.143677	-0.3715515
895590037820448	-2.2819366	8.194382	-0.120147705
895590042886366	-3.0361176	7.1660614	-0.03276062
895590047952284	-2.6961365	6.4274597	0.19468689
895590053018202	-1.7133179	5.748703	0.40538025
895590058084120	-2.0509033	4.9562225	0.11328125
895590063150038	-2.374115	4.3624573	0.071380615
895590068215956	-2.1933594	3.7794647	0.14320374
895590073281874	-1.8078918	3.1833038	-0.02319336
895590078378309	-1.3661652	2.7523499	-0.26141357
895590083444227	-1.2727814	2.4506836	-0.40266418
895590088510145	-1.0118256	2.127472	-0.598999
895590093576063	-0.4587555	1.8892365	-0.7641907
895590098641981	-0.13793945	1.6570129	-0.7582092
895590103707899	0.1481781	1.4846191	-0.77856445
895590108773817	0.37442017	1.4331512	-0.6720123
895590113839735	0.6294098	1.3302002	-0.6181488
895590118905653	0.98854065	1.2559814	-0.5499115
895590124002089	1.2028198	1.3146362	-0.4050598
895590129068007	1.3704071	1.309845	-0.3440094
895590134133925	1.3764038	1.3768921	-0.1273346
895590139199843	1.5368042	1.4056091	0.10848999
895590144265761	1.6792603	1.4774475	0.3634796
895590149331679	1.8432617	1.5827789	0.479599
895590154428114	2.1114197	1.7300262	0.5705719
895590159494032	2.219162	1.8700867	0.48078918
895590164559950	2.4190674	2.0616302	0.3922119
895590169625868	2.464569	2.223236	0.21742249
895590174691786	2.405899	2.4039917	0.0031433105
895590179757704	2.2814026	2.5632172	-0.29612732
895590184823622	2.2215576	2.8098145	-0.619339
895590189889540	1.9725494	3.1031036	-0.9329834
895590194985975	1.7786255	3.4454803	-1.2705688
895590200051893	1.4685669	3.7890472	-1.6416626
895590205117811	1.0124817	4.0871277	-2.0438995
895590210183729	0.4737854	4.326538	-2.4664764
895590215249647	-0.118774414	4.5420227	-2.9560852
895590220315565	-0.8813324	4.7754517	-3.473236
895590225381483	-1.8509827	5.0543823	-4.134033
895590230447401	-2.6889648	5.494919	-4.756531
895590235543837	-3.6334686	6.19162	-5.4448547
895590240609755	-4.5815735	7.2091675	-6.1750946
895590245675673	-4.963455	8.322464	-6.8394775
895590250741591	-5.6769257	9.486053	-7.406906
895590255807509	-6.555588	10.75856	-7.7049866
895590260873427	-7.7921906	12.238174	-7.964752
895590265939345	-8.978531	13.903351	-8.25087
895590271005263	-10.650879	15.511047	-8.515427
895590276101698	-12.762558	17.055313	-8.671051
895590281167616	-15.118454	18.396072	-8.581268
895590286233534	-16.04741	19.192139	-8.183823
895590291299452	-15.343506	19.228058	-7.5709076
895590296365370	-13.424561	18.688156	-7.023834
895590301431288	-11.2578125	17.50064	-6.667099
895590306527723	-9.374771	16.070099	-6.389374
895590311593641	-7.5755157	14.7760315	-6.045807
895590316659559	-5.636215	13.460419	-5.5657654
895590321725477	-4.346939	12.119675	-5.0162964
895590326791395	-3.528122	10.788498	-4.5182953
895590331857313	-3.0121765	9.530334	-4.2429657
895590336923231	-2.5752258	8.672012	-4.0251007
895590341989149	-1.9144287	7.97052	-3.7593384
895590347085585	-1.2416687	7.780182	-3.5318909
895590352151503	-0.7221222	8.401474	-3.141632
895590357217421	-0.39411926	9.822433	-2.417389
895590362283339	0.25471497	11.521118	-1.2813416
895590367349257	1.2339478	13.211426	0.030685425
895590372415175	2.306549	14.889755	1.1308136
895590377511610	3.6592712	16.329865	1.9208984
895590382577528	4.9222107	17.339035	2.3686218
895590387643446	5.9840393	17.919617	2.725357
895590392709364	6.1827545	17.452759	3.2832031
895590397775282	5.6057587	15.61879	3.223343
895590402841200	4.401474	12.430908	2.1926422
895590407907118	2.6369476	8.244659	0.7190094
895590412973036	1.4446259	4.5456085	-0.4529419
895590418038954	1.5092773	2.4147644	-0.4529419
895590423135390	1.5487823	1.562439	0.5119171
895590428201307	0.91192627	1.8736877	1.5917053
895590433267225	-0.41566467	3.3269653	2.5781097
895590438333143	-1.3087006	4.86644	3.7309265
895590443399061	-1.3422241	5.954605	5.163849
895590448464979	-1.3925018	6.8380585	6.207718
895590453530897	-1.543335	7.591034	6.65184
895590458596815	-1.5696716	8.078262	6.5345306
895590463693251	-1.6414948	8.146484	6.029358
895590468759169	-1.8019104	8.06987	5.429611
895590473825087	-2.3118744	8.080643	4.962738
895590478891005	-2.7751465	8.3763275	4.9088593
895590483956923	-2.8230286	8.772568	5.0920258
895590489022841	-2.7835236	9.268173	5.337433
895590494088759	-2.6338959	9.760178	5.297928
895590499185194	-2.7069092	10.24501	4.9914703
895590504251112	-2.690155	10.710678	4.5222015
895590509317030	-2.6374817	10.918976	3.554947
895590514382948	-2.0509033	10.965668	2.254898
895590519448866	-1.259613	11.050659	0.95124817
895590524514784	-0.7723999	11.142838	-0.26739502
895590529580702	-0.69099426	11.027908	-0.7941284
895590534646620	-1.0070343	10.655609	-0.8432007
895590539743056	-1.1387177	10.319229	-0.7641907
895590544808973	-1.0513306	9.956512	-0.6504669
895590549874891	-1.1004028	9.195145	-0.579834
895590554940809	-1.5481262	8.36795	-0.30570984
895590560006727	-1.824646	7.8220825	0.0390625
895590565103163	-1.4068604	7.5024567	0.6136627
895590570169081	-1.2476501	7.0786743	1.3642578
895590575234999	-1.2667999	6.7949677	1.890976
895590580300917	-1.2296906	6.6764526	2.0992737
895590585366835	-1.1004028	6.6297607	2.2321472
895590590432753	-0.83584595	6.66568	2.3207397
895590595498671	-0.6131897	6.8308716	2.294403
895590600564589	-0.4467926	7.1074066	2.1986237
895590605630507	-0.42404175	7.310913	1.9484406
895590610696425	-0.4910736	7.441391	1.8287201
895590615792860	-0.68740845	7.4976654	1.9041443
895590620858778	-0.6670532	7.6042023	1.9376678
895590625924696	-0.7831726	7.9046783	1.9412537
895590630990614	-1.1662445	8.13092	2.0286407
895590636056532	-1.4260101	8.302109	1.9963226
895590641122450	-1.4595337	8.478088	1.8694305
895590646218886	-1.5792389	8.573853	1.6982422
895590651284804	-1.7192993	8.583435	1.4935455
895590656350722	-1.9012604	8.480484	1.2421417
895590661416640	-1.9407654	8.541534	0.9751892
895590666482557	-1.9766846	8.490051	0.6136627
895590671548475	-2.0269623	8.32486	0.38981628
895590676614393	-2.0042114	8.196762	0.3718567
895590681680311	-1.9132385	8.043533	0.4436798
895590686776747	-1.8354187	7.8807373	0.7190094
