linearaccelerometer_timestamp	linearaccelerometer_x_data	linearaccelerometer_y_data	linearaccelerometer_z_data
895577748488147	-8.002925	6.336355	-4.532728
895577753493030	-5.868159	4.7653255	-4.2240124
895577758558948	-4.405371	3.4302258	-3.258778
895577763624866	-2.9303417	1.9468012	-2.0537212
895577768690784	-1.6760526	0.44053173	-1.0514982
895577773756702	-0.85602486	-1.0161881	0.033211946
895577778822620	0.07537377	-2.1904783	0.98284125
895577783888538	0.27148974	-2.752954	1.7066865
895577788954455	-0.13545752	-2.5769482	2.3389072
895577794020373	-0.055997252	-1.7333107	3.109131
895577799086291	0.4478737	-0.44138718	4.2027225
895577804152209	1.4705046	0.87833595	5.4372873
895577809218127	2.8048153	2.055851	6.4130125
895577814284045	4.0075636	3.2794862	6.61447
895577819349963	4.8564634	5.1292048	6.541777
895577824415881	5.021037	7.772757	6.724143
895577829481799	4.5714927	10.870102	6.4415026
895577834578235	3.5676713	13.322968	5.6576896
895577839644153	2.8486269	14.2331505	4.9959965
895577844710071	3.5103035	13.989184	2.2117946
895577849775989	4.4554596	12.112153	-1.4990089
895577854841907	4.03368	8.696497	-4.4212446
895577859907825	2.0621884	5.1190753	-5.741625
895577864973743	0.6488062	2.7329602	-3.9466271
895577870070178	-0.08084059	1.4786615	-0.64964926
895577875136096	-1.0028627	0.6757798	2.145606
895577880202014	-1.9822099	-0.008605003	3.7590413
895577885267932	-2.9581866	-0.70734453	4.4359894
895577890333850	-3.7195525	-1.0401168	4.7618484
895577895399768	-4.0792294	-0.99157286	4.9337015
895577900465686	-4.066067	-0.9940057	4.9294295
895577905531604	-3.7890172	-1.2386479	4.704391
895577910628039	-3.4106863	-1.8064523	4.278926
895577915693957	-3.0536668	-2.2275958	4.1239843
895577920759875	-2.982272	-2.060945	4.4243355
895577925825793	-2.9702644	-1.6494136	4.8791423
895577930891711	-2.6020496	-1.262475	5.4017477
895577935957629	-2.1613777	-0.66407156	5.791056
895577941023547	-1.785957	-0.006802082	5.6024313
895577946089465	-1.6112639	0.78620243	5.1752715
895577951155383	-1.8422456	1.6222558	4.78086
895577956251819	-2.291513	2.3548436	4.26272
895577961317737	-2.5975785	2.804349	3.4664135
895577966383655	-2.528592	3.177885	2.3059597
895577971449573	-2.259767	3.512065	1.0672543
895577976515491	-1.9563015	3.8041162	0.29057878
895577981581409	-1.7713665	3.887405	0.049061537
895577986647327	-1.6310481	3.6235642	-0.15094864
895577991743762	-1.7393448	3.1224694	-0.73665655
895577996809680	-1.7859559	2.3720431	-1.1970044
895578001875598	-1.8938662	1.5231671	-1.4822911
895578006941516	-2.3387008	0.8449087	-1.5278803
895578012007434	-2.2099798	0.14592886	-1.4836279
895578017073352	-2.2094486	-0.5028286	-1.2497077
895578022139270	-2.27857	-0.78823996	-1.1090643
895578027205188	-2.2355392	-0.8050728	-0.9202782
895578032301623	-2.2269073	-0.7317624	-0.703508
895578037367541	-2.0717201	-0.5116248	-0.44399548
895578042433459	-1.6187603	-0.18071508	-0.3431114
895578047499377	-1.3989521	-0.01442194	-0.31974554
895578052565295	-1.4250461	0.021493435	-0.22825849
895578057631213	-1.3929787	0.012815952	0.14123487
895578062697131	-1.3580099	-0.15436602	0.60284567
895578067763049	-1.3080269	-0.30077648	1.0518831
895578072859485	-1.059527	-0.24107742	1.3819457
895578077925403	-1.0176516	-0.0040955544	1.4889086
895578082991321	-1.3742049	0.13343668	1.498099
895578088057239	-1.6753821	0.20918798	1.4016279
895578093123157	-1.7949636	0.29000044	1.1582934
895578098189075	-1.9255295	0.3839655	0.80079114
895578103254993	-2.1725397	0.4162855	0.4110378
895578108320911	-2.446505	0.36748934	0.0010545254
895578113417346	-2.7209065	0.28360128	-0.37042272
895578118483264	-2.9115205	0.3342781	-0.6934049
895578123549182	-3.177184	0.3015418	-0.99985266
895578128615100	-3.536091	0.27868795	-1.1814108
895578133681018	-3.7184892	0.28337717	-1.2963206
895578138746936	-3.9049754	0.25125885	-1.2183343
895578143812854	-4.0089493	0.27504826	-1.0036547
895578148909289	-3.9414887	0.3447485	-0.71174645
895578153975207	-3.837315	0.43847704	-0.3444699
895578159041125	-3.7123263	0.5265136	0.029552579
895578164107043	-3.6793437	0.613749	0.33308876
895578169172961	-3.744675	0.70737123	0.35107768
895578174238879	-3.8136973	0.86898136	0.18345916
895578179304797	-4.0024734	1.1003108	-0.11465144
895578184401233	-4.197388	1.4078608	-0.49948597
895578189467151	-4.3549004	1.7208986	-0.9750509
895578194533069	-4.5265665	2.0275283	-1.3377225
895578199598987	-4.6454215	2.401246	-1.6345725
895578204664905	-4.680451	2.735713	-1.7757642
895578209761340	-4.866809	3.0133529	-1.8322885
895578214827258	-5.0619836	3.434793	-1.6700534
895578219893176	-5.238411	3.8633285	-1.3970584
895578224959094	-5.532016	4.187154	-1.0599245
895578230025012	-5.7491455	4.3691278	-0.74912333
895578235090930	-5.934259	4.3440647	-0.3896742
895578240156848	-6.0796456	4.047456	-0.2375133
895578245222766	-6.048428	3.617199	-0.35351408
895578250288684	-5.958596	3.1782122	-0.6644659
895578255354602	-6.1821213	2.796204	-0.9625261
895578260420520	-6.5551963	2.7000542	-0.9924995
895578265486438	-6.783778	2.750915	-0.9941611
895578270552356	-6.7614465	2.9522047	-0.871794
895578275648791	-6.6425753	3.2881465	-0.8089527
895578280714709	-6.3791633	3.6399055	-0.84901404
895578285780627	-6.2112675	3.8635259	-0.8641324
895578290846545	-6.129987	3.9670844	-0.7931931
895578295912463	-6.046693	4.121319	-0.6932794
895578300978381	-5.991869	4.166624	-0.6127348
895578306074817	-5.980074	4.153672	-0.5862677
895578311140735	-5.798751	4.109152	-0.5174576
895578316206653	-5.457652	3.905077	-0.39792717
895578321272571	-5.1162086	3.4607735	-0.2742107
895578326338489	-4.8641086	2.8102255	-0.19120729
895578331404407	-4.7149563	2.176093	-0.3014263
895578336470325	-4.5943356	1.6594353	-0.52356124
895578341536243	-4.340061	1.2419167	-0.56019545
895578346632678	-3.7956173	0.9040985	-0.43156505
895578351698596	-3.1068146	0.50441456	-0.6329221
895578356764514	-2.3603754	0.059057236	-1.2038862
895578361830432	-1.4540316	-0.2600298	-1.9517521
895578366896350	-0.72941506	-0.25583553	-2.8484757
895578371962268	-0.39231735	0.16992283	-3.6622975
895578377028186	-0.3185709	0.9841776	-3.9425738
895578382094104	0.04290378	2.2668505	-3.581206
895578387190539	0.587113	3.96517	-2.404056
895578392256457	1.4393559	5.476881	-0.6660687
895578397322375	2.4629116	6.682703	1.3670105
895578402388293	3.6768389	7.95257	3.280098
895578407454211	4.7012362	9.011876	4.756632
895578412520129	5.114395	9.669005	5.8443875
895578417586047	4.9055405	9.605248	6.106634
895578422651965	4.411925	9.047506	5.6260457
895578427748401	4.379628	8.15228	4.6742573
895578432814319	4.2587175	7.016346	3.407691
895578437880237	3.597876	5.9816074	2.2086234
895578442946155	2.5516562	4.834758	1.3149164
895578448012073	0.8676977	3.9300785	1.1357199
895578453077991	-0.5835936	3.770773	1.2815008
895578458143909	-1.404294	3.7974634	1.4743352
895578463209827	-1.8602667	3.8985424	0.9741324
895578468306262	-1.4046097	4.1151495	0.067999244
895578473372180	-0.959533	4.23981	-0.5654371
895578478438098	-1.2729988	4.0091457	-0.7091899
895578483534534	-2.1040804	3.4591932	0.24016857
895578488600452	-1.7043982	3.4077682	1.2651082
895578493666370	-0.73366594	3.5126286	1.2509958
895578498732288	-0.37458658	3.376172	0.8395786
895578503798205	-0.2854221	3.0035896	0.1745491
895578508864123	0.14748478	2.432332	-0.17651546
895578513930041	1.2473605	1.7994852	0.14382398
895578519026477	1.8605258	1.0233269	0.6910491
895578524092395	1.504972	0.13500214	1.0911325
895578529158313	2.1027255	-0.52662945	1.6679677
895578534224231	1.5877023	-1.3302402	2.028897
895578539290149	1.619194	-2.117651	2.1045918
895578544356067	1.666059	-2.8428502	2.2518241
895578549421985	1.6659255	-3.432423	2.3293993
895578554487903	1.8826022	-4.0288415	2.0573237
895578559553821	2.3699017	-4.674989	2.571481
895578564619739	1.884583	-4.8935347	1.0567393
895578569685657	1.9435	-4.993537	0.4556632
895578574782092	2.4548364	-5.2558265	0.59816194
895578579848010	3.017683	-5.541556	0.56177306
895578584913928	3.3633065	-5.634697	0.3019426
895578589979846	3.545443	-5.6744103	0.39256954
895578595045764	3.710177	-5.713567	0.6579356
895578600111682	4.0397	-5.7664895	0.7211325
895578605177600	4.2346025	-5.7889533	0.8857291
895578610243518	4.6841173	-5.7619905	1.2380142
895578615309436	5.03951	-5.646426	1.6627231
895578620375354	5.3707037	-5.526982	2.086003
895578625441272	5.5673075	-5.4879966	2.4569929
895578630537707	5.7160134	-5.361004	2.8177714
895578635603625	5.915116	-5.2379355	3.1933172
895578640669543	5.9382095	-5.1031566	3.628884
895578645735461	6.1341324	-4.972077	3.8573904
895578650801379	6.17476	-4.8385715	3.9382348
895578655867297	6.1741905	-4.682251	3.9232943
895578660933215	5.9873767	-4.5365295	3.8344572
895578665999133	5.7532735	-4.3881793	3.5698287
895578671095569	5.612297	-4.232534	3.1352508
895578676161487	5.3079567	-4.0181527	2.6475773
895578681227405	5.046896	-3.734703	2.1568701
895578686293323	4.8120766	-3.4492836	1.6510497
895578691359241	4.52355	-3.1678314	1.1787578
895578696425159	4.028077	-2.8305612	0.65650547
895578701491077	3.385285	-2.5863295	0.04090047
895578706556995	2.7078247	-2.2629986	-0.6615163
895578711653430	1.9943974	-1.892065	-1.4112031
895578716719348	1.1406088	-1.311245	-2.365386
895578721785266	-0.036643982	-0.4571681	-3.4059415
895578726851184	-1.3694246	0.701179	-4.5695295
895578731917102	-2.7192292	2.137529	-5.669455
895578736983020	-3.9236658	3.817728	-6.6879377
895578742048938	-5.523326	5.757906	-7.562925
895578747114856	-7.0920095	7.896589	-7.95267
895578752211291	-8.749342	9.83553	-8.001426
895578757277209	-11.289699	11.280288	-7.72025
895578762343127	-14.183939	12.212208	-6.7584205
895578767409045	-16.321012	12.502685	-5.154582
895578772474963	-16.618185	12.021671	-3.549738
895578777540881	-15.333057	10.612644	-2.7958546
895578782606799	-13.355013	8.684422	-2.9263482
895578787703235	-11.38224	6.958836	-3.3173378
895578792769153	-9.109083	5.3871746	-3.7856932
895578797835071	-6.6478453	3.8243275	-4.303573
895578802900989	-4.4133987	2.2414522	-4.7649975
895578807966907	-2.620493	0.6765661	-4.80488
895578813032825	-0.72462535	-0.795671	-4.7028437
895578818098743	0.44653416	-1.9515009	-4.241019
895578823195178	1.2578087	-2.8834858	-3.2189755
895578828261096	1.887608	-3.555996	-2.0892887
895578833327014	2.671482	-4.1607447	-1.3766787
895578838392932	3.2719553	-4.528872	-0.8993993
895578843458850	3.424945	-4.520068	-0.37559426
895578848524768	3.4133217	-3.9617524	0.27159095
895578853590686	3.5821843	-2.7882838	1.0686628
895578858656604	4.2826223	-1.4009333	2.1077514
895578863722522	5.2755904	-0.24223661	2.995634
895578868788440	6.2342668	0.89315796	3.8106046
895578873884875	6.9065824	2.4973764	4.5201616
895578878950793	7.002529	4.324082	5.0095754
895578884016711	6.59288	6.3745174	5.4490747
895578889082629	6.0811577	9.034336	5.5828567
895578894148547	5.6959195	11.515649	4.6928797
895578899214465	5.5918007	12.852002	3.4676368
895578904280383	5.8821044	12.284207	2.4152298
895578909346301	5.6857653	9.611033	1.1044443
895578914442737	3.877526	4.9466515	-1.33468
895578919508655	2.2774224	0.9864807	-2.355073
895578924574573	2.2474413	-1.3283834	-1.2922311
895578929640491	2.3736138	-2.4500055	0.6941404
895578934736926	1.5632417	-2.6882944	2.2871299
895578939802844	0.50162244	-2.657178	3.1070604
895578944868762	-0.2191186	-2.711277	3.5420074
895578949934680	-0.6877487	-2.6979818	3.8176346
895578955000598	-0.8367369	-2.4733696	3.8250692
895578960097034	-0.8276632	-2.0444012	3.6611104
895578965162952	-0.70678973	-1.3666039	3.3816028
895578970228870	-0.5923214	-0.80139446	3.0552926
895578975294788	-0.42154694	-0.3758278	3.0120628
895578980360705	-0.2601428	-0.10117054	3.3900318
895578985426623	-0.019345045	0.14042854	4.1767793
895578990492541	0.55309176	0.35447884	4.9895124
895578995588977	1.1993752	0.41172504	5.298799
895579000654895	1.3568063	0.45467472	5.0265703
895579005720813	1.1288946	0.73910904	4.4903927
895579010786731	1.1437654	1.0535498	3.9814296
895579015852649	1.0455112	1.3183756	3.3398783
895579020918567	1.0385699	1.5495214	2.5432115
895579025984485	1.3158488	1.6757689	1.6995616
895579031050403	1.5375879	1.6130056	1.1943767
895579036116321	1.6857691	1.4323797	0.94090617
895579041212756	1.4591558	1.1712303	0.8494762
895579046278674	1.0030057	0.704587	0.612479
895579051344592	0.6543845	0.20690155	0.29942906
895579056410510	-0.09065378	-0.18972015	0.227395
895579061476428	-0.48284817	-0.22710991	0.2890411
895579066542346	-0.29875314	-0.5306082	-0.013293922
895579071608264	-0.4225688	-1.0481148	-0.3026483
895579076674182	-0.6562997	-1.3186617	-0.31925035
895579081770618	-0.7668952	-1.3397484	-0.48992664
895579086836536	-0.9155798	-1.3198643	-0.4957471
895579091902454	-0.8676872	-1.2711725	-0.3849914
895579096968372	-0.64103794	-1.1961527	-0.3933879
895579102034289	-0.20318162	-1.0865049	-0.3746652
895579107100207	-0.14687681	-1.0877752	-0.3252173
895579112166125	-0.18970537	-1.2710142	-0.23175263
895579117232043	0.015158415	-1.5186939	0.028167486
895579122328479	0.26246858	-1.4858007	0.23744881
895579127394397	0.46761322	-1.3546667	0.35469043
895579132460315	0.4096141	-1.3045969	0.3387499
895579137526233	0.32836378	-1.0802164	0.4744569
895579142592151	0.21477866	-0.7503395	0.4095844
895579147658069	0.021895766	-0.56003857	0.31404102
895579152723987	-0.1770798	-0.45292568	0.19542038
895579157789905	-0.34674037	-0.33451843	0.14164925
895579162886340	-0.83744866	-0.37302113	0.023747325
895579167952258	-1.0931072	-0.36262035	-0.1372509
895579173018176	-1.3934813	-0.45724487	-0.3067981
895579178084094	-1.8477426	-0.559762	-0.4704113
895579183150012	-2.014481	-0.6211157	-0.521381
895579188215930	-2.2167313	-0.7678261	-0.5080749
895579193281848	-2.3920302	-1.0031805	-0.404117
895579198347766	-2.4780679	-1.1515627	-0.21755922
895579203413684	-2.516293	-1.111867	0.005372286
895579208510120	-2.5362768	-0.97544765	0.17180383
895579213576038	-2.567634	-0.84051895	0.23372996
895579218641955	-2.6439037	-0.6450243	0.13633716
895579223707873	-2.7981756	-0.39747334	-0.12843096
895579228773791	-3.0134573	-0.17674828	-0.44698453
895579233839709	-3.163245	0.03043747	-0.78739524
895579238905627	-3.307494	0.22655773	-1.0567682
895579244002063	-3.3927104	0.33292484	-1.2412245
895579249067981	-3.4740486	0.559782	-1.2572684
895579254133899	-3.6585317	0.8016882	-1.1722026
895579259199817	-3.9414341	1.09904	-1.132843
895579264265735	-4.269302	1.4909534	-0.88115644
895579269331653	-4.630655	2.0188217	-0.62783694
895579274397571	-4.8160377	2.4887733	-0.36791444
895579279494006	-4.969199	2.8268871	-0.016450644
895579284559924	-5.1337357	3.0094557	0.24547601
895579289625842	-5.16696	3.06188	0.32553482
895579294691760	-5.0351033	2.8925524	0.15304422
895579299757678	-4.8140254	2.6727505	-0.2807281
895579304823596	-4.759351	2.5053778	-0.70338726
895579309889514	-4.9649253	2.491848	-0.9938278
895579314955432	-5.2558856	2.742711	-1.1203995
895579320021350	-5.494922	3.186736	-1.1157188
895579325117786	-5.595338	3.5929604	-1.1076105
895579330183704	-5.575513	3.8361359	-1.1245465
895579335249622	-5.518529	3.896491	-1.0732062
895579340315539	-5.5154014	3.8366442	-0.9920039
895579345381457	-5.580411	3.6700888	-0.8152051
895579350447375	-5.658448	3.5426493	-0.6618953
895579355513293	-5.7277	3.5662727	-0.63998973
895579360609729	-5.6909275	3.6401844	-0.7222855
895579365675647	-5.3899503	3.6962957	-0.6675869
895579370741565	-4.7392774	3.4326077	-0.48770058
895579375807483	-4.3140173	2.7856274	-0.31386185
895579380873401	-4.3461256	2.0620432	-0.1310159
895579385939319	-4.4278936	1.5711975	-0.2532754
895579391005237	-4.4424853	1.1454239	-0.6337559
895579396071155	-4.3431215	0.72877884	-0.9032035
895579401167590	-4.113577	0.38729572	-1.1400254
895579406233508	-3.6827729	0.004439354	-1.3438373
895579411299426	-2.9968877	-0.38352585	-1.4753976
895579416365344	-2.09819	-0.612669	-1.6855363
895579421431262	-1.1697032	-0.4515581	-2.0499578
895579426497180	-0.6134622	-0.21129513	-2.7084444
895579431563098	-0.2903322	0.11433315	-3.353149
895579436629016	0.17616576	0.6998272	-3.973716
895579441725452	0.80147666	1.6356277	-4.343667
895579446791370	1.4932855	2.927085	-4.1806726
895579451857288	2.1379364	4.5102787	-3.2556925
895579456923205	3.1281886	5.9868336	-1.6838442
895579461989123	4.3623104	7.1764393	0.19392511
895579467055041	5.5061984	8.006506	2.0973303
895579472120959	6.331927	8.330563	3.77834
895579477217395	6.608099	8.25339	4.8184366
895579482283313	6.518424	7.83375	4.987383
895579487349231	6.382885	7.17622	4.3977995
895579492415149	6.1009436	6.343498	3.461129
895579497481067	5.481391	5.422203	2.3554907
895579502546985	4.4067316	4.533519	1.3551815
895579507612903	3.1443853	3.9966393	0.569633
895579512709338	2.5283465	3.9617405	0.19257897
895579517775256	1.5581114	4.218899	-0.057508826
895579522841174	0.49759912	4.5000916	-0.6224293
895579527907092	0.13061547	4.67202	-1.4834354
895579532973010	-0.52812576	4.6857204	-1.6282151
895579538038928	-0.9415016	4.6996613	-1.7426038
895579543104846	-1.5869627	4.1575403	-1.554639
895579548170764	-2.5382583	3.4601831	-0.46817195
895579553236682	-1.579346	3.2041388	0.4313749
895579558333118	-0.24541068	2.9963512	0.68714476
895579563399036	-0.40816665	2.4430857	0.14555156
895579568464954	-0.18428755	1.8661289	-0.19877672
895579573530872	0.4592204	1.1931362	-0.23960769
895579578596789	0.7157588	0.44140625	0.019318461
895579583662707	0.56461525	-0.27692986	0.5766083
895579588728625	0.1437006	-0.9239521	1.0678692
895579593794543	0.2410121	-1.5529089	1.5340868
895579598860461	0.6241131	-2.3108377	1.8487794
895579603956897	0.8203831	-3.0354977	2.0132246
895579609022815	1.0519505	-3.7152448	1.978775
895579614088733	1.4327078	-4.3764887	1.8668169
895579619154651	2.1307106	-4.9753118	1.9732772
895579624220569	1.5943203	-5.0771546	1.1505898
895579629286487	1.5218353	-4.7294197	0.27338147
895579634382922	3.2847333	-5.097669	0.68293405
895579639448840	3.596301	-5.31354	0.8326037
895579644514758	4.030594	-5.435331	1.0479056
895579649580676	4.3417754	-5.615272	1.3495193
895579654646594	4.491967	-5.745775	1.4257891
895579659712512	4.9233437	-5.801939	1.4659817
895579664778430	5.2820525	-5.7647753	1.4495394
895579669844348	5.4435534	-5.707159	1.4346783
895579674910266	5.6223617	-5.6649737	1.4423566
895579680006702	5.760059	-5.5510793	1.5986452
895579685072620	5.992227	-5.413453	1.8221254
895579690138538	6.214	-5.2771087	2.106277
895579695204455	6.402119	-5.131133	2.3561494
895579700270373	6.61795	-4.915767	2.6299403
895579705336291	6.8783045	-4.75787	2.757445
895579710402209	6.8561025	-4.556969	2.817504
895579715468127	6.827869	-4.325145	2.8412323
895579720564563	6.7145195	-4.211838	2.8467014
895579725630481	6.5556965	-4.1842914	2.6793096
895579730696399	6.231933	-4.171709	2.3865876
895579735762317	5.9106436	-4.0652747	2.0528977
895579740828235	5.553468	-3.846047	1.6869733
895579745894153	5.19517	-3.6108232	1.2139199
895579750960071	4.7918987	-3.4442267	0.6876457
895579756025989	4.1839037	-3.389009	0.12464213
895579761122424	3.456155	-3.300602	-0.5590491
895579766188342	2.542067	-3.1548882	-1.314666
895579771254260	1.4619119	-2.8124166	-2.1394935
895579776320178	0.18408275	-2.123342	-3.1542282
895579781386096	-1.2325759	-1.1687632	-4.199379
895579786452014	-2.3195589	0.16521502	-5.1120424
895579791517932	-3.5337853	1.7204309	-5.8971677
895579796583850	-4.856268	3.3489628	-6.5384502
895579801680286	-5.8078766	5.1396575	-6.9176793
895579806746204	-7.3316984	6.920861	-7.141103
895579811812122	-9.726215	8.553047	-7.343885
895579816878039	-12.57139	10.038546	-7.1966944
895579821943957	-15.520461	11.188917	-6.34908
895579827009875	-17.221987	11.756506	-5.2619185
895579832075793	-16.746748	11.501868	-4.36483
895579837172229	-14.669446	10.18401	-3.9906473
895579842238147	-11.494207	8.241855	-4.271706
895579847304065	-8.713533	6.1400375	-4.5176134
895579852369983	-6.262697	4.244439	-4.655979
895579857435901	-4.009798	2.5969677	-4.727625
895579862501819	-1.9947114	1.0603666	-4.708482
895579867567737	-0.53299975	-0.32149792	-4.3204064
895579872633655	0.6070175	-1.4304056	-3.6890843
895579877699573	1.4023752	-2.4324493	-2.8745985
895579882765491	2.1777697	-3.3701715	-2.1081636
895579887831409	3.123168	-4.1140695	-1.3488886
895579892897327	3.7281003	-4.2697406	-0.545282
895579897963245	3.9824455	-3.69386	0.30755806
895579903029163	4.5633965	-2.4648538	1.4213103
895579908125598	5.443046	-0.91623974	2.355235
895579913191516	6.768387	0.64111614	3.2615507
895579918257434	7.974552	1.92418	3.9190536
895579923323352	8.73445	3.403761	4.5352173
895579928389270	9.261698	5.4850645	4.766406
895579933455188	9.528267	7.7921133	3.9972465
895579938521106	9.603303	9.735487	2.640729
895579943587024	9.363609	11.032439	1.2641813
895579948683459	9.138361	11.586738	1.082969
895579953749377	9.910888	10.394561	0.31768334
895579958815295	10.50658	7.692071	-1.066586
895579963881213	9.267656	4.116289	-1.5375881
895579968947131	5.243979	0.7344103	-0.48616356
895579974013049	1.3970096	-1.2730904	1.5316093
895579979078967	-0.106830835	-2.285573	3.3683643
895579984144885	-0.13520622	-2.7673206	4.259872
895579989241321	-0.005829096	-2.7939806	4.5562315
895579994307239	-0.5538459	-2.5547695	4.9357495
895579999373157	-1.3956208	-2.5016108	5.38668
895580004439075	-1.9555774	-2.4561176	5.8931217
895580009504993	-2.4140441	-2.3918962	6.342577
895580014570911	-2.8872495	-2.369691	6.474684
895580019667346	-3.0306594	-2.2783737	6.433014
895580024733264	-2.997012	-2.1346693	6.281411
895580029799182	-2.7736533	-1.790865	5.960486
895580034865100	-2.154937	-1.2235641	5.371187
895580039961536	-1.3826594	-0.6396723	4.5676193
895580045027454	-0.81006265	-0.046619415	3.6946833
895580050093372	-0.22312903	0.5252161	3.138458
895580055159289	0.2328012	1.1077204	2.8299873
895580060225207	0.63749623	1.4626455	2.1495998
895580065291125	0.6486194	1.6483145	1.2395501
895580070357043	0.649467	1.5911493	0.5489133
895580075422961	0.585058	1.4204197	0.35583657
895580080488879	0.88369894	1.1539431	0.47145015
895580085554797	1.3734854	0.9218092	0.08208728
895580090620715	1.8295498	0.5876999	-0.69456637
895580095686633	2.278092	0.27476788	-0.80193967
895580100752551	2.4941902	0.0020017624	-0.76561844
895580105818469	2.1933856	-0.53071594	-0.9028118
895580110914905	1.4251379	-1.2395744	-0.92630005
895580115980823	1.0448745	-1.6395826	-0.60271305
895580121046741	1.2602059	-1.7937937	-0.23295361
895580126112659	1.5475738	-2.0014563	-0.031890392
895580131178577	1.7037563	-2.1859207	0.1128515
895580136244495	1.6833533	-2.2623224	0.24796426
895580141310413	1.7342898	-2.1901712	0.5189117
895580146406848	1.6962899	-1.6363611	0.8302882
895580151472766	1.4660078	-1.139144	1.263801
895580156538684	1.0068909	-0.73287773	1.7677174
895580161604602	0.65700924	-0.3169613	2.0964646
895580166670520	0.46643817	0.001001358	2.028688
895580171736438	-0.11324906	0.11831665	1.6797975
895580176802356	-0.547493	0.2706852	1.2941761
895580181868274	-0.87650967	0.4256258	0.94437516
895580186964709	-1.2699358	0.35596275	0.45532072
895580192030627	-1.8237152	0.2625351	0.008289695
895580197096545	-2.290609	0.13435459	-0.5396856
895580202162463	-2.8177872	-0.009591103	-0.9946221
895580207228381	-3.23703	-0.22189045	-1.3904829
895580212294299	-3.4010708	-0.4020977	-1.7841593
895580217390735	-3.4009607	-0.6206932	-2.0692067
895580222456653	-3.4879937	-0.92164135	-2.3640265
895580227522571	-3.4587715	-1.2125559	-2.505346
895580232588489	-3.4981182	-1.4836702	-2.3490095
895580237654407	-3.575094	-1.6201811	-1.8999939
895580242720325	-3.5248828	-1.5099945	-1.1470292
895580247816760	-3.2988343	-1.3363667	-0.21845901
895580252882678	-3.0670161	-1.2069235	0.6277635
895580257948596	-2.817405	-1.1251984	1.2127873
895580263014514	-2.6361456	-1.0576153	1.5491275
895580268080432	-2.549645	-0.97656155	1.5507993
895580273146350	-2.513591	-0.8723459	1.29433
895580278242786	-2.5631633	-0.86194515	0.8942412
895580283308704	-2.572106	-0.80536175	0.46929908
895580288374622	-2.6004176	-0.7074957	0.04728794
895580293440539	-2.6154163	-0.4861555	-0.30748415
895580298506457	-2.549634	-0.14070415	-0.5554478
895580303572375	-2.5937765	0.36642838	-0.8540747
895580308638293	-2.6526675	0.9449835	-1.2424963
895580313734729	-2.714151	1.5133324	-1.5262778
895580318800647	-2.8545651	2.0319796	-1.6516926
895580323866565	-3.1833987	2.4939022	-1.5754325
895580328932483	-3.662702	2.90771	-1.4037714
895580333998401	-4.192928	3.1756516	-1.0564921
895580339064319	-4.57682	3.323205	-0.47365117
895580344130237	-4.8995247	3.2060747	0.10265565
895580349196155	-4.9665217	2.848586	0.29605675
895580354292590	-4.9720325	2.2500525	0.09628916
895580359358508	-4.9881997	1.676302	-0.31041336
895580364424426	-5.19517	1.3377771	-0.75248957
895580369490344	-5.458215	1.2853842	-1.0520606
895580374556262	-5.5009346	1.5482635	-1.1478074
895580379622180	-5.4551587	2.0024166	-1.2910018
895580384688098	-5.389469	2.496667	-1.4885967
895580389754016	-5.2281427	2.9052544	-1.7012808
895580394850452	-5.067756	3.1100016	-1.8495119
895580399916370	-5.0918016	3.1423626	-1.9129796
895580404982288	-5.2728157	3.0791159	-1.9332607
895580410048205	-5.401309	3.0447378	-1.929418
895580415114123	-5.4529243	3.1240625	-1.8489823
895580420180041	-5.2977552	3.2380915	-1.7056296
895580425245959	-4.718585	3.1765776	-1.4160974
895580430311877	-4.1665125	2.7940435	-0.9625561
895580435408313	-3.9144583	2.2618055	-0.47805452
895580440474231	-3.7584121	1.6865978	-0.22245061
895580445540149	-3.632794	1.1257114	-0.1601634
895580450606067	-3.6329095	0.4789133	-0.1944431
895580455671985	-3.44858	-0.15654564	-0.1497004
895580460737903	-3.1907349	-0.6583128	-0.12013757
895580465803821	-2.8267725	-1.1121721	-0.30001163
895580470900256	-2.4550664	-1.4892035	-0.6804508
895580475966174	-1.7987602	-1.6705427	-1.464733
895580481032092	-1.1503563	-1.4565468	-2.4123182
895580486098010	-0.8070469	-0.8938761	-3.1492894
895580491163928	-0.6392789	0.1906805	-3.6098313
895580496229846	-0.23283839	1.6114912	-3.65327
895580501295764	0.46820277	3.4555082	-3.0929425
895580506361682	1.2904363	5.2859545	-1.9442893
895580511427600	2.2837183	6.7180023	-0.4463749
895580516524036	3.4931834	8.001878	1.0064712
895580521589954	4.6821527	9.016659	2.2472777
895580526655872	5.304599	9.416093	3.1642222
895580531721789	5.5025225	9.500955	3.6340296
895580536787707	5.726385	9.44946	3.6477065
895580541853625	5.975737	9.063019	3.1714354
895580546950061	5.9429574	8.375664	2.3707995
895580552015979	5.4168186	7.4891453	1.5501137
895580557081897	4.043432	6.1747284	1.0667161
895580562147815	2.680017	5.1848965	1.3631492
895580567213733	1.267288	4.852929	1.8446927
895580572279651	0.2828796	4.644333	1.7936776
895580577345569	-0.41995907	4.589549	1.29561
895580582411487	-0.8445113	4.450839	0.35716343
895580587507922	-0.9798498	4.367921	-0.14894265
895580592573840	-0.6081238	4.132066	-0.70706654
895580597670276	-1.0908947	3.557683	-0.5736984
895580602736194	-1.1967032	3.3398838	-0.023308992
895580607802112	-0.6262338	3.1320705	0.22019243
895580612868030	-0.21578646	2.8063297	0.40864253
895580617933948	0.014834404	2.3366842	0.49218988
895580622999866	0.6425438	1.9143972	0.45315218
895580628065784	2.1687326	1.4102573	0.65700483
895580633131702	2.7689161	0.66232777	1.1786506
895580638228137	1.9491897	-0.08447361	1.3221378
895580643294055	1.3930874	-0.75219727	1.2297162
895580648359973	1.1876745	-1.5263872	1.2520044
895580653425891	1.3236785	-2.359147	1.4071258
895580658491809	0.9433446	-2.8200693	1.9052966
895580663557727	2.6469345	-3.9674911	2.3134418
895580668654163	4.9978337	-6.464543	1.4632032
895580673720080	-3.1382856	-2.7090755	0.65555024
895580678785998	0.96902037	-3.341661	0.58918977
895580683851916	2.741067	-4.484622	0.77395296
895580688917834	2.4845285	-4.6963925	0.6059387
895580693983752	3.007453	-4.794062	0.6274798
895580699049670	3.2172647	-5.0856805	0.97501874
895580704115588	3.470139	-5.256724	1.3118865
895580709181506	3.850431	-5.460465	1.6246405
895580714247424	3.9907584	-5.626482	1.8310187
895580719313342	4.356064	-5.6022778	2.0873039
895580724379260	4.8908887	-5.5629754	2.383383
895580729445178	5.371783	-5.5719585	2.682924
895580734511096	5.4287214	-5.589693	3.0356307
895580739577014	5.652929	-5.6033382	3.3282015
895580744642932	6.0312753	-5.682486	3.6815755
895580749708850	6.1960745	-5.703921	4.0026593
895580754805286	6.277162	-5.6020722	4.235897
895580759871204	6.4974213	-5.4465666	4.429535
895580764937122	6.6405272	-5.3510437	4.595251
895580770003039	6.795278	-5.3176894	4.581193
895580775068957	6.8337193	-5.307913	4.467263
895580780134875	6.715241	-5.2724056	4.1660337
895580785200793	6.4853373	-5.2755046	3.6498928
895580790266711	6.2244143	-5.2438855	3.0560331
895580795363147	5.9028378	-5.219183	2.4205508
895580800429065	5.4761043	-5.2403297	1.7016306
895580805494983	4.977008	-5.3539333	1.0108421
895580810560901	4.3615375	-5.522881	0.3115487
895580815626819	3.7528381	-5.656433	-0.48769832
895580820692737	3.0334716	-5.7990136	-1.3524268
895580825758655	2.1576443	-5.834864	-2.3246057
895580830824573	1.3088565	-5.331772	-3.2045062
895580835921008	0.55675673	-4.4341288	-4.0016804
895580840986926	-0.17279196	-3.2432323	-4.6924973
895580846052844	-1.0270677	-1.9060583	-5.236249
895580851118762	-2.2232559	-0.49133635	-5.7288055
895580856184680	-3.3197699	1.1282978	-6.0909805
895580861250598	-4.658924	2.8889642	-6.277526
895580866316516	-6.3074837	4.8142815	-6.297267
895580871382434	-8.0676565	6.987398	-6.208265
895580876478870	-10.005619	9.195487	-5.926061
895580881544788	-12.289862	11.445993	-5.255905
895580886610705	-14.896067	13.484812	-4.3880863
895580891676623	-15.739435	14.961186	-3.6015227
895580896742541	-13.800388	15.56165	-3.2414727
895580901808459	-10.486834	14.57669	-3.2750103
895580906874377	-6.8574266	12.009	-3.8608766
895580911940295	-4.096957	8.726719	-4.4098587
895580917036731	-2.756502	5.775914	-4.502193
895580922102649	-1.8369815	3.350277	-4.235494
895580927168567	-0.7680788	1.3218174	-3.944857
895580932234485	0.29244542	-0.41509247	-3.6048284
895580937300403	1.2860897	-1.9846811	-3.2076883
895580942366321	2.0348754	-3.3068	-2.6648214
895580947432239	2.5525432	-4.13673	-2.1694717
895580952528674	2.8612778	-4.3309603	-1.4968936
895580957594592	3.1613562	-3.8501854	-0.40266156
895580962660510	3.6095731	-2.9786835	1.1308922
895580967726428	4.8332977	-1.6918945	2.6793509
895580972792346	6.239868	-0.3188057	3.812083
895580977858264	7.134411	0.60606575	4.398435
895580982924182	7.844226	1.3543425	4.374895
895580987990100	8.450715	2.3338528	4.0170736
895580993086536	8.900425	3.747898	3.6308007
895580998152454	8.969671	5.32156	3.3517804
895581003218372	8.686318	6.679469	2.7958713
895581008284289	8.227938	7.6286488	2.3708665
895581013350207	7.680947	8.284107	2.1125104
895581018416125	6.9946365	8.544918	0.8004367
895581023482043	5.1440096	8.133355	-1.4801991
895581028547961	1.4431663	6.513239	-1.6862226
895581033644397	-0.830776	4.6717176	0.96112275
895581038710315	-1.0730369	2.9178762	3.744279
895581043776233	-1.3439071	1.1250944	4.8900104
895581048842151	-1.4256282	-0.3408804	4.5596633
895581053908069	-1.5444138	-1.399394	4.034833
895581058973987	-1.8748758	-2.3892965	3.9541702
895581064039905	-2.0886776	-3.428793	3.7917757
895581069136340	-2.1253273	-4.125388	3.7229536
895581074202258	-2.1257327	-4.226815	3.948649
895581079268176	-1.9668496	-4.03039	4.4426346
895581084334094	-1.635412	-3.6239834	5.1010766
895581089400012	-1.2832155	-2.9710312	5.6636987
895581094465930	-0.4758432	-2.2273264	5.825722
895581099531848	0.5318072	-1.4500751	5.55903
895581104597766	1.3536777	-0.83834076	5.1231823
895581109694202	1.905252	-0.2670393	4.6357875
895581114760120	2.2519405	0.27192116	4.0754375
895581119826038	2.6477978	0.6116295	3.4651704
895581124891955	3.015712	0.8699541	2.7065706
895581129957873	3.2239811	0.9483166	2.1584582
895581135023791	3.1826794	0.92742634	1.7989305
895581140089709	3.4942577	0.9760809	1.2918084
895581145186145	3.5434163	0.78203106	1.0073581
895581150252063	3.4163651	0.6336088	0.9591841
895581155317981	2.975564	0.54589844	0.6840827
895581160383899	2.3839846	0.33195686	0.23667353
895581165449817	1.8696522	-0.124341965	-0.20067805
895581170515735	1.4867059	-0.5434265	-0.37054753
895581175581653	1.1150975	-1.0117683	-0.3546481
895581180647571	0.72076213	-1.2498655	-0.28767526
895581185713489	0.4049132	-1.5093222	-0.35106844
895581190809924	0.23469794	-1.662426	-0.44283658
895581195875842	0.3293655	-1.6041613	-0.3931414
895581200941760	0.35586596	-1.3454647	-0.06751263
895581206007678	0.13972771	-1.1362257	0.3708117
895581211073596	-0.10975337	-0.93315506	0.7051853
895581216139514	-0.16776597	-0.67859554	1.0266943
895581221205432	-0.10217643	-0.46317673	1.3598907
895581226301868	-0.16566288	-0.14912415	1.6536744
895581231367786	-0.6162622	0.01365757	1.8458341
895581236433704	-0.9732486	0.1174078	1.8909595
895581241499622	-1.0372883	0.27566338	1.775002
895581246565539	-1.1663773	0.32317066	1.311918
895581251631457	-1.3660157	0.3793602	0.75434315
895581256697375	-1.4941866	0.27418613	0.21177173
895581261763293	-1.7965599	0.0913105	-0.2390418
895581266859729	-2.0622635	0.0805006	-0.60799503
895581271925647	-2.2497182	0.03935051	-0.9129752
895581276991565	-2.3887062	-0.08590412	-1.1310132
895581282057483	-2.5169318	-0.2520504	-1.230694
895581287123401	-2.5667584	-0.5377598	-1.3148345
895581292189319	-2.701349	-0.8984642	-1.2866232
895581297255237	-2.804862	-1.2070856	-1.081568
895581302351672	-2.8190386	-1.3535204	-0.74501145
895581307417590	-2.8664336	-1.3689728	-0.39685035
895581312483508	-2.8600116	-1.3348427	-0.10077357
895581317549426	-2.884829	-1.2212982	0.06691909
895581322615344	-2.9362683	-0.90052414	0.18299103
895581327681262	-2.8996482	-0.54260635	0.18200827
895581332747180	-2.893452	-0.19903183	0.14108872
895581337813098	-2.8912444	0.1898489	-0.014431238
895581342909534	-2.89183	0.4864645	-0.23020482
895581347975452	-2.8712804	0.65012455	-0.46830058
895581353041370	-2.85458	0.8255434	-0.5679538
895581358107288	-2.824551	0.8833847	-0.6649225
895581363173205	-2.9504611	0.86908245	-0.8363724
895581368239123	-3.0378528	0.90330887	-1.0541534
895581373305041	-3.1435976	1.0193233	-1.1792359
895581378370959	-3.3638618	1.0316906	-1.3254089
895581383467395	-3.5010896	1.1223345	-1.4262145
895581388533313	-3.766276	1.2529497	-1.3171611
895581393599231	-4.06387	1.2920313	-1.1042025
895581398665149	-4.346024	1.4417715	-0.8917408
895581403731067	-4.651244	1.644618	-0.5710373
895581408796985	-4.894795	1.8394623	-0.2304976
895581413862903	-4.9642506	1.9592905	-0.14496493
895581418928821	-4.9109454	1.8870726	-0.30123067
895581424025256	-5.0276	1.7033377	-0.64353347
895581429091174	-5.234099	1.5340366	-1.034338
895581434157092	-5.427498	1.458251	-1.389535
895581439223010	-5.4693313	1.5690403	-1.570333
895581444288928	-5.4099593	1.9017591	-1.6286192
895581449354846	-5.278254	2.392414	-1.6612592
895581454420764	-5.232586	2.9363985	-1.6211231
895581459486682	-5.23996	3.3886843	-1.5164611
895581464583118	-5.346306	3.6966639	-1.4658837
895581469649036	-5.4108624	3.8556824	-1.3098431
895581474714954	-5.4239354	4.0069685	-1.1602588
895581479780872	-5.300954	4.0824366	-0.972805
895581484846789	-5.002522	3.832387	-0.7713344
895581489912707	-4.6343355	3.3171597	-0.6168779
895581494978625	-4.414499	2.6950598	-0.7029325
895581500044543	-4.383005	2.1063862	-0.9085784
895581505140979	-4.2452126	1.5585508	-1.0367799
895581510206897	-3.8547158	1.1801262	-1.068166
895581515272815	-3.3555741	0.94124126	-1.0030645
895581520338733	-2.7422316	0.7451334	-0.965783
895581525404651	-1.9556006	0.5273924	-1.2221
895581530470569	-1.1557654	0.37683773	-1.7014672
895581535536487	-0.40025872	0.45873737	-2.4662647
895581540602405	0.18972841	0.75177383	-3.269582
895581545698840	0.53650296	1.2083817	-3.8633604
895581550764758	0.7775464	1.832613	-4.0173874
895581555830676	1.4164119	2.6665392	-3.3753273
895581560896594	2.270481	3.8214111	-1.9537101
895581565962512	3.3881893	5.0624886	-0.13865507
895581571028430	4.719677	5.9506006	1.7709911
895581576094348	5.688031	6.534667	3.4604328
895581581160266	6.1670747	6.8527575	4.8550267
895581586256702	5.998855	6.8870287	5.6503854
895581591322620	5.3051033	6.52862	5.5595155
895581596388538	4.6932693	5.9203453	4.6353498
895581601454455	4.416495	5.2345343	3.4878354
895581606520373	4.1560507	4.71284	2.2262347
895581611586291	3.5004876	4.312248	1.0139134
895581616652209	2.8974059	4.014928	0.11275667
895581621748645	2.4942124	3.86909	-0.4839862
895581626814563	2.01341	4.0157547	-0.99555033
895581631880481	1.3315368	4.266513	-1.1356459
895581636946399	0.2523706	4.338463	-0.9655417
895581642012317	-0.74274063	4.201933	-0.56124103
895581647078235	-1.2240968	4.0058346	-0.25507927
895581652144153	-1.304038	3.941554	-0.6147288
895581657210071	-0.95718884	3.8787231	-0.74267745
895581662306506	-0.5718632	3.7472792	-0.061536312
895581667372424	-0.86149526	3.4685488	0.33409548
895581672438342	-1.156539	3.0084486	0.45841038
895581677504260	-1.2503726	2.4767733	0.41319597
895581682570178	-0.013230085	1.9554739	0.37152195
895581687636096	1.1630809	1.1750746	0.56379414
895581692702014	1.1957414	0.20250797	1.0111405
895581697767932	0.8174615	-0.57958126	1.4484208
895581702833850	0.29012537	-1.4393892	1.897798
895581707930286	0.5227432	-2.3984976	2.1375012
895581712996204	0.6235347	-3.1407623	2.1455722
895581718062122	0.92442274	-3.832263	2.0386863
895581723128039	1.3221712	-4.545971	2.1095166
895581728193957	2.0252614	-5.448043	2.0593984
895581733259875	1.1717677	-5.199438	1.0976745
895581738325793	1.938807	-5.308842	1.1474025
895581743391711	3.0315676	-5.6919866	1.3636973
895581748488147	3.3103442	-5.8978906	1.3526747
895581753554065	3.7253585	-6.1013923	1.3073368
895581758619983	4.0697546	-6.219973	1.4514279
895581763685901	4.2338815	-6.311065	1.5634501
895581768751819	4.625898	-6.3243723	1.6757257
895581773817737	4.810899	-6.3183994	1.6528416
895581778914172	4.949824	-6.261942	1.6285744
895581783980090	5.0646844	-6.192247	1.7489355
895581789046008	5.2417345	-6.1571336	1.8797061
895581794111926	5.368822	-6.112328	2.0109193
895581799177844	5.6555576	-6.0434594	2.1542323
895581804243762	5.9539523	-6.050911	2.390366
895581809309680	6.216702	-5.9934072	2.6577892
895581814375598	6.3686886	-5.9295983	2.9167526
895581819441516	6.521346	-5.8224688	3.1037729
895581824507434	6.6999235	-5.612165	3.2356844
895581829573352	6.770666	-5.4134603	3.1871417
895581834639270	6.72906	-5.318255	3.0852568
895581839735705	6.4566255	-5.237933	2.868163
895581844801623	6.1758866	-5.1245027	2.5558333
895581849867541	5.99646	-4.9338026	2.202399
895581854933459	5.616894	-4.7053504	1.8187947
895581859999377	5.294348	-4.5001426	1.3990242
895581865065295	4.811164	-4.3324966	0.9334161
895581870131213	4.2727423	-4.088709	0.39078927
895581875197131	3.6026437	-3.9362373	-0.17156434
895581880263049	2.655183	-3.6991453	-0.90566015
895581885359485	1.5976322	-3.2796922	-1.668201
895581890425403	0.30899024	-2.5785837	-2.4697742
895581895491321	-1.0717278	-1.5928144	-3.5043979
895581900557239	-2.162774	-0.13732815	-4.4938054
895581905623157	-3.1677616	1.5044422	-5.530568
895581910689075	-4.56036	3.2254715	-6.2990303
895581915754993	-5.840993	5.284878	-6.4649687
895581920851428	-7.3949776	7.5615263	-6.6324863
895581925917346	-9.35133	9.91709	-7.1227508
895581930983264	-11.465269	12.213679	-7.2556314
895581936049182	-14.895477	13.920015	-6.3608766
895581941115100	-17.227085	14.727052	-5.261074
895581946181018	-16.903002	14.142924	-4.660489
895581951246936	-14.78855	12.19223	-4.560527
895581956312854	-11.578217	9.607125	-4.6494074
895581961378772	-8.372598	7.0322256	-4.975045
895581966475207	-5.4961386	4.7153387	-5.405718
895581971541125	-3.0394504	2.619748	-5.543608
895581976607043	-1.0434415	0.77325344	-5.07635
895581981672961	0.67039204	-0.9239588	-4.3513284
895581986738879	2.3111157	-2.6475925	-3.5839472
895581991804797	3.4321005	-4.0633135	-2.5347924
895581996870715	3.3072293	-4.203475	-1.3140893
895582001967151	3.888784	-3.6252718	-0.6194289
895582007033069	4.556859	-2.484641	-0.14461207
895582012098987	4.6239634	-0.5399723	0.38183296
895582017164905	4.9189887	1.3438997	1.2657276
895582022230823	5.7395825	2.5585003	2.6306062
895582027296741	6.7179203	3.5938473	4.4610863
895582032362659	7.438203	4.7419653	6.1742034
895582037428577	7.4870033	5.80093	6.519397
895582042525012	7.2719173	6.728093	5.5883007
895582047590930	7.0204873	7.645153	4.428561
895582052656848	6.800284	7.964059	3.909206
895582057722766	6.4481106	6.957861	3.973333
895582062788684	5.7489443	4.443343	3.542723
895582067854602	4.5907116	1.0320702	1.99408
895582072920520	3.6182315	-1.626131	-0.45575392
895582077986438	3.7138731	-3.3189335	-2.6200283
895582083052356	4.096116	-3.9939957	-2.7885766
895582088148791	3.8840358	-3.5337029	-1.043849
895582093214709	2.9552135	-2.2756672	1.1174221
895582098280627	1.8878458	-1.2676077	2.5123487
895582103346545	1.1312125	-0.53503513	3.3811092
895582108412463	0.63815117	-0.12450123	3.7110753
895582113508899	0.22998786	-0.15870667	3.7720997
895582118574817	0.010926962	-0.2423544	3.6553137
895582123640735	-0.14493895	-0.5175915	3.7390857
895582128706653	-0.39989018	-0.9025545	4.087691
895582133772571	-0.49863386	-1.2376671	4.584345
895582138838489	-0.22529387	-1.2187986	5.168647
895582143904407	0.109411	-1.0715446	5.533758
895582148970325	0.1887989	-0.8381071	5.5465016
895582154036243	0.24635386	-0.44486618	5.28375
895582159102161	0.18747973	0.20187092	4.7953944
895582164198596	-0.13537979	0.9336128	4.2192187
895582169264514	-0.5007646	1.4196358	3.4974902
895582174330432	-0.47595525	1.8238201	2.5503173
895582179396350	-0.07808232	2.1198664	1.8298914
895582184462268	0.42482567	2.2935667	1.5357367
895582189528186	0.63348055	2.2326574	1.5512828
895582194594104	0.7878423	1.7434864	1.5715808
895582199660022	0.94017005	1.1357613	1.0988579
895582204756457	1.5136213	0.5754051	0.6569805
895582209822375	1.4261265	0.026508331	0.5421988
895582214888293	1.4123497	-0.6509571	0.31223956
895582219954211	1.2635071	-1.4834042	0.13646558
895582225020129	0.7573068	-2.1182518	0.33000988
895582230086047	0.7289238	-2.052907	0.6598264
895582235182483	0.82075644	-1.8494053	0.72356296
895582240248401	0.99076664	-1.7936268	0.64341164
895582245314319	1.2230778	-1.6808605	0.5864915
895582250380237	1.3583639	-1.4978819	0.49961025
895582255446155	1.346408	-1.4000006	0.6083552
895582260512073	1.2349336	-1.3546848	0.7933486
895582265577991	1.1494708	-1.3869066	1.0299186
895582270643909	1.0986865	-1.3076353	1.1211185
895582275740344	1.0268999	-1.2173529	1.0697935
895582280806262	0.83447397	-1.1315193	1.0030756
895582285872180	0.37317455	-0.92214394	0.97695553
895582290968616	-0.06315529	-0.84405136	0.9845886
895582296034534	-0.25942433	-0.7715626	0.91330206
895582301100452	-0.46798074	-0.6329479	0.7101971
895582306166370	-0.790053	-0.61834145	0.4480015
895582311232288	-1.1124756	-0.6834192	0.1391331
895582316298205	-1.2209058	-0.74798584	-0.047516227
895582321364123	-1.2621719	-0.79412746	-0.12823927
895582326460559	-1.2983189	-0.9677944	-0.22680676
895582331526477	-1.1778401	-1.0871773	-0.2734002
895582336592395	-1.1994209	-1.2025938	-0.25884008
895582341658313	-1.2744927	-1.3020964	-0.24516678
895582346724231	-1.3136277	-1.4610701	-0.227368
895582351790149	-1.2777828	-1.5515718	-0.14301407
895582356856067	-1.2994809	-1.5521364	-0.11153114
895582361921985	-1.4640999	-1.4377232	-0.08475101
895582367018420	-1.4751234	-1.2240095	-0.108195424
895582372084338	-1.4705806	-1.0330992	-0.16565835
895582377150256	-1.4782977	-0.87815285	-0.27615154
895582382216174	-1.4539258	-0.7735195	-0.466802
895582387282092	-1.5658005	-0.6737652	-0.69172573
895582392348010	-1.7799873	-0.5992775	-0.8560536
895582397413928	-2.01121	-0.45925426	-1.0037665
895582402479846	-2.2710397	-0.06963158	-1.010546
895582407545764	-2.5577016	0.4030714	-0.8981743
895582412642200	-2.891345	0.9671402	-0.7339189
895582417708118	-3.2011974	1.5231419	-0.5666714
895582422774036	-3.512243	1.9073019	-0.5221932
895582427839954	-3.7187376	2.1234283	-0.55290246
895582432905872	-3.978045	2.225603	-0.5791447
895582437971789	-4.2811327	2.2008495	-0.5296972
895582443037707	-4.603464	2.1377668	-0.4539435
895582448134143	-4.9005694	2.0961046	-0.4247961
895582453200061	-5.13568	2.013526	-0.54382133
895582458265979	-5.2143164	1.8709745	-0.7012377
895582463331897	-5.2723947	1.6566429	-0.81394744
895582468397815	-5.6991053	1.5547609	-0.8897097
895582473463733	-6.1090207	1.746872	-0.80665183
895582478529651	-6.307737	2.2480078	-0.6408591
895582483626086	-6.298651	2.87823	-0.6317959
895582488692004	-6.146315	3.3909616	-0.8084533
895582493757922	-5.91786	3.605795	-1.0218999
895582498823840	-5.7648435	3.631959	-1.1656649
895582503889758	-5.6280975	3.5306664	-1.1703682
895582508955676	-5.516411	3.5076456	-1.0163841
895582514021594	-5.6344934	3.4824543	-0.88211274
895582519087512	-5.54338	3.5529776	-0.78448963
895582524153430	-5.3337965	3.6700287	-0.81876874
895582529249866	-4.9377522	3.6888208	-0.9150716
895582534315784	-4.3614845	3.4781523	-1.0081476
895582539381702	-3.832325	2.9821768	-1.0896907
895582544447620	-3.6723115	2.3447752	-1.2132312
895582549513538	-3.736564	1.8602629	-1.1997213
895582554579455	-3.732088	1.5559645	-1.1020116
895582559645373	-3.5363595	1.3671503	-1.0530766
895582564711291	-3.1737916	1.1348438	-1.1573485
895582569807727	-2.6317215	0.7828369	-1.4267937
895582574873645	-1.9670876	0.2915783	-1.8358307
895582579939563	-1.2943469	-0.10636234	-2.4424543
895582585005481	-0.6409284	-0.3064394	-3.0197453
895582590071399	-0.13109383	-0.33573532	-3.5351346
895582595137317	0.43237126	-0.12919998	-3.9181721
895582600233752	0.9491137	0.51918507	-4.1017714
895582605299670	1.3907938	1.6190834	-3.8520963
895582610365588	2.1298637	2.9789457	-2.990317
895582615431506	2.9697337	4.236129	-1.5014496
895582620497424	4.107536	5.2051153	0.2312708
895582625563342	5.082514	5.845065	2.0411966
895582630629260	5.7479486	6.292141	3.6532636
895582635695178	6.0414715	6.5868826	4.7693267
895582640791614	5.789733	6.572919	5.1715956
895582645857532	5.16363	6.0936728	4.8419724
895582650923450	4.7599254	5.495207	4.0695357
895582655989368	4.5132437	5.0069656	3.1968408
895582661055286	4.23601	4.5580387	2.3632002
895582666121204	3.445587	4.159135	1.6853349
895582671187122	2.2597463	3.772213	1.2647656
895582676253039	1.1419754	3.7838955	0.88745284
895582681349475	-0.1670165	3.773796	0.61515486
895582686415393	-1.0069189	3.9286814	0.22851944
895582691481311	-1.2553356	4.056283	-0.21610379
895582696547229	-1.5656621	4.1312904	-0.31370068
895582701613147	-1.909581	3.9979677	-0.63578844
895582706679065	-2.720345	3.4438705	-0.6906055
895582711744983	-2.4118254	2.999586	-0.054564834
895582716810901	-0.79190946	2.9408417	0.3313483
895582721876819	-0.24061966	2.6289644	0.32676733
895582726942737	-0.03170204	2.1999226	-0.03243804
895582732008655	0.49144602	1.8531685	-0.21605992
895582737074573	0.9918618	1.6272955	0.042339325
895582742140491	1.4531944	0.887023	0.32673335
895582747236926	1.8550711	0.100691795	0.8532878
895582752302844	1.0980906	-0.67367744	1.3727765
895582757368762	0.7689719	-1.3666239	1.7015797
895582762434680	1.1776743	-2.0432587	1.8922666
895582767500598	1.297308	-2.5170784	2.0915222
895582772566516	1.3782115	-3.038	1.9727893
895582777632434	1.2942214	-3.511567	2.022303
895582782698352	1.5803213	-4.0191975	1.657125
895582787794788	2.2763705	-4.3311825	1.1996293
895582792860705	2.4783068	-4.566567	0.79034495
895582797926623	3.1003885	-4.7912445	0.6516011
895582802992541	3.5445943	-4.9656873	0.8262086
895582808058459	3.8138475	-5.0897603	0.96756005
895582813124377	4.0255756	-5.143043	1.113462
895582818190295	4.2027574	-5.2234783	1.2548628
895582823256213	4.364799	-5.2532	1.4397168
895582828352649	4.6553464	-5.358913	1.5317991
895582833418567	4.891554	-5.3887515	1.59758
895582838484485	5.0020156	-5.3941865	1.7839487
895582843550403	5.114831	-5.4219785	2.1311579
895582848616321	5.2780805	-5.4589376	2.494021
895582853682239	5.3747206	-5.531341	2.8483317
895582858748157	5.603336	-5.5232906	3.151945
895582863814075	5.7524524	-5.494671	3.3578022
895582868879993	5.7988243	-5.4980173	3.476142
895582873976428	5.880144	-5.406655	3.538937
895582879042346	5.8782115	-5.3522196	3.5471087
895582884108264	5.831317	-5.2725244	3.486308
895582889174182	5.725029	-5.19864	3.312637
895582894240100	5.5042353	-5.1376863	2.9942772
895582899306018	5.283845	-5.004672	2.623585
895582904371936	5.0494113	-4.8008447	2.274819
895582909468372	4.7912908	-4.559765	1.9179192
895582914534289	4.5374565	-4.303832	1.5412264
895582919600207	4.150487	-4.1573687	1.0953085
895582924666125	3.7107759	-4.0112696	0.6340506
895582929732043	3.0688958	-3.8319974	0.017616034
895582934797961	2.2391188	-3.5621424	-0.73442125
895582939863879	1.337034	-3.0021572	-1.5996103
895582944929797	0.2697618	-2.1500573	-2.4871118
895582950026233	-0.80348444	-0.9872651	-3.4065824
895582955092151	-1.7072954	0.43980694	-4.30122
895582960158069	-2.636989	1.9207859	-5.1572933
895582965223987	-3.6706197	3.4958086	-5.8667006
895582970289905	-4.8156395	5.2650566	-6.312513
895582975355823	-6.3532753	7.197298	-6.7714157
895582980421741	-8.301942	9.006496	-7.095647
895582985518176	-10.772825	10.706584	-6.9772654
895582990584094	-13.537646	12.063691	-6.1825337
895582995650012	-15.459787	12.826879	-5.07615
895583000715930	-15.001596	12.741149	-4.266911
895583005781848	-12.867097	11.252138	-4.030139
895583010847766	-10.465376	9.034043	-4.0885625
895583015913684	-8.122052	6.8214817	-4.3535285
895583021010120	-5.773533	4.7053776	-4.778079
895583026076038	-3.7538965	2.6887312	-4.9389977
895583031141955	-1.9190955	1.2350197	-5.102671
895583036207873	-0.80599785	0.026605606	-4.9606037
895583041273791	0.21809721	-1.1638012	-4.3303185
895583046339709	1.4535353	-2.3009272	-3.693861
895583051405627	2.4156349	-3.1447697	-3.1320653
895583056502063	3.197434	-3.459262	-2.5570312
895583061567981	3.7599335	-3.1980438	-2.1186302
895583066603381	3.8753536	-2.4547415	-1.7508589
895583071699817	3.8641956	-1.3674374	-1.2322898
895583076765735	4.2389	-0.17174244	-0.257653
895583081831653	4.9907885	0.8919382	1.1859714
895583086897571	6.018003	1.9221191	3.5084987
895583091963489	6.662326	3.1329699	6.3476677
895583097059924	6.486901	4.432514	8.326678
895583102125842	5.6316757	5.996414	8.69002
895583107222278	4.4160376	7.7376394	7.298712
895583112288196	3.400226	8.924422	5.2249684
895583117354114	2.982399	8.974596	3.870464
895583122420032	3.0935037	7.2762156	3.238789
895583127485950	2.8913507	3.7243156	2.448913
895583132551868	2.6275806	0.41432285	0.82306296
895583137617786	3.178194	-1.7388601	-1.14889
895583142683704	4.163471	-3.054244	-2.3336148
895583147749622	4.959285	-3.461958	-2.1125913
895583152846057	4.886947	-3.2394438	-0.8681648
895583157911975	3.8509736	-3.03442	0.67904043
895583162977893	2.4524038	-3.0496254	1.9503341
895583168043811	1.6655493	-2.9196796	2.9506166
895583173109729	1.400989	-2.5122824	3.6876526
895583178175647	1.3619561	-2.2088003	3.9621944
895583183241565	1.4081774	-1.9834347	3.926845
895583188307483	1.4018111	-1.7579546	3.9745789
895583193373401	1.3479819	-1.6182451	4.4194183
895583198469836	1.4710104	-1.21276	5.222202
895583203535754	1.70368	-0.73724365	6.0113397
895583208601672	1.700077	-0.18404293	6.4180064
895583213667590	1.5437572	0.4200859	6.6017675
895583218733508	1.1267159	0.966939	6.467407
895583223799426	0.40432572	1.4953661	6.07755
895583228865344	-0.26919818	1.9291105	5.197895
895583233961780	-0.71093106	2.118742	3.9291544
895583239027698	-0.646858	2.1498003	2.6550148
895583244093616	-0.25012684	2.0393314	1.6725751
895583249159534	0.25099254	1.7161217	1.028249
895583254225452	0.5958314	1.3444042	0.5849432
895583259291370	0.6630256	0.96006393	0.19087896
895583264357288	0.6008365	0.34046078	-0.2119582
895583269423205	0.69659853	-0.15458488	-0.49621692
895583274519641	0.6955366	-0.43475246	-0.5710647
895583279585559	0.19245696	-0.8650608	-0.41350788
895583284651477	-0.39338207	-1.1909714	-0.2678916
895583289717395	-0.8408284	-1.2180424	-0.083931744
895583294783313	-0.64559305	-1.2267866	0.0071868896
895583299849231	0.21200669	-1.5546217	-0.08290535
895583304915149	0.1485089	-1.8377895	-0.03114885
895583310011584	-0.127177	-1.9568882	-0.012986958
895583315077502	-0.12779069	-1.8105488	0.0275231
895583320143420	0.009533405	-1.5137014	0.008089364
895583325209338	0.14597583	-1.2313013	-0.059482753
895583330275256	0.19666982	-1.0946426	-0.050380647
895583335341174	0.34367692	-1.0782652	0.1673131
895583340407092	0.538381	-1.0839558	0.4079147
895583345473010	0.64525104	-1.0245132	0.62314224
895583350569446	0.70428586	-0.8846636	0.6722187
895583355635364	0.6424607	-0.7161989	0.6935743
895583360701282	0.25541532	-0.6759548	0.77882445
895583365767200	0.25370026	-0.66467094	0.74270225
895583370833118	0.16588533	-0.64645195	0.6172141
895583375899036	-0.14893234	-0.6834049	0.30114794
895583380964954	-0.5079669	-0.75745964	0.018276095
895583386030872	-0.78875875	-0.7680588	-0.21242857
895583391127307	-1.0103765	-0.6865015	-0.3601365
895583396193225	-1.2063613	-0.7028885	-0.40140855
895583401259143	-1.4324975	-0.82185364	-0.41457403
895583406325061	-1.5335503	-0.9225035	-0.43668377
895583411390979	-1.5683417	-1.0610008	-0.35283113
895583416456897	-1.615546	-1.263546	-0.1975466
895583421522815	-1.6364362	-1.4547138	-0.017241478
895583426619250	-1.6454072	-1.6009722	0.15585661
895583431685168	-1.5968508	-1.6617851	0.27957988
895583436751086	-1.6150739	-1.6838665	0.37088025
895583441817004	-1.7153702	-1.6864204	0.23386145
895583446882922	-1.8377845	-1.5965052	0.10193622
895583451948840	-2.0239117	-1.4477081	-0.096824884
895583457014758	-2.2591217	-1.2854881	-0.3002168
895583462111194	-2.4814343	-1.0667915	-0.5753838
895583467177112	-2.6597123	-0.7714319	-0.73653924
895583472243030	-2.8454154	-0.43898487	-0.95367384
895583477308948	-3.128994	-0.019357681	-1.1750095
895583482374866	-3.4179301	0.5075598	-1.4158549
895583487440784	-3.7262018	1.1056767	-1.6210546
895583492506702	-4.013859	1.8106384	-1.6577096
895583497572620	-4.25293	2.3280706	-1.595099
895583502669055	-4.3571773	2.7249918	-1.3899312
895583507734973	-4.444952	2.8888779	-1.099226
895583512800891	-4.5659537	2.7122803	-0.8244772
895583517866809	-4.5974684	2.3413563	-0.6983633
895583522932727	-4.747293	1.9424963	-0.61700845
895583527998645	-4.976843	1.6604156	-0.58911705
895583533064563	-5.1449614	1.6504097	-0.46538568
895583538160998	-5.209061	1.9766731	-0.3774681
895583543226916	-5.203953	2.4761372	-0.3814168
895583548292834	-5.193636	3.0792236	-0.5834489
895583553358752	-5.2088356	3.6747942	-1.0625978
895583558424670	-5.153695	4.0598145	-1.4916694
895583563490588	-5.0469465	4.178544	-1.7732112
895583568556506	-4.994332	4.050495	-1.8464296
895583573622424	-5.116927	3.879078	-1.7059746
895583578718860	-5.1516476	3.7787771	-1.4401346
895583583784778	-5.2780952	3.7002335	-1.2066274
895583588850696	-5.2889137	3.6849499	-0.972764
895583593916614	-5.1199026	3.690876	-0.8201302
895583598982532	-4.7316437	3.56734	-0.8273041
895583604048450	-4.3612614	3.1352797	-0.8935245
895583609114368	-4.3564568	2.5255318	-1.1368347
895583614180286	-4.3560853	1.9346695	-1.4445494
895583619246204	-4.3194933	1.346282	-1.5743675
895583624342639	-4.1093864	0.77263355	-1.5197538
895583629408557	-3.7362976	0.16523838	-1.3793665
895583634474475	-3.2673135	-0.38002205	-1.267396
895583639540393	-2.579991	-0.82949924	-1.3600099
895583644606311	-1.7426333	-1.1112223	-1.8389518
895583649672229	-0.92500514	-1.0347986	-2.4296384
895583654738147	-0.27930975	-0.667017	-3.151247
895583659834582	0.08000335	-0.07087326	-3.9784248
895583664900500	0.737262	0.81635284	-4.6146426
895583669966418	1.6517892	2.1825876	-4.461327
895583675032336	2.430922	3.8960752	-3.4054809
895583680098254	3.2092102	5.4290886	-1.5289838
895583685164172	4.5782933	6.6439056	0.83988327
895583690230090	6.126385	7.550993	3.2579436
895583695296008	7.148124	8.048591	5.214868
895583700361926	7.187112	8.187122	6.4312983
895583705458362	6.43793	7.866599	6.618394
895583710524280	6.055415	7.303357	5.828478
895583715590198	5.9705753	6.638489	4.643644
895583720656116	5.451034	5.8885927	3.4624596
895583725722034	4.3697214	5.0586443	2.2610095
895583730787952	2.484252	4.052188	1.4104147
895583735884387	0.63765574	3.6876516	0.8708918
895583740950305	-0.8059397	3.6485653	0.5302397
895583746016223	-1.3028445	3.9034424	0.10738945
895583751082141	-1.3739417	4.285675	-0.44506752
895583756148059	-1.6246104	4.47151	-0.9338845
895583761213977	-1.892178	4.2692585	-1.3682821
895583766279895	-2.36926	3.6166592	-0.9506266
895583771376330	-2.1305377	3.040636	0.57042384
895583776442248	-1.3424528	2.9249935	1.318975
895583781508166	-0.60449266	2.8430653	0.9823744
895583786574084	-0.18536258	2.6200733	0.12742472
895583791640002	0.39843845	2.2548103	-0.5829716
895583796705920	1.0748839	1.6555214	-0.71343637
895583801771838	1.5350182	0.9075718	-0.21834886
895583806837756	1.6053455	0.19730282	0.7709582
895583811903674	1.3952188	-0.7846575	1.4031731
895583817000110	0.89029026	-1.7205324	2.0105965
895583822066028	0.46226072	-2.4389095	2.3288445
895583827131946	0.2098031	-3.0643797	2.5391338
895583832197864	0.35592175	-3.8074808	2.6068485
895583837263782	1.1331892	-4.5184927	2.215183
895583842329700	1.1679912	-5.03839	1.8427746
895583847395618	1.2609634	-5.468285	1.4910645
895583852461536	1.7273626	-5.635435	1.2431219
895583857557971	2.1870909	-5.679797	1.2006171
895583862623889	2.4336162	-5.6482162	1.2984223
895583867689807	2.8405075	-5.7784348	1.4079652
895583872755725	3.199541	-5.8442535	1.5810049
895583877821643	3.6878986	-5.802588	1.7065728
895583882887561	4.190942	-5.7681947	1.7226367
895583887953479	4.5487623	-5.699136	1.7629812
895583893049914	4.8920183	-5.709085	1.8309503
895583898115832	5.2377543	-5.678486	2.0332067
895583903181750	5.5587873	-5.618068	2.2846284
895583908247668	5.867481	-5.58991	2.5454872
895583913313586	6.1619196	-5.587851	2.815401
895583918379504	6.418682	-5.5795465	3.0471804
895583923445422	6.605831	-5.4992795	3.2427504
895583928541858	6.7691584	-5.4475956	3.3812654
895583933607776	6.9429073	-5.445828	3.4860203
895583938673694	7.043478	-5.4305305	3.4756553
895583943739612	6.9981117	-5.4422803	3.4173536
895583948805530	6.8847027	-5.5466623	3.2277668
895583953871448	6.697386	-5.524562	2.9516792
895583958937366	6.4301844	-5.4095144	2.5931497
895583964003284	6.1919246	-5.258881	2.2541842
895583969069202	5.9323797	-5.0187964	1.8547828
895583974165637	5.5547085	-4.804193	1.4461055
895583979231555	5.114419	-4.6433325	0.9927051
895583984297473	4.4882007	-4.455011	0.5134058
895583989363391	3.7084384	-4.269115	-0.053988934
895583994429309	2.7836053	-4.017408	-0.7666614
895583999495227	1.7231193	-3.622213	-1.5667408
895584004561145	0.63767624	-2.9198904	-2.5836337
895584009627063	-0.46277285	-1.8162098	-3.6383789
895584014723498	-1.6463742	-0.25785065	-4.6965704
895584019789416	-2.7881403	1.7193174	-5.864661
895584024855334	-3.6233008	4.0073357	-6.906192
895584029921252	-4.6578255	6.6341143	-7.6382823
895584034987170	-6.666298	9.305239	-8.22896
895584040053088	-9.071413	11.700395	-8.638633
895584045119006	-12.14374	13.513386	-8.411867
895584050184924	-15.871131	14.610017	-6.969401
895584055281360	-17.505579	14.788661	-5.001323
895584060347278	-16.239498	13.793764	-3.8887644
895584065413196	-13.666201	11.56206	-3.900845
895584070479114	-10.81893	8.717282	-4.15839
895584075545032	-8.22144	6.1894875	-4.297787
895584080610950	-5.5230303	4.017254	-4.4519467
895584085707385	-2.5613418	1.8699465	-4.8202324
895584090773303	-0.7403481	0.1336832	-4.7894907
895584095839221	-0.12047219	-0.6456833	-3.8193443
895584100905139	1.2326312	-1.3699121	-2.7229168
895584105971057	3.1080425	-2.8705177	-2.0928266
895584111036975	3.4693246	-3.8380184	-1.6398304
895584116102893	3.1149225	-3.3995733	-1.49065
895584121168811	3.5825071	-2.803194	-1.4346284
895584126234729	3.6795144	-1.8616743	-1.0550506
895584131331164	4.009244	-0.86448956	-0.30171084
895584136397082	4.776391	-0.16310596	1.0372758
895584141463000	5.753319	0.3469839	2.9104025
895584146528918	6.5850015	0.9301462	5.073588
895584151594836	6.9998875	1.86267	6.950901
895584156691272	6.59257	3.143962	7.8276095
895584161726672	5.7695026	5.0777655	7.1011477
895584166823108	4.7821035	7.2299824	5.5894127
895584171889026	4.273842	8.629262	4.4291587
895584176954944	4.5083113	8.754827	3.7954924
895584182020862	4.6257915	7.24197	3.3382514
895584187086780	4.2711926	4.104519	1.8463097
895584192152698	3.6163368	0.9855671	-0.89274454
895584197218616	3.6726503	-1.1667519	-3.0754943
895584202284534	4.1712418	-2.408865	-3.2926202
895584207380969	4.251479	-2.891241	-1.7043529
895584212446887	3.4611576	-2.7128649	0.5201016
895584217512805	1.9383683	-2.2668934	2.1845036
895584222578723	0.9321251	-2.0050545	3.3783984
895584227644641	0.4231584	-1.7076263	4.04162
895584232710559	0.2023766	-1.4512043	4.383402
895584237776477	0.29139042	-1.5127544	4.307176
895584242842395	0.54384804	-1.8578806	4.1251197
895584247908313	0.4706788	-2.2010508	4.2130394
895584253004748	0.22074103	-2.2969923	4.4016623
895584258070666	0.31999493	-2.0713673	4.7442975
895584263136584	0.66319275	-1.6282225	5.2262535
895584268202502	0.9110911	-1.0351162	5.7312183
895584273268420	1.0048981	-0.41811466	6.0384245
895584278334338	0.8858156	0.320302	6.018628
895584283430774	0.15590763	0.99018097	5.3256397
895584288496692	0.015816927	1.6063728	4.5298266
895584293562610	0.20239496	2.024252	3.4430838
895584298628528	0.36760283	2.2765694	2.3453867
895584303694446	0.63076496	2.3349152	1.5315665
895584308760364	0.95271134	2.1361046	0.8998464
895584313826282	1.2497003	1.8549013	0.35046828
895584318892200	1.3471489	1.3717203	-0.3189248
895584323958118	1.4305565	0.74768734	-0.7582552
895584329054553	0.9980942	0.117824554	-0.7216995
895584334120471	0.09981024	-0.38784885	-0.36704078
895584339186389	-0.43457866	-0.8214159	-0.15342069
895584344252307	0.030421495	-1.2443485	-0.28397506
895584349318225	0.5483296	-1.6257372	-0.30200988
895584354414661	0.30739093	-1.8247232	-0.2890808
895584359480579	0.09077263	-1.9266043	-0.29687786
895584364546497	-0.058541894	-1.968729	-0.20936894
895584369612414	-0.04430771	-1.7060595	-0.17115623
895584374678332	0.07448816	-1.3146248	-0.3085916
895584379744250	0.13135123	-1.1220598	-0.4073543
895584384810168	0.14418173	-1.0190973	-0.39941955
895584389876086	0.20031834	-1.1381512	-0.25335473
895584394942004	0.3322246	-1.2300901	0.10032451
895584400007922	0.40862668	-1.190896	0.48606026
895584405104358	0.61289227	-1.1607342	0.7888982
895584410170276	0.41315305	-1.3118868	1.106615
895584415236194	0.3855604	-1.417098	1.2826445
895584420302112	0.33804333	-1.3868914	1.2728142
895584425368030	0.18830955	-1.5001364	1.1100446
895584430433948	-0.004166484	-1.5343876	0.88268435
895584435530383	-0.23771346	-1.5519218	0.6053306
895584440596301	-0.4500147	-1.5395813	0.31719887
895584445662219	-0.7020356	-1.4973869	0.06619871
895584450728137	-0.92525566	-1.4731531	-0.1855483
895584455794055	-1.1466322	-1.4141483	-0.32873595
895584460859973	-1.3458836	-1.4756985	-0.33645415
895584465925891	-1.6114415	-1.5535564	-0.20900083
895584470991809	-1.6799407	-1.5292635	0.08472586
895584476057727	-1.7709272	-1.5141373	0.34053278
895584481154163	-1.789763	-1.4483614	0.47493362
895584486220080	-1.8187841	-1.2925863	0.3381964
895584491285998	-1.941725	-1.0995159	0.041748047
895584496351916	-1.973072	-0.8297281	-0.2839551
895584501417834	-2.0945203	-0.49167728	-0.68554115
895584506483752	-2.2421236	-0.14163876	-1.1066744
895584511549670	-2.468966	0.17853451	-1.5044811
895584516646106	-2.706654	0.4653654	-1.7406595
895584521712024	-2.9633825	0.7761345	-1.7720034
895584526777942	-3.2974083	1.0868244	-1.5747368
895584531843860	-3.6946898	1.3457832	-1.3363154
895584536909778	-4.184497	1.6843548	-0.9988358
895584541975696	-4.576021	1.9061451	-0.6899264
895584547041614	-4.8174143	2.0553036	-0.48333883
895584552107532	-5.097405	2.1987143	-0.37867785
895584557173450	-5.2868233	2.327838	-0.3182497
895584562269885	-5.432878	2.3960724	-0.4193151
895584567335803	-5.4445806	2.52065	-0.53010654
895584572401721	-5.1684136	2.6776524	-0.7382724
895584577467639	-5.080634	2.6603413	-1.0025508
895584582533557	-5.1082635	2.4978876	-1.199532
895584587599475	-5.2205048	2.3401546	-1.4331279
895584592665393	-5.2934523	2.32831	-1.417886
895584597761829	-5.3924336	2.4071646	-1.3127863
895584602827747	-5.2774243	2.691163	-1.151814
895584607893664	-5.0471797	2.974166	-0.99362445
895584612959582	-4.87783	3.1173124	-0.9342079
895584618025500	-4.724075	3.2964067	-0.7792187
895584623091418	-4.747197	3.4157066	-0.56420565
895584628157336	-4.823603	3.4512358	-0.4608972
895584633223254	-4.860866	3.4830828	-0.39666796
895584638319690	-4.8534265	3.4871483	-0.4065895
895584643385608	-4.7405868	3.3762932	-0.5075791
895584648451526	-4.395972	3.1996489	-0.7027917
895584653517444	-4.2135386	2.9023151	-0.78261817
895584658583362	-4.2081904	2.6064615	-0.8627236
895584663649280	-4.249414	2.3683014	-0.99137187
895584668715198	-4.1913013	2.1221704	-1.0949671
895584673811633	-3.9292111	1.7557983	-1.1774405
895584678877551	-3.4343028	1.3331842	-1.2636856
895584683943469	-2.8243573	0.872633	-1.419014
895584689009387	-2.0881505	0.38537407	-1.570427
895584694075305	-1.2483407	0.09434605	-1.887775
895584699141223	-0.41966623	0.12418938	-2.3627496
895584704207141	0.09257093	0.19539452	-3.0950055
895584709273059	0.56147695	0.45689583	-4.056844
895584714369495	0.7415589	1.1698112	-4.7268195
895584719435413	1.0690753	2.3581314	-4.6892047
895584724501330	1.8527806	3.531354	-3.7190642
895584729567248	2.7455053	4.61425	-1.9020746
895584734633166	3.7800853	5.466753	0.31848705
895584739699084	4.918094	6.252492	2.3196247
895584744765002	5.894661	6.882516	3.7986755
895584749861438	6.3777175	7.295803	4.931594
895584754927356	6.292712	7.4131556	5.5194964
895584759993274	5.8863177	7.117566	5.437491
895584765059192	5.803934	6.644799	4.855647
895584770125110	5.4939504	5.9448023	3.8071504
895584775191028	4.561758	5.0812044	2.6714487
895584780256946	3.0675647	4.198841	2.1608887
895584785322864	1.7579998	3.911376	1.9808762
895584790419299	0.26234627	3.7145233	1.7741178
895584795485217	-0.8710282	3.6816616	1.2137202
895584800551135	-1.4579184	3.6962452	0.024395704
895584805617053	-1.8039773	4.000782	-0.4553697
895584810682971	-1.7374098	4.394451	-1.1434094
895584815748889	-2.2694073	4.04741	-1.2366898
895584820845325	-2.7862897	3.409813	0.16525376
895584825911243	-2.0073383	3.1005669	0.950413
895584830977161	-0.8686502	2.87922	0.7316356
895584836043079	-0.35897422	2.5105066	0.21785963
895584841108997	-0.1873002	2.0016842	-0.064044
895584846174914	0.078103304	1.399106	0.12184119
895584851240832	0.64703894	0.7502146	0.6947485
895584856306750	1.1892772	0.14332199	1.4159623
895584861372668	1.7452991	-0.64268494	1.9728005
895584866438586	1.4112265	-1.7197428	2.276249
895584871535022	0.9108231	-2.8125095	2.231621
895584876600940	1.3098047	-3.5692997	2.1565666
895584881666858	1.9272614	-3.9983702	2.2993486
895584886732776	2.196827	-4.569414	2.1342363
895584891798694	2.3992553	-5.1088734	1.8462992
895584896864612	2.4960485	-5.5012207	1.7676163
895584901930530	2.7809973	-5.6788034	1.8251505
895584907026965	2.9395518	-5.715828	1.857038
895584912092883	3.2792387	-5.8277855	2.041118
895584917158801	3.3622994	-5.9104805	2.0572975
895584922224719	3.5295377	-5.9103193	2.060195
895584927290637	3.8500543	-5.92679	2.0640619
895584932356555	4.0728602	-5.9849057	2.099844
895584937422473	4.310729	-5.9483643	1.9734755
895584942518909	4.604634	-5.8448	1.9011421
895584947584827	4.755528	-5.781968	1.9425304
895584952650745	4.899041	-5.6857033	2.118658
895584957716663	5.1239996	-5.535793	2.5089114
895584962782580	5.356717	-5.438605	2.9668138
895584967848498	5.6895847	-5.3437586	3.3511097
895584972914416	5.987754	-5.230885	3.6461108
895584977980334	6.3198237	-5.0473022	3.7499607
895584983076770	6.5340548	-4.8827863	3.9389722
895584988142688	6.6834593	-4.764722	4.047926
895584993208606	6.704508	-4.7755966	4.0795116
895584998274524	6.6150656	-4.7406473	3.9755535
895585003340442	6.439069	-4.767523	3.742394
895585008406360	6.206399	-4.8274045	3.3432739
895585013472278	5.9590244	-4.7862945	2.8177633
895585018538196	5.668565	-4.781793	2.2851305
895585023634631	5.334051	-4.7852254	1.7254486
895585028700549	4.8363776	-4.74498	1.1326303
895585033766467	4.317732	-4.7605376	0.47268724
895585038832385	3.6941855	-4.778103	-0.29281306
895585043898303	3.0492868	-4.7594824	-1.1270249
895585048964221	2.3048604	-4.611537	-2.0180647
895585054030139	1.2882402	-4.1155853	-2.9570427
895585059126575	0.089458704	-3.2600183	-3.9163418
895585064192493	-1.0997558	-1.9285383	-4.806067
895585069258411	-2.381174	-0.2732439	-5.785888
895585074324329	-3.1680746	1.6667423	-6.7923546
895585079390247	-4.134544	3.911065	-7.6029797
895585084456164	-5.6129766	6.5752487	-8.178397
895585089522082	-7.346646	9.418518	-8.874338
895585094588000	-9.774273	11.919552	-9.117559
895585099684436	-14.132768	13.849713	-8.313305
895585104750354	-17.679403	15.261959	-6.515361
895585109816272	-18.327389	15.749669	-4.5876374
895585114882190	-16.634026	14.806565	-3.701696
895585119948108	-13.649528	12.582458	-3.699891
895585125014026	-10.112349	9.763095	-3.778418
895585130079944	-7.064564	6.895136	-4.1367183
895585135176379	-4.5175037	4.3622475	-4.6730647
895585140242297	-2.1650035	2.3150082	-4.8264956
895585145308215	-0.42905593	0.5038996	-4.363282
895585150374133	0.9251783	-0.8667784	-3.611755
895585155440051	2.0215623	-2.3865986	-2.5488315
895585160505969	3.0114522	-3.742692	-1.7388897
895585165571887	3.374114	-4.4276667	-1.6065574
895585170668323	3.5483158	-4.4600744	-1.4544505
895585175734241	3.8220675	-3.9869394	-1.0536985
895585180800159	4.036973	-2.9885206	-0.30692577
895585185866077	4.6429634	-1.9476967	0.81171
895585190931995	5.74934	-1.0251894	2.3590794
895585195997913	6.8636	-0.23220634	4.453889
895585201063830	7.7593994	0.7925129	6.9743624
895585206129748	7.82084	2.0845518	8.645055
895585211226184	7.250963	4.183179	8.553485
895585216292102	6.115965	6.8623962	7.561754
895585221358020	5.0277123	9.097608	6.4081507
895585226423938	4.9961205	9.924011	5.2002892
895585231489856	5.3637366	8.931249	4.216775
895585236555774	4.9164	5.856367	3.1607406
895585241621692	3.5548306	2.3238878	0.74445605
895585246687610	2.9895785	-0.29483318	-1.904779
895585251784045	3.4867084	-2.128313	-2.9556618
895585256849963	4.0496445	-2.8709793	-2.3297474
895585261915881	3.7131557	-2.6261015	-0.66770107
895585266981799	2.5215511	-1.9676256	1.1648242
895585272047717	1.4687185	-1.8029432	2.48446
895585277113635	0.9796412	-1.7279329	3.3164473
895585282210071	0.7227266	-1.4677219	3.622435
895585287275989	0.5371244	-1.4070559	3.7028596
895585292341907	0.5150752	-1.6913948	3.8015819
895585297407825	0.5431764	-2.0270224	3.8803482
895585302473743	0.73152065	-2.1731787	4.280715
895585307539661	1.0706816	-2.152421	4.949177
895585312605579	1.4838302	-1.9451561	5.4247384
895585317671497	1.7277284	-1.6308804	5.745693
895585322737414	1.718862	-1.1969204	5.8650517
895585327803332	1.5950861	-0.61878777	5.843074
895585332899768	1.3246217	0.17069054	5.8962274
895585337965686	1.0265572	1.0284281	5.7254033
895585343031604	0.6623676	1.5585928	5.050379
895585348097522	0.42728078	1.9159803	3.893289
895585353163440	0.3848729	2.129592	2.6990738
895585358229358	0.52651846	2.0836535	1.7089167
895585363295276	0.9249537	1.8249521	0.8876083
895585368391711	1.1578748	1.4012814	0.38003537
895585373457629	1.2338929	0.98733807	0.0793567
895585378523547	0.70678806	0.52558327	-0.22243282
895585383589465	0.17090154	-0.38584328	-0.5143868
895585388655383	-0.28936243	-1.1417656	-0.47392407
895585393721301	-0.7797129	-1.6985846	-0.32852396
895585398787219	-0.6474811	-2.1561403	-0.3535233
895585403853137	-0.39675176	-2.3690357	-0.5479238
895585408919055	-0.34765387	-2.3472395	-0.4733408
895585414015491	-0.28905642	-2.097103	-0.29780942
895585419081409	-0.15175307	-1.7312613	-0.25631356
895585424147327	-0.08131087	-1.269022	-0.34771144
895585429213245	-0.20979989	-0.9794302	-0.55799776
895585434279163	-0.25268078	-0.9253702	-0.5713423
895585439345080	-0.21139157	-0.91264915	-0.39676225
895585444410998	-0.200688	-1.0916519	-0.15295404
895585449476916	-9.0920925E-4	-1.1595373	0.10375893
895585454573352	-0.26184678	-1.2490692	0.5517565
895585459639270	-0.5526186	-1.3914976	0.9714725
895585464705188	-0.5553666	-1.4507351	1.1712694
895585469771106	-0.52348965	-1.468996	1.1654261
895585474837024	-0.7089102	-1.5410414	1.0022084
895585479902942	-0.9010097	-1.5606136	0.6715765
895585484999377	-1.0550236	-1.517046	0.32609105
895585490065295	-1.1815114	-1.372159	-0.038300037
895585495131213	-1.3002431	-1.1247673	-0.322456
895585500197131	-1.3975521	-0.9184265	-0.6240493
895585505263049	-1.4525476	-0.8510227	-0.7751249
895585510328967	-1.5409808	-0.7800627	-0.7656462
895585515394885	-1.5719835	-0.82856464	-0.682318
895585520460803	-1.6601788	-1.0201836	-0.39522827
895585525557239	-1.6835816	-1.1095152	-0.11080718
895585530623157	-1.8061345	-1.1815434	0.12937737
895585535689075	-1.9658942	-1.2063646	0.31340814
895585540754993	-2.0108347	-1.2594299	0.3711363
895585545820911	-2.2323158	-1.1972008	0.24304342
895585550886829	-2.4812975	-1.0221481	-0.048262835
895585555952747	-2.6965127	-0.73549366	-0.3368336
895585561018664	-2.902815	-0.28351784	-0.65891576
895585566115100	-2.9832373	0.23204994	-0.92165506
895585571181018	-2.9224775	0.7607355	-1.1818173
895585576246936	-2.8554504	1.1720486	-1.4616175
895585581312854	-2.786192	1.5351677	-1.7336788
895585586378772	-2.8279157	1.8700466	-1.8579113
895585591444690	-2.995776	2.2133446	-1.8652575
895585596510608	-3.2225118	2.535905	-1.6695569
895585601576526	-3.5268931	2.7764196	-1.3692253
895585606672961	-3.9218588	2.870244	-1.0356784
895585611738879	-4.340815	2.8843985	-0.68937206
895585616804797	-4.8844786	2.8525953	-0.4481337
895585621870715	-5.619867	2.8277311	-0.38933468
895585626936633	-6.3247414	2.8997927	-0.4387405
895585632002551	-6.891591	2.9196148	-0.6540861
895585637098987	-7.3015523	2.7956	-1.0141778
895585642164905	-7.7048445	2.5857038	-1.3487461
895585647230823	-8.049771	2.3619661	-1.5860264
895585652296741	-8.193854	2.2116852	-1.7179489
895585657362659	-8.1670065	2.2300844	-1.7470752
895585662428577	-7.8819714	2.4439707	-1.7001011
895585667494495	-7.5112925	2.7915773	-1.6438174
895585672560413	-7.019499	3.1838055	-1.6009253
895585677656848	-6.5372367	3.5545673	-1.5098454
895585682722766	-6.0059495	3.88597	-1.2732824
895585687783827	-5.391621	4.02981	-1.1635426
895585692849745	-4.7783055	3.9697351	-1.0969507
895585697915663	-4.320712	3.617735	-1.1454133
895585702981581	-4.082932	3.0270205	-1.3147179
895585708047499	-3.8857822	2.2365217	-1.3683101
895585713113417	-3.5276392	1.4586086	-1.2607132
895585718209852	-3.0655653	0.89928436	-0.89820445
895585723275770	-2.5569541	0.49058533	-0.6676067
895585728341688	-2.0531602	-0.020953178	-0.7449566
895585733407606	-1.4064533	-0.54046535	-1.0816668
895585738473524	-0.74945307	-0.8212614	-1.7786545
895585743569960	-0.30107975	-0.8093996	-2.6049912
895585748635878	0.045927487	-0.55953217	-3.2969828
895585753701796	0.3542666	0.09957409	-3.8157308
895585758767714	1.1176358	1.2039366	-3.9404135
895585763833632	2.0858932	2.9123926	-3.130073
895585768899550	3.2818396	4.9432592	-1.5390972
895585773965468	4.631563	6.7745914	0.5610318
895585779031386	6.091058	8.135959	2.656988
895585784097304	7.1946816	8.844523	4.373904
895585789193739	7.364976	8.94739	5.4501805
895585794259657	6.911021	8.648006	5.758748
895585799325575	6.4774776	8.065025	5.3833437
895585804391493	6.383222	7.273883	4.578962
895585809457411	5.7980194	6.260415	3.4664268
895585814523329	4.893099	5.3238173	2.0937219
895585819589247	3.7233088	4.5610657	0.74704194
895585824655165	2.6656008	4.167178	-0.19340181
895585829721083	1.7670788	3.9460268	-0.8888067
895585834817518	0.49970365	3.8323612	-0.8740046
895585839883436	-0.8533623	3.89188	-0.46018016
895585844949354	-1.3504963	4.0579042	-0.24804413
895585850015272	-1.0770688	4.1988316	-0.25446332
895585855081190	-0.7212274	4.1326504	-0.48496795
895585860147108	-1.4512563	3.49409	-0.26876283
895585865243544	-2.0035381	2.9044056	0.3192948
895585870309462	-1.564403	2.5490026	0.5973246
895585875375380	-0.8010316	2.4379482	0.89106536
895585880441298	-0.23677659	2.242608	0.8539283
895585885507216	0.2998891	1.8343515	0.8399371
895585890573134	0.7226691	1.2380514	0.9489118
895585895639052	0.8047321	0.67671776	1.3511077
895585900704970	0.5444691	0.17618847	1.9673892
895585905770888	0.66023374	-0.5542278	2.4066005
895585910867323	1.0060506	-1.2319851	2.7869601
895585915933241	1.5231822	-1.9150553	2.916027
895585920999159	2.538906	-2.55622	3.081843
895585926065077	1.9562368	-3.2170258	3.0729017
895585931130995	1.3598771	-3.8368874	2.6673832
895585936196913	1.9577365	-4.468251	2.4519484
895585941262831	2.224772	-5.0335503	2.4150038
895585946359266	2.4789357	-5.3819246	2.5433457
895585951425184	2.950562	-5.6957855	2.6047094
895585956491102	3.2628021	-5.9342947	2.5356252
895585961557020	3.6969056	-6.0640707	2.5217044
895585966622938	4.2171345	-6.1449537	2.3941965
895585971688856	4.7691126	-6.2306137	2.1862466
895585976754774	4.9733872	-6.2838125	2.153054
895585981820692	5.3089542	-6.321329	2.0776348
895585986917128	5.493774	-6.4111476	1.9818423
895585991983046	5.5838737	-6.4921083	1.9807086
895585997048964	5.6336327	-6.601214	1.9745457
895586002114882	5.7021933	-6.7348485	2.109831
895586007180800	5.928734	-6.834404	2.3259652
895586012246718	6.291054	-6.8232527	2.590064
895586017312636	6.613961	-6.7396717	2.856212
895586022378554	7.0391865	-6.6099057	2.9793746
895586027444472	7.378051	-6.4291754	3.0038218
895586032540907	7.5936365	-6.37209	2.988287
895586037606825	7.518941	-6.286531	2.9041767
895586042672743	7.2998977	-6.1607323	2.78744
895586047738661	7.0175076	-6.0809393	2.5845597
895586052804579	6.6318626	-5.90488	2.2901192
895586057870497	6.2898417	-5.6111746	1.8374748
895586062936415	5.7725353	-5.258543	1.3331418
895586068032850	4.8899126	-4.928421	0.74588895
895586073098768	3.9831226	-4.6576257	0.11095023
895586078164686	2.9776616	-4.427153	-0.56363153
895586083230604	1.794538	-4.1747994	-1.3126471
895586088296522	0.41309214	-3.7309647	-2.2113595
895586093362440	-1.120784	-2.895177	-3.2496297
895586098428358	-2.475776	-1.6404381	-4.2968445
895586103524794	-3.4163923	-0.020968437	-5.328844
895586108590712	-4.2523403	1.8848677	-6.339528
895586113656630	-5.277157	3.9887505	-7.116603
895586118722548	-6.476041	6.306799	-7.574742
895586123788466	-8.317341	8.695089	-7.585132
895586128854384	-11.550297	10.766128	-7.3971705
895586133920302	-15.695348	12.194226	-6.832521
895586138986220	-17.003986	13.160235	-5.6923046
895586144082655	-15.532416	13.616256	-4.7020807
895586149148573	-13.244059	13.007124	-4.2762
895586154214491	-11.134752	11.357436	-4.2384253
895586159280409	-8.850541	9.146808	-4.2112646
895586164346327	-6.36691	7.0907726	-4.011343
895586169412245	-4.054187	5.206691	-3.8685045
895586174478163	-1.9514074	3.5778399	-3.951998
895586179574598	-0.046365976	2.227871	-3.9951768
895586184640516	1.7700152	1.1489601	-3.6306252
895586189706434	3.4811065	0.22254658	-2.9259818
895586194772352	4.6740065	-0.5235863	-2.5269053
895586199838270	5.1139765	0.3072996	-2.0451636
895586204904188	5.0323777	1.7581234	-1.4621636
895586210000624	4.870829	3.7552462	-1.1046888
895586215066542	4.783388	5.3778505	-0.25243163
895586220132460	4.8957286	6.451003	0.95827365
895586225198378	5.708663	7.3738136	2.731951
895586230264296	6.5761423	7.8871756	5.263139
895586235330214	6.884981	7.8322277	7.1619825
895586240396132	6.262472	7.4012556	6.881221
895586245462050	5.4389286	6.3596163	4.484954
895586250527968	5.285262	4.133396	2.3582816
895586255593886	5.947209	0.83999157	2.201624
895586260690321	6.5226626	-2.7123117	3.0025673
895586265756239	7.08693	-5.4765196	3.1117527
895586270822157	7.957182	-7.214981	1.7283171
895586275888075	8.817825	-8.088294	-0.96729493
895586280953993	9.325674	-7.9209557	-2.2094831
895586286019911	8.827301	-6.729147	-0.8114908
895586291085829	7.195007	-5.6928673	1.7146055
895586296151747	5.5904837	-4.942919	3.9450128
895586301248182	4.079974	-4.0689316	5.664892
895586306314100	3.0209045	-2.844695	6.7350655
895586311380018	2.3225496	-1.3810587	6.9509826
895586316445936	2.1243207	-0.009793282	6.184586
895586321511854	2.072411	1.0095472	5.2284174
895586326577772	1.779736	1.6665268	4.863142
895586331643690	1.0491927	2.1148186	5.115205
895586336740126	-0.06426525	2.4252586	5.5262656
895586341806044	-1.3625202	2.8150177	6.1436853
895586346871962	-2.680813	3.185275	7.088635
895586351937880	-3.8816714	3.5470543	7.699014
895586357003798	-4.856906	3.816514	7.4251013
895586362069716	-5.485303	3.783021	6.404698
895586367166151	-5.663293	3.294427	4.6778736
895586372232069	-5.2784324	2.589116	2.6014156
895586377297987	-4.2457266	1.6730404	0.43943626
895586382363905	-2.1535418	0.81086063	-0.7039108
895586387429823	-0.3585596	0.22909737	-1.1178436
895586392495741	0.71104765	-0.3553896	-1.0989915
895586397561659	1.3933765	-1.0536909	-0.97044414
895586402627577	1.54739	-1.5228624	-0.89640033
895586407724013	1.2810587	-1.9656935	-0.84215295
895586412789931	1.3742106	-2.3371668	-0.6603776
895586417855848	1.7404656	-2.5194788	-0.33437467
895586422921766	1.645777	-2.5154448	0.18899152
895586427987684	1.2807051	-2.3683405	0.6920655
895586433053602	1.455396	-2.3152742	0.7843433
895586438119520	1.4048129	-2.2009573	0.8938518
895586443185438	1.3286967	-1.940733	0.9154015
895586448251356	1.3564336	-1.6017818	0.95221967
895586453347792	1.250698	-1.3503304	0.9725854
895586458413710	1.2468765	-1.1573725	0.83509296
895586463479628	1.1726849	-1.0801392	0.5998233
895586468545546	1.0175917	-0.98334503	0.16020656
895586473611464	0.8739227	-0.93634224	-0.24337983
895586478677382	0.7528397	-0.9079447	-0.48464352
895586483743300	0.44182837	-0.8371353	-0.6301154
895586488809218	0.09202659	-0.87820435	-0.46549046
895586493875136	-0.058190227	-0.8743906	-0.20337522
895586498971571	-0.48334467	-0.94289494	0.17166698
895586504037489	-0.8054264	-1.1541672	0.49413884
895586509103407	-0.9197137	-1.3060398	0.64435315
895586514169325	-1.0621967	-1.5277548	0.6224253
895586519235243	-1.1664016	-1.725996	0.49763906
895586524331679	-1.1866999	-1.8147173	0.32098413
895586529397597	-1.1697464	-1.8862286	0.14928257
895586534463515	-1.1259044	-1.8843899	-0.06288314
895586539529432	-1.0432191	-1.771122	-0.28255618
895586544595350	-1.1501274	-1.6232376	-0.3811127
895586549661268	-1.3842813	-1.5174332	-0.44991946
895586554727186	-1.5519866	-1.2577362	-0.38916945
895586559823622	-1.5474849	-0.99026966	-0.30045283
895586564889540	-1.5948524	-0.85019493	-0.2754264
895586569955458	-1.7469115	-0.797801	-0.34804082
895586575021376	-1.9542834	-0.7825899	-0.44836366
895586580087294	-2.2917323	-0.70152473	-0.53299
895586585153212	-2.7583213	-0.5724468	-0.7126843
895586590219130	-3.4211876	-0.40363503	-0.9761013
895586595285048	-3.9292128	-0.30981827	-1.2412758
895586600381483	-4.4021244	-0.20588684	-1.4013075
895586605447401	-4.820758	0.0025997162	-1.4362639
895586610513319	-5.1238017	0.3430109	-1.3633461
895586615579237	-5.3247957	0.8150101	-1.2290351
895586620645155	-5.4398546	1.3201284	-1.0171144
895586625711073	-5.5521336	1.7048998	-0.7767618
895586630776991	-5.5917797	1.9272137	-0.44324017
895586635842909	-5.6710043	2.057311	-0.13469577
895586640939345	-5.7483478	2.128436	0.15373063
895586646005263	-5.532109	2.1356354	0.20048308
895586651071181	-5.176316	2.1687393	0.020924807
895586656137098	-4.9529343	2.1970062	-0.266639
895586661203016	-5.0127735	2.3344736	-0.5719938
895586666268934	-5.1047845	2.6627045	-0.7568433
895586671334852	-5.23195	3.236659	-0.82320714
895586676400770	-5.1701775	3.879054	-0.76270056
895586681497206	-5.0878296	4.3577223	-0.77176785
895586686563124	-5.0438495	4.622505	-0.6917143
895586691629042	-4.932121	4.638835	-0.621124
895586696694960	-4.8781643	4.508525	-0.52462137
895586701760878	-4.9762545	4.437207	-0.45507252
895586706826796	-5.0609493	4.5011635	-0.5323318
895586711892714	-5.0763965	4.6594353	-0.60142195
895586716958632	-4.906367	4.7802753	-0.4970467
895586722055067	-4.588664	4.5611343	-0.30033755
895586727120985	-4.325304	4.0073395	-0.1566453
895586732186903	-4.263434	3.3369265	0.011071205
895586737252821	-4.425031	2.6864367	-0.037291408
895586742318739	-4.495427	2.0776176	-0.3193308
895586747384657	-4.1544065	1.5322514	-0.62091124
895586752450575	-3.489376	1.0996475	-1.0058483
895586757547011	-2.9419434	0.72020435	-1.4252099
895586762612929	-2.3126636	0.5474682	-1.6687326
895586767678847	-1.5750563	0.5216551	-1.9363961
895586772744765	-0.88266283	0.56879807	-2.4553797
895586777810682	-0.28287	0.64616585	-3.2458663
895586782876600	0.27546155	0.86424446	-4.1086226
895586787942518	0.7927231	1.289196	-4.7691545
895586793008436	1.4658809	1.8208752	-4.836306
895586798104872	2.371133	2.885212	-3.989384
895586803170790	3.3205397	4.148158	-2.3332434
895586808236708	4.3513355	5.3355103	-0.41211134
895586813302626	5.3974667	6.3630924	1.49869
895586818368544	6.102706	6.917161	3.2874355
895586823434462	6.3741746	6.843442	4.5726852
895586828500380	6.42857	6.376643	5.092712
895586833566298	6.000251	5.579235	4.8516345
895586838662733	5.5818405	4.5522013	4.14915
895586843728651	5.344736	3.526495	3.0368085
895586848794569	4.7993293	2.7428436	1.7818408
895586853860487	4.0231533	2.270647	0.6040707
895586858926405	3.2507	2.1241293	-0.21635574
895586863992323	2.6736531	2.3235111	-0.7896053
895586869058241	2.2274103	2.9440937	-1.1983453
895586874124159	1.4490874	3.5254793	-1.3950899
895586879220595	0.37609458	3.6916847	-1.1422127
895586884286513	-0.39633107	3.7390509	-0.6711358
895586889352431	-0.721622	3.576335	-0.43603277
895586894418348	-0.75381875	3.1597443	-0.3965932
895586899484266	-0.46981835	2.5614347	-0.46248436
895586904550184	-0.24562335	1.9481249	-0.40394938
895586909616102	-0.053797483	1.7726479	0.33407474
895586914712538	0.3280697	1.7578306	0.9724668
895586919778456	0.62292886	1.2843161	1.3394337
895586924844374	-0.6286762	0.58975506	1.8883944
895586929910292	-1.4075122	-0.019368172	2.4693918
895586934976210	-1.0166628	-0.72591305	2.79322
895586940042128	-0.5838337	-1.5910797	2.8610969
895586945108046	-0.96044135	-2.3960762	2.9504807
895586950173964	-0.46057367	-2.96212	2.8464222
895586955270399	0.35408568	-3.53335	2.3536894
895586960336317	0.57866	-3.9126358	1.8840631
895586965402235	0.67486167	-4.169136	1.5640459
895586970468153	0.9180994	-4.450387	1.3028374
895586975534071	1.5043094	-4.830735	1.041256
895586980599989	2.1535187	-5.0579042	0.9106238
895586985665907	2.6349812	-5.108183	1.1382885
895586990762343	3.185316	-5.182639	1.3567758
895586995828261	3.7416954	-5.0901623	1.606071
895587000894179	4.2445064	-5.0039577	1.7881756
895587005960097	4.5780773	-4.999112	1.9014554
895587011026015	4.9233246	-5.0598154	2.0334418
895587016091932	5.2279553	-5.0758743	2.0836675
895587021157850	5.509098	-5.1344805	2.059265
895587026254286	5.7897673	-5.1171494	2.0425887
895587031320204	5.914091	-5.106476	1.9546483
895587036386122	6.0023565	-5.077363	1.9286349
895587041452040	6.177107	-5.060974	1.9778097
895587046517958	6.376622	-5.048943	2.1000783
895587051583876	6.570434	-5.03639	2.2529175
895587056649794	6.5738497	-5.032692	2.3822553
895587061715712	6.5177565	-5.1118855	2.467562
895587066812147	6.3652143	-5.1782985	2.5278635
895587071878065	6.183591	-5.2879877	2.486665
895587076943983	6.0109777	-5.3501487	2.3942575
895587082009901	5.8592005	-5.265636	2.1873207
895587087075819	5.877714	-5.063326	1.69014
895587092141737	5.8467636	-4.953747	0.7708554
895587097207655	4.986979	-4.987118	1.1820431
895587102304091	4.611871	-5.030822	1.0183406
895587107370009	4.316326	-4.8644524	0.34904218
895587112435927	3.9826105	-4.535842	-0.3475995
895587117501845	3.5251954	-4.2565765	-1.1495447
895587122567763	2.784092	-3.9260492	-1.8798251
895587127633681	1.7975054	-3.319417	-2.9277146
895587132699598	0.52764225	-2.2370596	-4.1432796
895587137796034	-0.9877224	-0.6914072	-5.330392
895587142861952	-2.539483	1.122405	-6.5111523
895587147927870	-3.9196796	3.0879498	-7.377712
895587152993788	-5.0621157	5.4410744	-7.853627
895587158059706	-6.4924355	7.9187155	-8.402095
895587163125624	-8.813796	10.153376	-8.6732
895587168191542	-11.687931	11.97556	-8.360819
895587173257460	-14.31524	13.388112	-6.825952
895587178353895	-16.863068	13.793304	-5.004413
895587183419813	-17.305243	13.039832	-4.2120647
895587188485731	-14.311884	11.463855	-4.086931
895587193551649	-10.353451	9.395313	-4.1976547
895587198617567	-7.0254107	7.200244	-4.634696
895587203683485	-4.3235197	4.9727154	-5.012868
895587208749403	-1.9271786	2.7661448	-5.051099
895587213815321	0.21557045	0.8026848	-4.654274
895587218881239	1.8268583	-1.002388	-4.125989
895587223977675	2.7121754	-2.7238445	-3.474565
895587229043593	3.4487245	-4.1400776	-2.6326718
895587234109511	3.9692445	-5.1386576	-1.6590655
895587239175429	4.20226	-5.43882	-0.7290063
895587244241347	4.3468685	-4.9431705	-0.03479159
895587249307265	4.8247094	-3.7352362	0.8138765
895587254403700	5.7677794	-2.1217327	1.9380156
895587259469618	7.1684504	-0.35853386	3.1925263
895587264535536	8.4993305	1.547102	4.9953256
895587269601454	9.456225	3.978674	7.470174
895587274667372	9.193482	6.6595554	9.037569
895587279733290	7.857773	9.22647	9.183683
895587284799208	6.8985386	12.075653	7.82014
895587289865126	6.8488665	13.293985	6.031022
895587294931044	7.353593	12.160045	4.9065223
895587300027479	7.086978	8.403729	3.6886435
895587305093397	4.634969	3.2485447	1.4731505
895587310159315	2.2463036	-0.7939205	-1.3689022
895587315225233	1.3755574	-3.509904	-2.8292174
895587320291151	1.6193376	-4.9406605	-2.478035
895587325357069	1.914387	-5.207573	-1.0191483
895587330422987	1.4274378	-4.6145344	0.8945928
895587335519423	0.89540386	-3.3551874	2.5205362
895587340585341	0.5143335	-2.1372833	3.383129
895587345651259	0.43553686	-1.4034433	3.8688977
895587350717177	0.27468348	-1.259408	4.2584887
895587355783095	-0.002465725	-1.5176344	4.436076
895587360849013	-0.049815893	-1.8844166	4.1955113
895587365945448	-0.033894062	-2.177702	4.0751514
895587371011366	0.16242862	-2.209301	4.3189983
895587376077284	0.57158995	-1.9301786	4.9200344
895587381143202	1.1040044	-1.5433035	5.29711
895587386209120	1.4114671	-1.0742731	5.4149837
895587391275038	1.6809359	-0.38250732	5.46665
895587396340956	1.4942405	0.41288853	5.4226956
895587401406874	0.799083	0.9236374	5.378402
895587406472792	0.084537745	1.2481327	5.0673246
895587411569227	-0.41657782	1.4413033	4.3342
895587416635145	-0.47075725	1.6362553	3.1898317
895587421701063	-0.25613678	1.7013922	1.840049
895587426766981	-0.05246997	1.8078003	0.7776817
895587431832899	0.11255324	1.5631533	-0.03354478
895587436898817	0.36886978	1.2738419	-0.7991038
895587441964735	0.5929321	0.7892523	-1.1440485
895587447030653	0.3496107	0.13948822	-1.0870831
895587452127089	0.014443159	-0.5366974	-0.8377165
895587457193007	0.09545374	-1.3291473	-0.63109607
895587462258925	-0.008230805	-1.935606	-0.31627673
895587467355360	-0.40653515	-2.329135	-0.011954963
895587472421278	-0.27989984	-2.354907	0.044680834
895587477487196	0.20494318	-2.1104956	0.033483744
895587482553114	0.6119549	-1.9035473	-0.14658827
895587487619032	0.7411648	-1.5868988	-0.3524146
895587492684950	0.68676984	-1.397295	-0.5614018
895587497750868	0.6656264	-1.2255917	-0.61132824
895587502816786	0.81441474	-1.0775709	-0.5714187
895587507882704	0.89610815	-1.0713577	-0.2549879
895587512948622	1.0272022	-0.98538494	0.124133825
895587518014540	0.958562	-0.922534	0.49473643
895587523080458	0.7306329	-1.0669851	0.84728646
895587528176893	0.48956823	-1.1317348	1.0725329
895587533242811	0.3030339	-1.0824642	1.1542109
895587538308729	-0.04083991	-1.1251783	1.0982399
895587543374647	-0.399634	-1.1559296	0.9305686
895587548440565	-0.6208	-1.1066732	0.6967422
895587553506483	-0.8087652	-1.0946913	0.4478699
895587558572401	-1.0068305	-1.0768633	0.23367381
895587563668837	-1.0794048	-1.0889702	0.02340293
895587568734755	-1.1636052	-1.1727638	-0.15202904
895587573800673	-1.2289569	-1.3100586	-0.11777997
895587578866591	-1.3233104	-1.3033953	0.050172687
895587583932509	-1.4485111	-1.284379	0.22234154
895587588998427	-1.5095142	-1.2744732	0.50029397
895587594064345	-1.514538	-1.2054424	0.6936821
895587599130263	-1.5458426	-1.0892916	0.71424234
895587604226698	-1.7588713	-1.0540609	0.53845835
895587609292616	-2.0436149	-1.0076847	0.27126384
895587614358534	-2.376724	-0.92631626	-0.16729832
895587619424452	-2.7340171	-0.66773796	-0.6524625
895587624490370	-3.1007686	-0.28965282	-1.0535879
895587629556288	-3.482624	0.12041092	-1.3872263
895587634622206	-3.8323476	0.630414	-1.6242356
895587639688124	-4.094237	1.1276331	-1.8264892
895587644784559	-4.3874216	1.6144428	-1.9677787
895587649850477	-4.7171173	2.125369	-2.0377066
895587654916395	-5.0216703	2.6592865	-1.9380054
895587659982313	-5.3228235	3.1264467	-1.6945703
895587665048231	-5.7344465	3.3690262	-1.3175895
895587670114149	-6.0070467	3.525876	-0.9042387
895587675180067	-6.07854	3.561036	-0.6467476
895587680276503	-6.1124787	3.555787	-0.49046206
895587685342421	-5.999416	3.4896393	-0.61495996
895587690408339	-5.7978015	3.2442102	-0.95724297
895587695474257	-5.8776155	2.9704428	-1.3534684
895587700540175	-6.168386	2.6972437	-1.6953437
895587705606093	-6.395495	2.58492	-1.8778446
895587710672011	-6.4722486	2.730031	-1.8588619
895587715737929	-6.4385114	3.0256367	-1.7846572
895587720803847	-6.344826	3.3183174	-1.7294767
895587725869765	-6.2618456	3.4512758	-1.6123548
895587730935682	-6.1428833	3.7176218	-1.4723978
895587736001600	-6.12259	3.955738	-1.2974141
895587741067518	-6.09126	4.165702	-1.0299578
895587746133436	-5.682149	4.318866	-0.60426974
895587751229872	-5.1333075	4.216717	-0.23516583
895587756295790	-4.6267395	3.7905226	-0.01056397
895587761361708	-4.1474214	3.2356749	0.077123284
895587766427626	-3.813726	2.464138	-0.14166439
895587771493544	-3.3744466	1.6284027	-0.27476597
895587776559462	-2.6717198	0.9525852	-0.34819973
895587781655897	-2.002467	0.29680824	-0.51239157
895587786721815	-1.4469075	-0.19134903	-0.9066647
895587791787733	-0.9828721	-0.4855709	-1.6501589
895587796853651	-0.5114318	-0.4493389	-2.6760225
895587801919569	-0.22070995	0.038219452	-3.5889256
895587806985487	0.103951536	0.9210024	-4.2039723
895587812051405	0.8471724	1.8835754	-4.2328076
895587817117323	1.6710758	3.1177359	-3.2993357
895587822213759	2.56317	4.558937	-1.6927879
895587827279677	3.565161	5.7896185	0.191559
895587832345595	4.7548776	6.7389936	2.1059158
895587837411513	5.9286222	7.466549	3.7728214
895587842477431	6.590202	7.7255554	5.1422744
895587847543348	6.440219	7.3798923	5.7215366
895587852609266	5.7825713	6.59394	5.2332497
895587857675184	5.1225657	5.514064	4.2767825
895587862771620	4.700547	4.469558	3.1852508
895587867837538	4.0912695	3.548769	1.9892211
895587872903456	3.396398	3.113061	0.78856486
895587877969374	2.5866137	3.1012325	-0.12643111
895587883035292	1.5763602	3.2417784	-0.5261006
895587888131727	1.1363919	3.8686848	-0.72069246
895587893197645	0.5993415	4.341913	-1.2092336
895587898263563	0.42408037	4.4421797	-1.3562758
895587903329481	0.8053124	4.489854	-1.4930768
895587908395399	0.9454224	4.486454	-1.2447904
895587913461317	0.96598864	4.181095	-0.958073
895587918527235	0.7915511	3.370945	0.21122432
895587923593153	-0.14457655	2.7040272	1.6196653
895587928659071	-0.25006628	2.3818998	1.872316
895587933724989	0.38802195	2.2280445	1.905033
895587938790907	1.0300758	1.7283077	1.8356712
895587943887343	0.8881624	0.87540436	1.7459586
895587948953261	1.2150674	-0.03446102	1.8610924
895587954019179	1.1228585	-0.64169216	2.2282162
895587959085097	0.59003925	-1.206522	2.418932
895587964151015	0.94644284	-1.9335613	2.3302135
895587969216932	0.83823705	-2.6779375	2.3523457
895587974313368	0.9417882	-3.3355703	2.102798
895587979379286	0.9562321	-3.9740505	1.8141866
895587984445204	0.9897394	-4.56684	1.7087722
895587989511122	1.1262996	-5.09276	1.6919289
895587994607557	1.6467426	-5.5759764	1.681109
895587999673475	2.0409784	-5.911743	1.7141159
895588004739393	2.2257829	-6.177676	1.6568902
895588009805311	2.672362	-6.3906336	1.6343241
895588014871229	3.0323625	-6.5293217	1.7528458
895588019937147	3.4002519	-6.6416626	2.066521
895588025003065	3.785367	-6.7610874	2.303351
895588030068983	4.127883	-6.9030085	2.4507997
895588035134901	4.5022845	-6.861619	2.5005934
895588040200819	4.758385	-6.712405	2.4548395
895588045266737	4.9806423	-6.5187283	2.4434054
895588050332655	5.089607	-6.36312	2.4080904
895588055429091	5.220882	-6.2480483	2.472515
895588060495009	5.4086986	-6.1053944	2.6819532
895588065560927	5.6738806	-5.9446425	2.8230433
895588070626845	5.8209434	-5.6820807	3.0625753
895588075692763	5.9546213	-5.357286	3.315012
895588080758681	6.194989	-5.0503826	3.4950254
895588085855116	6.309273	-4.786385	3.6059713
895588090921034	6.288689	-4.599705	3.672807
895588095986952	6.208626	-4.5404663	3.632362
895588101052870	5.9399185	-4.578586	3.3846223
895588106118788	5.6749706	-4.600348	2.928941
895588111184706	5.5317535	-4.4109173	2.469097
895588116250624	5.423971	-4.1109176	1.8797543
895588121316542	5.1544023	-3.750517	1.1456776
895588126412977	4.876197	-3.4804554	0.4115858
895588131478895	4.3477435	-3.1700172	-0.39119244
895588136544813	3.6597233	-2.7523699	-1.3197577
895588141610731	2.5081024	-2.3435488	-2.3230124
895588146676649	1.1184382	-1.8180246	-3.3640945
895588151742567	-0.41855884	-1.0698586	-4.4191513
895588156808485	-1.3404658	0.009151459	-5.3388143
895588161874403	-2.0296288	1.2012491	-6.2263575
895588166970839	-3.1010392	2.5367832	-6.800475
895588172036757	-4.3521805	4.2825365	-7.088044
895588177102675	-6.144403	6.2817993	-7.4667406
895588182168593	-8.393822	8.264495	-7.9038377
895588187234511	-11.185696	10.373657	-8.032046
895588192300429	-14.366724	12.393976	-7.5289373
895588197366347	-16.866764	13.528962	-6.5877657
895588202462782	-16.865313	13.269948	-5.7334185
895588207528700	-14.58826	11.514668	-5.420211
895588212594618	-10.927218	8.974001	-5.420492
895588217691054	-7.2251034	6.4474573	-5.4585323
895588222756972	-4.915923	4.1472483	-5.7524176
895588227822890	-2.7372437	2.288144	-5.755662
895588232888807	-0.8168745	0.8512249	-5.334917
895588237954725	0.2560718	0.22710896	-4.392164
895588243020643	1.8066387	-0.08088589	-3.7120545
895588248086561	3.69946	-0.80369854	-3.1569188
895588253152479	4.3226137	-1.1739578	-2.277861
895588258248915	3.7556295	-0.5705862	-1.4160655
895588263314833	3.9751918	-0.036460876	-0.7201779
895588268380751	4.0672626	0.22612381	0.21647787
895588273446669	4.292058	0.4450245	1.8826609
895588278512587	5.1562977	0.7579422	4.3233833
895588283578505	6.310916	1.227253	6.6040645
895588288644423	7.3009014	2.008071	7.0638514
895588293740858	8.20678	3.1050596	5.890078
895588298806776	8.604355	4.088043	4.3306894
895588303872694	8.64874	4.9089937	3.7331903
895588308938612	8.833849	5.222288	4.4999776
895588314004530	8.942548	4.5914373	5.062422
895588319070448	8.875378	2.7054958	4.0529947
895588324136366	8.130271	-0.08057213	1.7412313
895588329202284	6.84268	-2.7045517	-0.7746489
895588334298720	6.0833306	-4.042158	-1.9825863
895588339364638	5.525385	-4.0653687	-1.2835157
895588344430556	4.7411385	-3.2689981	0.7578324
895588349496473	3.4323568	-2.4790392	2.6639996
895588354562391	1.8031328	-1.65627	4.0581107
895588359628309	0.9386542	-0.5037079	5.050326
895588364694227	0.28569245	0.55231667	5.916614
895588369790663	-0.41507864	1.2741394	6.52208
895588374856581	-1.1517093	1.6070061	6.5736833
895588379922499	-1.9969921	1.6131172	6.0316076
895588384988417	-2.5256875	1.5064821	5.4231143
895588390054335	-2.9296238	1.3597813	5.397377
895588395120253	-3.297847	1.1391478	6.1391025
895588400186171	-3.5102246	0.8306761	6.664754
895588405282606	-3.3900454	0.44966507	6.66878
895588410348524	-2.687326	0.21235085	6.0977893
895588415414442	-1.9311624	-0.07564354	4.881872
895588420480360	-1.1941516	-0.3067112	3.5319903
895588425546278	-0.3187437	-0.38757324	2.2513142
895588430612196	0.61969805	-0.29544926	1.1565855
895588435678114	1.3789806	-0.20832348	0.42808813
895588440744032	2.1395311	-0.026563644	-0.13548402
895588445840468	2.4963028	0.038297653	-0.30753857
895588450906386	2.4561045	0.042830467	-0.20011309
895588455972304	2.2996435	0.04301548	0.11064373
895588461038222	1.973859	-0.05695629	0.35725036
895588466104140	1.7418387	-0.2140007	0.40033537
895588471170057	1.4705638	-0.59789085	0.44936955
895588476235975	1.1268885	-0.9825916	0.39799514
895588481301893	0.6834687	-1.356327	0.53765315
895588486398329	0.37335324	-1.5818415	0.8744806
895588491464247	0.15225208	-1.8710957	1.1029935
895588496530165	0.42153764	-2.111827	1.1245606
895588501596083	0.6046021	-2.198986	1.1065135
895588506662001	0.51332843	-2.2093248	0.9708047
895588511727919	0.5981153	-2.015109	0.8939981
895588516793837	0.58691835	-1.8437862	0.63006073
895588521890272	0.5406101	-1.7526369	0.36533546
895588526956190	0.5248052	-1.4532394	0.32883084
895588532022108	0.36060715	-1.1669121	0.30374444
895588537088026	0.113879204	-0.9998684	0.38878095
895588542153944	0.03650701	-0.85390854	0.49607468
895588547219862	0.004231572	-0.6752014	0.64041203
895588552285780	-0.1629715	-0.58815765	0.8317636
895588557351698	-0.19081903	-0.5496454	0.9150641
895588562417616	-0.34135044	-0.52978516	0.95506036
895588567514052	-0.46068555	-0.600317	0.96318257
895588572579970	-0.4339025	-0.7899008	0.89562535
895588577645888	-0.3553247	-0.9645157	0.7566922
895588582711806	-0.3784666	-1.204278	0.5283333
895588587777723	-0.39857757	-1.4613113	0.36573946
895588592843641	-0.3362006	-1.6913328	0.19462657
895588597940077	-0.347592	-1.9637461	0.02209425
895588603005995	-0.49293202	-2.1303024	-0.11378229
895588608071913	-0.6540786	-2.1648998	-0.11235595
895588613137831	-0.85603696	-2.112009	-0.026975393
895588618203749	-1.0840564	-1.9275703	0.07228649
895588623269667	-1.2790934	-1.6883211	0.07701242
895588628335585	-1.4528769	-1.4301939	0.06861198
895588633401503	-1.6647313	-1.2332172	-0.028667808
895588638497938	-1.998156	-1.0146122	-0.18100679
895588643563856	-2.4298115	-0.6918478	-0.34701324
895588648629774	-2.8961272	-0.279212	-0.51082575
895588653695692	-3.2853146	0.19811153	-0.68606794
895588658761610	-3.7175374	0.6312151	-0.86450744
895588663827528	-4.073769	1.010519	-1.0712627
895588668893446	-4.302124	1.2989178	-1.2655363
895588673989882	-4.5700774	1.5669041	-1.3861306
895588679055800	-4.8500814	1.9217596	-1.3555839
895588684121718	-5.0870585	2.3056574	-1.1827128
895588689187636	-5.265101	2.6535454	-0.98952174
895588694253554	-5.425761	2.9495401	-0.76775026
895588699319472	-5.593855	3.2257032	-0.5789199
895588704385390	-5.656995	3.3624163	-0.5185995
895588709451307	-5.6000586	3.3480482	-0.60893965
895588714547743	-5.3746705	3.1567774	-0.8762138
895588719613661	-5.338495	2.8861237	-1.1763008
895588724679579	-5.392339	2.7015886	-1.4738963
895588729745497	-5.5256467	2.6905432	-1.665899
895588734811415	-5.502024	2.747552	-1.7259669
895588739877333	-5.407098	2.9380865	-1.6758571
895588744943251	-5.345744	3.12537	-1.5977578
895588750009169	-5.2779045	3.267231	-1.4695688
895588755105604	-5.2519	3.3742218	-1.244366
895588760171522	-5.197268	3.528741	-1.0159476
895588765237440	-5.298152	3.510622	-0.8600192
895588770303358	-5.326917	3.6117773	-0.8035648
895588775369276	-5.4190435	3.7818556	-0.73884225
895588780435194	-5.379498	3.8080206	-0.60405266
895588785531630	-5.2322135	3.6402578	-0.48173702
895588790597548	-5.130735	3.2694721	-0.35115063
895588795663466	-5.1591845	2.834652	-0.3863995
895588800729384	-5.2094064	2.3276825	-0.5141821
895588805795302	-5.025399	1.8409557	-0.6829394
895588810861220	-4.518607	1.3137369	-0.68341184
895588815927138	-3.7951312	0.87183094	-0.7127516
895588820993056	-2.978972	0.44724274	-0.94705856
895588826089491	-2.120775	0.125103	-1.4528927
895588831155409	-1.2747664	0.08648586	-2.245298
895588836221327	-0.55596143	0.22276878	-3.224235
895588841287245	0.035987712	0.6074352	-4.0237265
895588846353163	0.35814235	1.3616886	-4.2731953
895588851419081	1.157268	2.509654	-3.9536653
895588856484999	2.3385832	3.8072824	-2.7096756
895588861550917	3.4731102	5.0583467	-0.8990286
895588866647352	4.5941763	6.037878	1.0496262
895588871713270	5.775295	6.8017206	2.92256
895588876748671	6.56494	7.212014	4.427815
895588881845106	6.710378	7.1769447	5.313214
895588886911024	6.229295	6.622485	5.4241776
895588891976942	5.585609	5.7764273	4.8607364
895588897042860	5.15578	4.9391565	4.028021
895588902108778	4.8115864	4.0987186	3.0995302
895588907174696	4.090398	3.41187	2.1526806
895588912271132	3.1826546	3.1310472	1.2466745
895588917337050	2.4716687	3.179141	0.33047044
895588922402968	1.1227806	3.0266762	-3.2162666E-4
895588927468886	-0.39412653	3.2948608	-0.028908849
895588932534804	-0.92304087	3.949768	0.029883385
895588937600722	-0.05647683	4.481283	-0.3976859
895588942697157	0.9151392	4.655363	-0.90242565
895588947763075	0.9121039	4.780345	-0.95804656
895588952828993	0.07663298	4.26431	-0.83437526
895588957894911	-0.92151403	3.4023743	0.30204332
895588962960829	-1.2690959	2.8774385	1.5843611
895588968026747	-0.47402883	2.7338486	1.6269381
895588973092665	0.15317893	2.5303383	1.339013
895588978189100	0.32198	2.2882614	1.2927637
895588983255018	0.8585322	1.7894354	1.3745433
895588988320936	1.0627759	0.78507996	1.271289
895588993386854	1.0627093	-0.019762993	1.6078659
895588998452772	1.0809846	-0.55171204	2.0489273
895589003518690	1.0699701	-1.2905035	2.2399945
895589008584608	0.8500161	-2.0650187	2.5555372
895589013650526	0.829808	-2.869522	2.5270386
895589018746962	0.82265854	-3.662056	2.3447816
895589023812880	0.8839288	-4.445592	2.2480588
895589028878798	1.4796569	-5.1709805	1.922873
895589033944716	1.4967189	-5.6242924	1.8949697
895589039010634	1.8838577	-6.0021954	1.5959103
895589044076552	2.4265676	-6.2428007	1.471843
895589049142470	2.9004707	-6.4071293	1.4327774
895589054208388	3.5476298	-6.4843407	1.5385904
895589059274306	3.6819627	-6.644066	1.7154176
895589064370741	3.9557967	-6.8501997	1.8011501
895589069436659	4.380774	-6.915185	1.9999247
895589074502577	4.6019273	-6.8820496	2.210313
895589079568495	4.771835	-6.8307457	2.3810887
895589084634413	4.9482756	-6.8257637	2.4428134
895589089700331	4.979732	-6.825161	2.556674
895589094796766	5.1258907	-6.784746	2.6675
895589099862684	5.2269173	-6.674648	2.8594902
895589104928602	5.438697	-6.536643	3.1229289
895589109994520	5.591865	-6.436315	3.2579653
895589115060438	5.8065815	-6.2526765	3.4091873
895589120126356	5.929016	-6.1017995	3.4206474
895589125192274	6.0038557	-5.904746	3.3720691
895589130258192	5.9884424	-5.756077	3.2283144
895589135354628	5.912757	-5.643881	3.0489163
895589140420546	5.67653	-5.508245	2.842427
895589145486464	5.422927	-5.267995	2.6341906
895589150552382	5.2232847	-4.9901705	2.3745215
895589155618300	4.9410863	-4.714182	2.036385
895589160684218	4.573898	-4.37298	1.6116574
895589165750136	4.167156	-4.0479136	1.0693903
895589170846571	3.623826	-3.7594051	0.47647285
895589175912489	2.9657524	-3.4747715	-0.17368221
895589180978407	2.1581497	-3.1033564	-0.9162173
895589186044325	1.2294681	-2.515026	-1.7296245
895589191110243	0.11592531	-1.6682215	-2.5871127
895589196176161	-0.9222257	-0.5990448	-3.4639254
895589201272597	-1.8234022	0.73419	-4.282771
895589206338515	-2.721019	2.346488	-4.991127
895589211404432	-3.5018466	4.3279247	-5.5384045
895589216470350	-4.895862	6.6099834	-5.949777
895589221536268	-6.2159495	8.996404	-6.4668384
895589226602186	-8.300993	11.22398	-7.100137
895589231668104	-11.050089	13.12594	-7.4875803
895589236734022	-13.477846	14.365011	-7.1923504
895589241799940	-13.94309	14.446561	-6.4028006
895589246896376	-12.8006315	13.032682	-5.8456483
895589251962294	-10.678041	10.42698	-5.445632
895589257028212	-8.324238	7.627846	-5.1815705
895589262094130	-6.457234	5.2385263	-5.011236
895589267160048	-4.3916597	3.1149988	-4.7970333
895589272225966	-2.5393865	1.5114946	-4.5548506
895589277291884	-1.0356314	0.3653412	-4.295222
895589282388319	0.65425014	-0.5135164	-3.8388295
895589287454237	1.9161069	-1.4377537	-3.2707355
895589292520155	2.6619623	-2.1801968	-2.3911476
895589297586073	2.8566418	-2.2895145	-1.5753218
895589302651991	3.3974407	-2.0255346	-1.4030583
895589307717909	4.0191655	-1.4805212	-1.504126
895589312783827	4.0710917	-0.47154045	-1.2880192
895589317880263	3.591506	1.066802	-0.5414611
895589322946181	4.086274	2.4853306	0.8687221
895589328012098	5.617215	3.531478	2.861165
895589333078016	6.626128	4.64124	5.1530967
895589338143934	6.8727894	5.8772526	6.7217536
895589343209852	6.6251173	7.010435	6.5927486
895589348275770	6.292861	7.8094397	5.43638
895589353341688	6.1149154	7.711177	4.206328
895589358438124	6.152567	6.082466	3.9002676
895589363504042	6.2438517	3.0206614	3.690413
895589368569960	5.6517725	-0.6594305	2.7800713
895589373635878	4.843072	-3.4951792	1.4176761
895589378701796	4.94079	-5.27227	0.20582116
895589383767714	5.390571	-6.1784286	-0.4683864
895589388833632	5.6176395	-6.007144	-0.07380152
895589393930067	4.915677	-5.15326	1.1066751
895589398995985	3.550738	-4.325718	2.377252
895589404061903	2.212394	-3.5420847	3.6339786
895589409127821	1.4529161	-2.587943	4.7627435
895589414193739	1.0816042	-1.4806242	5.689196
895589419259657	0.82055926	-0.24499702	6.1681886
895589424325575	0.5241091	0.80277824	6.0251317
895589429391493	0.038425684	1.5404549	5.528698
895589434487929	-0.572443	1.99965	5.163677
895589439553847	-1.0298581	2.3318748	5.1123395
895589444619765	-1.3649094	2.4574413	5.443747
895589449685682	-1.5878823	2.5468807	5.9458237
895589454751600	-1.7511628	2.3566542	6.16506
895589459817518	-1.8123233	2.0308352	5.9846005
895589464883436	-1.5490394	1.657155	5.401454
895589469949354	-1.3939173	1.3472176	4.2720213
895589475045790	-1.0646198	1.0986395	2.8215964
895589480111708	-0.020513296	0.89993	1.231908
895589485177626	0.9655136	0.5718756	0.3717273
895589490243544	1.5587326	0.36249065	0.009153262
895589495309462	2.0365973	0.25391483	-0.11761053
895589500375380	2.314035	0.021202087	-0.03262517
895589505441298	2.4790144	-0.39318562	-0.10730778
895589510537733	2.0981612	-0.9177275	-0.024107337
895589515603651	1.7855908	-1.4091101	0.15681931
895589520669569	1.5906472	-1.7923956	0.37879044
895589525735487	1.18547	-2.0272799	0.6772426
895589530801405	1.0379333	-2.0590935	1.2584927
895589535867323	1.222947	-2.1680202	1.7077298
895589540933241	1.1467608	-2.3852692	1.8224652
895589545999159	1.0120196	-2.466836	1.8049738
895589551065077	1.0121526	-2.1940222	1.8448555
895589556130995	0.9757153	-1.6735706	1.7120965
895589561196913	0.81078434	-1.2703524	1.3438802
895589566262831	0.58730686	-0.93386745	0.9455627
895589571328749	0.42900956	-0.6974468	0.50261897
895589576425184	0.40663517	-0.61830044	0.12443161
895589581491102	0.21046084	-0.6221056	-0.08223164
895589586557020	0.1323396	-0.47924614	-0.12668276
895589591622938	-0.38352418	-0.38850594	0.14124787
895589596688856	-0.63321024	-0.44440174	0.29067636
895589601754774	-0.6929683	-0.57997036	0.28096378
895589606820692	-0.9258608	-0.72832584	0.23849714
895589611886610	-1.202532	-0.84298325	0.13506651
895589616983046	-1.428061	-0.96837044	-0.15723145
895589622048964	-1.5678725	-1.0042629	-0.43199193
895589627114882	-1.522613	-0.9842472	-0.7055361
895589632180800	-1.6396487	-0.97171116	-1.0024408
895589637246718	-1.625194	-1.0024786	-1.0960943
895589642312636	-1.6544691	-1.094326	-1.1631119
895589647378554	-1.7072997	-1.1609917	-1.089478
895589652444472	-1.7251055	-1.3158236	-0.88476515
895589657540907	-1.8227247	-1.3504448	-0.5084859
895589662606825	-1.8554703	-1.1931181	-0.09146583
895589667672743	-1.9586436	-0.96115303	0.27029383
895589672738661	-2.00432	-0.7144642	0.5280436
895589677804579	-2.175482	-0.4304018	0.54612756
895589682901015	-2.4434233	-0.074406624	0.3945607
895589687966932	-2.7915196	0.3270054	0.114789486
895589693032850	-3.0704246	0.7522812	-0.19745588
895589698098768	-3.339982	1.1320477	-0.60668755
895589703164686	-3.496077	1.4746733	-0.98222995
895589708230604	-3.5360951	1.6305742	-1.3115349
895589713296522	-3.6255941	1.6726608	-1.5842059
895589718362440	-3.8413565	1.7382221	-1.7598298
895589723428358	-4.0771165	1.7922506	-1.8544147
895589728524794	-4.3837237	1.9767885	-1.7815826
895589733560194	-4.765278	2.1132221	-1.6619184
895589738656630	-5.056461	2.3105202	-1.4744093
895589743722548	-5.3544493	2.5542421	-1.2867098
895589748788466	-5.605841	2.7739859	-1.1403842
895589753854384	-5.8587875	2.9341402	-1.1213
895589758920302	-6.1100426	2.9716454	-1.1513467
895589764016737	-6.226031	2.901165	-1.2036879
895589769082655	-6.2576528	2.7109098	-1.3242309
895589774148573	-6.2550216	2.552804	-1.4794004
895589779214491	-6.16885	2.4852848	-1.6832368
895589784280409	-5.9774494	2.5271435	-1.8991649
895589789346327	-5.6987185	2.7831755	-2.102097
895589794412245	-5.430989	3.0997324	-2.2296348
895589799478163	-5.1877527	3.4501572	-2.251621
895589804574598	-4.9849095	3.6847134	-2.2361555
895589809640516	-4.8025913	3.7628956	-2.1539829
895589814706434	-4.7172127	3.7984142	-1.9758961
895589819772352	-4.673408	3.7363672	-1.742348
895589824838270	-4.5249195	3.5996704	-1.4052297
895589829904188	-4.4162283	3.3825006	-0.99999595
895589834970106	-4.303117	3.1364584	-0.54520345
895589840066542	-4.0825205	2.7779007	-0.38147938
895589845132460	-3.848947	2.0289001	-0.5115522
895589850198378	-3.5419734	0.92861557	-0.6916721
895589855264296	-3.094294	-0.14521122	-0.7612479
895589860330214	-2.52336	-1.0317898	-0.71292365
895589865396132	-2.0207264	-1.781147	-0.923398
895589870462050	-1.4383312	-2.2783632	-1.5565698
895589875527968	-0.7697142	-2.3703318	-2.6838293
895589880624403	-0.25048208	-2.1373205	-3.9083087
895589885690321	0.16676679	-1.3997297	-4.6549234
895589890756239	0.7999942	-0.01069355	-4.7850137
895589895822157	1.850717	1.7843037	-4.067023
895589900888075	2.8197424	3.637083	-2.4054604
895589905953993	3.7961142	5.1410875	-0.3038632
895589911019911	5.0335054	6.378929	1.7712072
895589916085829	6.485305	7.471161	3.7449565
895589921182265	7.251769	8.166486	5.2606564
895589926248182	7.0595427	8.239016	6.102933
895589931314100	6.3174543	7.6965685	6.1067185
895589936410536	5.738193	6.827982	5.5591836
895589941476454	5.5497403	5.7014513	4.637134
895589946542372	4.9355288	4.7443295	3.5421128
895589951608290	3.7079391	4.2423325	2.3773499
895589956674208	1.8892606	3.8208647	1.6105037
895589961740126	0.69642663	3.738121	1.1603154
895589966836561	-0.40417027	4.1030903	0.5757245
895589971902479	-0.9087672	4.358227	-0.25264394
895589976968397	-1.0305214	4.4683905	-0.81061685
895589982034315	-1.1916504	4.5066986	-1.084853
895589987100233	-1.1574042	4.55173	-1.244773
895589992166151	-1.1504011	4.0837135	-0.94802904
895589997232069	-1.549875	3.354416	0.16385233
895590002297987	-1.6051602	2.9837284	0.6977534
895590007394423	-0.757066	2.901555	0.46986532
895590012460341	0.17656946	2.7757587	0.27189577
895590017526259	0.4297135	2.402382	0.09681308
895590022592177	0.48246193	1.8603296	0.26613283
895590027658095	1.1872511	1.2699156	0.72790885
895590032724013	1.9917285	0.52562046	1.1999587
895590037820448	1.2803161	-0.3805399	1.5019635
895590042886366	0.5960612	-1.3664923	1.6439773
895590047952284	0.9958527	-2.0639944	1.9300996
895590053018202	2.0288684	-2.7030249	2.2013474
895590058084120	1.7361555	-3.4563732	1.9704611
895590063150038	1.4531395	-4.011876	1.9891176
895590068215956	1.668129	-4.558056	2.1200416
895590073281874	2.0819383	-5.118887	2.0112903
895590078378309	2.546986	-5.515836	1.8294876
895590083444227	2.6591914	-5.78529	1.7423213
895590088510145	2.9342973	-6.0780506	1.5981386
895590093576063	3.4964402	-6.2877874	1.4832215
895590098641981	3.821704	-6.4934397	1.5374908
895590103707899	4.107662	-6.6412745	1.5636957
895590108773817	4.3292255	-6.6702824	1.7152929
895590113839735	4.5752068	-6.752639	1.8130617
895590118905653	4.921132	-6.80809	1.9239383
895590124002089	5.11856	-6.732521	2.1099932
895590129068007	5.266181	-6.7222214	2.2100818
895590134133925	5.2494793	-6.641927	2.4634304
895590139199843	5.384493	-6.6017084	2.7333994
895590144265761	5.4990687	-6.5201325	3.0198789
895590149331679	5.6329546	-6.4068437	3.1647234
895590154428114	5.8688912	-6.2534704	3.2813532
895590159494032	5.943383	-6.109046	3.213416
895590164559950	6.109258	-5.914966	3.1424377
895590169625868	6.120662	-5.752615	2.9804857
895590174691786	6.0284653	-5.572935	2.773714
895590179757704	5.871447	-5.4166837	2.4760425
895590184823622	5.7803273	-5.1751366	2.1479683
895590189889540	5.5019016	-4.8889904	1.8226113
895590194985975	5.2804375	-4.5559597	1.466183
895590200051893	4.945262	-4.223645	1.0693893
895590205117811	4.466619	-3.9386158	0.6346762
895590210183729	3.9077404	-3.7139683	0.17304301
895590215249647	3.2970555	-3.5149088	-0.3618474
895590220315565	2.5183237	-3.2995005	-0.93013096
895590225381483	1.5341082	-3.0402794	-1.6474462
895590230447401	0.6820948	-2.621458	-2.331458
895590235543837	-0.27673984	-1.9490156	-3.0860727
895590240609755	-1.2403648	-0.9583645	-3.885513
895590245675673	-1.6406245	0.12529278	-4.621045
895590250741591	-2.3747509	1.2569408	-5.2604346
895590255807509	-3.2754488	2.495738	-5.630349
895590260873427	-4.5342817	3.9404325	-5.959812
895590265939345	-5.7418976	5.570262	-6.310946
895590271005263	-7.4321694	7.1432734	-6.633878
895590276101698	-9.55717	8.653826	-6.8407054
895590281167616	-11.922255	9.961956	-6.793721
895590286233534	-12.859945	10.726448	-6.4302135
895590291299452	-12.166508	10.732797	-5.8417444
895590296365370	-10.2591	10.166773	-5.309414
895590301431288	-8.102308	8.958264	-4.9581738
895590306527723	-6.22561	7.5123463	-4.678426
895590311593641	-4.429252	6.207657	-4.328191
895590316659559	-2.4909632	4.885187	-3.8394992
895590321725477	-1.200578	3.5409098	-3.2807436
895590326791395	-0.37811708	2.209323	-2.7733908
895590331857313	0.14425278	0.9535036	-2.4894967
895590336923231	0.59070206	0.09931564	-2.266427
895590341989149	1.2638783	-0.5971918	-2.0026958
895590347085585	1.9514675	-0.7832632	-1.7883772
895590352151503	2.4866762	-0.16067505	-1.4256777
895590357217421	2.8283465	1.2562866	-0.74545777
895590362283339	3.4840403	2.9443245	0.33180416
895590367349257	4.4588776	4.617261	1.5764973
895590372415175	5.513509	6.272396	2.6097188
895590377511610	6.833871	7.68489	3.341082
895590382577528	8.052142	8.66396	3.7430792
895590387643446	9.061147	9.213743	4.066526
895590392709364	9.205713	8.718482	4.6019683
895590397775282	8.579861	6.8618746	4.530127
895590402841200	7.3367333	3.6595287	3.4959617
895590407907118	5.545045	-0.53241825	2.0223317
895590412973036	4.3340025	-4.230979	0.8465607
895590418038954	4.383759	-6.3590193	0.8314878
895590423135390	4.4114294	-7.2083473	1.7668054
895590428201307	3.766937	-6.8947506	2.8052564
895590433267225	2.43516	-5.441228	3.7413554
895590438333143	1.5362532	-3.9049559	4.8356013
895590443399061	1.4890778	-2.8242502	6.202147
895590448464979	1.415348	-1.9524899	7.174441
895590453530897	1.2315719	-1.2148018	7.544697
895590458596815	1.1629274	-0.74577904	7.3528914
895590463693251	1.0400262	-0.697875	6.772432
895590468759169	0.82245994	-0.7957926	6.0965652
895590473825087	0.25145435	-0.8068533	5.55104
895590478891005	-0.2759776	-0.533514	5.4150033
895590483956923	-0.39174747	-0.16003227	5.5136333
895590489022841	-0.42380762	0.31258106	5.675039
895590494088759	-0.34913397	0.7816286	5.555544
895590499185194	-0.5001445	1.2435932	5.1755304
895590504251112	-0.5630405	1.6868229	4.6417475
895590509317030	-0.59191227	1.87325	3.6197767
895590514382948	-0.08937478	1.8987398	2.27469
895590519448866	0.61630833	1.9633274	0.9340237
895590524514784	1.0193852	2.0363646	-0.31661642
895590529580702	1.0211529	1.9042139	-0.8743496
895590534646620	0.63191366	1.5170841	-0.95603925
895590539743056	0.43304646	1.1680622	-0.9124078
895590544808973	0.4598434	0.794961	-0.8367117
895590549874891	0.35702193	0.025878906	-0.80721754
895590554940809	-0.13735104	-0.80638504	-0.57789636
895590560006727	-0.45465362	-1.3552408	-0.28165963
895590565103163	-0.0740304	-1.6762695	0.24014798
895590570169081	0.05106592	-2.099907	0.9346726
895590575234999	-4.774332E-4	-2.3823547	1.4034247
895590580300917	0.0047813654	-2.4989204	1.5535483
895590585366835	0.10167277	-2.5432444	1.6288538
895590590432753	0.3323754	-2.5047493	1.6606476
895590595498671	0.5191604	-2.3369818	1.578022
895590600564589	0.6472949	-2.0579834	1.4257708
895590605630507	0.62954926	-1.8519344	1.1183393
895590610696425	0.5201458	-1.7185965	0.9397158
895590615792860	0.27989787	-1.6588964	0.9535988
895590620858778	0.25539023	-1.5483894	0.9241171
895590625924696	0.093925476	-1.2436123	0.8636234
895590630990614	-0.33371365	-1.0126	0.8863572
