gyroscope_timestamp	gyroscope_x_data	gyroscope_y_data	gyroscope_z_data
895577748488147	0.30342102	0.8430939	-0.938385
895577753493030	0.28372192	0.9251251	-0.93252563
895577758558948	0.1915741	1.1850433	-0.8995056
895577763624866	0.04776001	1.4039612	-0.8307953
895577768690784	-0.10456848	1.4380493	-0.7588806
895577773756702	-0.2510376	1.3102112	-0.6773987
895577778822620	-0.3991089	1.052948	-0.58418274
895577783888538	-0.5695648	0.69395447	-0.48405457
895577788954455	-0.7538452	0.26411438	-0.32852173
895577794020373	-0.93974304	-0.19447327	-0.0909729
895577799086291	-1.1080475	-0.6647949	0.19718933
895577804152209	-1.2076569	-1.1276398	0.50079346
895577809218127	-1.2183075	-1.5329742	0.7687073
895577814284045	-1.1799622	-1.7849121	0.9524536
895577819349963	-1.1405334	-1.8301849	1.0472717
895577824415881	-1.0894012	-1.6773224	1.0786896
895577829481799	-0.96318054	-1.4040833	1.0946808
895577834578235	-0.7389374	-1.1414948	1.1324921
895577839644153	-0.3991089	-0.91885376	1.1985321
895577844710071	0.018997192	-0.68769836	1.1996002
895577849775989	0.35987854	-0.46611023	1.0227661
895577854841907	0.5148773	-0.3111267	0.6845398
895577859907825	0.38331604	-0.32603455	0.37295532
895577864973743	0.036575317	-0.53430176	0.24832153
895577870070178	-0.2622223	-0.87783813	0.26696777
895577875136096	-0.39964294	-1.2858429	0.3580475
895577880202014	-0.44226074	-1.6283264	0.5034485
895577885267932	-0.48327637	-1.7854462	0.6792145
895577890333850	-0.5615692	-1.7332458	0.86564636
895577895399768	-0.6728821	-1.5542908	1.0616455
895577900465686	-0.7927246	-1.3444214	1.2619171
895577905531604	-0.91363525	-1.1414948	1.4451447
895577910628039	-1.0393372	-0.9641266	1.6091919
895577915693957	-1.1842194	-0.8213806	1.7295685
895577920759875	-1.3173676	-0.714859	1.8105316
895577925825793	-1.4025879	-0.62164307	1.8765717
895577930891711	-1.4393463	-0.541214	1.9202576
895577935957629	-1.4121857	-0.50605774	1.9340973
895577941023547	-1.3301544	-0.5119171	1.926651
895577946089465	-1.2225647	-0.5204468	1.8920288
895577951155383	-1.1133728	-0.4746399	1.8270416
895577956251819	-0.99938965	-0.34361267	1.7455444
895577961317737	-0.8811493	-0.16252136	1.6667175
895577966383655	-0.7772827	-0.0027313232	1.579895
895577971449573	-0.70803833	0.07557678	1.4760437
895577976515491	-0.67555237	0.03189087	1.3466034
895577981581409	-0.653183	-0.11457825	1.1916046
895577986647327	-0.6127014	-0.34254456	1.0344849
895577991743762	-0.57328796	-0.6371002	0.8874817
895577996809680	-0.57221985	-0.9417572	0.749527
895578001875598	-0.59832764	-1.2064819	0.6291504
895578006941516	-0.6515808	-1.3247223	0.53967285
895578012007434	-0.7304077	-1.2964935	0.48854065
895578017073352	-0.8023224	-1.2336426	0.47149658
895578022139270	-0.8523865	-1.143631	0.4853363
895578027205188	-0.88487244	-1.0408325	0.5236969
895578032301623	-0.9003296	-0.94815063	0.58174133
895578037367541	-0.9109802	-0.88797	0.64512634
895578042433459	-0.922699	-0.9007416	0.70532227
895578047499377	-0.94932556	-0.98916626	0.7569885
895578052565295	-1.0057831	-1.1388397	0.81344604
895578057631213	-1.0862122	-1.3039551	0.87416077
895578062697131	-1.1719666	-1.4456329	0.93489075
895578067763049	-1.2337494	-1.5207367	0.99134827
895578072859485	-1.2518616	-1.5095367	1.0414124
895578077925403	-1.2289581	-1.4371033	1.069107
895578082991321	-1.180481	-1.3135376	1.0776215
895578088057239	-1.1224365	-1.1569366	1.0818939
895578093123157	-1.0563812	-1.0072784	1.085083
895578098189075	-0.9834137	-0.90927124	1.0786896
895578103254993	-0.9109802	-0.87358093	1.0701752
895578108320911	-0.8491974	-0.8810425	1.0712433
895578113417346	-0.8055115	-0.9151306	1.0802917
895578118483264	-0.7719574	-0.9620056	1.0946808
895578123549182	-0.7522583	-0.9987488	1.1085205
895578128615100	-0.73361206	-1.016861	1.1298218
895578133681018	-0.7107086	-1.0131378	1.1575165
895578138746936	-0.6766205	-0.9886322	1.1825562
895578143812854	-0.63453674	-0.94389343	1.2139893
895578148909289	-0.59298706	-0.8810425	1.2470093
895578153975207	-0.5562439	-0.79422	1.2768402
895578159041125	-0.524292	-0.6994171	1.308258
895578164107043	-0.4981842	-0.61524963	1.3391571
895578169172961	-0.4736786	-0.55293274	1.3679199
895578174238879	-0.45558167	-0.5231018	1.3854828
895578179304797	-0.4385376	-0.53323364	1.387619
895578184401233	-0.430542	-0.571579	1.3769684
895578189467151	-0.42893982	-0.6381531	1.3556671
895578194533069	-0.42042542	-0.7244415	1.322113
895578199598987	-0.40444946	-0.8075409	1.274704
895578204664905	-0.37568665	-0.8725128	1.208664
895578209761340	-0.32614136	-0.9129944	1.131958
895578214827258	-0.2521057	-0.91619873	1.0536652
895578219893176	-0.14984131	-0.8698578	0.97109985
895578224959094	-0.030532837	-0.77238464	0.8826904
895578230025012	0.095703125	-0.6322937	0.8006592
895578235090930	0.21873474	-0.4666443	0.7239685
895578240156848	0.3215332	-0.3143158	0.6589813
895578245222766	0.3865204	-0.18807983	0.59773254
895578250288684	0.40515137	-0.09967041	0.52474976
895578255354602	0.38224792	-0.05279541	0.44380188
895578260420520	0.3364563	-0.04107666	0.36444092
895578265486438	0.3018341	-0.052261353	0.29040527
895578270552356	0.29969788	-0.09434509	0.22116089
895578275648791	0.3327179	-0.15612793	0.15084839
895578280714709	0.39930725	-0.22695923	0.08000183
895578285780627	0.48771667	-0.2951355	0.018753052
895578290846545	0.59265137	-0.3345642	-0.03237915
895578295912463	0.7151489	-0.32922363	-0.07765198
895578300978381	0.85310364	-0.27383423	-0.12825012
895578306074817	1.001709	-0.19075012	-0.18737793
895578311140735	1.1508484	-0.07676697	-0.26727295
895578316206653	1.3015747	0.056930542	-0.36740112
895578321272571	1.4533844	0.18688965	-0.4909668
895578326338489	1.6110382	0.29927063	-0.62413025
895578331404407	1.7793427	0.39727783	-0.75302124
895578336470325	1.9444733	0.49475098	-0.89151
895578341536243	2.0866852	0.5991516	-1.0385132
895578346632678	2.228897	0.7030029	-1.1961823
895578351698596	2.3764343	0.78556824	-1.3804626
895578356764514	2.530899	0.81858826	-1.5844727
895578361830432	2.6805573	0.7903595	-1.8023071
895578366896350	2.8201141	0.71099854	-2.0430603
895578371962268	2.9309082	0.6156616	-2.3056488
895578377028186	2.9958801	0.5592041	-2.5485382
895578382094104	2.9884186	0.5805054	-2.7482758
895578387190539	2.8920135	0.7136688	-2.91391
895578392256457	2.7013397	0.97039795	-3.038025
895578397322375	2.4440765	1.3336487	-3.107788
895578402388293	2.18042	1.7464294	-3.1291046
895578407454211	1.9625702	2.0958405	-3.1168518
895578412520129	1.8240967	2.2204742	-3.0806274
895578417586047	1.7820129	2.0292664	-3.0044708
895578422651965	1.8102417	1.5765228	-2.8803558
895578427748401	1.8464661	1.0481567	-2.7328186
895578432814319	1.8352814	0.6124573	-2.6204376
895578437880237	1.7468567	0.34454346	-2.5730286
895578442946155	1.5966644	0.2140503	-2.5991364
895578448012073	1.386261	0.20074463	-2.6806183
895578453077991	1.1545715	0.26571655	-2.8105927
895578458143909	0.98999023	0.2982025	-3.0012665
895578463209827	0.95643616	0.24707031	-3.2228394
895578468306262	0.96229553	0.18049622	-3.4034119
895578473372180	0.92767334	0.11338806	-3.5141907
895578478438098	0.8525696	0.07609558	-3.5110016
895578483534534	0.7875824	0.021240234	-3.342682
895578488600452	0.79185486	0.035095215	-3.0864868
895578493666370	0.84085083	0.17144775	-2.8883514
895578498732288	0.8866577	0.35414124	-2.7621155
895578503798205	0.9106293	0.5064697	-2.628952
895578508864123	0.89411926	0.64974976	-2.4611816
895578513930041	0.85310364	0.79782104	-2.2880707
895578519026477	0.80729675	0.9373627	-2.1442566
895578524092395	0.7433777	1.165329	-2.0121765
895578529158313	0.6560211	1.5099487	-1.8987274
895578534224231	0.5622864	1.8934479	-1.8443909
895578539290149	0.4696045	2.1943817	-1.7724915
895578544356067	0.38331604	2.3664246	-1.7037811
895578549421985	0.30342102	2.4921265	-1.638794
895578554487903	0.22619629	2.5837402	-1.575943
895578559553821	0.15908813	2.6391296	-1.5093689
895578564619739	0.09677124	2.69133	-1.4284058
895578569685657	-0.019348145	2.6577759	-1.320282
895578574782092	-0.14237976	2.612503	-1.2249451
895578579848010	-0.24038696	2.5634918	-1.1386566
895578584913928	-0.3325348	2.5208893	-1.0587616
895578589979846	-0.43693542	2.4873352	-0.98046875
895578595045764	-0.5232239	2.435135	-0.88671875
895578600111682	-0.5961914	2.373352	-0.7881775
895578605177600	-0.669693	2.3041077	-0.699234
895578610243518	-0.73680115	2.2231445	-0.60601807
895578615309436	-0.7911377	2.1267395	-0.5165405
895578620375354	-0.82255554	2.0148773	-0.427063
895578625441272	-0.8395996	1.8843842	-0.33384705
895578630537707	-0.8395996	1.7203369	-0.23797607
895578635603625	-0.82522583	1.53125	-0.13783264
895578640669543	-0.796463	1.3096771	-0.03237915
895578645735461	-0.7538452	1.0646667	0.07788086
895578650801379	-0.71017456	0.80207825	0.18174744
895578655867297	-0.6707611	0.54216003	0.28294373
895578660933215	-0.6419983	0.2955475	0.37721252
895578665999133	-0.6281433	0.08728027	0.4656372
895578671095569	-0.63027954	-0.072509766	0.543396
895578676161487	-0.6574402	-0.18649292	0.6083832
895578681227405	-0.71017456	-0.26104736	0.66537476
895578686293323	-0.78260803	-0.3073883	0.7149048
895578691359241	-0.87742615	-0.32603455	0.75538635
895578696425159	-0.9780884	-0.30419922	0.7740326
895578701491077	-1.08461	-0.24295044	0.7782898
895578706556995	-1.2044525	-0.15612793	0.780426
895578711653430	-1.3200378	-0.053329468	0.7814789
895578716719348	-1.4207001	0.057998657	0.780426
895578721785266	-1.4990082	0.1751709	0.7836151
895578726851184	-1.5453339	0.31045532	0.79852295
895578731917102	-1.5458679	0.44787598	0.8171692
895578736983020	-1.4984741	0.56185913	0.8193054
895578742048938	-1.4233704	0.5922241	0.79959106
895578747114856	-1.3285522	0.51286316	0.76231384
895578752211291	-1.2124481	0.29768372	0.670166
895578757277209	-1.0888672	-0.053329468	0.51356506
895578762343127	-0.986084	-0.41978455	0.33779907
895578767409045	-0.9029846	-0.64294434	0.15298462
895578772474963	-0.7842102	-0.6749115	-0.056350708
895578777540881	-0.59884644	-0.57211304	-0.2875061
895578782606799	-0.3724823	-0.35958862	-0.5122833
895578787703235	-0.15037537	-0.07090759	-0.68644714
895578792769153	0.04083252	0.25720215	-0.78764343
895578797835071	0.1803894	0.5831604	-0.8361206
895578802900989	0.24642944	0.8718567	-0.8473053
895578807966907	0.23098755	1.0806427	-0.8169403
895578813032825	0.15322876	1.1642761	-0.74290466
895578818098743	0.016342163	1.1717224	-0.66726685
895578823195178	-0.13865662	1.0944977	-0.5751343
895578828261096	-0.26861572	0.910202	-0.4824524
895578833327014	-0.38633728	0.6465454	-0.38816833
895578838392932	-0.51789856	0.33815002	-0.28697205
895578843458850	-0.6766205	-0.016571045	-0.15594482
895578848524768	-0.8603821	-0.38941956	0.037399292
895578853590686	-1.0372162	-0.75746155	0.2919922
895578858656604	-1.1799622	-1.1191254	0.58387756
895578863722522	-1.26091	-1.4472198	0.8528595
895578868788440	-1.2854156	-1.6778564	1.0451355
895578873884875	-1.258255	-1.7572174	1.1516724
895578878950793	-1.17836	-1.6400452	1.1900177
895578884016711	-1.0510559	-1.3561401	1.2091827
895578889082629	-0.8688965	-1.0232544	1.2432709
895578894148547	-0.63827515	-0.73083496	1.2512665
895578899214465	-0.39645386	-0.5215149	1.1852264
895578904280383	-0.17434692	-0.3420105	0.9817505
895578909346301	0.01473999	-0.15452576	0.620636
895578914442737	0.070129395	-0.0639801	0.22755432
895578919508655	-0.12640381	-0.126297	0.023010254
895578924574573	-0.42893982	-0.2786255	-0.0057525635
895578929640491	-0.63560486	-0.5689087	0.020889282
895578934736926	-0.6973877	-0.9391022	0.060302734
895578939802844	-0.68940735	-1.2165985	0.15245056
895578944868762	-0.68566895	-1.3039551	0.28401184
895578949934680	-0.700058	-1.2315063	0.41822815
895578955000598	-0.7309418	-1.0557404	0.55937195
895578960097034	-0.7677002	-0.84802246	0.7101135
895578965162952	-0.81137085	-0.6637268	0.88427734
895578970228870	-0.8481293	-0.51831055	1.0813599
895578975294788	-0.8907318	-0.41285706	1.2848206
895578980360705	-0.9599762	-0.3665161	1.481369
895578985426623	-1.0254974	-0.3622589	1.6624603
895578990492541	-1.0585175	-0.3723755	1.8142548
895578995588977	-1.0430756	-0.37451172	1.9207916
895579000654895	-0.9967346	-0.37930298	1.978836
895579005720813	-0.9567871	-0.33828735	1.9942932
895579010786731	-0.9210968	-0.24507141	1.9697876
895579015852649	-0.88594055	-0.15505981	1.9149323
895579020918567	-0.8609009	-0.073028564	1.8345032
895579025984485	-0.8534546	-0.03149414	1.7242432
895579031050403	-0.84439087	-0.09007263	1.5868225
895579036116321	-0.82788086	-0.24028015	1.4318237
895579041212756	-0.7996521	-0.44374084	1.260849
895579046278674	-0.7597046	-0.67277527	1.0978699
895579051344592	-0.7309418	-0.8916931	0.96684265
895579056410510	-0.7362671	-1.0360413	0.8709717
895579061476428	-0.7708893	-1.0344391	0.80651855
895579066542346	-0.81243896	-0.9598694	0.7575226
895579071608264	-0.8518524	-0.9486847	0.7239685
895579076674182	-0.88275146	-0.97424316	0.71969604
895579081770618	-0.908844	-0.96733093	0.7271576
895579086836536	-0.9306793	-0.9172516	0.7383423
895579091902454	-0.95358276	-0.85653687	0.7628479
895579096968372	-0.98501587	-0.8283081	0.7921448
895579102034289	-1.0281525	-0.8762512	0.82196045
895579107100207	-1.0814209	-1.0040741	0.8470001
895579112166125	-1.1490631	-1.1745148	0.88108826
895579117232043	-1.2145691	-1.3252563	0.9284973
895579122328479	-1.257721	-1.4083405	0.97377014
895579127394397	-1.2667694	-1.415802	0.9993286
895579132460315	-1.2433319	-1.3737183	1.0131836
895579137526233	-1.1890106	-1.306076	1.0334167
895579142592151	-1.1059265	-1.2102051	1.0414124
895579147658069	-1.0057831	-1.1111298	1.0398102
895579152723987	-0.9019165	-1.0408325	1.0403442
895579157789905	-0.8108368	-0.9982147	1.0488739
895579162886340	-0.7426605	-0.9747772	1.0605774
895579167952258	-0.69685364	-0.95880127	1.0834808
895579173018176	-0.67874146	-0.97265625	1.118103
895579178084094	-0.6766205	-1.0126038	1.1660461
895579183150012	-0.6872711	-1.0536041	1.2193146
895579188215930	-0.700058	-1.0754547	1.2683105
895579193281848	-0.70059204	-1.0717163	1.3162537
895579198347766	-0.6904602	-1.0285797	1.3625946
895579203413684	-0.669693	-0.9406891	1.401474
895579208510120	-0.6377411	-0.82458496	1.4275665
895579213576038	-0.59991455	-0.71113586	1.4446106
895579218641955	-0.5658264	-0.61738586	1.4547272
895579223707873	-0.5338745	-0.5598602	1.4526062
895579228773791	-0.5093689	-0.54600525	1.4430084
895579233839709	-0.49499512	-0.57318115	1.4307709
895579238905627	-0.48220825	-0.62538147	1.4067993
895579244002063	-0.47155762	-0.6930237	1.3769684
895579249067981	-0.46144104	-0.7436218	1.3364868
895579254133899	-0.44332886	-0.7590637	1.2826996
895579259199817	-0.41775513	-0.7361603	1.2214355
895579264265735	-0.3927307	-0.6722412	1.1580505
895579269331653	-0.36289978	-0.57850647	1.0861511
895579274397571	-0.32507324	-0.46824646	1.0094452
895579279494006	-0.27926636	-0.36491394	0.92796326
895579284559924	-0.21855164	-0.27011108	0.8427429
895579289625842	-0.14772034	-0.18807983	0.7681732
895579294691760	-0.06941223	-0.12522888	0.6967926
895579299757678	8.8500977E-4	-0.08421326	0.6190338
895579304823596	0.0546875	-0.060256958	0.53700256
895579309889514	0.0978241	-0.041610718	0.45710754
895579314955432	0.14204407	-0.03149414	0.3788147
895579320021350	0.18943787	-0.037353516	0.30317688
895579325117786	0.24217224	-0.06291199	0.22434998
895579330183704	0.30023193	-0.117248535	0.14712524
895579335249622	0.35508728	-0.19767761	0.06881714
895579340315539	0.4115448	-0.28022766	-0.005218506
895579345381457	0.47546387	-0.34254456	-0.071258545
895579350447375	0.5580292	-0.37983704	-0.13464355
895579355513293	0.65390015	-0.3777008	-0.19642639
895579360609729	0.7545624	-0.33296204	-0.26567078
895579365675647	0.8594971	-0.2589264	-0.35728455
895579370741565	0.97454834	-0.18063354	-0.4867096
895579375807483	1.0965118	-0.12043762	-0.6369171
895579380873401	1.24086	-0.077301025	-0.778595
895579385939319	1.4081116	-0.0155181885	-0.90057373
895579391005237	1.5785522	0.07130432	-1.0214691
895579396071155	1.7282104	0.18475342	-1.1546326
895579401167590	1.8501892	0.30673218	-1.303772
895579406233508	1.9545898	0.40953064	-1.4667511
895579411299426	2.0477905	0.4819641	-1.6419983
895579416365344	2.1436768	0.5165863	-1.828949
895579421431262	2.2587128	0.5000763	-2.0286865
895579426497180	2.3886871	0.4377594	-2.2401428
895579431563098	2.5229034	0.3365631	-2.4302826
895579436629016	2.6475372	0.2140503	-2.579956
895579441725452	2.7434082	0.11764526	-2.6944733
895579446791370	2.7759094	0.089416504	-2.7914124
895579451857288	2.719986	0.16877747	-2.8606567
895579456923205	2.5751038	0.38981628	-2.8936768
895579461989123	2.3529968	0.75201416	-2.8920746
895579467055041	2.101059	1.1754608	-2.8675842
895579472120959	1.878952	1.5088806	-2.8201752
895579477217395	1.7505951	1.5893097	-2.7376099
895579482283313	1.7202301	1.3741302	-2.6193695
895579487349231	1.7489929	0.9549408	-2.4931335
895579492415149	1.7772217	0.5320282	-2.3924713
895579497481067	1.768692	0.21672058	-2.337082
895579502546985	1.7287445	0.0047302246	-2.337082
895579507612903	1.6781464	-0.12043762	-2.3935394
895579512709338	1.5476532	-0.07783508	-2.4979248
895579517775256	1.3873291	-0.02670288	-2.706192
895579522841174	1.3021088	-0.17424011	-2.945877
895579527907092	1.2632294	-0.49647522	-3.137619
895579532973010	1.1950531	-0.7670593	-3.2729187
895579538038928	1.0821381	-0.7979431	-3.3474731
895579543104846	0.954834	-0.7516022	-3.3389587
895579548170764	0.8605652	-0.6994171	-3.1930237
895579553236682	0.8483124	-0.5598602	-2.944275
895579558333118	0.8957062	-0.3697052	-2.7445374
895579563399036	0.9489746	-0.11936951	-2.639618
895579568464954	0.9575043	0.15066528	-2.5346832
895579573530872	0.92341614	0.36904907	-2.3993988
895579578596789	0.85523987	0.5991516	-2.2534485
895579583662707	0.7609558	0.9767761	-2.133606
895579588728625	0.6565552	1.4119415	-2.0036469
895579593794543	0.55696106	1.7943726	-1.8577118
895579598860461	0.4786682	2.0484467	-1.7293396
895579603956897	0.41740417	2.1778717	-1.6318665
895579609022815	0.35829163	2.2396545	-1.5359955
895579614088733	0.30342102	2.2449799	-1.4262695
895579619154651	0.25228882	2.2609558	-1.3213501
895579624220569	0.20275879	2.2987823	-1.2259979
895579629286487	0.103149414	2.247116	-1.083786
895579634382922	-0.011886597	2.1847992	-0.9884491
895579639448840	-0.11149597	2.2380524	-0.9580841
895579644514758	-0.19725037	2.312088	-0.8957672
895579649580676	-0.26489258	2.362152	-0.8265381
895579654646594	-0.31869507	2.4026337	-0.7535553
895579659712512	-0.36450195	2.4234161	-0.6731262
895579664778430	-0.4039154	2.4159546	-0.60069275
895579669844348	-0.44172668	2.3866577	-0.53730774
895579674910266	-0.48114014	2.3355255	-0.46380615
895579680006702	-0.52001953	2.2545624	-0.3924408
895579685072620	-0.5493164	2.1299286	-0.31466675
895579690138538	-0.5583801	1.946167	-0.23423767
895579695204455	-0.54878235	1.7118225	-0.15008545
895579700270373	-0.5232239	1.4273834	-0.052612305
895579705336291	-0.493927	1.102478	0.053375244
895579710402209	-0.46090698	0.76319885	0.16043091
895579715468127	-0.43959045	0.43562317	0.26802063
895579720564563	-0.43267822	0.14268494	0.3708191
895579725630481	-0.43746948	-0.10232544	0.45924377
895579730696399	-0.463562	-0.28822327	0.53009033
895579735762317	-0.5146942	-0.4133911	0.5870819
895579740828235	-0.5855408	-0.49221802	0.6318207
895579745894153	-0.669693	-0.5353546	0.6589813
895579750960071	-0.7730255	-0.56199646	0.66963196
895579756025989	-0.892334	-0.5726471	0.6770935
895579761122424	-1.021225	-0.5657196	0.68774414
895579766188342	-1.1533203	-0.5353546	0.69467163
895579771254260	-1.2795563	-0.4826355	0.71276855
895579776320178	-1.3866119	-0.4000702	0.7559204
895579781386096	-1.4707794	-0.27757263	0.82888794
895579786452014	-1.5234985	-0.12736511	0.9173126
895579791517932	-1.5400085	0.008453369	0.9854889
895579796583850	-1.5037994	0.09953308	1.0462036
895579801680286	-1.4084473	0.08355713	1.0728302
895579806746204	-1.2465363	-0.09007263	1.0227661
895579811812122	-1.0611725	-0.37716675	0.90878296
895579816878039	-0.90830994	-0.698349	0.76231384
895579821943957	-0.78686523	-0.96466064	0.61531067
895579827009875	-0.6483917	-1.066391	0.46350098
895579832075793	-0.45558167	-1.0056763	0.29145813
895579837172229	-0.21003723	-0.83044434	0.09599304
895579842238147	0.014205933	-0.49275208	-0.115997314
895579847304065	0.17506409	-0.04321289	-0.31999207
895579852369983	0.26454163	0.3978119	-0.45794678
895579857435901	0.2815857	0.7706604	-0.52293396
895579862501819	0.22512817	1.0556183	-0.53837585
895579867567737	0.1058197	1.2308502	-0.5325165
895579872633655	-0.031066895	1.259079	-0.4978943
895579877699573	-0.17114258	1.1413727	-0.443573
895579882765491	-0.31869507	0.926178	-0.3690033
895579887831409	-0.4784851	0.62950134	-0.27418518
895579892897327	-0.6446533	0.22364807	-0.15434265
895579897963245	-0.8188324	-0.2562561	0.04272461
895579903029163	-0.98820496	-0.7436218	0.32981873
895579908125598	-1.115509	-1.2272491	0.6717682
895579913191516	-1.1692963	-1.6682739	1.0158386
895579918257434	-1.1458588	-1.9942322	1.3045349
895579923323352	-1.0409393	-2.1513672	1.5282288
895579928389270	-0.8395996	-2.1076965	1.689621
895579933455188	-0.5605011	-1.8850555	1.7988129
895579938521106	-0.2782135	-1.5180664	1.8499451
895579943587024	-0.045440674	-1.0530853	1.8579407
895579948683459	0.18199158	-0.588089	1.8318329
895579953749377	0.45681763	-0.283432	1.72052
895579958815295	0.64378357	-0.3073883	1.4281006
895579963881213	0.586792	-0.6573334	0.96151733
895579968947131	0.2980957	-1.1090088	0.49386597
895579974013049	-0.07527161	-1.4706573	0.24032593
895579979078967	-0.38687134	-1.6629486	0.23127747
895579984144885	-0.5855408	-1.7577515	0.33461
895579989241321	-0.7453308	-1.811554	0.4379425
895579994307239	-0.91737366	-1.7993011	0.52316284
895579999373157	-1.0915375	-1.7194061	0.6137085
895580004439075	-1.2561188	-1.5984955	0.7260895
895580009504993	-1.3967285	-1.4695892	0.8416748
895580014570911	-1.5149841	-1.3289795	0.9620514
895580019667346	-1.5970001	-1.1974182	1.1037292
895580024733264	-1.6204376	-1.1287079	1.2693787
895580029799182	-1.577301	-1.1180573	1.4627228
895580034865100	-1.483017	-1.1201935	1.6587372
895580039961536	-1.3743591	-1.1100769	1.8126678
895580045027454	-1.2960663	-1.0408325	1.912796
895580050093372	-1.257721	-0.88848877	1.9538116
895580055159289	-1.2230988	-0.6781006	1.9351654
895580060225207	-1.1671753	-0.428833	1.8499451
895580065291125	-1.1037903	-0.20246887	1.7146606
895580070357043	-1.0398712	-0.055984497	1.5681763
895580075422961	-0.97276306	-0.0032653809	1.4307709
895580080488879	-0.87901306	-0.02243042	1.307724
895580085554797	-0.7607727	-0.1071167	1.1761627
895580090620715	-0.66064453	-0.24986267	1.038208
895580095686633	-0.59033203	-0.43522644	0.9050598
895580100752551	-0.52375793	-0.634964	0.77775574
895580105818469	-0.46516418	-0.8613281	0.6664429
895580110914905	-0.43426514	-1.0871735	0.60624695
895580115980823	-0.43746948	-1.2224579	0.6110382
895580121046741	-0.45716858	-1.2405701	0.6424713
895580126112659	-0.48646545	-1.1750488	0.6792145
895580131178577	-0.53334045	-1.1239166	0.7159729
895580136244495	-0.5993805	-1.1420288	0.7569885
895580141310413	-0.69099426	-1.2283173	0.81877136
895580146406848	-0.8161621	-1.3593445	0.8874817
895580151472766	-0.95625305	-1.4893036	0.9455414
895580156538684	-1.0894012	-1.5564117	0.9998627
895580161604602	-1.1767578	-1.495697	1.0478058
895580166670520	-1.21138	-1.349762	1.0728302
895580171736438	-1.2060547	-1.1958313	1.0744324
895580176802356	-1.1762238	-1.0605316	1.0605774
895580181868274	-1.1234894	-0.9662628	1.0249023
895580186964709	-1.0366821	-0.9263153	0.97535706
895580192030627	-0.9200287	-0.92684937	0.9221039
895580197096545	-0.7895355	-0.94229126	0.8666992
895580202162463	-0.6585083	-0.9747772	0.8118439
895580207228381	-0.5391998	-1.0179291	0.76657104
895580212294299	-0.43426514	-1.0711823	0.7394104
895580217390735	-0.35437012	-1.1452179	0.71810913
895580222456653	-0.3090973	-1.2320404	0.71224976
895580227522571	-0.29631042	-1.3146057	0.72502136
895580232588489	-0.31495667	-1.3614655	0.7537842
895580237654407	-0.34851074	-1.336441	0.8001251
895580242720325	-0.38313293	-1.2288513	0.86564636
895580247816760	-0.41615295	-1.0599976	0.93222046
895580252882678	-0.44439697	-0.85440063	0.9950714
895580257948596	-0.46090698	-0.6525421	1.0531311
895580263014514	-0.4816742	-0.48475647	1.1143799
895580268080432	-0.51097107	-0.35746765	1.1697693
895580273146350	-0.5509186	-0.2839508	1.2150421
895580278242786	-0.59832764	-0.27383423	1.258194
895580283308704	-0.63986206	-0.30792236	1.2832184
895580288374622	-0.66755676	-0.37130737	1.3002625
895580293440539	-0.66596985	-0.4522705	1.2976074
895580298506457	-0.6281433	-0.53855896	1.2810974
895580303572375	-0.55570984	-0.6083374	1.2534027
895580308638293	-0.4539795	-0.651474	1.2209015
895580313734729	-0.3458557	-0.6504059	1.1841583
895580318800647	-0.24412537	-0.6136627	1.1463318
895580323866565	-0.15570068	-0.541214	1.0978699
895580328932483	-0.08380127	-0.43736267	1.0509949
895580333998401	-0.029464722	-0.318573	1.0099792
895580339064319	0.01473999	-0.19926453	0.9663086
895580344130237	0.05682373	-0.09434509	0.92263794
895580349196155	0.10102844	-0.018173218	0.8752289
895580354292590	0.12872314	0.016448975	0.8102417
895580359358508	0.13137817	0.030288696	0.73088074
895580364424426	0.11647034	0.023376465	0.63235474
895580369490344	0.10635376	-0.0053863525	0.5188904
895580374556262	0.119140625	-0.037887573	0.40171814
895580379622180	0.16334534	-0.08528137	0.28240967
895580384688098	0.23312378	-0.14706421	0.17375183
895580389754016	0.3204651	-0.21205139	0.081604004
895580394850452	0.4152832	-0.27757263	0.009170532
895580399916370	0.5175476	-0.32710266	-0.045684814
895580404982288	0.62779236	-0.3446808	-0.09043884
895580410048205	0.7401886	-0.32496643	-0.13304138
895580415114123	0.85043335	-0.2685089	-0.18577576
895580420180041	0.94950867	-0.1774292	-0.25767517
895580425245959	1.0475159	-0.070373535	-0.35940552
895580430311877	1.1529694	0.008453369	-0.49523926
895580435408313	1.2792053	0.059051514	-0.63212585
895580440474231	1.4400635	0.09048462	-0.75250244
895580445540149	1.625946	0.12564087	-0.872345
895580450606067	1.8198242	0.18156433	-0.99909973
895580455671985	1.9945374	0.25613403	-1.1343994
895580460737903	2.147934	0.33602905	-1.2824707
895580465803821	2.2874756	0.41485596	-1.4417267
895580470900256	2.4163818	0.48356628	-1.6185608
895580475966174	2.5340881	0.5139313	-1.8103027
895580481032092	2.6203766	0.49528503	-2.0142975
895580486098010	2.6688385	0.4500122	-2.226822
895580491163928	2.674179	0.41271973	-2.4292145
895580496229846	2.626236	0.40420532	-2.6039276
895580501295764	2.5117188	0.45906067	-2.7573242
895580506361682	2.3418121	0.6279144	-2.8915405
895580511427600	2.135147	0.91978455	-2.9879456
895580516524036	1.9306183	1.2867737	-3.041748
895580521589954	1.7633667	1.6074219	-3.0811615
895580526655872	1.655777	1.751236	-3.1093903
895580531721789	1.6142273	1.6473694	-3.0971375
895580536787707	1.6328735	1.3118134	-3.025772
895580541853625	1.6669617	0.8899689	-2.9245758
895580546950061	1.6824036	0.5357666	-2.8388214
895580552015979	1.6408691	0.32963562	-2.7967377
895580557081897	1.52742	0.28276062	-2.8004608
895580562147815	1.3596344	0.36958313	-2.8361511
895580567213733	1.2461853	0.41218567	-2.9229736
895580572279651	1.2664185	0.32270813	-3.0358887
895580577345569	1.3766785	0.10913086	-3.1461487
895580582411487	1.4768219	-0.0362854	-3.2356262
895580587507922	1.5034485	-0.061309814	-3.2494812
895580592573840	1.4682922	-0.103393555	-3.1988678
895580597670276	1.4017181	-0.25253296	-3.0870209
895580602736194	1.3330078	-0.3430786	-2.897934
895580607802112	1.2776031	-0.2978058	-2.7131195
895580612868030	1.2371368	-0.15026855	-2.562912
895580617933948	1.2089081	0.105392456	-2.417511
895580622999866	1.1801453	0.46173096	-2.273697
895580628065784	1.1380615	0.7962189	-2.1527863
895580633131702	1.0874634	1.0545502	-2.0883331
895580638228137	1.0267334	1.3735962	-2.0308075
895580643294055	0.9377899	1.7118225	-1.9605103
895580648359973	0.8248749	1.9669495	-1.892868
895580653425891	0.70928955	2.149109	-1.8401337
895580658491809	0.60969543	2.263092	-1.7911224
895580663557727	0.5441742	2.3552399	-1.7245483
895580668654163	0.4887848	2.4793396	-1.7746124
895580673720080	0.3881073	2.5911865	-1.6984558
895580678785998	0.2970276	2.4766693	-1.4390564
895580683851916	0.21766663	2.3355255	-1.431076
895580688917834	0.13244629	2.3238068	-1.4502411
895580693983752	0.037643433	2.3467102	-1.4134979
895580699049670	-0.037994385	2.3637543	-1.3687439
895580704115588	-0.087524414	2.38826	-1.3074951
895580709181506	-0.12054443	2.4127655	-1.2387848
895580714247424	-0.1455841	2.4116974	-1.1540985
895580719313342	-0.17541504	2.3983765	-1.0529022
895580724379260	-0.21376038	2.3797302	-0.9511719
895580729445178	-0.24731445	2.342987	-0.8553009
895580734511096	-0.27767944	2.2726746	-0.7514343
895580739577014	-0.30430603	2.150177	-0.62519836
895580744642932	-0.3213501	1.9669495	-0.4909668
895580749708850	-0.33200073	1.7331238	-0.35302734
895580754805286	-0.34425354	1.4716034	-0.20921326
895580759871204	-0.36236572	1.1925049	-0.06274414
895580764937122	-0.39112854	0.907547	0.0773468
895580770003039	-0.43107605	0.65400696	0.20518494
895580775068957	-0.477417	0.45533752	0.3164978
895580780134875	-0.54133606	0.31951904	0.4102478
895580785200793	-0.622818	0.24707031	0.48161316
895580790266711	-0.71868896	0.22257996	0.5279541
895580795363147	-0.82362366	0.2177887	0.55511475
895580800429065	-0.94132996	0.20021057	0.5695038
895580805494983	-1.0718231	0.17198181	0.5801544
895580810560901	-1.2129822	0.12776184	0.5961304
895580815626819	-1.3610535	0.07450867	0.62168884
895580820692737	-1.5096588	0.013244629	0.65737915
895580825758655	-1.6587982	-0.0597229	0.7149048
895580830824573	-1.7978058	-0.13801575	0.79533386
895580835921008	-1.9133911	-0.20939636	0.8805542
895580840986926	-1.9874268	-0.2754364	0.96577454
895580846052844	-2.0034027	-0.34786987	1.0467377
895580851118762	-1.9528046	-0.4192505	1.1223755
895580856184680	-1.8308258	-0.48368835	1.1937408
895580861250598	-1.6534576	-0.57318115	1.2262268
895580866316516	-1.4468079	-0.71539307	1.2033234
895580871382434	-1.2433319	-0.91778564	1.1308899
895580876478870	-1.0798187	-1.0898285	1.0142517
895580881544788	-0.95518494	-1.1878357	0.8901367
895580886610705	-0.84866333	-1.1564026	0.7878723
895580891676623	-0.7650299	-0.92045593	0.72769165
895580896742541	-0.70484924	-0.5257721	0.6025238
895580901808459	-0.64360046	-0.11830139	0.36549377
895580906874377	-0.5695648	0.19593811	0.08799744
895580911940295	-0.5162964	0.51498413	-0.19056702
895580917036731	-0.5008545	0.8617401	-0.40042114
895580922102649	-0.49871826	1.1355133	-0.5048218
895580927168567	-0.49179077	1.2601471	-0.53944397
895580932234485	-0.49925232	1.2143402	-0.54263306
895580937300403	-0.5349426	0.9959564	-0.5202637
895580942366321	-0.6084442	0.62205505	-0.46220398
895580947432239	-0.72828674	0.15280151	-0.34875488
895580952528674	-0.9003296	-0.3585205	-0.16500854
895580957594592	-1.0830231	-0.8948822	0.1007843
895580962660510	-1.2294922	-1.401413	0.43367004
895580967726428	-1.2811584	-1.7950287	0.7655029
895580972792346	-1.2145691	-2.0640106	1.0307617
895580977858264	-1.0723572	-2.1220703	1.1937408
895580982924182	-0.9200287	-1.9356537	1.2731018
895580987990100	-0.79325867	-1.588913	1.2933502
895580993086536	-0.6920624	-1.176117	1.2848206
895580998152454	-0.5892639	-0.75746155	1.2470093
895581003218372	-0.44812012	-0.412323	1.1969452
895581008284289	-0.2617035	-0.2051239	1.1213074
895581013350207	-0.00869751	-0.12683105	0.98228455
895581018416125	0.28479004	-0.1689148	0.7367401
895581023482043	0.4115448	-0.36065674	0.38414
895581028547961	0.20115662	-0.72817993	0.07467651
895581033644397	-0.18499756	-1.145752	-0.0025482178
895581038710315	-0.4694214	-1.4717255	0.07574463
895581043776233	-0.5615692	-1.6778564	0.19718933
895581048842151	-0.56103516	-1.7428436	0.3521881
895581053908069	-0.5727539	-1.6762543	0.5098419
895581058973987	-0.60523987	-1.4999542	0.6589813
895581064039905	-0.6665039	-1.2080688	0.78733826
895581069136340	-0.7746277	-0.8496094	0.88427734
895581074202258	-0.9056549	-0.5369568	0.96577454
895581079268176	-1.0222931	-0.35212708	1.0669708
895581084334094	-1.0910034	-0.2919464	1.1958771
895581089400012	-1.1043243	-0.32870483	1.3444824
895581094465930	-1.0739594	-0.41818237	1.5016022
895581099531848	-1.0148315	-0.5257721	1.6294403
895581104597766	-0.94718933	-0.6338959	1.7125244
895581109694202	-0.878479	-0.71539307	1.7577972
895581114760120	-0.8108368	-0.7361603	1.75354
895581119826038	-0.7543793	-0.7052765	1.7114563
895581124891955	-0.7277527	-0.6482849	1.6278381
895581129957873	-0.7341461	-0.57743835	1.4930878
895581135023791	-0.76556396	-0.50286865	1.3295593
895581140089709	-0.81030273	-0.49168396	1.1591187
895581145186145	-0.85824585	-0.602478	0.9897461
895581150252063	-0.88861084	-0.8394928	0.8427429
895581155317981	-0.89979553	-1.1212616	0.7133026
895581160383899	-0.9099121	-1.368393	0.61582947
895581165449817	-0.92375183	-1.5697327	0.56044006
895581170515735	-0.9466553	-1.6789246	0.5556488
895581175581653	-0.9589081	-1.6629486	0.5822754
895581180647571	-0.9487915	-1.542038	0.6248932
895581185713489	-0.92163086	-1.384903	0.6872101
895581190809924	-0.8896637	-1.2496185	0.7649689
895581195875842	-0.8683624	-1.1873016	0.84432983
895581200941760	-0.8646393	-1.1968842	0.91304016
895581206007678	-0.88594055	-1.256546	0.9785614
895581211073596	-0.9312134	-1.3390961	1.0467377
895581216139514	-0.9988556	-1.4243164	1.1058655
895581221205432	-1.0750275	-1.4903717	1.1473999
895581226301868	-1.1261597	-1.5138092	1.1564636
895581231367786	-1.1490631	-1.4802551	1.1388855
895581236433704	-1.1517181	-1.3945007	1.1127777
895581241499622	-1.1288147	-1.2677307	1.069107
895581246565539	-1.0697021	-1.144165	1.0067902
895581251631457	-0.9876709	-1.0626678	0.94233704
895581256697375	-0.8896637	-1.0253754	0.8816223
895581261763293	-0.78367615	-1.0243225	0.8278198
895581266859729	-0.6798096	-1.0312347	0.7894745
895581271925647	-0.5839386	-1.0466919	0.76657104
895581276991565	-0.50457764	-1.0765076	0.7569885
895581282057483	-0.44332886	-1.09729	0.75857544
895581287123401	-0.41082764	-1.1084747	0.7751007
895581292189319	-0.40657043	-1.1058044	0.8027954
895581297255237	-0.42681885	-1.0695953	0.84007263
895581302351672	-0.46090698	-0.98809814	0.8848114
895581307417590	-0.5061798	-0.87571716	0.9343567
895581312483508	-0.54771423	-0.7633209	0.9854889
895581317549426	-0.5850067	-0.67118835	1.0371552
895581322615344	-0.6174927	-0.6136627	1.0861511
895581327681262	-0.63879395	-0.59555054	1.1255646
895581332747180	-0.6473236	-0.6147156	1.1585846
895581337813098	-0.63986206	-0.6536102	1.1793671
895581342909534	-0.6238861	-0.70474243	1.1878815
895581347975452	-0.5961914	-0.7590637	1.1830902
895581353041370	-0.5503845	-0.7995453	1.1713715
895581358107288	-0.49179077	-0.8240509	1.1543274
895581363173205	-0.42201233	-0.8213806	1.131424
895581368239123	-0.33946228	-0.77770996	1.1063843
895581373305041	-0.25317383	-0.7068634	1.0765686
895581378370959	-0.17434692	-0.6227112	1.0344849
895581383467395	-0.1056366	-0.5422821	0.98654175
895581388533313	-0.048110962	-0.47836304	0.93540955
895581393599231	0.0030212402	-0.42297363	0.87841797
895581398665149	0.049362183	-0.38409424	0.82196045
895581403731067	0.09729004	-0.36705017	0.7655029
895581408796985	0.15216064	-0.36865234	0.7047882
895581413862903	0.20594788	-0.38356018	0.63500977
895581418928821	0.2469635	-0.41018677	0.5545807
895581424025256	0.26293945	-0.43043518	0.45977783
895581429091174	0.24963379	-0.42829895	0.3591156
895581434157092	0.2272644	-0.4133911	0.26483154
895581439223010	0.223526	-0.3968811	0.17694092
895581444288928	0.2427063	-0.38356018	0.08000183
895581449354846	0.2980957	-0.3899536	-0.012130737
895581454420764	0.39344788	-0.4080658	-0.09416199
895581459486682	0.5106201	-0.42829895	-0.16340637
895581464583118	0.6448364	-0.44215393	-0.2166748
895581469649036	0.79771423	-0.4357605	-0.2598114
895581474714954	0.9532318	-0.39527893	-0.30775452
895581479780872	1.1124878	-0.31059265	-0.37486267
895581484846789	1.2728119	-0.1928711	-0.46380615
895581489912707	1.431015	-0.075164795	-0.56874084
895581494978625	1.5918579	0.04360962	-0.69177246
895581500044543	1.7404633	0.1709137	-0.8196106
895581505140979	1.8613739	0.30992126	-0.94317627
895581510206897	1.9572449	0.4350891	-1.0763397
895581515272815	2.0435333	0.53630066	-1.2398529
895581520338733	2.1420746	0.6161957	-1.4246826
895581525404651	2.2581787	0.654541	-1.6286774
895581530470569	2.390808	0.63217163	-1.8443909
895581535536487	2.5388794	0.5368347	-2.0595703
895581540602405	2.689087	0.3935547	-2.2619781
895581545698840	2.833969	0.24441528	-2.4388123
895581550764758	2.9426117	0.14427185	-2.5703735
895581555830676	2.9745789	0.14533997	-2.6545258
895581560896594	2.912262	0.2843628	-2.706726
895581565962512	2.754074	0.5623932	-2.7248383
895581571028430	2.5239716	0.91978455	-2.7131195
895581576094348	2.2800293	1.2601471	-2.6784973
895581581160266	2.071762	1.4646759	-2.6316223
895581586256702	1.9503174	1.4476318	-2.5884857
895581591322620	1.9322205	1.2154083	-2.546936
895581596388538	1.9780273	0.82551575	-2.480362
895581601454455	2.0264893	0.4031372	-2.406845
895581606520373	2.0344849	0.07876587	-2.370102
895581611586291	1.9689636	-0.07835388	-2.3993988
895581616652209	1.8278198	-0.12736511	-2.480362
895581621748645	1.6579132	-0.2051239	-2.609253
895581626814563	1.4837341	-0.37290955	-2.7999268
895581631880481	1.320221	-0.62057495	-3.021515
895581636946399	1.193985	-0.8826294	-3.2388153
895581642012317	1.0997162	-0.9918213	-3.3831635
895581647078235	1.0336609	-0.85440063	-3.4124603
895581652144153	0.9974518	-0.65093994	-3.3634644
895581657210071	0.92341614	-0.5321655	-3.264923
895581662306506	0.8323364	-0.5012665	-3.137619
895581667372424	0.78811646	-0.39421082	-3.0225677
895581672438342	0.7945099	-0.15505981	-2.8995361
895581677504260	0.82115173	0.12776184	-2.7445374
895581682570178	0.84191895	0.3754425	-2.5756989
895581687636096	0.83924866	0.53630066	-2.4180298
895581692702014	0.80036926	0.7658539	-2.261444
895581697767932	0.73805237	1.2015533	-2.130951
895581702833850	0.66934204	1.6431122	-1.9956665
895581707930286	0.6144867	1.9445801	-1.8385315
895581712996204	0.5676117	2.1150208	-1.6925964
895581718062122	0.50050354	2.2188873	-1.5652924
895581723128039	0.4307251	2.2843933	-1.4486389
895581728193957	0.36201477	2.3275452	-1.3336029
895581733259875	0.28479004	2.3616333	-1.208435
895581738325793	0.17771912	2.3158264	-1.0518341
895581743391711	0.08291626	2.3206177	-0.95436096
895581748488147	-0.008163452	2.40477	-0.888855
895581753554065	-0.09498596	2.4750824	-0.8105469
895581758619983	-0.16795349	2.5123596	-0.7338562
895581763685901	-0.22866821	2.534729	-0.6539612
895581768751819	-0.28033447	2.5405884	-0.5793915
895581773817737	-0.33041382	2.519287	-0.5133362
895581778914172	-0.38259888	2.4793396	-0.44943237
895581783980090	-0.43640137	2.4207458	-0.3844452
895581789046008	-0.48486328	2.3376617	-0.3141327
895581794111926	-0.52641296	2.2279358	-0.2443695
895581799177844	-0.557312	2.0820007	-0.16552734
895581804243762	-0.57754517	1.8854523	-0.08883667
895581809309680	-0.5823364	1.6463013	-0.0020141602
895581814375598	-0.5706177	1.3666687	0.0970459
895581819441516	-0.54452515	1.050293	0.20730591
895581824507434	-0.5115051	0.7259064	0.31489563
895581829573352	-0.48539734	0.4111328	0.41503906
895581834639270	-0.46676636	0.11871338	0.5045166
895581839735705	-0.4678192	-0.119903564	0.5833435
895581844801623	-0.49446106	-0.28875732	0.6515198
895581849867541	-0.542923	-0.40859985	0.702652
895581854933459	-0.6158905	-0.48210144	0.7410126
895581859999377	-0.7096405	-0.51937866	0.77082825
895581865065295	-0.82362366	-0.524704	0.78733826
895581870131213	-0.9519806	-0.5092621	0.8006592
895581875197131	-1.0931396	-0.4746399	0.8043823
895581880263049	-1.2481384	-0.42137146	0.8059845
895581885359485	-1.4020691	-0.35479736	0.8182373
895581890425403	-1.5368195	-0.2754364	0.84806824
895581895491321	-1.6444092	-0.17370605	0.9039917
895581900557239	-1.7141876	-0.030960083	0.9684448
895581905623157	-1.736023	0.10006714	1.0201111
895581910689075	-1.703537	0.15226746	1.052063
895581915754993	-1.6002045	0.11657715	1.0557861
895581920851428	-1.3951416	-0.0043182373	1.0019989
895581925917346	-1.1144409	-0.22644043	0.90345764
895581930983264	-0.8491974	-0.52363586	0.73461914
895581936049182	-0.6723633	-0.7910309	0.48747253
895581941115100	-0.5439911	-0.8959503	0.25950623
895581946181018	-0.41563416	-0.75852966	0.029937744
895581951246936	-0.2744751	-0.45387268	-0.21028137
895581956312854	-0.13546753	-0.058120728	-0.42173767
895581961378772	-0.014556885	0.37065125	-0.6022949
895581966475207	0.051498413	0.77119446	-0.732254
895581971541125	0.046691895	1.050293	-0.7860565
895581976607043	-0.024139404	1.1786499	-0.7711334
895581981672961	-0.13119507	1.1861115	-0.71095276
895581986738879	-0.26756287	1.0960999	-0.62838745
895581991804797	-0.430542	0.8910217	-0.54637146
895581996870715	-0.5866089	0.60873413	-0.43185425
895582001967151	-0.72242737	0.32377625	-0.24809265
895582007033069	-0.84706116	0.023910522	-0.036636353
895582012098987	-0.9423981	-0.35533142	0.21742249
895582017164905	-1.0127106	-0.79740906	0.5210266
895582022230823	-1.0558472	-1.2102051	0.8123779
895582027296741	-1.0441284	-1.5132751	1.0233002
895582032362659	-0.94400024	-1.6416321	1.118103
895582037428577	-0.7735596	-1.5500183	1.0978699
895582042525012	-0.63134766	-1.3247223	1.0142517
895582047590930	-0.5605011	-1.0754547	0.8901367
895582052656848	-0.5205536	-0.8773041	0.72662354
895582057722766	-0.43800354	-0.77397156	0.5417938
895582062788684	-0.2989807	-0.70739746	0.34153748
895582067854602	-0.14930725	-0.6067352	0.16789246
895582072920520	-0.059829712	-0.524704	0.088531494
895582077986438	-0.101379395	-0.5534668	0.08639526
895582083052356	-0.25743103	-0.73243713	0.116760254
895582088148791	-0.39006042	-1.0546722	0.16842651
895582093214709	-0.42095947	-1.4333801	0.26750183
895582098280627	-0.40071106	-1.6970367	0.42462158
895582103346545	-0.40177917	-1.7268524	0.61849976
895582108412463	-0.44865417	-1.5628052	0.79959106
895582113508899	-0.53227234	-1.3263245	0.9758911
895582118574817	-0.63879395	-1.0765076	1.1591187
895582123640735	-0.7511902	-0.82670593	1.3359528
895582128706653	-0.8497162	-0.5838318	1.5037384
895582133772571	-0.9210968	-0.3388214	1.6613922
895582138838489	-0.96157837	-0.13694763	1.7950897
895582143904407	-0.9642334	0.0031280518	1.8765717
895582148970325	-0.9429321	0.09741211	1.8968201
895582154036243	-0.91630554	0.14533997	1.8717804
895582159102161	-0.9045868	0.17889404	1.7956238
895582164198596	-0.91204834	0.20021057	1.6720428
895582169264514	-0.93014526	0.1943512	1.5351563
895582174330432	-0.95783997	0.13682556	1.3998718
895582179396350	-0.9919281	-0.014984131	1.2592621
895582184462268	-1.0148315	-0.28448486	1.1079865
895582189528186	-1.004715	-0.6291046	0.95458984
895582194594104	-0.94400024	-0.99502563	0.82728577
895582199660022	-0.8609009	-1.2975616	0.7383423
895582204756457	-0.80444336	-1.4706573	0.6589813
895582209822375	-0.77249146	-1.5127411	0.573761
895582214888293	-0.7431946	-1.4227295	0.5077057
895582219954211	-0.7234955	-1.289032	0.46243286
895582225020129	-0.71817017	-1.1713257	0.4576416
895582230086047	-0.72135925	-1.0525513	0.5114441
895582235182483	-0.7320099	-0.90660095	0.5886688
895582240248401	-0.7554474	-0.80859375	0.6595154
895582245314319	-0.7943268	-0.80859375	0.73194885
895582250380237	-0.859848	-0.8773041	0.79852295
895582255446155	-0.9498596	-0.97691345	0.8666992
895582260512073	-1.0451965	-1.08078	0.9386139
895582265577991	-1.1197662	-1.1532135	1.0126495
895582270643909	-1.164505	-1.1745148	1.0755005
895582275740344	-1.1725006	-1.1713257	1.115982
895582280806262	-1.1442719	-1.1489563	1.1282349
895582285872180	-1.098465	-1.1068726	1.1133118
895582290968616	-1.0425415	-1.0562744	1.0888214
895582296034534	-0.9844818	-1.0024719	1.0600586
895582301100452	-0.92855835	-0.9641266	1.0099792
895582306166370	-0.8742218	-0.9774475	0.956192
895582311232288	-0.83799744	-1.0466919	0.91464233
895582316298205	-0.8172302	-1.127121	0.88801575
895582321364123	-0.80818176	-1.2016754	0.8746948
895582326460559	-0.8012543	-1.2661285	0.8805542
895582331526477	-0.8012543	-1.3124695	0.9109192
895582336592395	-0.8039093	-1.3236542	0.94766235
895582341658313	-0.8065796	-1.2901001	0.9966736
895582346724231	-0.8055115	-1.225647	1.0621796
895582351790149	-0.80285645	-1.1393585	1.1378174
895582356856067	-0.7937927	-1.0296478	1.2033234
895582361921985	-0.779953	-0.9098053	1.2597961
895582367018420	-0.7618408	-0.8048706	1.3157196
895582372084338	-0.73361206	-0.73669434	1.3620605
895582377150256	-0.6963196	-0.7121887	1.3977356
895582382216174	-0.6489258	-0.71858215	1.4238434
895582387282092	-0.59298706	-0.75427246	1.434494
895582392348010	-0.5274811	-0.8048706	1.4382172
895582397413928	-0.45877075	-0.85653687	1.4328918
895582402479846	-0.39378357	-0.8922272	1.4243774
895582407545764	-0.33200073	-0.89967346	1.4057312
895582412642200	-0.2702179	-0.88316345	1.3838959
895582417708118	-0.20683289	-0.8517456	1.3524628
895582422774036	-0.14930725	-0.8022156	1.3130493
895582427839954	-0.10191345	-0.74468994	1.2640533
895582432905872	-0.066223145	-0.68769836	1.2012024
895582437971789	-0.0390625	-0.6264343	1.1266327
895582443037707	-0.0134887695	-0.5635834	1.0392761
895582448134143	0.018463135	-0.50553894	0.9428711
895582453200061	0.04510498	-0.45280457	0.83688354
895582458265979	0.060546875	-0.40327454	0.7218323
895582463331897	0.061080933	-0.33721924	0.5924072
895582468397815	0.0546875	-0.255188	0.45870972
895582473463733	0.05734253	-0.15878296	0.337265
895582478529651	0.08078003	-0.058654785	0.22755432
895582483626086	0.12286377	0.014312744	0.13113403
895582488692004	0.17718506	0.044677734	0.05177307
895582493757922	0.23205566	0.030288696	-0.016403198
895582498823840	0.2826538	-0.008590698	-0.073394775
895582503889758	0.34178162	-0.060256958	-0.12025452
895582508955676	0.42114258	-0.1071167	-0.157547
895582514021594	0.5319214	-0.13215637	-0.18577576
895582519087512	0.6560211	-0.12683105	-0.20547485
895582524153430	0.78492737	-0.103393555	-0.24009705
895582529249866	0.9148865	-0.068237305	-0.30348206
895582534315784	1.0373993	-0.026168823	-0.39137268
895582539381702	1.1540375	-0.0053863525	-0.50961304
895582544447620	1.2845306	-0.0128479	-0.6390381
895582549513538	1.4373932	-0.026168823	-0.7519684
895582554579455	1.6163635	-0.013916016	-0.86753845
895582559645373	1.8144989	0.027633667	-0.99909973
895582564711291	2.022766	0.08569336	-1.1477051
895582569807727	2.2368774	0.13575745	-1.304306
895582574873645	2.451004	0.15226746	-1.4672852
895582579939563	2.6576538	0.13789368	-1.6382599
895582585005481	2.849411	0.09953308	-1.8113708
895582590071399	3.0203857	0.060653687	-1.9839478
895582595137317	3.1625977	0.032424927	-2.1447906
895582600233752	3.2558136	0.02923584	-2.292328
895582605299670	3.2584686	0.058517456	-2.4143066
895582610365588	3.153534	0.14533997	-2.5048523
895582615431506	2.945282	0.3365631	-2.5740967
895582620497424	2.6656494	0.62950134	-2.6209717
895582625563342	2.371643	0.96932983	-2.6534576
895582630629260	2.1282196	1.2638702	-2.6688995
895582635695178	1.972168	1.3932953	-2.6806183
895582640791614	1.925293	1.2793121	-2.6848907
895582645857532	1.9540558	0.9464264	-2.6492004
895582650923450	1.9998627	0.52137756	-2.578888
895582655989368	2.0094452	0.13789368	-2.500595
895582661055286	1.9604492	-0.12310791	-2.4446716
895582666121204	1.8693695	-0.28448486	-2.4441376
895582671187122	1.7282104	-0.30047607	-2.5123138
895582676253039	1.5476532	-0.23762512	-2.656128
895582681349475	1.3628387	-0.2131195	-2.868637
895582686415393	1.2451172	-0.34521484	-3.0651855
895582691481311	1.1625671	-0.53855896	-3.2111206
895582696547229	1.0698853	-0.59820557	-3.3208466
895582701613147	0.9846649	-0.5337677	-3.3805084
895582706679065	0.9106293	-0.48156738	-3.32724
895582711744983	0.8498993	-0.41818237	-3.1269684
895582716810901	0.8232727	-0.26371765	-2.914444
895582721876819	0.8302002	-0.07090759	-2.771698
895582726942737	0.85043335	0.159729	-2.6449432
895582732008655	0.85417175	0.34614563	-2.4894104
895582737074573	0.8328552	0.5267029	-2.3274841
895582742140491	0.7929077	0.7291107	-2.1905975
895582747236926	0.7423096	0.90541077	-2.0574493
895582752302844	0.6799927	1.1727905	-1.9471893
895582757368762	0.6144867	1.5051575	-1.8220215
895582762434680	0.5463104	1.7384491	-1.6904602
895582767500598	0.4818573	1.8918457	-1.5828705
895582772566516	0.4099579	1.9999695	-1.4853973
895582777632434	0.3364563	2.0979767	-1.3921814
895582782698352	0.26774597	2.153366	-1.2973785
895582787794788	0.18357849	2.1544342	-1.2142944
895582792860705	0.083984375	2.1597595	-1.1343994
895582797926623	-0.02520752	2.1768036	-1.0550232
895582802992541	-0.13119507	2.2039642	-0.99165344
895582808058459	-0.22441101	2.2417908	-0.9314575
895582813124377	-0.30004883	2.2779999	-0.8707428
895582818190295	-0.36715698	2.3184814	-0.8180084
895582823256213	-0.430542	2.3467102	-0.76634216
895582828352649	-0.4790039	2.3499146	-0.7077484
895582833418567	-0.52375793	2.328598	-0.652359
895582838484485	-0.5663605	2.2891846	-0.5900421
895582843550403	-0.5935211	2.2140808	-0.5165405
895582848616321	-0.60791016	2.1000977	-0.43878174
895582853682239	-0.60523987	1.9445801	-0.3466339
895582858748157	-0.5866089	1.7443085	-0.23797607
895582863814075	-0.5562439	1.4907684	-0.12664795
895582868879993	-0.52215576	1.2004852	-0.013198853
895582873976428	-0.4901886	0.89582825	0.10824585
895582879042346	-0.46888733	0.5954132	0.2264862
895582884108264	-0.46195984	0.32164	0.33461
895582889174182	-0.46730042	0.08888245	0.43740845
895582894240100	-0.4928589	-0.09913635	0.52474976
895582899306018	-0.542923	-0.24081421	0.5961304
895582904371936	-0.61642456	-0.33403015	0.65419006
895582909468372	-0.71177673	-0.38302612	0.69306946
895582914534289	-0.828949	-0.40486145	0.7175751
895582919600207	-0.9621124	-0.39900208	0.72769165
895582924666125	-1.101654	-0.37451172	0.7303467
895582929732043	-1.2497253	-0.33135986	0.73301697
895582934797961	-1.3908844	-0.27223206	0.7425995
895582939863879	-1.5160522	-0.1928711	0.76763916
895582944929797	-1.6193695	-0.09541321	0.81344604
895582950026233	-1.689682	0.028701782	0.88002014
895582955092151	-1.7072601	0.17996216	0.9529877
895582960158069	-1.673172	0.3243103	1.0174408
895582965223987	-1.5826263	0.43403625	1.0611115
895582970289905	-1.4249725	0.4297638	1.0621796
895582975355823	-1.2294922	0.27478027	1.005722
895582980421741	-1.0425415	0.0020599365	0.876297
895582985518176	-0.90830994	-0.30633545	0.69039917
895582990584094	-0.828949	-0.5358887	0.49066162
895582995650012	-0.7309418	-0.6434784	0.2930603
895583000715930	-0.5780792	-0.6237793	0.10771179
895583005781848	-0.4081726	-0.44747925	-0.11920166
895583010847766	-0.24359131	-0.15666199	-0.35888672
895583015913684	-0.0901947	0.15545654	-0.5474396
895583021010120	0.018997192	0.43989563	-0.6731262
895583026076038	0.0738678	0.68595886	-0.73065186
895583031141955	0.081848145	0.8659973	-0.7285309
895583036207873	0.028060913	0.97358704	-0.6939087
895583041273791	-0.060897827	0.9810486	-0.62731934
895583046339709	-0.16635132	0.8691864	-0.55755615
895583051405627	-0.29312134	0.6337738	-0.48884583
895583056502063	-0.44332886	0.31098938	-0.40042114
895583061567981	-0.60098267	-0.033615112	-0.2720642
895583066603381	-0.75491333	-0.34947205	-0.085632324
895583071699817	-0.89979553	-0.6402893	0.17108154
895583076765735	-1.0137787	-0.93110657	0.48428345
895583081831653	-1.0776825	-1.2197876	0.77989197
895583086897571	-1.0803528	-1.4690704	1.0003967
895583091963489	-0.986084	-1.6256561	1.1053314
895583097059924	-0.7980499	-1.6363068	1.0893402
895583102125842	-0.5770111	-1.5047455	0.99453735
895583107222278	-0.40071106	-1.2687988	0.8555145
895583112288196	-0.31921387	-0.9998169	0.70532227
895583117354114	-0.3005829	-0.794754	0.5567169
895583122420032	-0.28193665	-0.6695862	0.3830719
895583127485950	-0.23773193	-0.54016113	0.18386841
895583132551868	-0.17753601	-0.38835144	0.057632446
895583137617786	-0.1690216	-0.32389832	0.056045532
895583142683704	-0.25636292	-0.41711426	0.10824585
895583147749622	-0.39112854	-0.665329	0.16789246
895583152846057	-0.4896698	-1.0264435	0.2334137
895583157911975	-0.5328064	-1.3737183	0.34100342
895583162977893	-0.5621033	-1.5686646	0.5071869
895583168043811	-0.6020508	-1.5462952	0.71383667
895583173109729	-0.66223145	-1.3577423	0.91038513
895583178175647	-0.7426605	-1.0759888	1.082428
895583183241565	-0.84280396	-0.7510834	1.2246399
895583188307483	-0.958374	-0.45013428	1.3583221
895583193373401	-1.0776825	-0.24028015	1.4994812
895583198469836	-1.1666412	-0.15080261	1.6496735
895583203535754	-1.1932678	-0.18489075	1.78656
895583208601672	-1.178894	-0.2754364	1.8765717
895583213667590	-1.1394806	-0.34414673	1.9218445
895583218733508	-1.0878143	-0.37023926	1.9271698
895583223799426	-1.0324097	-0.31378174	1.8952179
895583228865344	-0.9802246	-0.20193481	1.8510132
895583233961780	-0.93814087	-0.096466064	1.7993469
895583239027698	-0.9157715	-0.052261353	1.7247772
895583244093616	-0.9003296	-0.09806824	1.6134644
895583249159534	-0.875824	-0.24720764	1.4611206
895583254225452	-0.83055115	-0.4911499	1.2869568
895583259291370	-0.76290894	-0.7894287	1.1101227
895583264357288	-0.686203	-1.0754547	0.94607544
895583269423205	-0.6105652	-1.3124695	0.81077576
895583274519641	-0.559433	-1.4333801	0.6909332
895583279585559	-0.5450592	-1.3886414	0.5876007
895583284651477	-0.55410767	-1.2155304	0.51942444
895583289717395	-0.57754517	-0.96733093	0.4890747
895583294783313	-0.5908661	-0.6882324	0.4880066
895583299849231	-0.59832764	-0.5007324	0.5034485
895583304915149	-0.61483765	-0.44960022	0.526886
895583310011584	-0.6526489	-0.4714508	0.576416
895583315077502	-0.7309418	-0.53056335	0.6403351
895583320143420	-0.8395996	-0.6322937	0.69625854
895583325209338	-0.95783997	-0.81658936	0.74580383
895583330275256	-1.0808868	-1.0419006	0.7836151
895583335341174	-1.1831512	-1.2182007	0.81770325
895583340407092	-1.2332153	-1.3119354	0.84114075
895583345473010	-1.2236328	-1.3545532	0.84913635
895583350569446	-1.1597137	-1.3412323	0.8528595
895583355635364	-1.0627747	-1.2858429	0.8539276
895583360701282	-0.96051025	-1.2054138	0.8587189
895583365767200	-0.8630371	-1.1105957	0.8709717
895583370833118	-0.7746277	-1.0402985	0.8725586
895583375899036	-0.7064514	-1.0126038	0.87309265
895583380964954	-0.6611786	-1.0115356	0.88534546
895583386030872	-0.6446533	-1.0296478	0.91145325
895583391127307	-0.64785767	-1.0621338	0.95033264
895583396193225	-0.6643677	-1.0930328	0.9998627
895583401259143	-0.68460083	-1.1068726	1.0611115
895583406325061	-0.7043152	-1.0951538	1.1292877
895583411390979	-0.72454834	-1.0562744	1.2017365
895583416456897	-0.7389374	-0.9897003	1.2677765
895583421522815	-0.74905396	-0.9002075	1.3306274
895583426619250	-0.7511902	-0.7894287	1.3886871
895583431685168	-0.74212646	-0.66638184	1.4360962
895583436751086	-0.72454834	-0.5699768	1.4712372
895583441817004	-0.7016449	-0.51405334	1.4989471
895583446882922	-0.6792755	-0.49168396	1.5165253
895583451948840	-0.6595764	-0.49967957	1.5229034
895583457014758	-0.639328	-0.5241699	1.5207825
895583462111194	-0.6185608	-0.56199646	1.5117188
895583467177112	-0.59884644	-0.6014099	1.4914856
895583472243030	-0.57489014	-0.6338959	1.4616547
895583477308948	-0.54185486	-0.6647949	1.4254303
895583482374866	-0.50883484	-0.68395996	1.3844299
895583487440784	-0.46995544	-0.6887512	1.3370209
895583492506702	-0.42575073	-0.6860962	1.2816315
895583497572620	-0.37301636	-0.67170715	1.2150421
895583502669055	-0.30802917	-0.651474	1.1399536
895583507734973	-0.23506165	-0.6147156	1.0488739
895583512800891	-0.15409851	-0.55400085	0.9439392
895583517866809	-0.07527161	-0.4677124	0.8336792
895583522932727	-0.0049743652	-0.36332703	0.7239685
895583527998645	0.060546875	-0.24827576	0.61317444
895583533064563	0.12232971	-0.13961792	0.5045166
895583538160998	0.18571472	-0.046936035	0.3995819
895583543226916	0.25228882	0.01272583	0.29145813
895583548292834	0.3130188	0.018585205	0.1828003
895583553358752	0.35508728	-0.027755737	0.08746338
895583558424670	0.37852478	-0.1108551	0.0038452148
895583563490588	0.39291382	-0.21098328	-0.07232666
895583568556506	0.41635132	-0.31271362	-0.13783264
895583573622424	0.46748352	-0.40379333	-0.19429016
895583578718860	0.5606842	-0.47303772	-0.2406311
895583583784778	0.6906433	-0.5050049	-0.28004456
895583588850696	0.85150146	-0.49061584	-0.32266235
895583593916614	1.0246124	-0.42936707	-0.3844452
895583598982532	1.1982422	-0.34680176	-0.47392273
895583604048450	1.3750763	-0.27330017	-0.5793915
895583609114368	1.5561829	-0.220047	-0.6859131
895583614180286	1.7340698	-0.16091919	-0.77645874
895583619246204	1.892273	-0.073028564	-0.8781891
895583624342639	2.0286255	0.04147339	-0.9964447
895583629408557	2.1623077	0.18263245	-1.1349182
895583634474475	2.3018646	0.31684875	-1.3000488
895583639540393	2.4632568	0.39888	-1.4784698
895583644606311	2.6379547	0.39888	-1.6675568
895583649672229	2.8126526	0.3312378	-1.8715515
895583654738147	2.9820404	0.24069214	-2.101654
895583659834582	3.1274414	0.1474762	-2.3322754
895583664900500	3.217453	0.0574646	-2.529358
895583669966418	3.2190552	0.010055542	-2.690216
895583675032336	3.1130676	0.105392456	-2.8223114
895583680098254	2.9031982	0.40367126	-2.9059296
895583685164172	2.6081238	0.88464355	-2.945877
895583690230090	2.2869415	1.4550934	-2.9661102
895583695296008	2.0233002	1.9397888	-2.9906158
895583700361926	1.8821411	2.0905151	-2.9959412
895583705458362	1.8816223	1.8204651	-2.9378815
895583710524280	1.9551239	1.259613	-2.8079224
895583715590198	2.0158386	0.6034088	-2.6513367
895583720656116	1.9993286	0.12243652	-2.5416107
895583725722034	1.892807	-0.096466064	-2.5272217
895583730787952	1.7079773	-0.11192322	-2.596466
895583735884387	1.4608307	0.0010070801	-2.7083282
895583740950305	1.2323303	-0.026168823	-2.8760986
895583746016223	1.1188812	-0.27809143	-3.0785065
895583751082141	1.0938568	-0.5769043	-3.281433
895583756148059	1.0570984	-0.7526703	-3.4492188
895583761213977	0.9889221	-0.7995453	-3.5253754
895583766279895	0.9005127	-0.77770996	-3.453476
895583771376330	0.8435211	-0.71006775	-3.2207184
895583776442248	0.85736084	-0.4868927	-2.9661102
895583781508166	0.92500305	-0.13162231	-2.7956696
895583786574084	0.9958496	0.16931152	-2.675293
895583791640002	1.0192871	0.3232422	-2.5314941
895583796705920	0.97720337	0.38716125	-2.3642426
895583801771838	0.8882599	0.5032654	-2.1938019
895583806837756	0.77267456	0.80740356	-2.0531769
895583811903674	0.64590454	1.275589	-1.9573059
895583817000110	0.5271301	1.7027588	-1.8715515
895583822066028	0.4317932	2.0154114	-1.765564
895583827131946	0.35935974	2.2199402	-1.653183
895583832197864	0.300766	2.3376617	-1.5466461
895583837263782	0.23898315	2.3951874	-1.4550323
895583842329700	0.1569519	2.4319305	-1.3740845
895583847395618	0.062149048	2.4676208	-1.2664795
895583852461536	-0.039596558	2.4910583	-1.1631622
895583857557971	-0.1375885	2.519287	-1.0731354
895583862623889	-0.23027039	2.5603027	-0.99697876
895583867689807	-0.29951477	2.5773468	-0.9096222
895583872755725	-0.353302	2.5837402	-0.8206787
895583877821643	-0.39964294	2.5943909	-0.73757935
895583882887561	-0.44172668	2.5911865	-0.65875244
895583887953479	-0.48753357	2.580536	-0.5831146
895583893049914	-0.5391998	2.5613708	-0.50642395
895583898115832	-0.5908661	2.5240784	-0.42918396
895583903181750	-0.6281433	2.453247	-0.349823
895583908247668	-0.65211487	2.3504486	-0.267807
895583913313586	-0.6654358	2.202896	-0.18257141
895583918379504	-0.6611786	1.9967804	-0.085113525
895583923445422	-0.64785767	1.7485657	0.022491455
895583928541858	-0.63027954	1.4524231	0.1327362
895583933607776	-0.61109924	1.1307068	0.24565125
895583938673694	-0.59884644	0.81858826	0.35058594
895583943739612	-0.5972595	0.5288391	0.44805908
895583948805530	-0.60417175	0.2705078	0.5322113
895583953871448	-0.62867737	0.0617218	0.6003876
895583958937366	-0.6728821	-0.09327698	0.65045166
895583964003284	-0.7341461	-0.20672607	0.68881226
895583969069202	-0.8092499	-0.29141235	0.71224976
895583974165637	-0.90245056	-0.3457489	0.7229004
895583979231555	-1.0079193	-0.37823486	0.72502136
895583984297473	-1.1250916	-0.3931427	0.72662354
895583989363391	-1.2507935	-0.3856964	0.7229004
895583994429309	-1.3759613	-0.36917114	0.719162
895583999495227	-1.4915466	-0.348938	0.72769165
895584004561145	-1.5868835	-0.30473328	0.749527
895584009627063	-1.6412201	-0.22323608	0.7852173
895584014723498	-1.6380157	-0.122039795	0.84432983
895584019789416	-1.576767	0.0025939941	0.92263794
895584024855334	-1.4659729	0.13415527	0.9961395
895584029921252	-1.3120422	0.1906128	1.0259705
895584034987170	-1.115509	0.09048462	0.9785614
895584040053088	-0.9210968	-0.1966095	0.8608551
895584045119006	-0.779953	-0.57850647	0.6813507
895584050184924	-0.683548	-0.89009094	0.4837494
895584055281360	-0.5684967	-1.0285797	0.32395935
895584060347278	-0.4081726	-0.9497528	0.13166809
895584065413196	-0.22441101	-0.6775665	-0.12557983
895584070479114	-0.06462097	-0.3143158	-0.3743286
895584075545032	0.062683105	0.06011963	-0.5469055
895584080610950	0.15855408	0.4212494	-0.63212585
895584085707385	0.2000885	0.73869324	-0.6731262
895584090773303	0.15748596	0.9975586	-0.7003021
895584095839221	0.061080933	1.1440277	-0.6651459
895584100905139	-0.039596558	1.1312408	-0.5612793
895584105971057	-0.15090942	0.9884949	-0.4867096
895584111036975	-0.2936554	0.7445526	-0.460083
895584116102893	-0.45237732	0.4308319	-0.3610077
895584121168811	-0.620697	0.10166931	-0.16552734
895584126234729	-0.7943268	-0.24720764	0.08799744
895584131331164	-0.95625305	-0.64775085	0.39053345
895584136397082	-1.0840759	-1.082367	0.684021
895584141463000	-1.1495972	-1.4855804	0.9055939
895584146528918	-1.1378784	-1.814209	1.0318298
895584151594836	-1.0318756	-2.0293884	1.0509949
895584156691272	-0.85398865	-2.0565643	0.97109985
895584161726672	-0.68460083	-1.9111481	0.8475342
895584166823108	-0.5695648	-1.6746674	0.71969604
895584171889026	-0.48007202	-1.4568176	0.6168976
895584176954944	-0.36608887	-1.3316498	0.50930786
895584182020862	-0.20576477	-1.1990204	0.3287506
895584187086780	-0.015625	-0.9513397	0.11143494
895584192152698	0.121795654	-0.72125244	-0.029174805
895584197218616	0.06800842	-0.6834259	-0.035568237
895584202284534	-0.1375885	-0.79740906	0.032608032
895584207380969	-0.31921387	-0.97265625	0.12261963
895584212446887	-0.3874054	-1.1995544	0.23446655
895584217512805	-0.3794098	-1.4062195	0.39904785
895584222578723	-0.38420105	-1.4749298	0.60731506
895584227644641	-0.43214417	-1.3753204	0.8267517
895584232710559	-0.52908325	-1.145752	1.0307617
895584237776477	-0.65211487	-0.85227966	1.2150421
895584242842395	-0.78474426	-0.5614624	1.3689728
895584247908313	-0.925354	-0.31645203	1.500534
895584253004748	-1.0606384	-0.1577301	1.6379547
895584258070666	-1.1714325	-0.09913635	1.7785797
895584263136584	-1.2396088	-0.112457275	1.8872375
895584268202502	-1.2657013	-0.16677856	1.9479523
895584273268420	-1.2518616	-0.20779419	1.9628601
895584278334338	-1.2044525	-0.2131195	1.9314423
895584283430774	-1.1421356	-0.16996765	1.8728485
895584288496692	-1.0856781	-0.056518555	1.8030701
895584293562610	-1.0420074	0.03668213	1.6981506
895584298628528	-1.0164337	0.04307556	1.5665894
895584303694446	-0.9977875	-0.060256958	1.420105
895584308760364	-0.9653015	-0.2727661	1.2667084
895584313826282	-0.9152374	-0.58436584	1.1138458
895584318892200	-0.8688965	-0.92471313	0.9540558
895584323958118	-0.843338	-1.2283173	0.8001251
895584329054553	-0.8214874	-1.4568176	0.6680298
895584334120471	-0.7980499	-1.5196686	0.573761
895584339186389	-0.7778168	-1.3566742	0.5290222
895584344252307	-0.7746277	-1.0781097	0.51356506
895584349318225	-0.7788849	-0.88423157	0.5077057
895584354414661	-0.78100586	-0.7910309	0.52316284
895584359480579	-0.7895355	-0.73669434	0.5657654
895584364546497	-0.82255554	-0.6860962	0.6248932
895584369612414	-0.8715668	-0.64401245	0.6893463
895584374678332	-0.9264221	-0.6807709	0.7516632
895584379744250	-0.9929962	-0.8128662	0.8059845
895584384810168	-1.0787506	-0.9897003	0.85765076
895584389876086	-1.1725006	-1.1729279	0.9008026
895584394942004	-1.2486572	-1.3518829	0.9370117
895584400007922	-1.2827454	-1.4850464	0.9636383
895584405104358	-1.2651825	-1.5521545	0.9796295
895584410170276	-1.2183075	-1.542572	0.98335266
895584415236194	-1.1501312	-1.4642639	0.98228455
895584420302112	-1.0670319	-1.3582764	0.97377014
895584425368030	-0.9818115	-1.2645264	0.972702
895584430433948	-0.90512085	-1.1889038	0.9817505
895584435530383	-0.8465271	-1.1345673	0.9961395
895584440596301	-0.7996521	-1.1138	1.0227661
895584445662219	-0.7687683	-1.1287079	1.0627136
895584450728137	-0.7511902	-1.1675873	1.1186371
895584455794055	-0.74905396	-1.2086029	1.1793671
895584460859973	-0.7543793	-1.2251129	1.241684
895584465925891	-0.7650299	-1.2165985	1.308258
895584470991809	-0.76716614	-1.1734467	1.371109
895584476057727	-0.76290894	-1.0861053	1.4249115
895584481154163	-0.749588	-0.9790497	1.4749756
895584486220080	-0.72935486	-0.88797	1.5079956
895584491285998	-0.7053833	-0.8299103	1.5325012
895584496351916	-0.6830139	-0.80540466	1.5490112
895584501417834	-0.6574402	-0.80966187	1.5532684
895584506483752	-0.6329346	-0.83203125	1.5404816
895584511549670	-0.6143036	-0.86346436	1.5079956
895584516646106	-0.59991455	-0.9007416	1.464325
895584521712024	-0.5807495	-0.923645	1.4142456
895584526777942	-0.5519867	-0.9183197	1.3482056
895584531843860	-0.5077667	-0.8826294	1.2757721
895584536909778	-0.4513092	-0.81391907	1.2017365
895584541975696	-0.38154602	-0.7084656	1.1213074
895584547041614	-0.30537415	-0.58755493	1.0350189
895584552107532	-0.22068787	-0.475708	0.941803
895584557173450	-0.13386536	-0.38302612	0.8486023
895584562269885	-0.05557251	-0.30952454	0.7559204
895584567335803	0.016342163	-0.26531982	0.66537476
895584572401721	0.07598877	-0.24880981	0.57055664
895584577467639	0.114868164	-0.24934387	0.4725647
895584582533557	0.12765503	-0.25253296	0.38095093
895584587599475	0.123931885	-0.24667358	0.30264282
895584592665393	0.1212616	-0.23921204	0.23979187
895584597761829	0.13191223	-0.23228455	0.18919373
895584602827747	0.1681366	-0.23442078	0.14498901
895584607893664	0.2272644	-0.25039673	0.105041504
895584612959582	0.29969788	-0.2839508	0.06562805
895584618025500	0.38012695	-0.3255005	0.027816772
895584623091418	0.47174072	-0.35212708	-0.01373291
895584628157336	0.5782623	-0.35586548	-0.05102539
895584633223254	0.7044983	-0.3345642	-0.094696045
895584638319690	0.83766174	-0.29301453	-0.157547
895584643385608	0.97187805	-0.23069763	-0.23530579
895584648451526	1.1103668	-0.17477417	-0.3375702
895584653517444	1.2520447	-0.1342926	-0.45848083
895584658583362	1.4081116	-0.10179138	-0.5847168
895584663649280	1.5796204	-0.08049011	-0.7088165
895584668715198	1.7601776	-0.053863525	-0.8339844
895584673811633	1.9460602	-0.008590698	-0.9761963
895584678877551	2.1292877	0.051071167	-1.1338654
895584683943469	2.309845	0.11604309	-1.3027039
895584689009387	2.4882813	0.17835999	-1.4875336
895584694075305	2.6629791	0.22790527	-1.670227
895584699141223	2.8270416	0.25932312	-1.8678284
895584704207141	2.9735107	0.28115845	-2.0883331
895584709273059	3.0811005	0.24388123	-2.2966003
895584714369495	3.137558	0.14161682	-2.4771576
895584719435413	3.1242523	0.056930542	-2.6177673
895584724501330	3.0336914	0.075042725	-2.7296295
895584729567248	2.8701782	0.24388123	-2.8207092
895584734633166	2.6544647	0.5623932	-2.8675842
895584739699084	2.4227753	0.9805145	-2.8744965
895584744765002	2.2086487	1.385315	-2.8697052
895584749861438	2.035019	1.6159363	-2.8579865
895584754927356	1.942337	1.5339203	-2.8143158
895584759993274	1.9274292	1.1802521	-2.722702
895584765059192	1.9402008	0.7056732	-2.6177673
895584770125110	1.9162292	0.2982025	-2.5543976
895584775191028	1.7969208	0.06758118	-2.5447998
895584780256946	1.5913239	0.05000305	-2.595932
895584785322864	1.3692169	0.1474762	-2.7173767
895584790419299	1.2216797	0.12670898	-2.9011383
895584795485217	1.1796112	-0.055984497	-3.0859528
895584800551135	1.1923828	-0.25306702	-3.2409515
895584805617053	1.1828003	-0.34361267	-3.3293762
895584810682971	1.1524353	-0.34254456	-3.3506775
895584815748889	1.0965118	-0.3777008	-3.2729187
895584820845325	1.0432587	-0.3777008	-3.0758362
895584825911243	1.051239	-0.21365356	-2.8462677
895584830977161	1.0885315	0.013244629	-2.6630402
895584836043079	1.1263428	0.19807434	-2.512848
895584841108997	1.131134	0.39674377	-2.3663635
895584846174914	1.100769	0.66944885	-2.2193604
895584851240832	1.048584	0.9687958	-2.071289
895584856306750	0.98573303	1.2606812	-1.9391937
895584861372668	0.907959	1.54776	-1.8406677
895584866438586	0.8243408	1.7949066	-1.7639618
895584871535022	0.7268677	2.006897	-1.6616974
895584876600940	0.6251373	2.168808	-1.5578308
895584881666858	0.5345917	2.2716064	-1.496582
895584886732776	0.45256042	2.3318024	-1.4566345
895584891798694	0.36468506	2.3658905	-1.4044342
895584896864612	0.26667786	2.4138184	-1.3447876
895584901930530	0.17506409	2.469757	-1.273941
895584907026965	0.09196472	2.5432587	-1.2196198
895584912092883	0.009414673	2.6162262	-1.1700745
895584917158801	-0.06036377	2.6844025	-1.111496
895584922224719	-0.1253357	2.74086	-1.0411835
895584927290637	-0.18232727	2.7786713	-0.9671478
895584932356555	-0.2270813	2.7893372	-0.89471436
895584937422473	-0.271286	2.773346	-0.81321716
895584942518909	-0.32295227	2.7366028	-0.74131775
895584947584827	-0.3794098	2.6822662	-0.67526245
895584952650745	-0.43373108	2.5933228	-0.5985718
895584957716663	-0.47528076	2.4580383	-0.51760864
895584962782580	-0.49499512	2.2705536	-0.427063
895584967848498	-0.49179077	2.036728	-0.3221283
895584972914416	-0.47953796	1.7624207	-0.21453857
895584977980334	-0.46195984	1.4609528	-0.10055542
895584983076770	-0.44332886	1.1525574	0.011306763
895584988142688	-0.43800354	0.8649292	0.11943054
895584993208606	-0.44172668	0.6082001	0.22169495
895584998274524	-0.45558167	0.3834381	0.31703186
895585003340442	-0.48806763	0.20074463	0.3995819
895585008406360	-0.54133606	0.06437683	0.4656372
895585013472278	-0.61642456	-0.04374695	0.51730347
895585018538196	-0.7149658	-0.13482666	0.55192566
895585023634631	-0.8342743	-0.21472168	0.5748291
895585028700549	-0.97062683	-0.28501892	0.59399414
895585033766467	-1.1165771	-0.34147644	0.6137085
895585038832385	-1.274231	-0.39367676	0.6382141
895585043898303	-1.4393463	-0.44108582	0.6669769
895585048964221	-1.6065979	-0.48742676	0.7090454
895585054030139	-1.7562561	-0.51086426	0.7601776
895585059126575	-1.8713074	-0.475708	0.8251648
895585064192493	-1.9352264	-0.37716675	0.9071808
895585069258411	-1.926712	-0.21791077	0.9982605
895585074324329	-1.8473358	-0.04321289	1.084549
895585079390247	-1.6971436	0.070236206	1.1500702
895585084456164	-1.4761047	0.06011963	1.1766968
895585089522082	-1.2092438	-0.16252136	1.134613
895585094588000	-0.98127747	-0.5902252	0.9774933
895585099684436	-0.82629395	-1.1020813	0.7729645
895585104750354	-0.71443176	-1.4418945	0.61050415
895585109816272	-0.57647705	-1.5111389	0.45870972
895585114882190	-0.38259888	-1.3050079	0.25045776
895585119948108	-0.18925476	-0.84428406	0.0027770996
895585125014026	-0.03479004	-0.21472168	-0.2598114
895585130079944	0.09677124	0.38876343	-0.47392273
895585135176379	0.16867065	0.88890076	-0.59962463
895585140242297	0.1681366	1.2734528	-0.652359
895585145308215	0.11061096	1.5104828	-0.6651459
895585150374133	0.025390625	1.5594788	-0.64331055
895585155440051	-0.08113098	1.4529572	-0.5959015
895585160505969	-0.19831848	1.2159424	-0.52879333
895585165571887	-0.34532166	0.88197327	-0.4478302
895585170668323	-0.542923	0.51498413	-0.30827332
895585175734241	-0.7597046	0.13682556	-0.09202576
895585180800159	-0.9519806	-0.2796936	0.19239807
895585185866077	-1.0840759	-0.72976685	0.5114441
895585190931995	-1.1543884	-1.1825104	0.799057
895585195997913	-1.163971	-1.575058	0.99560547
895585201063830	-1.1165771	-1.8227386	1.0771027
895585206129748	-1.0084534	-1.8728027	1.0541992
895585211226184	-0.875824	-1.7353821	0.95565796
895585216292102	-0.78686523	-1.5159302	0.82196045
895585221358020	-0.719223	-1.3550873	0.71276855
895585226423938	-0.6217499	-1.319397	0.6259613
895585231489856	-0.48806763	-1.3423004	0.48054504
895585236555774	-0.3005829	-1.2629395	0.2334137
895585241621692	-0.084869385	-1.0727844	0.010772705
895585246687610	0.0014190674	-0.9497528	-0.057937622
895585251784045	-0.11203003	-0.9710541	-9.460449E-4
895585256849963	-0.29951477	-1.129776	0.08746338
895585261915881	-0.43426514	-1.3950348	0.18067932
895585266981799	-0.46995544	-1.671463	0.32289124
895585272047717	-0.4582367	-1.8051605	0.5375366
895585277113635	-0.477417	-1.748703	0.7740326
895585282210071	-0.54559326	-1.5665283	0.99346924
895585287275989	-0.6680908	-1.3327179	1.1964111
895585292341907	-0.8220215	-1.0520172	1.3897552
895585297407825	-0.9679718	-0.72869873	1.5745697
895585302473743	-1.0760956	-0.44906616	1.7657928
895585307539661	-1.1373444	-0.26158142	1.9474182
895585312605579	-1.1426697	-0.16571045	2.1008148
895585317671497	-1.1091156	-0.13215637	2.202011
895585322737414	-1.0606384	-0.11883545	2.2515564
895585327803332	-1.0111084	-0.1071167	2.246231
895585332899768	-0.96318054	-0.061309814	2.198822
895585337965686	-0.90937805	0.030288696	2.119995
895585343031604	-0.8449249	0.15386963	2.008667
895585348097522	-0.7922058	0.2662506	1.8701782
895585353163440	-0.779953	0.3120575	1.6933594
895585358229358	-0.79911804	0.18955994	1.5037384
895585363295276	-0.8214874	-0.19767761	1.3210449
895585368391711	-0.83906555	-0.77557373	1.1532593
895585373457629	-0.86250305	-1.3428345	0.9854889
895585378523547	-0.9029846	-1.7241974	0.8171692
895585383589465	-0.9434662	-1.8733368	0.6813507
895585388655383	-0.958374	-1.8690643	0.5955963
895585393721301	-0.9365387	-1.7263184	0.543396
895585398787219	-0.8992615	-1.4594727	0.5332794
895585403853137	-0.8587799	-1.1995544	0.5460663
895585408919055	-0.83480835	-1.0024719	0.5695038
895585414015491	-0.8273468	-0.85813904	0.6046448
895585419081409	-0.828949	-0.79315186	0.64193726
895585424147327	-0.84280396	-0.825119	0.6914673
895585429213245	-0.89819336	-0.9199219	0.74313354
895585434279163	-1.0015259	-1.0429535	0.7937317
895585439345080	-1.1261597	-1.1675873	0.84432983
895585444410998	-1.241745	-1.2522888	0.8885498
895585449476916	-1.3312225	-1.273056	0.91145325
895585454573352	-1.3828888	-1.2389679	0.9173126
895585459639270	-1.3834229	-1.177185	0.9290314
895585464705188	-1.3349457	-1.0983582	0.94021606
895585469771106	-1.2454681	-1.0280457	0.9370117
895585474837024	-1.132019	-0.97691345	0.9300842
895585479902942	-1.0158997	-0.93110657	0.9295502
895585484999377	-0.91737366	-0.9007416	0.93914795
895585490065295	-0.843338	-0.88797	0.9481964
895585495131213	-0.7852783	-0.89808655	0.96684265
895585500197131	-0.74105835	-0.9316406	0.9966736
895585505263049	-0.7096405	-0.97052	1.0371552
895585510328967	-0.69099426	-0.98703	1.0866852
895585515394885	-0.68247986	-0.9662628	1.1388855
895585520460803	-0.68141174	-0.9002075	1.194809
895585525557239	-0.68992615	-0.79422	1.2491302
895585530623157	-0.6941986	-0.67277527	1.3023987
895585535689075	-0.69099426	-0.5614624	1.3567352
895585540754993	-0.67822266	-0.46238708	1.4030609
895585545820911	-0.6670227	-0.39102173	1.4275665
895585550886829	-0.6670227	-0.36279297	1.4360962
895585555952747	-0.67448425	-0.3681183	1.4328918
895585561018664	-0.6920624	-0.4053955	1.4153137
895585566115100	-0.71177673	-0.4666443	1.3886871
895585571181018	-0.71817017	-0.53749084	1.3503418
895585576246936	-0.70910645	-0.61099243	1.2858887
895585581312854	-0.6718292	-0.68981934	1.211319
895585586378772	-0.6004486	-0.75587463	1.131424
895585591444690	-0.49552917	-0.79740906	1.0541992
895585596510608	-0.35810852	-0.8064728	0.98121643
895585601576526	-0.19937134	-0.76545715	0.9119873
895585606672961	-0.033203125	-0.6781006	0.845932
895585611738879	0.12765503	-0.5657196	0.78733826
895585616804797	0.270401	-0.44906616	0.7298126
895585621870715	0.38864136	-0.34786987	0.6781616
895585626936633	0.47227478	-0.26264954	0.62861633
895585632002551	0.5132904	-0.20458984	0.57003784
895585637098987	0.5084839	-0.1854248	0.5002594
895585642164905	0.46427917	-0.20140076	0.41183472
895585647230823	0.39770508	-0.24028015	0.3095703
895585652296741	0.3439026	-0.2876892	0.20198059
895585657362659	0.32632446	-0.34254456	0.08692932
895585662428577	0.36520386	-0.40592957	-0.031845093
895585667494495	0.4653473	-0.46559143	-0.14422607
895585672560413	0.6107483	-0.50979614	-0.24490356
895585677656848	0.7859955	-0.51512146	-0.33384705
895585682722766	0.97880554	-0.46611023	-0.4158783
895585687783827	1.1748047	-0.35107422	-0.50535583
895585692849745	1.3649597	-0.18807983	-0.6065521
895585697915663	1.5540466	-0.011779785	-0.7189331
895585702981581	1.7399292	0.14801025	-0.83665466
895585708047499	1.9082489	0.28382874	-0.94317627
895585713113417	2.0429993	0.41325378	-1.048111
895585718209852	2.1591187	0.54374695	-1.1700745
895585723275770	2.2731018	0.67637634	-1.3138885
895585728341688	2.3913422	0.79196167	-1.4859314
895585733407606	2.513855	0.84202576	-1.672348
895585738473524	2.6411438	0.8036804	-1.8752899
895585743569960	2.7679138	0.6960907	-2.0973969
895585748635878	2.882431	0.5719757	-2.324829
895585753701796	2.9649963	0.462265	-2.5346832
895585758767714	2.9766998	0.38555908	-2.6966095
895585763833632	2.899475	0.40953064	-2.8105927
895585768899550	2.738617	0.5831604	-2.8846283
895585773965468	2.5207672	0.89315796	-2.9256287
895585779031386	2.2874756	1.2841187	-2.9336243
895585784097304	2.0722961	1.6074219	-2.9208374
895585789193739	1.9231567	1.6803894	-2.8771667
895585794259657	1.8762817	1.4401703	-2.7802277
895585799325575	1.8975983	0.97198486	-2.6401367
895585804391493	1.9412689	0.4462738	-2.4958038
895585809457411	1.9615173	0.01751709	-2.387146
895585814523329	1.9109039	-0.19075012	-2.3445282
895585819589247	1.7692261	-0.18649292	-2.4015198
895585824655165	1.5668335	-0.115112305	-2.5447998
895585829721083	1.3559113	-0.14015198	-2.7328186
895585834817518	1.1524353	-0.2962036	-2.9474792
895585839883436	0.99850464	-0.5353546	-3.152542
895585844949354	0.90423584	-0.7191162	-3.3027344
895585850015272	0.8493805	-0.7548065	-3.407669
895585855081190	0.80729675	-0.70739746	-3.4508057
895585860147108	0.77960205	-0.6956787	-3.4023438
895585865243544	0.7636261	-0.61738586	-3.2382965
895585870309462	0.74923706	-0.4602661	-3.011917
895585875375380	0.7513733	-0.3111267	-2.8132477
895585880441298	0.7875824	-0.1497345	-2.672104
895585885507216	0.8190155	0.0079193115	-2.5410767
895585890573134	0.8179474	0.17410278	-2.388214
895585895639052	0.78492737	0.40420532	-2.2246857
895585900704970	0.72953796	0.8127289	-2.0755463
895585905770888	0.6714783	1.3203278	-1.9391937
895585910867323	0.61395264	1.7490997	-1.8001862
895585915933241	0.56282043	2.0511017	-1.6760864
895585920999159	0.51008606	2.263092	-1.5892639
895585926065077	0.46002197	2.4575043	-1.5397186
895585931130995	0.4072876	2.5842743	-1.4262695
895585936196913	0.3439026	2.6082306	-1.2963104
895585941262831	0.26986694	2.611969	-1.1924438
895585946359266	0.19743347	2.6354065	-1.0875244
895585951425184	0.13191223	2.69133	-0.98365784
895585956491102	0.077056885	2.7467194	-0.8819275
895585961557020	0.025924683	2.790924	-0.7780609
895585966622938	-0.017211914	2.8228912	-0.6811218
895585971688856	-0.071014404	2.8335419	-0.60336304
895585976754774	-0.13119507	2.8303375	-0.5319824
895585981820692	-0.18553162	2.8148956	-0.45848083
895585986917128	-0.23773193	2.7957153	-0.39988708
895585991983046	-0.29418945	2.7536469	-0.34503174
895585997048964	-0.34797668	2.678009	-0.29283142
895586002114882	-0.39006042	2.548584	-0.22891235
895586007180800	-0.41349792	2.3499146	-0.15541077
895586012246718	-0.416687	2.088379	-0.07498169
895586017312636	-0.40550232	1.76828	0.010238647
895586022378554	-0.3767395	1.3964996	0.10557556
895586027444472	-0.34797668	1.0108643	0.19984436
895586032540907	-0.32295227	0.63749695	0.2919922
895586037606825	-0.3144226	0.28596497	0.3756256
895586042672743	-0.32720947	-0.021362305	0.45178223
895586047738661	-0.35969543	-0.2711792	0.5226288
895586052804579	-0.41029358	-0.45599365	0.57962036
895586057870497	-0.49072266	-0.58755493	0.62117004
895586062936415	-0.59565735	-0.6669159	0.64193726
895586068032850	-0.7229614	-0.69514465	0.6483307
895586073098768	-0.87475586	-0.6706543	0.6472626
895586078164686	-1.0462646	-0.6115265	0.63768005
895586083230604	-1.2305603	-0.5289612	0.6302185
895586088296522	-1.4185791	-0.42990112	0.637146
895586093362440	-1.5991364	-0.30047607	0.6659088
895586098428358	-1.7573242	-0.112457275	0.71224976
895586103524794	-1.8713074	0.09048462	0.7671051
895586108590712	-1.9421539	0.27424622	0.8139801
895586113656630	-1.9650574	0.40846252	0.8475342
895586118722548	-1.9245758	0.41539	0.8725586
895586123788466	-1.8095245	0.22523499	0.862442
895586128854384	-1.6305542	-0.14015198	0.81770325
895586133920302	-1.434021	-0.4980774	0.79800415
895586138986220	-1.2199097	-0.71858215	0.8113098
895586144082655	-0.9477234	-0.8448181	0.7340851
895586149148573	-0.63560486	-0.79901123	0.5002594
895586154214491	-0.34957886	-0.5257721	0.18121338
895586159280409	-0.117889404	-0.09114075	-0.11174011
895586164346327	0.053085327	0.37277222	-0.33384705
895586169412245	0.16548157	0.8042145	-0.48724365
895586174478163	0.223526	1.1765137	-0.5969696
895586179574598	0.2192688	1.4210052	-0.6592865
895586184640516	0.15055847	1.5067596	-0.6736603
895586189706434	0.037109375	1.421524	-0.66300964
895586194772352	-0.114151	1.209549	-0.64331055
895586199838270	-0.28407288	0.90701294	-0.58631897
895586204904188	-0.4347992	0.50753784	-0.4505005
895586210000624	-0.5482483	0.053726196	-0.23423767
895586215066542	-0.6132355	-0.40486145	0.03100586
895586220132460	-0.5855408	-0.85440063	0.28720093
895586225198378	-0.4736786	-1.2810516	0.47575378
895586230264296	-0.29631042	-1.6602783	0.5167694
895586235330214	-0.029464722	-2.02034	0.39746094
895586240396132	0.24537659	-2.3345947	0.16203308
895586245462050	0.33857727	-2.4762726	-0.10321045
895586250527968	0.1681366	-2.3910522	-0.3136139
895586255593886	-0.12428284	-2.1817322	-0.4563446
895586260690321	-0.38580322	-1.9388428	-0.5367737
895586265756239	-0.52534485	-1.7130127	-0.5282593
895586270822157	-0.49232483	-1.5665283	-0.427063
895586275888075	-0.36875916	-1.5388336	-0.28910828
895586280953993	-0.2989807	-1.6485596	-0.14422607
895586286019911	-0.2622223	-1.8014221	0.015029907
895586291085829	-0.24145508	-1.9260559	0.2611084
895586296151747	-0.2744751	-2.0134125	0.6057129
895586301248182	-0.35810852	-2.0016937	0.9647064
895586306314100	-0.45184326	-1.880249	1.2896118
895586311380018	-0.540802	-1.6554871	1.5814972
895586316445936	-0.6505127	-1.3454895	1.832901
895586321511854	-0.83587646	-1.0136566	2.0289154
895586326577772	-1.098999	-0.73350525	2.1551514
895586331643690	-1.3962097	-0.5438843	2.2068024
895586336740126	-1.6492004	-0.45759583	2.1892395
895586341806044	-1.8180542	-0.4565277	2.1285095
895586346871962	-1.8595886	-0.52523804	2.0608673
895586351937880	-1.7594604	-0.6029968	2.006546
895586357003798	-1.5496063	-0.65893555	1.9580688
895586362069716	-1.2864838	-0.70474243	1.9239807
895586367166151	-1.0313568	-0.7457428	1.9085388
895586372232069	-0.8241577	-0.78782654	1.8946838
895586377297987	-0.69259644	-0.80433655	1.8749847
895586382363905	-0.6308136	-0.82244873	1.8131866
895586387429823	-0.59672546	-0.83576965	1.6704559
895586392495741	-0.5647583	-0.80807495	1.4770966
895586397561659	-0.53652954	-0.73669434	1.2853546
895586402627577	-0.52908325	-0.6360321	1.1165161
895586407724013	-0.5562439	-0.5092621	0.9817505
895586412789931	-0.60523987	-0.395813	0.9023895
895586417855848	-0.65478516	-0.3430786	0.8528595
895586422921766	-0.70803833	-0.30366516	0.80651855
895586427987684	-0.7522583	-0.23548889	0.7628479
895586433053602	-0.78260803	-0.20619202	0.75271606
895586438119520	-0.82255554	-0.2866211	0.7702942
895586443185438	-0.86943054	-0.44322205	0.80970764
895586448251356	-0.9376068	-0.6056671	0.86190796
895586453347792	-1.0100403	-0.70632935	0.909317
895586458413710	-1.081955	-0.8006134	0.9471283
895586463479628	-1.1378784	-0.907135	0.9796295
895586468545546	-1.1725006	-1.0024719	1.0089264
895586473611464	-1.1895447	-1.0978241	1.0312958
895586478677382	-1.1911469	-1.2022095	1.0403442
895586483743300	-1.1836853	-1.3002167	1.0446014
895586488809218	-1.1719666	-1.3795776	1.0435333
895586493875136	-1.1495972	-1.4200592	1.0344849
895586498971571	-1.1304169	-1.4253845	1.0110474
895586504037489	-1.1107178	-1.4008942	0.99346924
895586509103407	-1.0878143	-1.3763885	0.9769592
895586514169325	-1.0697021	-1.3673248	0.9663086
895586519235243	-1.0569153	-1.3657379	0.97003174
895586524331679	-1.0484009	-1.3588104	0.9854889
895586529397597	-1.0404053	-1.3449554	1.019043
895586534463515	-1.0196381	-1.3071442	1.0573883
895586539529432	-0.98713684	-1.258667	1.0973358
895586544595350	-0.93600464	-1.2016754	1.1426086
895586549661268	-0.86782837	-1.1319122	1.1916046
895586554727186	-0.7884674	-1.0536041	1.2496643
895586559823622	-0.70111084	-0.9721222	1.3093262
895586564889540	-0.6185608	-0.90927124	1.3636475
895586569955458	-0.54345703	-0.86346436	1.4115906
895586575021376	-0.4901886	-0.8368225	1.4494019
895586580087294	-0.45184326	-0.82777405	1.4701843
895586585153212	-0.430542	-0.82084656	1.4691162
895586590219130	-0.42414856	-0.8213806	1.4520721
895586595285048	-0.43107605	-0.8314972	1.4217072
895586600381483	-0.4497223	-0.8490753	1.3822937
895586605447401	-0.4784851	-0.85920715	1.3327637
895586610513319	-0.5051117	-0.84321594	1.2635193
895586615579237	-0.5184326	-0.8048706	1.1836243
895586620645155	-0.5077667	-0.7457428	1.0898743
895586625711073	-0.46730042	-0.67544556	0.99028015
895586630776991	-0.39219666	-0.604599	0.876297
895586635842909	-0.2814026	-0.5353546	0.7649689
895586640939345	-0.14665222	-0.45812988	0.6637726
895586646005263	-0.0033721924	-0.37983704	0.57429504
895586651071181	0.11433411	-0.30952454	0.49066162
895586656137098	0.18838501	-0.24453735	0.414505
895586661203016	0.21820068	-0.18595886	0.34259033
895586666268934	0.22140503	-0.14015198	0.27922058
895586671334852	0.21713257	-0.12043762	0.22541809
895586676400770	0.22406006	-0.14015198	0.1796112
895586681497206	0.25282288	-0.20193481	0.13752747
895586686563124	0.29597473	-0.28555298	0.09811401
895586691629042	0.3529663	-0.36917114	0.06295776
895586696694960	0.4280548	-0.4400177	0.024612427
895586701760878	0.5308533	-0.47410583	-0.0046844482
895586706826796	0.6506958	-0.45440674	-0.032913208
895586711892714	0.78492737	-0.37823486	-0.07711792
895586716958632	0.92607117	-0.2599945	-0.15222168
895586722055067	1.067215	-0.12843323	-0.2667389
895586727120985	1.2073059	-0.0037994385	-0.40841675
895586732186903	1.3516388	0.10699463	-0.57192993
895586737252821	1.4981232	0.2140503	-0.74024963
895586742318739	1.6414032	0.31524658	-0.905365
895586747384657	1.7761536	0.41059875	-1.0736694
895586752450575	1.8938599	0.48942566	-1.2622223
895586757547011	1.991333	0.53256226	-1.4731445
895586762612929	2.0888062	0.5533447	-1.688858
895586767678847	2.2081146	0.53948975	-1.9040527
895586772744765	2.3524628	0.47877502	-2.1112366
895586777810682	2.51651	0.36586	-2.2987213
895586782876600	2.6842957	0.20979309	-2.4430695
895586787942518	2.8312988	0.044677734	-2.5394745
895586793008436	2.9229126	-0.035751343	-2.6039276
895586798104872	2.9202423	0.032424927	-2.6497345
895586803170790	2.81958	0.27796936	-2.672638
895586808236708	2.629959	0.6726532	-2.6545258
895586813302626	2.3945465	1.1040802	-2.5863495
895586818368544	2.1665802	1.4604187	-2.4883423
895586823434462	1.9870758	1.6431122	-2.3754272
895586828500380	1.8773499	1.6127472	-2.259842
895586833566298	1.8432617	1.3544159	-2.1575775
895586838662733	1.8640442	0.9645386	-2.0681
895586843728651	1.8933258	0.5847626	-2.0137634
895586848794569	1.8880005	0.32484436	-2.0324097
895586853860487	1.8214264	0.18688965	-2.1192322
895586858926405	1.7122345	0.084625244	-2.244934
895586863992323	1.6137085	-0.06451416	-2.3972626
895586869058241	1.5370026	-0.26904297	-2.5698395
895586874124159	1.4565735	-0.4826355	-2.7647858
895586879220595	1.3665619	-0.6461487	-2.9538574
895586884286513	1.2872009	-0.71698	-3.0603943
895586889352431	1.2030487	-0.67012024	-3.0838318
895586894418348	1.1167603	-0.6381531	-3.0310974
895586899484266	1.018219	-0.6658478	-2.9187164
895586904550184	0.89837646	-0.69514465	-2.7951355
895586909616102	0.795578	-0.6557312	-2.6848907
895586914712538	0.75083923	-0.46238708	-2.6183014
895586919778456	0.74072266	-0.18754578	-2.5847473
895586924844374	0.73379517	0.12936401	-2.5218964
895586929910292	0.7178192	0.624176	-2.3807526
895586934976210	0.69970703	1.2042236	-2.228424
895586940042128	0.68052673	1.6260681	-2.0824738
895586945108046	0.65922546	1.8987732	-1.9317474
895586950173964	0.6325989	2.1006317	-1.7613068
895586955270399	0.5921173	2.182663	-1.6222839
895586960336317	0.5313873	2.1768036	-1.5205536
895586965402235	0.4514923	2.1629486	-1.4300079
895586970468153	0.35455322	2.1395264	-1.3314667
895586975534071	0.2512207	2.1240692	-1.2377167
895586980599989	0.13137817	2.133133	-1.1540985
895586985665907	0.0072784424	2.1922455	-1.0784607
895586990762343	-0.09977722	2.2705536	-0.99005127
895586995828261	-0.18180847	2.3520355	-0.9010925
895587000894179	-0.24305725	2.4404602	-0.8185425
895587005960097	-0.2936554	2.5288696	-0.74131775
895587011026015	-0.33625793	2.6039734	-0.6651459
895587016091932	-0.37408447	2.6721497	-0.5969696
895587021157850	-0.41082764	2.727539	-0.5319824
895587026254286	-0.44491577	2.7493896	-0.46754456
895587031320204	-0.48114014	2.7307434	-0.40681458
895587036386122	-0.5146942	2.6487122	-0.33970642
895587041452040	-0.52908325	2.4905243	-0.2571411
895587046517958	-0.53440857	2.2678833	-0.16819763
895587051583876	-0.52641296	1.9967804	-0.076049805
895587056649794	-0.50297546	1.6873169	0.01663208
895587061715712	-0.48327637	1.35495	0.11515808
895587066812147	-0.46302795	1.022583	0.21102905
895587071878065	-0.45451355	0.70780945	0.30317688
895587076943983	-0.46730042	0.42604065	0.38734436
895587082009901	-0.49765015	0.18421936	0.45924377
895587087075819	-0.5583801	-0.011245728	0.51304626
895587092141737	-0.65478516	-0.19128418	0.53967285
895587097207655	-0.78367615	-0.3143158	0.56204224
895587102304091	-0.9008484	-0.32284546	0.5998535
895587107370009	-1.0100403	-0.365448	0.6275482
895587112435927	-1.1272278	-0.41392517	0.63394165
895587117501845	-1.2539978	-0.442688	0.62968445
895587122567763	-1.3882141	-0.46292114	0.62435913
895587127633681	-1.4979401	-0.4607849	0.6291504
895587132699598	-1.5490723	-0.39048767	0.65045166
895587137796034	-1.5341492	-0.2328186	0.70744324
895587142861952	-1.4718323	-0.036819458	0.7947998
895587147927870	-1.3573151	0.14587402	0.90452576
895587152993788	-1.1714325	0.21672058	0.9924011
895587158059706	-0.93600464	0.089416504	0.96577454
895587163125624	-0.7261505	-0.26264954	0.7947998
895587168191542	-0.5860748	-0.69781494	0.5524597
895587173257460	-0.493927	-1.0344391	0.3085022
895587178353895	-0.38526917	-1.1212616	0.088531494
895587183419813	-0.23826599	-0.96147156	-0.022262573
895587188485731	-0.092315674	-0.59129333	-0.08030701
895587193551649	0.04296875	-0.119903564	-0.21186829
895587198617567	0.15802002	0.32644653	-0.37272644
895587203683485	0.19903564	0.71632385	-0.48405457
895587208749403	0.15109253	1.0231171	-0.5367737
895587213815321	0.052017212	1.1909027	-0.5580902
895587218881239	-0.06941223	1.1972961	-0.5676727
895587223977675	-0.20683289	1.0593414	-0.5596771
895587229043593	-0.35810852	0.8084717	-0.51760864
895587234109511	-0.52534485	0.47024536	-0.4355774
895587239175429	-0.7075043	0.09580994	-0.30722046
895587244241347	-0.88700867	-0.32922363	-0.110672
895587249307265	-1.0579834	-0.8363037	0.17481995
895587254403700	-1.1932678	-1.4110107	0.5125122
895587259469618	-1.2790222	-1.9686737	0.83421326
895587264535536	-1.3083191	-2.4070282	1.0930786
895587269601454	-1.2502594	-2.642456	1.244873
895587274667372	-1.085144	-2.658966	1.2885437
895587279733290	-0.85717773	-2.4469757	1.2944031
895587284799208	-0.62602234	-2.1092834	1.2928162
895587289865126	-0.42681885	-1.7929077	1.2331543
895587294931044	-0.24145508	-1.559082	1.0504608
895587300027479	-0.057159424	-1.3561401	0.69732666
895587305093397	0.09410095	-1.1185913	0.24832153
895587310159315	0.10848999	-0.9593353	-0.07444763
895587315225233	-0.09710693	-0.91778564	-0.15968323
895587320291151	-0.38845825	-0.98490906	-0.0914917
895587325357069	-0.59140015	-1.2299194	0.019821167
895587330422987	-0.6595764	-1.6107483	0.158844
895587335519423	-0.6318817	-1.9633484	0.34951782
895587340585341	-0.5940552	-2.1343231	0.5726929
895587345651259	-0.60791016	-2.1050262	0.79319763
895587350717177	-0.67341614	-1.9324493	0.9961395
895587355783095	-0.7772827	-1.6325836	1.1852264
895587360849013	-0.8960571	-1.2336426	1.3636475
895587365945448	-1.0143127	-0.84321594	1.5404816
895587371011366	-1.1186981	-0.51512146	1.7119904
895587376077284	-1.1927338	-0.26690674	1.865921
895587381143202	-1.2167053	-0.12522888	1.9799042
895587386209120	-1.210846	-0.07623291	2.039566
895587391275038	-1.1836853	-0.084747314	2.0443573
895587396340956	-1.1437378	-0.10020447	1.9878998
895587401406874	-1.0963287	-0.063446045	1.8994751
895587406472792	-1.021225	0.021774292	1.8174591
895587411569227	-0.9354706	0.1474762	1.7285004
895587416635145	-0.8577118	0.26785278	1.6129303
895587421701063	-0.7911377	0.23269653	1.4776306
895587426766981	-0.7415924	-0.02243042	1.3375549
895587431832899	-0.7149658	-0.4245758	1.1969452
895587436898817	-0.7197571	-0.87890625	1.065918
895587441964735	-0.77142334	-1.2789154	0.9295502
895587447030653	-0.828949	-1.542038	0.79852295
895587452127089	-0.86357117	-1.6373749	0.6813507
895587457193007	-0.8630371	-1.6368408	0.59080505
895587462258925	-0.8491974	-1.5681305	0.53167725
895587467355360	-0.82095337	-1.384903	0.5071869
895587472421278	-0.77835083	-1.129776	0.52316284
895587477487196	-0.733078	-0.9002075	0.54818726
895587482553114	-0.6995239	-0.7595978	0.57536316
895587487619032	-0.6984558	-0.7329712	0.6046448
895587492684950	-0.7453308	-0.79208374	0.6403351
895587497750868	-0.8438568	-0.90341187	0.69732666
895587502816786	-0.9732971	-1.0408325	0.75645447
895587507882704	-1.1112518	-1.1755829	0.8102417
895587512948622	-1.22789	-1.258667	0.85232544
895587518014540	-1.304596	-1.2815704	0.878952
895587523080458	-1.3322906	-1.2570801	0.9013214
895587528176893	-1.3157806	-1.207016	0.9215698
895587533242811	-1.2630463	-1.1686554	0.94340515
895587538308729	-1.1842194	-1.1414948	0.9567261
895587543374647	-1.098465	-1.1324463	0.97909546
895587548440565	-1.0169678	-1.1425629	1.0099792
895587553506483	-0.9461365	-1.160675	1.0387421
895587558572401	-0.8854065	-1.1894379	1.0760345
895587563668837	-0.8395996	-1.223526	1.1186371
895587568734755	-0.81030273	-1.2442932	1.1660461
895587573800673	-0.79486084	-1.240036	1.2262268
895587578866591	-0.7884674	-1.1739807	1.2922821
895587583932509	-0.7858124	-1.0445557	1.354599
895587588998427	-0.782074	-0.88690186	1.4185181
895587594064345	-0.782074	-0.74201965	1.4755096
895587599130263	-0.76716614	-0.6322937	1.5197144
895587604226698	-0.7453308	-0.571579	1.5431519
895587609292616	-0.71603394	-0.57211304	1.561264
895587614358534	-0.6840668	-0.6237793	1.5697784
895587619424452	-0.64678955	-0.6994171	1.5617981
895587624490370	-0.6073761	-0.7979431	1.54422
895587629556288	-0.5588989	-0.89915466	1.514389
895587634622206	-0.49978638	-0.98384094	1.4744415
895587639688124	-0.43267822	-1.0376282	1.4227753
895587644784559	-0.3682251	-1.0450897	1.3577881
895587649850477	-0.3170929	-1.0024719	1.2826996
895587654916395	-0.2771454	-0.91352844	1.195343
895587659982313	-0.24359131	-0.7851715	1.0957336
895587665048231	-0.21269226	-0.62538147	0.98495483
895587670114149	-0.17967224	-0.46131897	0.8651123
895587675180067	-0.13279724	-0.32443237	0.7447357
895587680276503	-0.07527161	-0.2440033	0.6275482
895587685342421	-0.00390625	-0.23069763	0.5157013
895587690408339	0.065338135	-0.26690674	0.40171814
895587695474257	0.12019348	-0.31378174	0.2930603
895587700540175	0.16548157	-0.35054016	0.1987915
895587705606093	0.21713257	-0.3622589	0.12634277
895587710672011	0.28637695	-0.36332703	0.06402588
895587715737929	0.38598633	-0.3665161	0.0038452148
895587720803847	0.5036926	-0.38941956	-0.055282593
895587725869765	0.63578796	-0.41551208	-0.11706543
895587730935682	0.77427673	-0.43255615	-0.1767273
895587736001600	0.9202118	-0.41764832	-0.24916077
895587741067518	1.0693512	-0.35533142	-0.32585144
895587746133436	1.2280731	-0.23814392	-0.41534424
895587751229872	1.3937225	-0.0831604	-0.5367737
895587756295790	1.5524445	0.08036804	-0.6789856
895587761361708	1.7085114	0.22737122	-0.8270569
895587766427626	1.8608398	0.34721375	-0.9799347
895587771493544	1.9929352	0.4585266	-1.1343994
895587776559462	2.1053162	0.56292725	-1.3016357
895587781655897	2.2171783	0.64068604	-1.4944458
895587786721815	2.341278	0.6689148	-1.7059021
895587791787733	2.4781647	0.6311035	-1.9168243
895587796853651	2.6251678	0.53097534	-2.1240234
895587801919569	2.7823029	0.38290405	-2.324829
895587806985487	2.9229126	0.22257996	-2.496872
895587812051405	3.009735	0.12031555	-2.6199036
895587817117323	3.008667	0.14108276	-2.7168427
895587822213759	2.9042664	0.3312378	-2.7796936
895587827279677	2.7013397	0.6811676	-2.7892761
895587832345595	2.4312897	1.1168671	-2.7424164
895587837411513	2.1532593	1.5115509	-2.6614532
895587842477431	1.9327545	1.7198029	-2.5724945
895587847543348	1.8208923	1.6755981	-2.4915466
895587852609266	1.8203583	1.3821106	-2.4020538
895587857675184	1.8816223	0.94322205	-2.3013916
895587862771620	1.9476624	0.5315094	-2.2182922
895587867837538	1.972702	0.2619934	-2.196991
895587872903456	1.9567108	0.11764526	-2.2401428
895587877969374	1.8943939	0.046813965	-2.353592
895587883035292	1.7793427	0.02709961	-2.5261536
895587888131727	1.6419373	-0.0043182373	-2.739212
895587893197645	1.5348663	-0.15133667	-2.9863586
895587898263563	1.4416656	-0.39953613	-3.1775665
895587903329481	1.3356628	-0.64775085	-3.2691803
895587908395399	1.2115631	-0.81126404	-3.2851563
895587913461317	1.0832062	-0.8517456	-3.2185822
895587918527235	0.97720337	-0.8762512	-3.0854187
895587923593153	0.93193054	-0.71965027	-2.932022
895587928659071	0.93885803	-0.38142395	-2.7487946
895587933724989	0.9756012	-0.11351013	-2.5618439
895587938790907	1.0315399	0.09420776	-2.420166
895587943887343	1.0693512	0.3328247	-2.309906
895587948953261	1.0821381	0.6044769	-2.1836853
895587954019179	1.0752106	0.8505554	-2.0425262
895587959085097	1.0363312	1.2175293	-1.9162903
895587964151015	0.97720337	1.6489716	-1.8081665
895587969216932	0.9074249	1.9520264	-1.7128296
895587974313368	0.8312683	2.1278076	-1.6127014
895587979379286	0.7417755	2.2188873	-1.5365295
895587984445204	0.6448364	2.2476501	-1.4646301
895587989511122	0.5521698	2.230606	-1.3756714
895587994607557	0.45948792	2.215683	-1.2803345
895587999673475	0.36627197	2.2369843	-1.1999054
895588004739393	0.2746582	2.2918549	-1.1258698
895588009805311	0.17506409	2.3712158	-1.0539703
895588014871229	0.0743866	2.453247	-0.98205566
895588019937147	-0.0049743652	2.5368652	-0.9042969
895588025003065	-0.066223145	2.6263428	-0.8238678
895588030068983	-0.11256409	2.7019806	-0.7434387
895588035134901	-0.15144348	2.7509766	-0.6646118
895588040200819	-0.19192505	2.7792053	-0.59217834
895588045266737	-0.23080444	2.7786713	-0.5277252
895588050332655	-0.27607727	2.7424622	-0.46168518
895588055429091	-0.3240204	2.6625671	-0.39030457
895588060495009	-0.36289978	2.5384674	-0.31680298
895588065560927	-0.39006042	2.3536377	-0.23744202
895588070626845	-0.40763855	2.1080933	-0.15008545
895588075692763	-0.4151001	1.8194122	-0.054748535
895588080758681	-0.42201233	1.4998322	0.039001465
895588085855116	-0.43000793	1.1594696	0.12580872
895588090921034	-0.44065857	0.82125854	0.21102905
895588095986952	-0.4624939	0.511261	0.28666687
895588101052870	-0.49765015	0.24441528	0.35112
895588106118788	-0.5509186	0.030822754	0.4065094
895588111184706	-0.6238861	-0.12736511	0.44859314
895588116250624	-0.7096405	-0.24986267	0.47361755
895588121316542	-0.80711365	-0.3388214	0.48321533
895588126412977	-0.9157715	-0.39207458	0.48321533
895588131478895	-1.0345459	-0.41072083	0.48054504
895588136544813	-1.1575775	-0.37876892	0.47309875
895588141610731	-1.2763672	-0.3058014	0.46775818
895588146676649	-1.3903503	-0.18595886	0.48268127
895588151742567	-1.4947357	-0.0155181885	0.53274536
895588156808485	-1.5804901	0.17623901	0.6137085
895588161874403	-1.6321564	0.33868408	0.6802826
895588166970839	-1.6369476	0.42764282	0.73088074
895588172036757	-1.5549316	0.4404297	0.74580383
895588177102675	-1.3919373	0.3509369	0.6845398
895588182168593	-1.1943359	0.09687805	0.56044006
895588187234511	-1.0100403	-0.33668518	0.40118408
895588192300429	-0.8534546	-0.7883606	0.22807312
895588197366347	-0.67129517	-1.0594635	0.100250244
895588202462782	-0.4225464	-1.0658569	0.027816772
895588207528700	-0.13014221	-0.8293762	-0.034500122
895588212594618	0.11381531	-0.39793396	-0.12239075
895588217691054	0.27146912	0.0574646	-0.24490356
895588222756972	0.33218384	0.46173096	-0.3690033
895588227822890	0.28372192	0.83244324	-0.443573
895588232888807	0.16494751	1.0987549	-0.48458862
895588237954725	0.021133423	1.2063446	-0.4978943
895588243020643	-0.11949158	1.146698	-0.48138428
895588248086561	-0.26489258	0.96559143	-0.49310303
895588253152479	-0.4124298	0.68756104	-0.539978
895588258248915	-0.5381317	0.3274994	-0.5112152
895588263314833	-0.6595764	-0.07356262	-0.3700714
895588268380751	-0.7953949	-0.5369568	-0.1660614
895588273446669	-0.92855835	-1.0317688	0.07255554
895588278512587	-0.9898071	-1.4866486	0.31756592
895588283578505	-0.8811493	-1.8738708	0.5290222
895588288644423	-0.6350708	-2.1753387	0.6829529
895588293740858	-0.4081726	-2.307953	0.76338196
895588298806776	-0.30377197	-2.2035675	0.7772217
895588303872694	-0.30004883	-1.9255371	0.7687073
895588308938612	-0.28086853	-1.6592102	0.77456665
895588314004530	-0.17327881	-1.4424286	0.7569885
895588319070448	-0.023605347	-1.222992	0.6824188
895588324136366	0.07173157	-0.9955597	0.5668335
895588329202284	0.03338623	-0.8256378	0.4741516
895588334298720	-0.15623474	-0.7771759	0.44166565
895588339364638	-0.4028473	-0.8895569	0.44859314
895588344430556	-0.59565735	-1.176117	0.4890747
895588349496473	-0.7123108	-1.5473633	0.56629944
895588354562391	-0.81510925	-1.8408356	0.69467163
895588359628309	-0.93281555	-1.9756012	0.8720398
895588364694227	-1.0718231	-1.9585571	1.052063
895588369790663	-1.2156372	-1.7993011	1.2129211
895588374856581	-1.3461304	-1.5074158	1.3338318
895588379922499	-1.4707794	-1.1473541	1.4131927
895588384988417	-1.5826263	-0.8203125	1.4595337
895588390054335	-1.6492004	-0.63175964	1.464859
895588395120253	-1.6220398	-0.541214	1.4472809
895588400186171	-1.4718323	-0.49700928	1.4398193
895588405282606	-1.2321472	-0.48796082	1.467514
895588410348524	-0.96369934	-0.47303772	1.5287628
895588415414442	-0.71443176	-0.45492554	1.5894928
895588420480360	-0.5173645	-0.44534302	1.6342316
895588425546278	-0.38313293	-0.43469238	1.6560669
895588430612196	-0.30802917	-0.4245758	1.6438141
895588435678114	-0.28193665	-0.4053955	1.5873566
895588440744032	-0.3090973	-0.40274048	1.4856262
895588445840468	-0.38420105	-0.44534302	1.3508759
895588450906386	-0.47421265	-0.508728	1.2177124
895588455972304	-0.5642395	-0.5545349	1.099472
895588461038222	-0.64253235	-0.557724	0.9918823
895588466104140	-0.72987366	-0.52204895	0.88002014
895588471170057	-0.80285645	-0.54600525	0.78201294
895588476235975	-0.8630371	-0.6360321	0.70851135
895588481301893	-0.9429321	-0.72232056	0.6568451
895588486398329	-1.0329437	-0.7718506	0.63661194
895588491464247	-1.1165771	-0.78889465	0.6456604
895588496530165	-1.1815491	-0.7952881	0.68188477
895588501596083	-1.2236328	-0.8384247	0.72662354
895588506662001	-1.241745	-0.91033936	0.782547
895588511727919	-1.2507935	-0.9944916	0.8517914
895588516793837	-1.2518616	-1.0930328	0.923172
895588521890272	-1.2630463	-1.1841125	0.9854889
895588526956190	-1.2800903	-1.2411041	1.0387421
895588532022108	-1.2902069	-1.2661285	1.0701752
895588537088026	-1.2896729	-1.2517548	1.0808258
895588542153944	-1.2769012	-1.2112732	1.0888214
895588547219862	-1.257721	-1.1681213	1.0904083
895588552285780	-1.2268219	-1.1207275	1.0765686
895588557351698	-1.1884766	-1.0749207	1.065918
895588562417616	-1.1522522	-1.0376282	1.0547333
895588567514052	-1.1219025	-1.0067444	1.0509949
895588572579970	-1.0957947	-0.99609375	1.0579224
895588577645888	-1.0702362	-1.0131378	1.0717773
895588582711806	-1.0505219	-1.0440216	1.0920105
895588587777723	-1.0398712	-1.0706482	1.1292877
895588592843641	-1.0270844	-1.080246	1.1799011
895588597940077	-1.0095062	-1.082367	1.2374115
895588603005995	-0.98127747	-1.066925	1.2954712
895588608071913	-0.94132996	-1.0344391	1.3604584
895588613137831	-0.8875427	-0.98010254	1.4238434
895588618203749	-0.82255554	-0.9129944	1.480835
895588623269667	-0.749588	-0.8586731	1.5287628
895588628335585	-0.6819458	-0.82244873	1.5687103
895588633401503	-0.62760925	-0.7995453	1.5916138
895588638497938	-0.59298706	-0.79740906	1.5964203
895588643563856	-0.575943	-0.8101959	1.5830994
895588648629774	-0.57328796	-0.83470154	1.5569916
895588653695692	-0.5780792	-0.86026	1.5170441
895588658761610	-0.5823364	-0.88583374	1.4600525
895588663827528	-0.5871277	-0.9140625	1.3918762
895588668893446	-0.58766174	-0.939621	1.3098602
895588673989882	-0.57489014	-0.9550781	1.2235718
895588679055800	-0.540802	-0.9598694	1.1292877
895588684121718	-0.47581482	-0.9358978	1.0307617
895588689187636	-0.3794098	-0.89115906	0.9306183
895588694253554	-0.25956726	-0.82670593	0.8251648
895588699319472	-0.12693787	-0.74095154	0.7218323
895588704385390	-7.019043E-4	-0.63868713	0.62649536
895588709451307	0.1015625	-0.5310974	0.54074097
895588714547743	0.16760254	-0.43096924	0.4603119
895588719613661	0.18678284	-0.34042358	0.38200378
895588724679579	0.17080688	-0.2562561	0.30477905
895588729745497	0.14790344	-0.18807983	0.23287964
895588734811415	0.13618469	-0.15612793	0.16363525
895588739877333	0.15322876	-0.17103577	0.097579956
895588744943251	0.20648193	-0.23069763	0.04005432
895588750009169	0.29544067	-0.31645203	-0.01159668
895588755105604	0.41101074	-0.3899536	-0.05154419
895588760171522	0.54789734	-0.42669678	-0.08351135
895588765237440	0.701828	-0.41764832	-0.106414795
895588770303358	0.8637543	-0.3734436	-0.13197327
895588775369276	1.0240784	-0.28715515	-0.17884827
895588780435194	1.1764069	-0.1689148	-0.24595642
895588785531630	1.3244781	-0.038406372	-0.34024048
895588790597548	1.4704285	0.0809021	-0.45315552
895588795663466	1.6190338	0.18635559	-0.5820465
895588800729384	1.7655029	0.27529907	-0.7189331
895588805795302	1.9109039	0.35946655	-0.86009216
895588810861220	2.051529	0.42443848	-1.01828
895588815927138	2.2043915	0.46066284	-1.1988373
895588820993056	2.374298	0.46385193	-1.3932495
895588826089491	2.550064	0.4409485	-1.6004486
895588831155409	2.7311707	0.40846252	-1.8177643
895588836221327	2.8973389	0.37809753	-2.0462646
895588841287245	3.0235748	0.35679626	-2.2689056
895588846353163	3.0944214	0.37330627	-2.4579773
895588851419081	3.0928192	0.44308472	-2.5922089
895588856484999	2.9990845	0.59968567	-2.691803
895588861550917	2.8201141	0.85321045	-2.7621155
895588866647352	2.5756378	1.1674652	-2.7818298
895588871713270	2.3135834	1.4769287	-2.754654
895588876748671	2.0946655	1.6851807	-2.7008667
895588881845106	1.9551239	1.6894379	-2.6353455
895588886911024	1.911972	1.4774628	-2.5607758
895588891976942	1.9412689	1.1056824	-2.4542542
895588897042860	1.9977264	0.6880951	-2.339203
895588902108778	2.0312805	0.36586	-2.2715607
895588907174696	1.9987946	0.20021057	-2.276886
895588912271132	1.8975983	0.16452026	-2.3514557
895588917337050	1.7505951	0.17410278	-2.5021973
895588922402968	1.5849457	0.12617493	-2.7099152
895588927468886	1.4666901	-0.07623291	-2.9037933
895588932534804	1.3798828	-0.31217957	-3.0199127
895588937600722	1.2786713	-0.47624207	-3.105667
895588942697157	1.1588287	-0.6418915	-3.1994019
895588947763075	1.0251465	-0.7233734	-3.2755737
895588952828993	0.89411926	-0.7244415	-3.3032684
895588957894911	0.80036926	-0.71432495	-3.2020721
895588962960829	0.75935364	-0.5002136	-3.0028687
895588968026747	0.7732086	-0.173172	-2.8079224
895588973092665	0.8333893	0.040420532	-2.6667786
895588978189100	0.90156555	0.18902588	-2.5602417
895588983255018	0.9516449	0.3477478	-2.4457397
895588988320936	0.96069336	0.5080719	-2.3040466
895588993386854	0.92181396	0.7946167	-2.1458588
895588998452772	0.8605652	1.2276459	-2.0089722
895589003518690	0.7875824	1.6494904	-1.8965912
895589008584608	0.7013092	1.9743958	-1.7852631
895589013650526	0.6155548	2.1917114	-1.6680908
895589018746962	0.5298004	2.3158264	-1.559433
895589023812880	0.44670105	2.3616333	-1.4459839
895589028878798	0.3630829	2.374405	-1.3426514
895589033944716	0.26986694	2.3855896	-1.2478485
895589039010634	0.18252563	2.391449	-1.1343994
895589044076552	0.083984375	2.4037018	-1.034256
895589049142470	-0.015625	2.4266052	-0.95010376
895589054208388	-0.11203003	2.4585724	-0.87446594
895589059274306	-0.20097351	2.5054321	-0.8153534
895589064370741	-0.28193665	2.5459137	-0.7434387
895589069436659	-0.35757446	2.5736084	-0.66993713
895589074502577	-0.4236145	2.5997162	-0.60762024
895589079568495	-0.4784851	2.6087646	-0.5479584
895589084634413	-0.5317383	2.598114	-0.48884583
895589089700331	-0.5786133	2.5603027	-0.42652893
895589094796766	-0.6127014	2.4835968	-0.35195923
895589099862684	-0.6377411	2.3664246	-0.27471924
895589104928602	-0.64146423	2.2013092	-0.19110107
895589109994520	-0.62442017	1.9871826	-0.104278564
895589115060438	-0.5977936	1.7256622	-0.012130737
895589120126356	-0.57115173	1.4327087	0.08267212
895589125192274	-0.55252075	1.1168671	0.17854309
895589130258192	-0.5493164	0.80740356	0.2642975
895589135354628	-0.5642395	0.5224457	0.3431244
895589140420546	-0.6004486	0.28915405	0.4107666
895589145486464	-0.6553192	0.11924744	0.46775818
895589150552382	-0.72135925	0.0036621094	0.5125122
895589155618300	-0.7980499	-0.07356262	0.5460663
895589160684218	-0.88700867	-0.12097168	0.5721588
895589165750136	-0.98820496	-0.13534546	0.58973694
895589170846571	-1.10112	-0.12043762	0.60092163
895589175912489	-1.2209625	-0.08848572	0.60891724
895589180978407	-1.3551941	-0.04800415	0.6195679
895589186044325	-1.4851532	-6.1035156E-5	0.6430054
895589191110243	-1.6039276	0.05532837	0.6792145
895589196176161	-1.6992645	0.12031555	0.7282257
895589201272597	-1.7583923	0.17570496	0.77989197
895589206338515	-1.7706451	0.22683716	0.8193054
895589211404432	-1.7147217	0.25134277	0.82995605
895589216470350	-1.5762329	0.21990967	0.799057
895589221536268	-1.3535919	0.11125183	0.7229004
895589226602186	-1.0952606	-0.09913635	0.5934601
895589231668104	-0.8475952	-0.3297577	0.45391846
895589236734022	-0.63879395	-0.47624207	0.33833313
895589241799940	-0.46090698	-0.4938202	0.21156311
895589246896376	-0.30697632	-0.37503052	0.02407837
895589251962294	-0.19404602	-0.15080261	-0.1894989
895589257028212	-0.115753174	0.11657715	-0.38711548
895589262094130	-0.07154846	0.39141846	-0.5378418
895589267160048	-0.06248474	0.6827698	-0.61720276
895589272225966	-0.08433533	0.94429016	-0.6411743
895589277291884	-0.13279724	1.1184692	-0.62680054
895589282388319	-0.19511414	1.1893005	-0.5969696
895589287454237	-0.2617035	1.1482849	-0.5746002
895589292520155	-0.33625793	0.9906311	-0.5437012
895589297586073	-0.40071106	0.7269745	-0.47286987
895589302651991	-0.47262573	0.42390442	-0.34875488
895589307717909	-0.5706177	0.10699463	-0.18577576
895589312783827	-0.69366455	-0.2631836	0.01663208
895589317880263	-0.8092499	-0.6871643	0.28347778
895589322946181	-0.88061523	-1.1169891	0.6025238
895589328012098	-0.86676025	-1.479187	0.8571167
895589333078016	-0.71817017	-1.7657471	0.9774933
895589338143934	-0.44226074	-1.9862518	1.0014648
895589343209852	-0.13386536	-2.084793	0.95884705
895589348275770	0.077056885	-2.0139465	0.8704376
895589353341688	0.14683533	-1.8163452	0.74687195
895589358438124	0.10475159	-1.5665283	0.60731506
895589363504042	0.014205933	-1.3018188	0.44752502
895589368569960	-0.08859253	-1.0466919	0.27175903
895589373635878	-0.20257568	-0.8517456	0.14552307
895589378701796	-0.31549072	-0.7915497	0.10557556
895589383767714	-0.43533325	-0.89808655	0.11569214
895589388833632	-0.5562439	-1.162796	0.13912964
895589393930067	-0.65904236	-1.5159302	0.17694092
895589398995985	-0.7426605	-1.8275299	0.27388
895589404061903	-0.83480835	-2.0022278	0.43740845
895589409127821	-0.9333496	-2.033661	0.655777
895589414193739	-1.0292206	-1.940979	0.8885498
895589419259657	-1.1234894	-1.7098083	1.0802917
895589424325575	-1.2193756	-1.368393	1.2272949
895589429391493	-1.3392181	-1.0280457	1.3503418
895589434487929	-1.4755707	-0.7872925	1.4765778
895589439553847	-1.5842285	-0.66052246	1.6044006
895589444619765	-1.6337585	-0.6029968	1.7178497
895589449685682	-1.6065979	-0.5689087	1.8233185
895589454751600	-1.4888763	-0.5598602	1.9218445
895589459817518	-1.3083191	-0.5199127	1.9996185
895589464883436	-1.101654	-0.43788147	2.0427551
895589469949354	-0.9029846	-0.36917114	2.0438232
895589475045790	-0.74212646	-0.30099487	2.0118713
895589480111708	-0.6270752	-0.2631836	1.9415588
895589485177626	-0.5631714	-0.2978058	1.8179932
895589490243544	-0.54452515	-0.34947205	1.6448822
895589495309462	-0.55570984	-0.395813	1.4382172
895589500375380	-0.58128357	-0.45866394	1.228363
895589505441298	-0.6015167	-0.57743835	1.0531311
895589510537733	-0.63827515	-0.71165466	0.9109192
895589515603651	-0.68992615	-0.79740906	0.8081207
895589520669569	-0.749588	-0.85014343	0.7404785
895589525735487	-0.8300171	-0.86665344	0.69625854
895589530801405	-0.92163086	-0.83044434	0.67655945
895589535867323	-0.9898071	-0.8144531	0.6898651
895589540933241	-1.0446625	-0.8506775	0.7314148
895589545999159	-1.1112518	-0.90234375	0.77989197
895589551065077	-1.1921997	-0.9763794	0.83102417
895589556130995	-1.2699738	-1.0722504	0.8864136
895589561196913	-1.3349457	-1.1856995	0.9274292
895589566262831	-1.3892822	-1.272522	0.95991516
895589571328749	-1.4260254	-1.2975616	0.9854889
895589576425184	-1.4515991	-1.2858429	0.9998627
895589581491102	-1.4617157	-1.2634735	1.0041199
895589586557020	-1.4489288	-1.239502	1.0089264
895589591622938	-1.4207001	-1.1936951	1.0067902
895589596688856	-1.3653107	-1.1068726	1.0046539
895589601754774	-1.2939453	-1.0083313	0.988678
895589606820692	-1.2049866	-0.94496155	0.9593811
895589611886610	-1.1064453	-0.92897034	0.93115234
895589616983046	-1.0004578	-0.9332428	0.91304016
895589622048964	-0.90245056	-0.9550781	0.90878296
895589627114882	-0.81510925	-0.99235535	0.9125061
895589632180800	-0.7426605	-1.0482788	0.92103577
895589637246718	-0.68247986	-1.1095428	0.9439392
895589642312636	-0.63720703	-1.1489563	0.9758911
895589647378554	-0.61376953	-1.145752	1.021698
895589652444472	-0.61642456	-1.096756	1.0712433
895589657540907	-0.63986206	-1.0152588	1.1191711
895589662606825	-0.669693	-0.9039459	1.164978
895589667672743	-0.6973877	-0.79582214	1.2091827
895589672738661	-0.71603394	-0.71965027	1.2528687
895589677804579	-0.7176361	-0.6722412	1.2842865
895589682901015	-0.71177673	-0.6615906	1.305069
895589687966932	-0.70484924	-0.67863464	1.3141174
895589693032850	-0.6957855	-0.7244415	1.3146515
895589698098768	-0.68992615	-0.79422	1.3093262
895589703164686	-0.6750183	-0.88690186	1.2938843
895589708230604	-0.64360046	-0.9827728	1.2656555
895589713296522	-0.5919342	-1.0573425	1.2198486
895589718362440	-0.51257324	-1.0898285	1.1681824
895589723428358	-0.41775513	-1.066925	1.1079865
895589728524794	-0.30802917	-0.9790497	1.0467377
895589733560194	-0.19299316	-0.84002686	0.9844208
895589738656630	-0.08538818	-0.6722412	0.925827
895589743722548	0.0078125	-0.48475647	0.8752289
895589748788466	0.07972717	-0.3073883	0.8240967
895589753854384	0.12605286	-0.18009949	0.7687073
895589758920302	0.14576721	-0.11138916	0.7058563
895589764016737	0.14949036	-0.091674805	0.6302185
895589769082655	0.14204407	-0.11138916	0.53274536
895589774148573	0.13723755	-0.15931702	0.4219513
895589779214491	0.1377716	-0.2163086	0.30371094
895589784280409	0.15962219	-0.27915955	0.17694092
895589789346327	0.20915222	-0.35160828	0.048049927
895589794412245	0.29437256	-0.43043518	-0.073394775
895589799478163	0.41101074	-0.5050049	-0.18577576
895589804574598	0.5537567	-0.5635834	-0.28164673
895589809640516	0.71354675	-0.5891571	-0.3620758
895589814706434	0.8845215	-0.57743835	-0.4409027
895589819772352	1.0629578	-0.5284424	-0.5154724
895589824838270	1.2546997	-0.4522705	-0.5942993
895589829904188	1.4571075	-0.37130737	-0.6757965
895589834970106	1.6760254	-0.28448486	-0.7514343
895589840066542	1.9135742	-0.19021606	-0.83291626
895589845132460	2.1420746	-0.09967041	-0.93092346
895589850198378	2.3311615	-0.012313843	-1.0369263
895589855264296	2.4659119	0.06758118	-1.1578217
895589860330214	2.562851	0.15226746	-1.2968445
895589865396132	2.6475372	0.24015808	-1.4667511
895589870462050	2.722641	0.29927063	-1.653183
895589875527968	2.7945404	0.30992126	-1.8571777
895589880624403	2.8536682	0.26145935	-2.08461
895589885690321	2.88562	0.17356873	-2.3136444
895589890756239	2.8893585	0.07450867	-2.5080566
895589895822157	2.8398132	0.037216187	-2.6667786
895589900888075	2.7285004	0.14854431	-2.799408
895589905953993	2.5538025	0.4345703	-2.8766327
895589911019911	2.324234	0.8745117	-2.8798218
895589916085829	2.085617	1.369873	-2.8404083
895589921182265	1.892273	1.7293854	-2.8095245
895589926248182	1.7958679	1.7815857	-2.7663727
895589931314100	1.8017273	1.5104828	-2.675827
895589936410536	1.8672333	1.0566711	-2.545868
895589941476454	1.9263611	0.6257782	-2.4350739
895589946542372	1.9263611	0.3312378	-2.3951263
895589951608290	1.8645782	0.17889404	-2.4308167
895589956674208	1.7260895	0.18849182	-2.516037
895589961740126	1.54393	0.28808594	-2.6406708
895589966836561	1.3899994	0.2731781	-2.8143158
895589971902479	1.2792053	0.0340271	-2.991684
895589976968397	1.1955872	-0.38516235	-3.151474
895589982034315	1.0933228	-0.69621277	-3.27771
895589987100233	0.97720337	-0.7787781	-3.340561
895589992166151	0.8674774	-0.7404175	-3.3091278
895589997232069	0.82115173	-0.6567993	-3.1759796
895590002297987	0.8328552	-0.41072083	-2.9852905
895590007394423	0.8562927	-0.16944885	-2.7919464
895590012460341	0.88879395	-0.06983948	-2.642273
895590017526259	0.91648865	-0.016036987	-2.5096436
895590022592177	0.9212799	0.1405487	-2.3599854
895590027658095	0.9106293	0.40367126	-2.196457
895590032724013	0.89198303	0.6412201	-2.0451965
895590037820448	0.8483124	0.94696045	-1.9162903
895590042886366	0.76841736	1.4103394	-1.8033752
895590047952284	0.685318	1.7693329	-1.670227
895590053018202	0.61395264	1.9621582	-1.5700836
895590058084120	0.54470825	2.08786	-1.5146942
895590063150038	0.46214294	2.1970367	-1.4294739
895590068215956	0.3865204	2.2673492	-1.3309326
895590073281874	0.32473755	2.3025055	-1.2425232
895590078378309	0.2672119	2.3147583	-1.1652832
895590083444227	0.20594788	2.3238068	-1.0869904
895590088510145	0.14257813	2.3488464	-1.004425
895590093576063	0.072265625	2.388794	-0.92985535
895590098641981	0.0078125	2.4298096	-0.8574219
895590103707899	-0.053970337	2.4782715	-0.7823181
895590108773817	-0.10882568	2.5405884	-0.71520996
895590113839735	-0.15516663	2.5927887	-0.6512909
895590118905653	-0.19671631	2.6220856	-0.58631897
895590124002089	-0.23294067	2.6247406	-0.52719116
895590129068007	-0.27075195	2.6194153	-0.46647644
895590134133925	-0.30111694	2.5863953	-0.40574646
895590139199843	-0.31602478	2.5219421	-0.33491516
895590144265761	-0.31123352	2.4074402	-0.2528839
895590149331679	-0.28993225	2.2380524	-0.157547
895590154428114	-0.25743103	2.009552	-0.053146362
895590159494032	-0.21801758	1.7315216	0.055511475
895590164559950	-0.18499756	1.4279175	0.16523743
895590169625868	-0.17062378	1.1259155	0.2611084
895590174691786	-0.17860413	0.83244324	0.34579468
895590179757704	-0.2190857	0.56399536	0.41503906
895590184823622	-0.2856598	0.32537842	0.4656372
895590189889540	-0.3767395	0.11924744	0.49440002
895590194985975	-0.48860168	-0.047470093	0.50823975
895590200051893	-0.61376953	-0.1774292	0.5013275
895590205117811	-0.7506561	-0.2727661	0.48480225
895590210183729	-0.8992615	-0.32922363	0.46510315
895590215249647	-1.052124	-0.35479736	0.44273376
895590220315565	-1.2023315	-0.365448	0.42248535
895590225381483	-1.3535919	-0.35798645	0.41822815
895590230447401	-1.4904785	-0.34521484	0.43473816
895590235543837	-1.6108551	-0.3420105	0.4741516
895590240609755	-1.7046051	-0.31378174	0.5375366
895590245675673	-1.7658539	-0.27650452	0.6094513
