linearaccelerometer_timestamp	linearaccelerometer_x_data	linearaccelerometer_y_data	linearaccelerometer_z_data
329324600398488	-0.0196133	1.5102241	0.37265268
329324610398488	0.06864655	1.2650578	0.92182505
329324620398488	-0.0588399	1.4808041	0.1176798
329324630398488	-0.28439283	1.4513842	-0.40207264
329324640498488	-0.098066494	1.2846711	-0.55897903
329324650498488	0.36284605	1.3827376	-0.18632634
329324660498488	0.6276256	0.2745862	0.70607877
329324670398488	1.0002782	-1.1866046	1.2160245
329324680498488	0.34323275	-1.4121575	0.6766588
329324690398488	-1.4023509	-1.7455837	-0.4511059
329324700398488	-0.35303938	-2.1770763	-0.28439283
329324710298488	-0.0588399	-1.90249	-0.4707192
329324726298488	-0.71588546	-2.098623	-0.7354987
329324736298488	-1.8534569	-2.2555294	-1.4219642
329324746298488	-0.88259846	-1.2650578	-1.5102241
329324756298488	0.48052585	-0.75511205	-0.60801226
329324766298488	0.4314926	-0.4118793	-0.71588546
329324776098488	-0.4314926	-0.4314926	-1.3631244
329324786298488	-0.1569064	-0.1176798	-1.6867437
329324796298488	-0.20593965	-0.49033248	-1.4709975
329324806298488	-0.19613299	-1.2846711	-1.2650578
329324816298488	-0.30400613	-1.3140911	-1.3042845
329324826298488	-1.2748644	0.37265268	-1.0493115
329324830298488	-1.7259704	-1.343511	-2.8047018
329324845298488	-0.5491724	-1.1081514	-1.8240368
329324853298488	-0.2353596	-0.65704554	-1.3631244
329324855298488	0.34323275	-0.8727918	-0.75511205
329324864398488	0.84337187	-0.4511059	-0.88259846
329324880398488	0.88259846	-0.55897903	-1.1179581
329324890398488	0.5393657	-0.35303938	-1.2552512
329324900398488	0.44129923	-0.5982056	-1.735777
329324910398488	0.26477954	-0.0392266	0.2745862
329324920398488	0.6276256	-0.6276256	0.61781895
329324930398488	1.1866046	-1.3238977	0.8629852
329324940498488	1.1277647	0.0784532	1.2748644
329324950398488	-0.84337187	0.9610517	1.0983448
329324960398488	-0.3138128	-0.4118793	0.4118793
329324970398488	-1.4219642	0.0392266	-0.00980665
329324980398488	-1.2356379	-0.30400613	-0.4314926
329324990398488	-1.4513842	0.8629852	-0.3334261
329325000498488	-1.5494506	0.78453195	-0.8727918
329325010498488	-0.4314926	0.8237586	-0.24516624
329325020398488	0.65704554	-0.71588546	0.06864655
329325030398488	1.2258313	-0.51975244	-0.26477954
329325040398488	1.0591182	0.06864655	-0.65704554
329325050398488	0.32361946	0.74530536	-1.0100849
329325060398488	-0.1569064	0.28439283	-0.71588546
329325070398488	-0.57859236	-0.6374322	-0.79433864
329325080398488	-0.14709975	-0.3334261	0.19613299
329325090398488	0.37265268	0.5393657	0.6374322
329325100398488	-0.1176798	0.9120184	-0.74530536
329325110398488	-1.8828768	0.79433864	-1.3827376
329325120498488	-1.5788707	-0.16671304	-0.49033248
329325130398488	-0.36284605	-0.49033248	0.1176798
329325140398488	0.7747253	-0.588399	0.28439283
329325150398488	0.98066497	0.2157463	0.98066497
329325160398488	0.24516624	1.5102241	-0.20593965
329325170398488	-1.7651969	1.3533176	-0.8727918
329325180498488	-3.4029074	0.37265268	-1.4513842
329325193298488	-3.0694814	-0.49033248	-1.0002782
329325206298488	-1.5200307	-1.0002782	-0.38245934
329325216298488	-0.34323275	-0.4511059	0.22555295
329325226298488	1.1964113	-1.9809432	-0.00980665
329325236298488	1.176798	-1.2160245	0.37265268
329325246298488	1.7161638	-2.5399222	0.4511059
329325256298488	0.9414384	-0.4314926	0.75511205
329325266298488	0.00980665	0.16671304	-0.70607877
329325276298488	-0.7747253	-0.5393657	-0.5295591
329325286098488	-1.3631244	-0.088259846	-0.588399
329325296298488	-1.7651969	0.12748645	-0.6374322
329325306298488	-0.5295591	0.19613299	-0.19613299
329325316098488	0.46091253	1.8926834	0.098066494
329325318298488	0.69627213	2.324176	0.4118793
329325333298488	0.65704554	1.6671305	0.4707192
329325335298488	0.8237586	0.40207264	0.8629852
329325344398488	1.0198916	-0.61781895	0.40207264
329325360398488	0.84337187	-0.16671304	-0.4314926
329325370398488	0.39226598	1.1375713	-0.4118793
329325380398488	-0.7747253	1.4415776	-0.10787315
329325390498488	-0.38245934	1.7651969	0.17651969
329325400398488	0.57859236	1.343511	0.8629852
329325410498488	1.8436501	-0.7747253	1.4611908
329325420398488	1.8828768	-1.3337044	0.75511205
329325430398488	1.4611908	-0.9120184	0.1372931
329325440398488	1.0493115	-0.8531785	-0.79433864
329325450398488	0.098066494	-1.8240368	-0.5295591
329325460398488	-2.5595355	-2.2163029	1.0100849
329325470398488	-2.1378496	-1.4709975	0.93163174
329325480398488	0.02941995	-0.24516624	-0.46091253
329325490398488	-0.93163174	-0.44129923	-1.2062179
329325500398488	-1.9417167	-0.6766588	-0.8727918
329325510398488	-1.2258313	-0.4707192	0.1569064
329325520398488	0.51975244	-0.0784532	0.8629852
329325530398488	1.176798	-0.5982056	0.5001391
329325540398488	0.2941995	-1.1375713	0.00980665
329325550398488	0.6668522	-0.22555295	-0.5982056
329325560398488	0.28439283	-0.18632634	-0.65704554
329325570398488	-1.2258313	-0.6374322	0.5295591
329325580398488	-1.3042845	0.1569064	-0.37265268
329325590398488	-2.0005565	1.6180972	-0.9414384
329325600398488	-1.5102241	2.3732092	-1.4219642
329325610398488	-2.6968286	2.3339827	-1.8142302
329325620398488	-2.3830159	2.0005565	-1.5984839
329325630398488	-0.951245	1.3925443	-1.0493115
329325640398488	-0.1372931	0.5099458	-0.0784532
329325650398488	0.79433864	0.44129923	1.2160245
329325663298488	1.0689248	0.51975244	1.7455837
329325676298488	0.5393657	0.12748645	1.0100849
329325686298488	0.4118793	1.1866046	-0.1569064
329325696298488	0.10787315	1.8926834	-0.78453195
329325706298488	-0.951245	1.7553903	-0.088259846
329325716298488	-0.7747253	1.3925443	-0.4707192
329325726298488	0.16671304	0.51975244	0.0588399
329325736298488	-0.088259846	-1.8632635	-0.0196133
329325746298488	-0.39226598	-1.7750036	0.588399
329325756298488	0.2353596	-1.5592573	0.84337187
329325766298488	-0.3334261	-0.2941995	-0.1176798
329325770298488	-1.1277647	0.20593965	-1.4513842
329325780298488	-1.0296983	0.1176798	-1.3140911
329325796198488	-0.16671304	0.26477954	-0.78453195
329325797298488	-0.42168593	-0.0196133	0.42168593
329325805398488	4.5208654	0.89240515	-0.4314926
329325820398488	-0.70607877	-0.30400613	2.6281822
329325830398488	-4.756225	-2.2751427	1.8534569
329325840398488	-3.000835	-0.6766588	-1.1179581
329325850398488	-1.5200307	1.3925443	-1.7161638
329325860398488	-1.6180972	0.7354987	-1.4219642
329325870498488	-0.9904716	0.5295591	-1.2944778
329325880498488	-0.5491724	0.0588399	-1.8142302
329325890398488	-0.8727918	-0.5295591	-1.6671305
329325900398488	-0.88259846	-1.0787314	-1.3533176
329325910498488	-0.1372931	-0.098066494	0.8531785
329325920398488	0.1176798	0.36284605	0.9414384
329325930398488	0.0784532	0.7354987	-0.42168593
329325940398488	0.00980665	0.98066497	0.0588399
329325950398488	-0.2353596	0.8629852	0.06864655
329325960398488	-0.12748645	0.18632634	-0.5982056
329325970398488	0.26477954	-0.79433864	-0.74530536
329325980398488	0.39226598	-1.0296983	-0.4314926
329325990498488	0.39226598	-0.5393657	0.28439283
329326000398488	0.0392266	-0.2745862	-0.2549729
329326010398488	0.2941995	0.4707192	-0.24516624
329326020398488	-0.98066497	-0.24516624	-0.46091253
329326030498488	-0.88259846	-0.79433864	-0.48052585
329326040398488	-0.34323275	-0.8629852	-1.0885382
329326050398488	-1.3827376	-0.9904716	-0.65704554
329326060398488	-1.1081514	-0.5491724	-1.0689248
329326070398488	0.22555295	0.32361946	-0.2353596
329326080398488	0.5099458	0.098066494	-1.1669914
329326090398488	1.6475172	0.098066494	1.8534569
329326100398488	0.2941995	-0.0196133	1.9122967
329326110498488	-0.24516624	0.34323275	1.2748644
329326120398488	-0.4118793	0.5982056	0.3334261
329326130398488	-0.14709975	1.6475172	0.588399
329326143098488	0.14709975	2.098623	0.92182505
329326150298488	-0.5982056	0.92182505	-0.20593965
329326166298488	-0.57859236	0.17651969	-0.5295591
329326176298488	-0.2549729	-1.2356379	-0.24516624
329326186298488	0.20593965	-1.6867437	-0.46091253
329326196298488	-0.18632634	-0.7354987	-0.74530536
329326206298488	0.098066494	1.539644	-1.7259704
329326216298488	-0.36284605	1.1375713	-0.24516624
329326226298488	-1.3042845	1.7946169	0.55897903
329326230298488	-1.4023509	0.588399	-0.30400613
329326246298488	-1.2552512	1.3238977	-0.18632634
329326256298488	-0.65704554	1.3827376	-1.2258313
329326267298488	0.26477954	-0.55897903	2.441856
329326276298488	-0.12748645	-0.9610517	2.3830159
329326277298488	-0.7256921	-1.6475172	0.2549729
329326285298488	0.5491724	0.79433864	-0.3138128
329326294398488	0.588399	2.0397832	0.5393657
329326305298488	0.24516624	2.1672697	0.98066497
329326316298488	-0.4707192	1.5494506	0.0392266
329326326298488	-0.18632634	1.0493115	0.2941995
329326347898488	-0.3138128	-1.5102241	0.37265268
329326347998488	0.06864655	-1.90249	-0.049033247
329326348098488	0.10787315	-1.735777	0.2353596
329326360398488	0.098066494	-0.5393657	-0.32361946
329326370398488	0.00980665	0.5295591	-0.3334261
329326380398488	-0.19613299	1.2356379	0.32361946
329326390398488	-0.4118793	0.71588546	0.32361946
329326432298488	-0.56878567	-0.6374322	0.0
329326432398488	-0.6374322	-1.8926834	-0.8531785
329326432498488	-0.61781895	-1.6279038	-2.0005565
329326432598488	-0.00980665	-0.0392266	1.0493115
329326440398488	1.2748644	-0.8629852	0.44129923
329326450398488	0.6864655	-1.4513842	1.4513842
329326460398488	1.1375713	-1.3925443	1.1964113
329326470398488	0.46091253	-1.6671305	0.0784532
329326480398488	0.48052585	-0.46091253	-0.049033247
329326490398488	0.32361946	-0.2353596	-1.6279038
329326513698488	-0.1176798	3.6088471	2.4712758
329326513798488	-0.0784532	2.7360554	-0.0392266
329326530398488	-1.4121575	1.0395049	-1.7553903
329326564598488	0.70607877	-1.3140911	0.6276256
329326564698488	0.02941995	-2.5497289	-0.6276256
329326564798488	0.588399	-0.98066497	0.20593965
329326580498488	-0.2745862	-0.34323275	-0.55897903
329326590498488	-0.4314926	0.7354987	1.5298374
329326600498488	-0.6668522	0.5001391	1.3631244
329326610398488	-0.2745862	-2.0692031	-2.010363
329326620298488	0.35303938	-0.5393657	-1.0100849
329326636198488	-0.2549729	-1.0198916	0.7747253
329326640298488	0.088259846	-1.6475172	-0.0196133
329326656298488	0.24516624	-0.6374322	1.1375713
329326666298488	0.48052585	-0.51975244	0.98066497
329326679598488	-0.61781895	-0.3334261	2.1672697
329326679698488	-0.26477954	-0.1569064	0.588399
329326690498488	0.4314926	0.18632634	0.32361946
329326700398488	0.38245934	0.30400613	0.3334261
329326710398488	1.1277647	-0.26477954	-1.2062179
329326720498488	0.3138128	-0.6668522	-0.39226598
329326730398488	0.49033248	-0.37265268	-0.56878567
329326740498488	-0.20593965	0.00980665	0.56878567
329326750498488	-0.2549729	-0.39226598	0.61781895
329326759398488	-0.3138128	-0.7649187	1.372931
329326770398488	0.10787315	-0.5982056	0.088259846
329326780398488	0.12748645	-2.5791488	1.1081514
329326790398488	0.61781895	-2.912575	-1.7848103
329326800398488	0.6374322	-1.6279038	-1.6867437
329326810398488	0.92182505	-1.706357	-2.7164419
329326820498488	1.8632635	-1.6867437	-2.3045628
329326830398488	2.3339827	0.44129923	-0.9904716
329326840398488	1.3042845	1.2160245	-2.5595355
329326850398488	1.2650578	1.9515233	-1.6475172
329326860498488	1.7651969	1.3337044	-2.186883
329326870398488	1.3140911	0.55897903	-2.7556686
329326880398488	-0.18632634	0.60801226	-0.9904716
329326890398488	-1.6279038	0.7256921	0.44129923
329326900498488	-2.0005565	0.5393657	0.40207264
329326910398488	-1.5298374	-0.12748645	1.4513842
329326920398488	-0.97085834	-0.28439283	-0.1176798
329326930398488	-0.4118793	0.24516624	0.6472389
329326940498488	0.0196133	0.48052585	-1.3337044
329326950398488	1.3042845	-0.26477954	-1.4906107
329326960398488	0.8237586	-0.18632634	-0.78453195
329326970398488	-0.97085834	-0.14709975	0.8531785
329326980398488	-1.5004175	0.70607877	0.88259846
329326990498488	-1.2748644	0.75511205	1.2846711
329327000398488	-1.0689248	0.24516624	-0.75511205
329327010398488	0.8139519	-0.75511205	-1.0198916
329327020498488	1.343511	-0.78453195	-0.24516624
329327030498488	0.89240515	-0.00980665	0.46091253
329327040498488	0.3334261	0.1372931	0.14709975
329327050498488	-1.8828768	1.2258313	1.3533176
329327060398488	-1.99075	1.4023509	1.539644
329327070398488	-1.6377105	1.4023509	1.3827376
329327080398488	-0.1569064	-0.5491724	0.5295591
329327090498488	0.20593965	-0.6276256	0.0196133
329327100298488	0.61781895	-0.6668522	-2.2163029
329327116298488	-0.088259846	-0.0588399	-1.0198916
329327126298488	-1.4317709	-0.40207264	0.38245934
329327136298488	-0.48052585	-0.30400613	-0.17651969
329327140298488	1.2454445	-0.75511205	-0.6374322
329327156298488	3.2656143	0.7354987	-2.265336
329327166298488	3.0694814	0.7649187	-0.8531785
329327176298488	1.372931	0.20593965	1.6180972
329327186298488	-0.1569064	0.0588399	-0.0784532
329327248098488	-1.4709975	-0.0784532	-0.92182505
329327248198488	-1.6867437	-0.65704554	0.84337187
329327248298488	-1.0395049	-0.71588546	-0.098066494
329327248398488	0.1176798	0.42168593	-0.8237586
329327248498488	0.56878567	0.10787315	-0.1569064
329327248598488	0.6668522	0.00980665	0.0784532
329327248698488	0.26477954	0.74530536	-0.088259846
329327262398488	0.7256921	0.8139519	-0.44129923
329327270398488	1.2944778	0.6472389	0.0196133
329327280498488	1.0983448	0.5393657	-0.1372931
329327290498488	0.7354987	1.0983448	-1.1081514
329327300498488	0.57859236	3.079288	0.1372931
329327310398488	-0.2941995	3.000835	-0.6276256
329327320398488	-0.9120184	1.2650578	-0.55897903
329327330398488	-0.7256921	1.4906107	-0.098066494
329327340398488	-0.2941995	1.0002782	0.4314926
329327350398488	-0.06864655	1.0296983	0.088259846
329327360398488	0.5491724	0.9414384	-0.38245934
329327383698488	1.2650578	1.3631244	-0.5099458
329327383798488	1.2944778	1.8632635	-0.098066494
329327391398488	1.4023509	2.0299766	0.098066494
329327400398488	2.0005565	2.6772153	0.2157463
329327410398488	2.1378496	2.9812214	-0.69627213
329327420398488	1.372931	2.1378496	-0.588399
329327430398488	1.2944778	2.9812214	-0.2745862
329327440398488	0.97085834	2.745862	-0.34323275
329327450498488	0.44129923	1.1571847	-1.8926834
329327460398488	0.28439283	-0.38245934	-0.00980665
329327470398488	-0.44129923	-1.3827376	1.5788707
329327480498488	-3.7951734	-5.187718	2.4712758
329327490498488	-5.982056	-9.110377	0.8139519
329327500398488	-6.364516	-9.80665	0.38245934
329327510398488	-5.0994577	-6.5704556	-0.20593965
329327520398488	-1.372931	3.1283212	-0.46091253
329327530398488	-0.12748645	5.521144	-1.1571847
329327540398488	-0.6864655	-0.049033247	-1.7946169
329327550398488	-0.28439283	-3.2852278	-0.74530536
329327560398488	0.5295591	-2.853735	-0.16671304
329327573298488	0.83356524	-2.775282	0.6668522
329327586298488	0.9414384	-3.9030466	1.3042845
329327596298488	1.6180972	-0.9904716	1.6377105
329327606298488	1.8828768	0.40207264	0.9120184
329327616298488	1.5102241	0.9610517	0.02941995
329327626298488	1.7259704	-0.19613299	-2.9223816
329327636298488	1.99075	-0.5491724	-0.28439283
329327646298488	-0.588399	-0.06864655	1.5984839
329327650298488	-1.7946169	0.44129923	0.8041453
329327666298488	-1.8142302	0.5099458	0.9904716
329327676298488	-2.1182363	0.89240515	0.75511205
329327680298488	-0.5295591	1.0296983	-0.22555295
329327696298488	1.7455837	4.8248715	-0.12748645
329327700298488	3.7363336	10.218529	-1.2160245
329327709298488	1.2258313	0.6864655	-0.70607877
329327717298488	0.93163174	-0.61781895	0.5295591
329327725298488	1.8240368	1.4121575	2.3437893
329327734398488	1.2160245	0.79433864	3.167548
329327745298488	0.8629852	0.30400613	3.4617474
329327756298488	-0.049033247	-0.098066494	-0.2941995
329327766298488	-1.2650578	-2.5693421	-2.745862
329327776298488	0.30400613	-6.2762556	-1.0296983
329327786298488	0.2353596	-5.6682434	-1.1179581
329327796298488	0.1176798	-2.657602	-0.30400613
329327806298488	0.48052585	-0.5393657	0.8041453
329327816298488	1.0002782	0.6276256	1.0395049
329327826298488	1.3238977	0.8237586	-0.098066494
329327836298488	0.88259846	-0.8041453	-0.6374322
329327846298488	-0.0196133	-2.2359161	-0.098066494
329327856298488	-1.6180972	-3.2656143	0.2549729
329327867298488	-2.9027684	-3.2656143	0.4118793
329327868298488	-2.4810824	-2.5006957	0.35303938
329327877398488	-1.3631244	-1.7946169	0.2353596
329327888298488	-0.75511205	-1.4317709	0.0392266
329327900398488	1.3827376	-0.40207264	-1.2552512
329327910398488	2.1770763	-0.5393657	-1.3337044
329327920398488	2.0593965	-0.5295591	-0.78453195
329327930398488	0.9414384	-0.7747253	0.12748645
329327940398488	-0.06864655	-0.5393657	-0.0196133
329327950398488	-0.37265268	-0.6668522	-0.18632634
329327960398488	-0.51975244	-0.7747253	0.2353596
329327970398488	-0.51975244	0.42168593	0.8237586
329327980398488	-0.8629852	2.2359161	1.0002782
329327990398488	-1.4415776	1.5494506	2.0005565
329328000398488	-1.5592573	0.9120184	1.2454445
329328010398488	-1.5102241	0.0588399	1.0493115
329328020398488	-1.2062179	-0.2941995	-0.049033247
329328030398488	-1.0002782	-1.8730701	-0.30400613
329328043298488	-0.9904716	-2.441856	-0.2745862
329328061498488	-2.1672697	-2.4516625	0.55897903
329328061598488	-1.90249	-2.8047018	0.6864655
329328070298488	-2.0593965	-1.9221034	0.57859236
329328086298488	-1.9711366	-1.0591182	1.1179581
329328090298488	-1.2748644	-0.57859236	0.0196133
329328106298488	-0.1176798	-0.0588399	-2.608569
329328116298488	1.2748644	0.26477954	-0.1569064
329328126298488	1.9809432	1.1669914	-0.14709975
329328136098488	1.4513842	1.9221034	0.34323275
329328146298488	0.3138128	1.4023509	0.84337187
329328156298488	-0.16671304	0.06864655	0.049033247
329328160298488	0.0784532	-1.2062179	-1.1179581
329328170298488	0.8727918	-2.853735	-2.0299766
329328185298488	2.0299766	-3.4911673	-2.4712758
329328193298488	3.079288	-3.2263877	-1.7553903
329328195298488	3.559814	-1.9221034	-2.0201697
329328204398488	3.2067745	0.4118793	-1.9515233
329328215298488	2.2555294	0.18632634	-2.0692031
329328226298488	0.9610517	0.3334261	-1.6475172
329328236298488	0.30400613	0.14709975	-1.8828768
329328246298488	0.3138128	-0.2941995	-1.343511
329328256298488	0.71588546	-0.6472389	-1.0591182
329328266298488	0.97085834	-0.7354987	-0.5393657
329328276298488	0.6374322	0.39226598	0.06864655
329328286298488	0.02941995	0.6864655	0.24516624
329328296298488	-0.02941995	0.42168593	0.1372931
329328306298488	0.35303938	1.4219642	0.02941995
329328316298488	0.049033247	2.098623	-0.20593965
329328326298488	0.10787315	1.7750036	0.0196133
329328337298488	0.1176798	1.2846711	-0.00980665
329328338298488	0.1176798	1.4709975	-0.12748645
329328347398488	0.2353596	1.5102241	-0.3334261
329328360398488	0.57859236	2.6281822	-0.0392266
329328370498488	0.951245	3.304841	-0.06864655
329328380398488	0.3138128	2.7850885	0.20593965
329328390398488	-0.1372931	1.2258313	-0.40207264
329328400398488	0.6472389	0.9414384	0.2157463
329328410398488	0.6864655	0.6472389	0.4314926
329328420398488	0.57859236	0.44129923	0.6766588
329328430398488	0.4707192	0.36284605	0.70607877
329328440498488	0.28439283	0.26477954	0.6374322
329328450398488	0.14709975	0.18632634	0.38245934
329328460398488	-0.0196133	0.32361946	0.0784532
329328470398488	-0.35303938	0.1372931	0.24516624
329328480398488	-0.38245934	0.0392266	0.37265268
329328490398488	-0.60801226	-0.2549729	0.26477954
329328500398488	-0.6766588	-0.2157463	0.48052585
329328510398488	-0.6276256	0.06864655	0.5491724
329328523298488	-0.55897903	0.26477954	0.6668522
329328536298488	-0.69627213	0.14709975	0.8041453
329328546298488	-0.8139519	-0.06864655	0.8531785
329328556298488	-0.83356524	-0.6374322	0.5393657
329328560298488	-0.2353596	-0.8531785	0.24516624
329328576298488	0.19613299	-0.55897903	0.17651969
329328586298488	0.088259846	-0.42168593	-0.1176798
329328596298488	0.0392266	-0.32361946	-0.1372931
329328606298488	-0.049033247	-0.1569064	0.12748645
329328610298488	-0.14709975	-0.34323275	0.40207264
329328624198488	-0.38245934	-0.4511059	0.588399
329328626298488	-0.51975244	-0.4314926	0.5099458
329328645598488	-0.098066494	-0.2157463	0.34323275
329328645698488	0.19613299	0.20593965	0.24516624
329328656298488	0.34323275	0.34323275	0.2941995
329328670398488	1.4023509	0.9904716	-0.18632634
329328680398488	1.6279038	1.4906107	-0.61781895
329328690398488	2.1476562	1.4023509	-1.1081514
329328700398488	2.6477954	0.9414384	-1.7455837
329328710398488	2.657602	-0.35303938	-1.9515233
329328720398488	2.7360554	-1.9122967	-1.4513842
329328730398488	2.1574628	-3.304841	-1.3827376
329328740398488	1.6867437	-4.511059	-1.9122967
329328750398488	0.92182505	-5.8937964	-2.2457228
329328760398488	-0.28439283	-6.3939357	-2.5399222
329328770398488	-1.2748644	-4.883712	-1.93191
329328780398488	-1.2062179	-2.4222424	-0.24516624
329328790398488	-0.5001391	-1.3140911	0.16671304
329328800398488	0.8727918	-1.0100849	-0.48052585
329328810398488	1.6965504	-0.1176798	-2.775282
329328820398488	1.3827376	1.4317709	-6.1389627
329328830398488	0.42168593	2.3339827	-9.48303
329328840398488	-1.0591182	2.010363	-4.197246
329328850398488	-1.7553903	-0.65704554	0.97085834
329328860398488	-1.3827376	-1.6377105	2.8145084
329328870398488	-1.6867437	-2.294756	2.5693421
329328880398488	-2.4712758	-2.2555294	3.9422731
329328890398488	-3.4911673	-1.5592573	4.6091256
329328900398488	-3.726527	-0.89240515	4.422799
329328910398488	-2.324176	-1.6671305	3.6774936
329328921398488	-0.088259846	-1.0002782	2.6379888
329328932298488	0.8237586	-1.0296983	2.0005565
329328940498488	4.4620256	-1.0885382	0.78453195
329328950398488	5.8055367	-0.22555295	1.0689248
329328960398488	5.5015306	-0.3138128	1.1179581
329328970498488	2.9027684	-0.951245	1.2258313
329328980498488	-1.0591182	-0.92182505	0.70607877
329328993298488	-1.9613299	-1.0591182	0.38245934
329329000298488	-2.8145084	-1.0395049	-0.98066497
329329016298488	-2.4712758	-0.5099458	-0.8727918
329329020298488	-2.3045628	-0.5491724	-0.37265268
329329030298488	-1.5200307	-0.26477954	-0.1569064
329329046298488	-0.37265268	-0.38245934	0.3334261
329329050298488	1.0296983	-0.16671304	0.1176798
329329060298488	2.520309	0.75511205	0.83356524
329329076298488	2.9321883	0.78453195	1.0885382
329329086298488	3.1283212	0.5099458	0.0784532
329329090298488	3.0596747	-0.1569064	0.6668522
329329100298488	2.687022	0.34323275	1.0198916
329329116298488	1.6769371	0.19613299	0.89240515
329329120298488	1.1571847	0.39226598	1.4513842
329329135298488	0.70607877	0.30400613	0.37265268
329329144298488	0.55897903	1.2846711	-1.9417167
329329145298488	0.1372931	1.5886773	1.4611908
329329156298488	-0.46091253	1.1179581	3.559814
329329170398488	-1.0885382	-1.0198916	1.9417167
329329180398488	0.61781895	6.746975	-6.354709
329329190398488	-1.0885382	3.0890946	0.70607877
329329200398488	-1.3925443	1.9221034	0.5982056
329329210398488	-1.3631244	1.4121575	0.34323275
329329220398488	-0.8139519	1.2944778	-0.1372931
329329230398488	-0.65704554	1.1375713	-0.6864655
329329240398488	0.46091253	0.1372931	1.6867437
329329250398488	1.4611908	0.84337187	-1.0983448
329329260398488	1.0296983	-0.7256921	-0.78453195
329329270398488	0.74530536	-3.0890946	-0.71588546
329329280398488	0.4314926	-4.0403395	-0.71588546
329329290398488	1.6377105	-1.8730701	0.36284605
329329300398488	1.6671305	-0.65704554	1.4808041
329329310398488	1.4709975	-0.2941995	0.6766588
329329320398488	0.79433864	-0.28439283	0.18632634
329329330398488	-0.92182505	-1.0395049	-1.2552512
329329340398488	-0.35303938	-0.10787315	-0.9610517
329329350398488	-0.7256921	-0.6864655	-0.8237586
329329360398488	0.16671304	-0.26477954	-0.89240515
329329370498488	0.0392266	-1.5298374	-0.4118793
329329380398488	-0.24516624	-0.65704554	-0.588399
329329390398488	-0.6374322	-1.0885382	-0.5001391
329329400398488	-0.84337187	-0.6276256	-0.088259846
329329410398488	-1.7946169	0.0588399	-0.48052585
329329420398488	-2.5105023	-0.42168593	-0.00980665
329329430398488	-2.2359161	0.8041453	0.2353596
329329440398488	-3.4323275	0.30400613	1.3337044
329329450398488	-3.5205872	0.22555295	2.5006957
329329460398488	-3.0596747	0.74530536	2.4810824
329329473298488	-3.1283212	1.2944778	2.4712758
329329486298488	-3.049868	1.0689248	2.4712758
329329490298488	-2.6183755	1.7750036	1.4906107
329329506298488	-3.7461402	0.6864655	1.7651969
329329516298488	-3.5205872	0.5393657	1.0689248
329329526298488	-5.0504246	-1.2846711	0.6374322
329329530298488	-5.119071	-1.0002782	0.4707192
329329540298488	-5.4721107	-1.5690639	1.1571847
329329556298488	-4.4326057	-2.0790098	0.92182505
329329566298488	-2.7164419	-2.9321883	0.9610517
329329576098488	-0.74530536	-3.2852278	0.39226598
329329586298488	1.6573238	-2.6772153	0.8531785
329329590298488	3.2950344	-2.0790098	0.78453195
329329606298488	4.197246	-2.3634026	0.89240515
329329607298488	4.4914455	-2.186883	0.65704554
329329615298488	3.971693	-1.5886773	-0.19613299
329329624398488	1.0591182	-0.588399	-0.7649187
329329635298488	0.70607877	-0.8727918	-0.951245
329329646298488	-1.4121575	-2.3143694	0.6276256
329329656298488	-2.0790098	-3.383294	-0.2157463
329329666298488	-2.520309	-3.7167203	-1.0493115
329329676298488	-2.5105023	-3.5107806	0.18632634
329329686298488	-2.4124358	-2.0299766	-0.16671304
329329696298488	-2.186883	-0.49033248	0.4707192
329329706298488	-2.7654753	0.60801226	0.5099458
329329716298488	-2.1770763	1.0983448	0.0
329329726298488	-1.3238977	0.98066497	-0.18632634
329329736298488	-0.37265268	0.44129923	-1.3337044
329329740298488	0.5491724	0.0196133	-1.0100849
329329750298488	1.3925443	0.10787315	-0.40207264
329329758298488	0.6864655	-0.0784532	-1.6475172
329329768398488	1.2160245	0.2157463	-0.48052585
329329779298488	1.0395049	0.55897903	-0.9120184
329329803698488	0.0588399	1.6965504	0.37265268
329329803798488	0.57859236	1.4415776	0.2549729
329329820398488	0.83356524	1.7946169	0.2157463
329329830398488	1.6867437	2.1182363	-0.02941995
329329840398488	1.9613299	2.4124358	0.0392266
329329850398488	2.6183755	2.7262487	0.35303938
329329862298488	2.745862	2.7164419	0.5393657
329329870398488	3.5107806	2.9714148	0.4511059
329329889698488	4.0109196	3.304841	0.8237586
329329889798488	4.256086	3.4519408	1.2258313
329329901298488	4.020726	3.3146477	0.951245
329329910398488	3.7657535	3.108708	1.7455837
329329933498488	3.5892339	2.883155	2.324176
329329933598488	3.4323275	2.8047018	2.6772153
329329946298488	3.1577413	2.6772153	3.4323275
329329956298488	2.8341217	2.7262487	3.9030466
329329966298488	2.3143694	2.6477954	4.4129925
329329976298488	1.9122967	2.5987623	4.903325
329329986298488	1.4513842	2.5889556	5.374044
329329996298488	0.7354987	2.6674087	6.2468357
329330006298488	-0.14709975	2.2751427	6.3154826
329330016298488	-1.0885382	1.6475172	6.6489086
329330026298488	-2.4124358	0.8237586	6.5116153
329330036298488	-4.5404787	-0.2549729	6.9823346
329330098298488	-7.2863407	-1.6279038	7.3157606
329330098398488	-9.384964	-2.324176	7.4432473
329330098498488	-10.336209	-2.1476562	7.6295733
329330098598488	-9.60071	-0.32361946	7.0705943
329330098698488	-7.423634	1.0885382	6.0703163
329330098798488	-2.0495899	3.2558076	5.1288776
329330098898488	3.1381278	4.756225	3.5696206
329330112498488	6.835235	4.9229383	2.4516625
329330120398488	9.63013	4.9719715	1.4023509
329330130398488	9.934136	3.7853668	0.6374322
329330140398488	8.580818	1.4808041	1.2944778
329330150398488	6.6489086	-2.186883	0.26477954
329330160398488	4.3835726	-6.364516	-2.0790098
329330170398488	-0.34323275	-12.219086	-5.6682434
329330193698488	-6.5116153	-12.03276	-7.5707335
329330193798488	-9.48303	-11.875853	-3.383294
329330246898488	-6.7862015	-0.38245934	2.4124358
329330246998488	0.0	7.835513	0.32361946
329330247098488	5.374044	9.757616	-0.1372931
329330247198488	6.560649	6.9823346	-0.5099458
329330255998488	6.4037423	3.7461402	-1.7455837
329330267098488	6.187996	2.265336	-2.3437893
329330276398488	5.1779113	-0.93163174	-3.4813607
329330285398488	3.6774936	-2.9321883	-4.1285996
329330300398488	0.1569064	-2.5301156	-5.070038
329330310398488	-3.246001	-0.71588546	-4.7954516
329330320498488	-6.923495	1.1964113	-5.187718
329330330398488	-9.277091	3.1773546	-3.726527
329330374898488	-9.68897	4.844485	-2.1182363
329330374998488	-5.119071	5.1386843	0.55897903
329330375098488	-0.5491724	3.0400615	2.4712758
329330375198488	2.0593965	0.65704554	2.8733485
329330388998488	2.3830159	-0.74530536	1.9613299
329330402098488	2.0201697	-1.2356379	2.2457228
329330413298488	1.4611908	-1.5200307	2.0888164
329330426298488	0.79433864	0.36284605	0.98066497
329330436298488	0.24516624	1.0591182	-0.89240515
329330446298488	-0.60801226	0.9610517	-0.4511059
329330459598488	-1.1179581	0.55897903	0.4707192
329330459698488	-0.71588546	0.24516624	0.088259846
329330470398488	-0.57859236	0.36284605	-0.5001391
329330480398488	-0.3138128	0.57859236	-0.5001391
329330490398488	0.4314926	1.0885382	-0.588399
329330500498488	0.70607877	1.5984839	-0.39226598
329330522898488	0.6864655	3.0596747	-0.4511059
329330522998488	-0.34323275	2.687022	-0.49033248
329330577798488	-0.34323275	3.80498	-0.6864655
329330577898488	-0.4314926	3.8344	-1.6475172
329330577998488	-1.6475172	2.912575	0.6668522
329330578098488	-1.9515233	2.5399222	2.294756
329330585498488	-2.0593965	1.8828768	3.6088471
329330597298488	-2.3437893	1.343511	4.0109196
329330610398488	-0.4707192	-1.5592573	2.2163029
329330620398488	0.8139519	-2.9223816	0.19613299
329330628398488	1.1669914	-3.6186538	-1.0885382
329330640398488	1.2062179	-4.6875787	-3.2067745
329330650398488	1.1964113	-5.1288776	-3.4813607
329330660398488	1.1179581	-5.266171	-0.78453195
329330670398488	-0.56878567	-4.5502853	2.010363
329330680398488	-2.3830159	-3.1479347	0.9022118
329330690398488	-3.9520798	-2.2457228	-0.46091253
329330700398488	-4.4620256	-0.4314926	-0.75511205
329330710398488	-5.2269444	0.61781895	1.7651969
329330720398488	-5.9722495	0.8237586	3.4617474
329330730398488	-6.237029	0.098066494	2.6183755
329330740398488	-5.7565036	-0.97085834	1.6769371
329330750398488	-4.403186	-2.265336	2.4222424
329330760398488	-3.5107806	-3.2067745	1.8142302
329330770398488	-3.726527	-3.0400615	-3.7559469
329330780398488	-4.0109196	-1.8436501	-8.541592
329330790398488	-2.9616082	0.48052585	-9.257478
329330800398488	-2.883155	0.6766588	-9.18883
329330810498488	-2.5791488	-1.1669914	-6.7371683
329330820398488	-1.2650578	-3.2558076	-0.71588546
329330830398488	-1.0493115	-5.82515	2.5889556
329330840398488	-0.4511059	-7.9335794	3.0596747
329330850498488	-0.02941995	-9.816457	1.7848103
329330863298488	0.34323275	-10.934415	1.0296983
329330876298488	1.5298374	-11.395327	-3.9913065
329330886298488	3.049868	-9.169217	-6.1683826
329330890298488	3.412714	-7.001948	-4.3835726
329330906298488	3.0302548	-4.628739	-5.060231
329330916198488	1.6377105	-3.6578803	-4.560092
329330926298488	-0.5295591	-4.2462792	-4.256086
329330934298488	-0.1176798	-1.9515233	-3.8245933
329330942298488	-1.3140911	0.088259846	-5.933023
329330944398488	-2.883155	-0.5295591	-4.834678
329330953398488	-2.7066352	-1.5592573	-3.383294
329330970498488	-0.56878567	-0.8727918	-6.266449
329330980398488	0.8629852	-0.0784532	-3.7167203
329330990398488	1.2160245	-0.46091253	-6.6783285
329331000398488	2.9714148	0.8139519	-6.7371683
329331010498488	4.560092	0.69627213	-6.354709
329331020398488	6.1978025	0.65704554	-6.1978025
329331030398488	6.7371683	0.78453195	-6.099736
329331038398488	6.746975	0.83356524	-5.746697
329331050398488	6.4037423	0.5491724	-5.76631
329331060398488	6.433162	0.2353596	-5.874183
329331070398488	7.109821	0.28439283	-5.5897903
329331080398488	7.8453197	0.24516624	-5.3348174
329331088398488	8.119906	0.35303938	-5.6094036
329331100398488	8.267006	0.6864655	-5.3053975
329331110398488	8.296426	0.6766588	-4.991585
329331120498488	7.2863407	0.92182505	-4.677772
329331147698488	6.609682	0.9904716	-3.667687
329331147798488	5.7270837	1.1571847	-2.8439283
329331147898488	4.9425516	1.0591182	-1.7553903
329331160398488	4.5404787	0.9610517	0.0392266
329331170398488	4.020726	0.51975244	0.70607877
329331180398488	3.3244543	-0.18632634	2.5497289
329331190398488	2.520309	-0.9120184	5.011198
329331200398488	1.2650578	-1.6573238	8.316039
329331208398488	0.049033247	-2.128043	9.296704
329331220298488	-0.8041453	-2.432049	9.63013
329331230398488	-6.354709	-3.6774936	9.080957
329331240398488	-8.776952	-6.7567816	8.776952
329331250398488	-9.365351	-8.639658	9.267284
329331260398488	-7.7668667	-5.3053975	7.2373075
329331270398488	-4.883712	-1.4709975	4.1580195
329331280398488	-1.2944778	-0.30400613	3.8442068
329331290398488	2.2849493	-1.6082906	3.2067745
329331300398488	4.844485	-2.128043	2.0593965
329331310398488	6.6783285	-2.991028	1.3238977
329331323298488	6.9333014	-4.118793	-0.34323275
329331336298488	7.404021	-5.2465577	-11.846433
329331346298488	3.3244543	-6.8548484	-11.38552
329331356298488	-0.098066494	-8.963278	-4.658159
329331360298488	-3.2361944	-9.963556	0.6864655
329331370298488	-4.4620256	-2.3045628	-4.344346
329331386298488	-5.070038	4.1874394	-8.747532
329331389298488	-5.0798445	4.511059	-8.639658
329331403198488	-3.304841	3.9226599	-9.86549
329331412298488	-0.97085834	3.7755601	-10.679441
329331414298488	2.186883	4.8052583	-9.355544
329331423498488	3.80498	3.7559469	-6.6194887
329331440398488	2.5595355	-1.6475172	-3.3244543
329331450498488	2.2457228	-1.0591182	-1.7651969
329331460398488	1.7946169	0.588399	-0.6276256
329331470398488	0.9414384	0.6864655	0.0588399
329331480398488	0.2157463	0.22555295	0.37265268
329331490398488	-1.1669914	-0.9022118	0.6276256
329331500398488	-1.4415776	-1.4808041	0.70607877
329331510398488	-1.4415776	-1.8338435	1.4415776
329331520398488	-1.2062179	-1.6475172	1.343511
329331530398488	-0.83356524	-1.3827376	1.0885382
329331540398488	-1.147378	-0.32361946	-0.0392266
329331550398488	-1.7946169	0.7354987	0.22555295
329331559398488	-1.8240368	1.539644	-0.0392266
329331570398488	-1.4121575	2.1574628	-1.0689248
329331580398488	-0.12748645	3.0302548	-1.9515233
329331590398488	-0.14709975	2.7164419	-2.5006957
329331600398488	0.34323275	2.7948952	-2.3732092
329331610398488	0.00980665	1.9122967	-1.3042845
329331620398488	-0.44129923	0.8041453	0.098066494
329331630398488	-0.49033248	-0.6864655	1.0689248
329331640398488	0.55897903	-0.5491724	1.2748644
329331650398488	0.8629852	-0.17651969	0.6766588
329331660398488	1.2846711	0.40207264	0.26477954
329331670398488	1.539644	0.70607877	-0.16671304
329331680398488	2.010363	0.98066497	-0.74530536
329331690398488	2.3732092	1.5004175	-1.343511
329331699398488	2.2457228	1.8044236	-1.6180972
329331710098488	2.2555294	1.8926834	-1.6082906
329331720398488	1.7161638	1.6082906	-1.7750036
329331730398488	1.8828768	1.147378	-1.8926834
329331740398488	1.9809432	0.44129923	-2.324176
329331750498488	1.7455837	-0.088259846	-2.098623
329331760398488	1.0493115	-0.6374322	-1.2062179
329331770398488	0.46091253	-1.3140911	-0.4511059
329331783298488	0.70607877	-1.3925443	-0.40207264
329331796298488	0.17651969	-1.8338435	-0.55897903
329331800298488	-0.24516624	-2.0299766	-1.0198916
329331816298488	-0.9610517	-2.010363	-0.9904716
329331826198488	-2.4516625	-1.8730701	-1.1964113
329331836298488	-3.80498	-1.1866046	-0.22555295
329331846298488	-5.2563643	-0.7747253	2.1378496
329331854298488	-6.1683826	-0.61781895	4.2070527
329331862298488	-6.8842683	-0.70607877	4.530672
329331864398488	-7.3157606	-1.0689248	3.7853668
329331875298488	-7.080401	-0.97085834	3.697107
329331886298488	-6.913688	-1.0198916	4.1384063
329331896298488	-6.776395	-1.0591182	3.4813607
329331900298488	-5.9428296	-0.18632634	3.4911673
329331910298488	-6.305676	-0.7649187	3.3734875
329331926298488	-6.9038815	-2.2751427	4.501252
329331936298488	-7.864933	-2.3437893	3.559814
329331940298488	-8.13952	-1.6279038	-1.3631244
329331956298488	-7.590347	0.4511059	-4.393379
329331966298488	-6.972528	1.7161638	-4.6091256
329331976298488	-4.844485	2.1574628	-5.4721107
329331980298488	-1.735777	2.3143694	-4.030533
329331996298488	-0.36284605	1.0983448	0.17651969
329332000298488	-0.5982056	-1.4121575	2.2359161
329332010298488	-0.9904716	-4.030533	3.383294
329332020298488	-0.5982056	-5.82515	3.000835
329332036298488	0.049033247	-6.639102	1.7259704
329332038298488	0.8531785	-7.080401	1.0395049
329332046498488	1.2846711	-7.560927	-1.0296983
329332058298488	1.5494506	-7.6884136	-2.2555294
329332070398488	0.8629852	-5.8643765	-1.3925443
329332080398488	1.0002782	-3.6284604	-1.3337044
329332090398488	1.0885382	-2.3339827	-3.971693
329332100398488	0.8041453	-0.83356524	-3.6774936
329332110398488	-0.61781895	-0.6374322	-3.079288
329332120398488	-1.735777	1.4808041	-1.7651969
329332130398488	-3.3636808	1.90249	-4.1580195
329332140398488	-1.539644	0.34323275	-1.7455837
329332150398488	1.3337044	-0.2353596	-0.6276256
329332159398488	2.2555294	0.36284605	-0.39226598
329332170298488	3.1871612	0.26477954	-1.2258313
329332193698488	5.933023	0.78453195	-1.706357
329332193798488	6.8548484	0.00980665	-0.93163174
329332210398488	8.433719	0.84337187	-1.4808041
329332220398488	8.580818	-0.36284605	-0.4511059
329332230398488	8.786758	-1.2160245	-0.36284605
329332243298488	9.041731	-1.4317709	-0.28439283
329332256298488	9.4241905	-2.1672697	-0.2157463
329332266298488	9.48303	-2.775282	-0.26477954
329332275298488	9.639936	-2.4026291	-0.14709975
329332283298488	9.473224	-1.8142302	0.2549729
329332285298488	9.169217	-1.5592573	0.7747253
329332293398488	8.933858	-1.0395049	1.2748644
329332304298488	8.629851	-1.2650578	1.8632635
329332316298488	8.365072	-1.0493115	3.000835
329332320298488	8.502365	-1.5592573	4.285506
329332336298488	9.031924	-1.9809432	5.0013914
329332346298488	8.649466	-2.9027684	5.462304
329332356298488	7.560927	-3.9128532	7.913966
329332366298488	5.8643765	-4.648352	11.866046
329332376298488	3.246001	-5.1288776	14.955141
329332386298488	-0.89240515	-4.8248715	15.621993
329332396298488	-6.2958694	-5.76631	14.092155
329332406198488	-10.189109	-9.4241905	11.885659
329332410298488	-10.581375	-12.660385	12.326959
329332426298488	-10.100849	-10.924608	10.699055
329332436298488	-5.2857842	-4.530672	8.404299
329332446298488	-0.2549729	0.8139519	7.305954
329332456198488	4.844485	2.6968286	7.139241
329332460298488	9.48303	1.8926834	6.080123
329332476298488	13.43511	-1.6279038	3.3636808
329332486298488	16.769371	-6.6489086	0.89240515
329332496298488	16.602657	-8.982891	-2.0593965
329332500298488	9.257478	-13.974476	-7.6197667
329332516298488	4.4326057	-13.631243	-8.070872
329332518398488	-1.8338435	-13.278204	-4.834678
329332527398488	-9.071151	-7.6197667	2.4026291
329332538298488	-11.56204	-3.697107	0.098066494
329332550398488	-12.258312	1.1081514	-7.2078876
329332560398488	-0.2941995	1.93191	-7.678607
329332570398488	5.9526362	2.7360554	-8.708305
329332580398488	8.276813	4.8542914	-9.77723
329332590398488	6.8548484	3.9030466	-6.3939357
329332600398488	3.5990405	1.1277647	-2.824315
329332610398488	1.147378	-1.4513842	-0.61781895
329332620398488	-0.0392266	-2.3634026	1.8338435
329332630398488	-0.56878567	-2.0299766	1.8828768
329332640398488	-0.83356524	-2.1084297	1.8436501
329332650398488	0.4314926	-0.97085834	2.2359161
329332660398488	0.8727918	-0.8237586	3.1577413
329332670398488	1.5004175	-1.2356379	4.3639593
329332682298488	1.9711366	-1.0296983	5.070038
329332703698488	3.5892339	-0.0588399	2.2457228
329332703798488	2.9714148	-0.1176798	1.7259704
329332720398488	0.7256921	0.71588546	6.4037423
329332730398488	-0.35303938	0.83356524	6.492002
329332740398488	-1.147378	1.1179581	3.7461402
329332750398488	-0.8727918	1.735777	1.3337044
329332771698488	0.2157463	1.5200307	0.2353596
329332771798488	0.74530536	1.2062179	0.0784532
329332780398488	1.2258313	1.0787314	0.088259846
329332790398488	0.92182505	1.1179581	-0.4707192
329332800498488	0.51975244	1.0002782	-0.69627213
329332810398488	0.36284605	0.4511059	-0.38245934
329332820398488	-0.3334261	-0.22555295	0.32361946
329332830398488	0.44129923	-0.30400613	0.78453195
329332840398488	1.6867437	0.35303938	-0.1176798
329332850398488	2.3732092	0.7649187	-0.32361946
329332860398488	2.8635418	0.7256921	-0.2157463
329332870398488	2.3732092	0.10787315	0.60801226
329332880398488	1.0002782	-1.5200307	-0.18632634
329332890398488	-0.3334261	-2.7850885	0.35303938
329332900398488	-1.8926834	-4.1285996	2.775282
329332910398488	-2.7066352	-4.756225	4.707192
329332920498488	-3.6088471	-4.9131317	3.8442068
329332930398488	-4.3639593	-3.9618864	2.128043
329332940398488	-4.4326057	-2.0397832	2.3045628
329332950398488	-4.9229383	0.06864655	2.6674087
329332960398488	-6.354709	1.1375713	1.372931
329332970398488	-8.306232	1.6082906	-0.5393657
329333002098488	-11.454167	1.5200307	-0.32361946
329333002198488	-12.964391	2.5006957	2.1084297
329333002298488	-13.189944	2.5301156	3.4911673
329333009398488	-12.954584	-0.4314926	2.0299766
329333020398488	-10.140076	-2.4712758	2.5595355
329333030498488	-7.75706	-2.5006957	-0.40207264
329333051898488	-4.7660317	-0.40207264	-5.8349566
329333051998488	-3.2361944	0.7649187	-6.1683826
329333060398488	-2.1182363	0.8531785	-7.100014
329333070398488	-0.61781895	1.5592573	-6.109543
329333080398488	1.3337044	0.1372931	0.40207264
329333089398488	0.55897903	-2.3830159	2.9812214
329333100298488	0.098066494	-3.7853668	3.5205872
329333123698488	-0.30400613	-7.60996	2.0201697
329333123798488	-0.65704554	-8.737725	0.5295591
329333140398488	-0.44129923	-10.375436	-0.75511205
329333150398488	0.20593965	-10.7578945	-3.3146477
329333160398488	1.4219642	-9.149604	-4.481639
329333173298488	1.6965504	-7.7962866	-4.962165
329333192598488	1.9809432	-1.5298374	-3.9226599
329333192698488	0.79433864	-0.30400613	-4.2953124
329333203298488	0.0784532	0.36284605	-3.6186538
329333216298488	-1.1277647	2.5987623	-2.1966896
329333226298488	-3.2852278	3.667687	-4.4424124
329333236298488	-3.9324665	3.7951734	-4.8248715
329333246298488	-2.883155	4.2070527	-6.1193495
329333256298488	-0.2745862	3.1479347	-6.6194887
329333260298488	2.0299766	2.2261095	-5.9232163
329333276298488	2.991028	2.2849493	-6.4037423
329333286298488	4.1874394	1.4906107	-3.6284604
329333296298488	6.187996	2.8047018	-2.5105023
329333306298488	7.7962866	1.735777	-2.991028
329333314298488	8.571012	1.9417167	-3.108708
329333324298488	9.83607	1.1964113	-2.6183755
329333326298488	10.610795	0.22555295	-1.9122967
329333334398488	10.561762	-0.34323275	-1.8044236
329333345298488	10.551955	-0.57859236	-1.4808041
329333356298488	10.738281	-0.9022118	-0.5295591
329333366298488	10.659828	-0.8237586	0.2157463
329333376298488	10.169496	-0.46091253	1.176798
329333386298488	9.68897	-0.71588546	2.2163029
329333396298488	9.335931	-1.0198916	3.1479347
329333406298488	9.022118	-2.4516625	3.86382
329333416298488	9.355544	-3.3440676	4.6875787
329333426298488	9.169217	-3.9128532	6.2958694
329333436298488	8.100293	-4.903325	7.864933
329333446298488	5.7859235	-4.285506	9.708583
329333448298488	4.422799	-4.8052583	11.964112
329333457398488	2.2163029	-5.119071	13.033037
329333469298488	0.0784532	-5.599597	13.533176
329333504998488	-8.835792	-11.9052725	11.2384205
329333505098488	-10.316595	-11.091321	10.012589
329333505198488	-8.894631	-6.943108	8.021839
329333520398488	-2.2751427	2.8047018	5.9232163
329333530398488	2.775282	4.9425516	6.364516
329333540398488	7.913966	4.658159	6.364516
329333550398488	10.581375	2.8635418	5.011198
329333560398488	11.513007	-1.5788707	2.7850885
329333570398488	10.904995	-9.080957	-0.2157463
329333580398488	8.835792	-11.101128	-3.4225209
329333590398488	2.5889556	-12.679998	-7.1294346
329333600398488	-3.412714	-12.444638	-12.130826
329333610398488	-11.463974	-8.296426	1.4219642
329333620398488	-13.258591	-2.2064962	-6.7862015
329333633298488	-13.307624	-0.18632634	-10.159689
329333686498488	2.8145084	3.7363336	-11.964112
329333686598488	8.374879	6.0605097	-11.258034
329333686698488	8.924051	7.4628606	-10.395049
329333686798488	3.8344	2.657602	-6.4821954
329333686898488	1.8926834	0.12748645	-4.118793
329333695398488	0.57859236	-2.775282	-0.56878567
329333703398488	-0.48052585	-3.9226599	-0.0392266
329333715298488	-0.71588546	-4.0991797	-0.00980665
329333726298488	-0.8237586	-2.353596	-0.30400613
329333736298488	-0.79433864	-0.8237586	0.8629852
329333746298488	-1.1179581	-0.5491724	1.3238977
329333756298488	-0.8727918	-0.37265268	3.216581
329333772598488	0.9414384	0.0392266	1.1081514
329333772698488	1.2258313	0.70607877	0.6472389
329333780398488	1.1179581	1.5690639	-0.46091253
329333790398488	1.0591182	2.0790098	-0.8041453
329333823998488	0.2941995	2.098623	2.265336
329333824098488	-0.61781895	2.441856	3.9128532
329333824198488	-0.84337187	2.324176	2.6379888
329333840398488	-0.9414384	2.8439283	-0.34323275
329333874098488	-1.6180972	2.4124358	-0.9904716
329333874198488	-0.588399	1.9122967	-0.48052585
329333874298488	-0.34323275	1.4219642	0.32361946
329333890398488	-0.14709975	0.4314926	0.84337187
329333950098488	0.37265268	-0.1176798	1.0885382
329333950198488	0.35303938	-0.12748645	0.61781895
329333950298488	0.5295591	0.2353596	-0.74530536
329333950398488	0.51975244	0.2941995	-1.1277647
329333950498488	0.57859236	0.4118793	-1.3337044
329333960398488	-0.26477954	-0.12748645	-0.6276256
329333970398488	-0.588399	-0.56878567	0.24516624
329333980398488	-0.9022118	-1.1375713	1.4906107
329334012998488	-1.7553903	-1.7848103	4.903325
329334013098488	-2.4026291	-2.324176	5.776117
329334013198488	-2.6183755	-2.7066352	4.089373
329334020398488	-2.6772153	-2.9812214	1.6475172
329334032298488	-2.5006957	-2.883155	1.6180972
329334040398488	-2.128043	-1.6769371	3.1479347
329334050398488	-2.432049	-0.7649187	2.3732092
329334060398488	-3.9520798	-0.098066494	-0.10787315
329334070398488	-6.080123	0.83356524	-0.088259846
329334080398488	-9.2378645	1.2160245	3.86382
329334093298488	-11.179581	1.5494506	5.325011
329334106298488	-12.542705	1.1571847	1.6279038
329334116298488	-12.091599	-2.7850885	-0.098066494
329334126298488	-8.414105	-3.108708	-2.1770763
329334136298488	-5.599597	-1.0493115	-8.070872
329334146298488	-3.726527	1.0395049	-8.414105
329334156298488	-3.1283212	0.8139519	-8.669079
329334166298488	-3.4421341	0.65704554	-5.325011
329334176298488	-1.0591182	-1.4121575	2.6477954
329334186298488	-1.147378	-4.7954516	2.7066352
329334215098488	-1.0395049	-7.7178335	4.1874394
329334215198488	-0.56878567	-8.767145	3.3931007
329334215298488	-0.28439283	-9.747809	0.98066497
329334215398488	0.10787315	-11.169774	-2.0692031
329334242098488	1.343511	-11.022675	-5.0210047
329334242198488	2.2751427	-10.228335	-6.560649
329334250398488	2.7556686	-6.4723887	-4.6875787
329334260498488	2.265336	-2.128043	-2.3830159
329334270398488	0.9414384	-0.55897903	-3.383294
329334280398488	-0.6668522	0.3334261	-3.9913065
329334290398488	-1.6082906	1.5298374	-2.991028
329334324998488	-1.9417167	3.000835	-3.3146477
329334325098488	0.2353596	1.8436501	-2.010363
329334325198488	2.490889	0.57859236	-1.4317709
329334340398488	4.403186	-0.24516624	-2.520309
329334349398488	4.883712	0.049033247	-2.883155
329334357398488	4.628739	0.22555295	-3.0989013
329334394998488	5.8153434	-0.4314926	-1.0198916
329334395098488	7.119628	0.89240515	-0.6668522
329334395198488	8.982891	0.6766588	-1.3631244
329334405398488	10.346016	-1.0002782	-0.34323275
329334413398488	11.169774	-1.9221034	0.44129923
329334430398488	12.130826	-2.7654753	2.1672697
329334463998488	11.346293	-3.0204482	3.5205872
329334464098488	9.826263	-3.1185145	4.501252
329334464198488	9.218251	-3.5794272	4.726805
329334480398488	8.1983595	-4.1874394	5.2857842
329334532298488	8.1101	-6.354709	5.521144
329334532398488	8.217973	-7.276534	6.639102
329334532498488	7.0902076	-7.276534	8.688692
329334532598488	5.67805	-6.050703	8.982891
329334542298488	4.9719715	-6.1487694	9.86549
329334556298488	3.1185145	-6.0114765	10.806928
329334566298488	-0.10787315	-6.746975	10.375436
329334576298488	-2.4516625	-7.6001534	10.120462
329334586298488	-4.932745	-9.149604	10.5715685
329334596298488	-5.962443	-8.973084	9.335931
329334639098488	-6.266449	-4.8248715	7.9041595
329334639198488	-3.7657535	-0.4314926	7.394214
329334639298488	-0.5295591	2.4516625	6.8450418
329334639398488	4.844485	1.372931	7.100014
329334639498488	7.9924197	-1.3337044	5.9526362
329334667198488	10.5715685	-6.560649	4.226666
329334667298488	10.983448	-10.326403	1.4513842
329334667398488	10.110656	-11.287454	-1.0591182
329334677398488	5.521144	-13.631243	-5.2269444
329334685398488	3.2656143	-13.40569	-6.413549
329334700398488	-2.8047018	-4.0991797	-0.7354987
329334710398488	-6.4821954	-1.7848103	-8.531785
329334720398488	-7.894353	-0.93163174	-9.129991
329334730398488	-3.7755601	0.9120184	-9.914523
329334753698488	3.1479347	3.7069137	-11.758173
329334753798488	3.667687	3.697107	-9.60071
329334770398488	3.5107806	0.57859236	-3.2361944
329334780398488	3.2852278	-1.8926834	-1.7553903
329334790398488	1.8730701	-3.9913065	-0.8237586
329334800398488	2.324176	-3.7069137	0.49033248
329334822698488	3.1969678	-1.0983448	0.55897903
329334822798488	2.8929617	-0.46091253	0.61781895
329334840398488	1.1964113	-0.7256921	1.6867437
329334850398488	1.3827376	-0.6864655	0.7747253
329334860398488	0.6864655	-0.8237586	-0.049033247
329334870398488	0.40207264	0.6374322	0.2157463
329334880398488	0.35303938	1.2650578	0.098066494
329334890398488	-0.098066494	1.2454445	0.6668522
329334900398488	-0.26477954	1.147378	1.0198916
329334910398488	-0.49033248	1.6180972	1.2552512
329334920398488	-0.0784532	1.8828768	1.0689248
329334930498488	0.2353596	1.8436501	-0.22555295
329334940398488	0.3138128	2.1770763	-0.5982056
329334950398488	-0.12748645	1.8338435	-0.098066494
329334960398488	-0.40207264	1.372931	-0.28439283
329334970498488	-0.6374322	0.98066497	-0.46091253
329334980398488	-1.1081514	-0.10787315	-0.0392266
329334990498488	-0.6472389	-0.12748645	1.176798
329335000398488	0.0784532	-0.1569064	1.0002782
329335012298488	0.1372931	0.0588399	1.0591182
329335026298488	0.6668522	0.4707192	-1.5200307
329335036298488	0.951245	0.84337187	-1.8926834
329335046298488	0.89240515	0.5982056	-2.5399222
329335056298488	0.18632634	0.32361946	-0.89240515
329335066298488	-0.17651969	0.1372931	0.088259846
329335076298488	-0.088259846	-0.1569064	2.0888164
329335086298488	0.65704554	-0.5491724	3.3636808
329335096298488	1.4023509	-1.0983448	4.5502853
329335106298488	1.3337044	-1.4415776	4.7169986
329335115298488	0.34323275	-2.128043	1.8828768
329335123298488	-0.18632634	-2.5791488	0.00980665
329335125298488	-0.8237586	-2.824315	-2.0201697
329335136398488	-1.8436501	-2.4222424	-3.049868
329335144398488	-2.4222424	-1.5102241	-2.324176
329335160398488	-3.8344	0.4118793	0.22555295
329335170398488	-4.9425516	1.0100849	0.6374322
329335180398488	-6.1683826	1.0493115	1.0198916
329335190398488	-7.5217004	0.7649187	1.7750036
329335200398488	-8.482752	0.42168593	3.5303938
329335210398488	-8.688692	-0.19613299	3.559814
329335220398488	-7.021561	-1.4317709	2.3928225
329335230398488	-4.4718323	-3.0302548	0.7649187
329335240398488	-3.8147867	-3.6873002	0.40207264
329335250398488	-4.167826	-3.0989013	-1.8632635
329335260398488	-5.236751	-1.3337044	-4.9523582
329335270398488	-5.393657	-1.2454445	-6.560649
329335280398488	-3.8147867	-0.7256921	-7.5511203
329335290398488	-1.6769371	-2.1182363	-1.5690639
329335300398488	1.3042845	-3.667687	0.3138128
329335310398488	1.6867437	-6.109543	1.539644
329335320398488	1.8142302	-7.531507	3.246001
329335330398488	1.7946169	-8.316039	2.2163029
329335340398488	1.8044236	-8.924051	1.1571847
329335350398488	2.1672697	-9.179024	-0.4118793
329335360398488	2.2751427	-8.639658	-2.745862
329335370398488	2.687022	-6.6587152	-3.667687
329335380398488	2.6281822	-3.9324665	-3.9226599
329335390398488	2.0397832	-1.2160245	-2.5399222
329335400398488	0.7256921	0.28439283	-3.9030466
329335410398488	0.088259846	0.8629852	-3.86382
329335420498488	-1.0002782	0.9610517	-5.011198
329335430398488	-1.7161638	1.3533176	-3.6873002
329335440398488	-2.5693421	1.1081514	-4.0403395
329335450498488	-1.8142302	1.4219642	-4.8739047
329335460498488	-0.17651969	1.4317709	-4.5993185
329335470398488	2.0397832	0.5001391	-2.0299766
329335482298488	2.7556686	0.17651969	-2.775282
329335496298488	4.0403395	0.6276256	-1.5984839
329335506298488	4.8052583	1.6475172	-1.0493115
329335516298488	5.8055367	1.5886773	-1.0002782
329335526298488	6.8156214	1.4317709	-0.69627213
329335567498488	6.639102	1.2062179	-1.2846711
329335567598488	6.8450418	0.92182505	-0.5491724
329335567698488	7.0902076	0.8139519	-0.0588399
329335567798488	6.639102	0.16671304	-0.098066494
329335567898488	7.168661	0.12748645	0.39226598
329335576398488	7.7962866	0.2549729	1.7651969
329335584398488	7.9924197	1.5004175	1.8044236
329335600398488	7.227501	1.0983448	2.9714148
329335633998488	6.894075	1.4023509	3.500974
329335634098488	6.2272224	0.89240515	4.3835726
329335634198488	5.82515	0.74530536	4.864098
329335650398488	5.217138	0.2941995	5.67805
329335684998488	4.1874394	-0.2157463	7.60996
329335685098488	2.991028	-0.34323275	10.453889
329335685198488	1.9515233	-0.16671304	11.758173
329335700398488	-1.9122967	-0.8629852	13.719503
329335710398488	-5.0013914	-1.8632635	13.170331
329335720398488	-6.5998755	-4.8052583	11.29726
329335730398488	-5.7172766	-8.1983595	9.100571
329335752698488	-3.7755601	-5.982056	7.7178335
329335752798488	-3.275421	-3.471554	7.021561
329335760398488	-2.7556686	-0.6864655	6.00167
329335770398488	-0.4707192	2.265336	5.1386843
329335780498488	3.0302548	3.6088471	5.6682434
329335810698488	6.6292953	2.2359161	5.5897903
329335810798488	7.835513	-1.735777	5.85457
329335810898488	8.316039	-3.6186538	5.9232163
329335820498488	4.422799	-11.189387	3.4323275
329335830498488	2.1672697	-11.375713	0.4118793
329335840398488	-1.1669914	-11.258034	-5.207331
329335850398488	-5.325011	-9.139797	-8.512172
329335860398488	-9.041731	0.38245934	-12.513285
329335870398488	-11.287454	5.874183	-11.169774
329335880398488	-2.3437893	11.218807	-3.9422731
329335890398488	7.2961473	9.816457	1.5690639
329335900398488	11.924886	6.384129	1.0100849
329335910398488	10.748088	2.6968286	-4.7954516
329335920398488	6.746975	1.343511	-10.061623
329335930398488	1.5004175	-0.35303938	-8.188553
329335940498488	-4.3541527	-3.3146477	-2.6281822
329335953298488	-7.4334407	-3.9520798	0.5099458
329335966298488	-7.4922805	-1.8338435	1.3925443
329335970298488	-4.6973853	0.75511205	1.5494506
329335979298488	-2.5889556	1.4611908	2.1574628
329335987298488	-1.3533176	1.6769371	2.9321883
329336002298488	-0.0392266	2.1770763	2.4222424
329336003298488	0.84337187	1.5984839	2.2751427
329336012398488	1.0296983	1.0787314	3.2361944
329336023198488	1.4121575	1.4121575	3.7461402
329336036298488	1.6573238	1.8240368	3.0400615
329336046198488	0.5982056	1.3140911	2.5987623
329336056298488	-0.3334261	0.5295591	1.7259704
329336066298488	-1.2160245	0.32361946	-0.0588399
329336070298488	-2.5301156	0.4314926	-0.57859236
329336086298488	-3.6578803	0.55897903	0.0196133
329336096298488	-3.5794272	0.588399	0.79433864
329336106298488	-1.9221034	0.44129923	1.2846711
329336116198488	-0.92182505	0.1176798	0.4511059
329336126298488	-0.46091253	0.0	-0.1176798
329336136298488	0.0392266	0.06864655	0.28439283
329336140298488	0.16671304	0.3334261	-0.19613299
329336156298488	0.51975244	0.74530536	-0.48052585
329336166198488	1.2062179	1.3631244	-0.9610517
329336176298488	1.7553903	1.90249	-1.2748644
329336186298488	1.6867437	1.8534569	-1.0100849
329336200498488	0.6668522	1.6082906	-1.2258313
329336200598488	0.2549729	1.4121575	-0.65704554
329336208398488	0.0	0.7649187	0.12748645
329336216398488	-0.1176798	0.69627213	0.7256921
329336230398488	-0.37265268	0.18632634	2.4026291
329336240398488	0.39226598	-0.4314926	2.0692031
329336250398488	0.71588546	-0.6668522	-0.16671304
329336260398488	0.37265268	-1.1179581	-0.9120184
329336270398488	0.18632634	-1.6279038	-2.3437893
329336280398488	0.20593965	-1.90249	-2.7850885
329336301698488	0.44129923	-1.9809432	-2.608569
329336301798488	0.12748645	-2.3339827	-1.3140911
329336310398488	-0.37265268	-2.5889556	-0.39226598
329336320398488	-1.0983448	-2.745862	-0.2941995
329336365298488	-2.6281822	-2.5987623	0.06864655
329336365398488	-4.001113	-2.4124358	2.2555294
329336365498488	-4.834678	-1.99075	4.8542914
329336365598488	-5.1779113	-1.9122967	6.7862015
329336380398488	-5.7270837	-2.883155	4.991585
329336390398488	-5.344624	-3.3636808	4.2953124
329336423998488	-3.6480737	-4.4914455	5.187718
329336424098488	-2.9812214	-3.971693	3.1773546
329336424198488	-3.8442068	-3.0989013	-1.4415776
329336440398488	-5.1092644	-0.79433864	-4.579705
329336450398488	-3.000835	-0.7649187	-1.6573238
329336510598488	0.2549729	-2.9321883	-0.10787315
329336510698488	1.9122967	-5.76631	0.2549729
329336510798488	3.0400615	-7.2863407	1.539644
329336510898488	2.4222424	-8.600431	2.6183755
329336510998488	2.1672697	-9.267284	2.5595355
329336519498488	2.0495899	-9.149604	1.4906107
329336530398488	2.8341217	-6.9529147	-0.75511205
329336540398488	3.697107	-4.177633	-2.3732092
329336550398488	2.8733485	-2.1476562	-2.9027684
329336583998488	1.3631244	-0.8139519	-3.4225209
329336584098488	-0.5393657	-0.00980665	-4.2070527
329336584198488	-2.2163029	1.0198916	-4.4326057
329336592398488	-2.432049	1.3631244	-3.000835
329336600398488	-2.0888164	0.28439283	-1.372931
329336634998488	-0.2353596	-0.10787315	-1.1375713
329336635098488	2.4124358	-0.8727918	-1.1866046
329336635198488	3.4323275	-0.88259846	-0.60801226
329336650398488	5.9722495	0.35303938	-1.1277647
329336684998488	7.1588545	0.46091253	-1.3238977
329336685098488	7.678607	0.83356524	-1.2748644
329336685198488	6.8156214	0.20593965	-1.9515233
329336700398488	7.3255672	0.20593965	-1.4513842
329336710398488	7.4628606	0.4511059	-1.4808041
329336720398488	7.590347	-0.0588399	-1.0591182
329336740698488	8.4925585	0.44129923	-0.2157463
329336740798488	8.718112	0.7256921	-0.1569064
329336750398488	8.767145	0.69627213	0.2157463
329336770698488	8.796565	0.8139519	0.74530536
329336770798488	8.884825	1.0002782	0.9022118
329336778398488	8.943665	1.1375713	1.0885382
329336790398488	8.512172	0.93163174	1.372931
329336801398488	7.9728065	0.6276256	1.9122967
329336810398488	7.2863407	0.30400613	2.8145084
329336820398488	6.9333014	-0.2157463	4.2070527
329336830398488	6.746975	-0.6374322	6.541035
329336841398488	6.521422	-1.6377105	9.012311
329336852298488	6.1683826	-2.1770763	10.483309
329336873698488	3.2067745	-4.167826	12.738838
329336873798488	1.8044236	-4.403186	13.278204
329336890398488	-2.432049	-7.806093	11.101128
329336967198488	-5.119071	-13.75873	10.7578945
329336967298488	-4.9425516	-9.943943	10.502922
329336967398488	-2.5987623	-3.049868	9.669356
329336967498488	1.4906107	1.4317709	8.669079
329336967598488	5.1582975	2.1770763	7.5217004
329336967698488	7.982613	-1.4513842	6.2958694
329336967798488	9.747809	-3.726527	4.991585
329336983698488	9.875297	-5.3642373	-0.51975244
329336983798488	8.776952	-8.414105	-3.8344
329336994298488	7.72764	-10.630408	-6.305676
329337006298488	4.560092	-11.807206	-10.306788
329337016298488	2.186883	-11.601267	-4.864098
329337026298488	-0.4118793	-11.395327	0.8041453
329337035298488	-3.7853668	-1.4121575	-1.3238977
329337044298488	-6.8450418	3.0890946	-4.148213
329337054298488	-9.296704	4.7954516	-6.0605097
329337056298488	-7.806093	6.913688	-7.708027
329337067298488	-5.6192102	8.188553	-8.531785
329337093698488	3.80498	5.521144	-7.2667274
329337093798488	3.6186538	2.3143694	-3.89324
329337110398488	3.1283212	-1.4219642	2.0397832
329337131698488	2.824315	-0.6374322	3.9618864
329337131798488	1.4513842	-0.78453195	4.707192
329337140398488	-0.0588399	-1.7553903	4.059953
329337150398488	-0.83356524	-2.6772153	4.7758384
329337161398488	-0.9120184	-3.2361944	4.726805
329337169398488	-0.2745862	-2.7164419	4.9425516
329337179398488	0.3138128	-1.9122967	4.0991797
329337190298488	0.32361946	-1.4709975	3.2263877
329337213698488	-0.0392266	0.5001391	2.010363
329337213798488	-0.5982056	1.2160245	2.128043
329337272298488	-2.0397832	2.775282	-0.098066494
329337272398488	-2.1182363	2.8635418	-1.9417167
329337272498488	-0.69627213	1.2552512	-0.75511205
329337272598488	-0.098066494	0.4511059	0.38245934
329337280398488	0.16671304	-0.2157463	0.75511205
329337290398488	0.951245	-0.2549729	1.6180972
329337407498488	1.5592573	-0.36284605	2.0201697
329337407598488	2.0790098	-0.06864655	1.4415776
329337407698488	2.608569	0.5491724	0.1372931
329337407798488	2.3437893	0.75511205	0.06864655
329337407898488	2.0692031	0.6668522	0.49033248
329337407998488	1.6279038	0.38245934	0.74530536
329337408098488	1.7651969	-0.00980665	1.3827376
329337408198488	1.8240368	-0.3138128	1.7161638
329337420398488	1.8730701	-1.5592573	2.657602
329337430398488	1.5004175	-2.010363	1.176798
329337440398488	-0.2549729	-2.6183755	-1.4121575
329337576798488	-1.4415776	-3.726527	-0.89240515
329337576898488	-2.2359161	-3.1969678	1.2748644
329337576998488	-3.7853668	-1.3337044	1.4709975
329337577098488	-5.8055367	-0.2353596	1.93191
329337577198488	-7.560927	-0.588399	1.9613299
329337577298488	-8.276813	-0.1176798	4.3541527
329337577398488	-7.453054	0.098066494	5.2465577
329337577498488	-5.6976633	-1.5886773	3.3146477
329337577598488	-5.491724	-2.098623	2.5791488
329337582398488	-6.2272224	-2.1378496	0.12748645
329337590398488	-6.972528	-1.0689248	-1.3337044
329337600398488	-6.8548484	0.51975244	-6.364516
329337610398488	-6.080123	1.8240368	-8.178746
329337620398488	-5.207331	1.2356379	-6.8744617
329337777098488	-2.0201697	-1.3140911	-0.02941995
329337777198488	-0.83356524	-5.374044	5.70747
329337777298488	0.4118793	-8.208166	2.4222424
329337777398488	2.4614692	-9.757616	-1.343511
329337777498488	4.3541527	-8.208166	-2.0692031
329337777598488	3.1577413	-3.2067745	-0.0588399
329337777698488	0.32361946	-0.12748645	-3.049868
329337777798488	-2.520309	0.951245	-3.1381278
329337777898488	-4.5208654	2.5399222	-1.7946169
329337777998488	-3.5402005	2.2751427	-3.9030466
329337794398488	-0.088259846	1.6180972	-2.1084297
329337802398488	2.1476562	0.57859236	-2.1574628
329337813298488	2.7556686	-0.02941995	-2.7556686
329337826298488	3.4421341	0.9022118	0.71588546
329337836298488	4.834678	1.4611908	0.78453195
329337846298488	6.0899296	1.8632635	1.1571847
329337995998488	5.991863	0.8727918	0.5295591
329337996098488	8.669079	2.0790098	0.9610517
329337996198488	8.080679	-1.0983448	1.4023509
329337996298488	8.953471	-0.5295591	1.9221034
329337996398488	9.198637	-0.74530536	2.608569
329337996498488	8.629851	-0.49033248	3.667687
329337996598488	8.002226	-0.12748645	5.0210047
329337996698488	7.943386	-0.7354987	6.099736
329337996798488	7.6001534	-2.4026291	7.4922805
329337996898488	6.492002	-3.2263877	12.307345
329338013398488	5.64863	-3.5794272	16.328072
329338021398488	4.1089864	-3.500974	17.073378
329338030398488	-0.1569064	-4.393379	15.759286
329338040398488	-5.5799837	-6.413549	14.1706085
329338050398488	-9.590903	-10.532342	13.37627
329338060398488	-11.964112	-13.199751	12.091599
329338220098488	-8.443525	-5.089651	9.218251
329338220198488	0.088259846	3.0596747	7.8257065
329338220298488	8.727919	2.7556686	7.2373075
329338220398488	11.787593	-3.2656143	5.540757
329338220498488	11.944499	-10.042009	0.6766588
329338220598488	4.834678	-12.738838	-6.864655
329338220698488	-7.7962866	-12.425025	-3.108708
329338220798488	-12.905551	0.51975244	-2.8929617
329338220898488	2.8341217	8.737725	-1.3140911
329338220998488	13.101684	5.315204	-7.913966
329338241398488	10.081236	3.559814	-7.1784678
329338250398488	5.776117	1.2062179	-6.03109
329338260398488	0.5099458	-2.5693421	-3.0302548
329338273298488	-2.098623	-4.0403395	0.38245934
329338286298488	-3.6186538	-4.6385455	2.8439283
329338295298488	-2.5301156	-2.9321883	1.9122967
329338423698488	-0.38245934	-0.30400613	2.520309
329338423798488	1.9809432	-0.0784532	2.2555294
329338423898488	3.7755601	-0.17651969	3.638267
329338423998488	4.1580195	-0.588399	3.0890946
329338424098488	1.6769371	-0.22555295	0.7649187
329338424198488	-1.2650578	0.7354987	-0.1176798
329338424298488	-3.5107806	0.4511059	2.5889556
329338424398488	-1.7553903	1.1571847	2.5399222
329338424498488	-0.30400613	0.48052585	0.18632634
329338434398488	0.89240515	0.4707192	-0.24516624
329338445298488	1.0198916	0.3334261	-0.37265268
329338460398488	0.83356524	0.57859236	0.951245
329338470398488	0.6668522	0.79433864	1.0493115
329338480398488	0.83356524	1.1866046	0.1176798
329338489398488	0.89240515	1.4611908	-0.78453195
329338497398488	1.0493115	1.6279038	-1.99075
329338523698488	1.0198916	1.6082906	-4.2953124
329338523798488	0.71588546	1.6180972	-3.471554
329338531398488	0.14709975	1.2552512	-1.6671305
329338540398488	0.28439283	0.9414384	0.8531785
329338550498488	1.2650578	-0.3334261	3.3538742
329338593498488	2.7360554	-2.853735	3.7167203
329338593598488	2.0692031	-3.216581	1.9122967
329338593698488	1.4709975	-3.7951734	-2.1770763
329338593798488	1.2160245	-4.2658925	-3.7069137
329338610498488	-0.38245934	-4.6875787	-6.3154826
329338620398488	-1.0591182	-3.2950344	-4.118793
329338642698488	-4.1285996	-1.2356379	-1.9809432
329338642798488	-6.1389627	-1.0296983	-2.010363
329338650398488	-7.7766733	-1.4709975	-1.735777
329338680698488	-9.80665	-3.3146477	-1.1571847
329338680798488	-10.904995	-4.7954516	-1.7161638
329338680898488	-10.875574	-5.2563643	-1.6573238
329338690398488	-7.8747396	-6.442969	2.2849493
329338803098488	-5.070038	-5.374044	-3.2950344
329338803198488	-4.5208654	-3.4421341	-7.080401
329338803298488	-2.3437893	-1.176798	-7.364794
329338803398488	-1.0885382	0.1372931	-7.963
329338803498488	0.5982056	-0.098066494	-7.2863407
329338803598488	2.883155	-1.5200307	-2.3437893
329338803698488	2.5105023	-3.5990405	-0.9022118
329338803798488	1.8240368	-7.021561	1.8338435
329338803898488	1.176798	-8.345459	0.6864655
329338803998488	0.79433864	-9.384964	-1.2258313
329338815398488	1.1571847	-9.679163	-2.687022
329338823398488	2.2849493	-9.080957	-4.3345394
329338834298488	2.883155	-8.747532	-5.403464
329338846298488	3.8344	-6.433162	-7.0411744
329338856298488	3.5990405	-4.579705	-3.971693
329338866298488	2.5693421	-3.0694814	-4.6091256
329338880598488	0.78453195	-1.3925443	-4.883712
329338880698488	-0.36284605	-0.8531785	-5.629017
329338889398488	-2.1672697	-0.20593965	-5.325011
329338935298488	-2.0397832	2.2849493	-4.560092
329338935398488	-0.588399	1.4415776	-3.7853668
329338935498488	2.0397832	0.4118793	-1.5102241
329338935598488	3.2263877	0.44129923	-1.3042845
329338950398488	4.7758384	-0.7256921	-0.97085834
329338960398488	5.70747	0.02941995	0.4118793
329338969398488	6.0605097	-0.2941995	-0.26477954
329338977398488	6.8842683	-0.2549729	0.049033247
329338989198488	7.2078876	-0.18632634	-0.3334261
329339000398488	7.8845463	-1.176798	-0.19613299
329339009398488	8.678885	-1.2454445	0.1372931
329339017398488	9.139797	-1.2160245	0.2549729
329339029298488	9.110377	-1.0493115	-0.0196133
329339053698488	9.787037	0.39226598	0.55897903
329339053798488	9.669356	0.55897903	0.5295591
329339070398488	8.982891	0.18632634	1.2846711
329339126598488	8.992698	0.6374322	2.1378496
329339126698488	8.237586	-0.049033247	2.6281822
329339126798488	7.9041595	-0.2549729	4.6091256
329339126898488	7.60996	-1.9515233	5.570177
329339126998488	7.5118937	-3.0989013	7.1784678
329339135398488	7.354987	-4.3149257	10.640215
329339143398488	7.394214	-5.266171	13.75873
329339151398488	6.4723887	-7.256921	16.151552
329339160398488	2.9714148	-8.982891	17.661776
329339170398488	-3.2361944	-11.101128	15.788706
329339180398488	-7.384407	-14.533455	15.092434
329339190398488	-10.777508	-15.092434	13.425303
329339203298488	-9.738003	-15.082627	11.846433
329339216298488	-3.304841	-5.5799837	7.737447
329339226298488	0.0784532	-0.56878567	6.9038815
329339236298488	4.373766	1.9417167	7.031368
329339246298488	9.787037	1.8828768	6.462582
329339256298488	13.180138	-0.97085834	5.462304
329339266298488	13.601823	-2.9812214	4.001113
329339277298488	13.160524	-5.462304	1.6475172
329339286298488	11.934692	-7.5217004	-1.5690639
329339294298488	10.042009	-10.522535	-3.7069137
329339303298488	6.0899296	-12.170053	-7.482474
329339304298488	1.93191	-11.934692	-10.130269
329339313398488	-5.79573	-11.76798	-2.1672697
329339330398488	-13.650856	0.18632634	-7.3157606
329339340398488	-8.286619	5.148491	-8.178746
329339350398488	4.864098	7.6001534	-8.325846
329339360398488	10.100849	6.5704556	-7.472667
329339382898488	8.4925585	3.334261	-6.5018086
329339382998488	6.462582	1.372931	-5.4132705
329339413698488	-0.6668522	-4.785645	1.4415776
329339413798488	0.4118793	-4.177633	3.0106416
329339421498488	0.6766588	-2.9812214	1.5494506
329339430398488	1.5886773	-0.8237586	1.1277647
329339440498488	1.6573238	0.7354987	1.0885382
329339450398488	1.6475172	0.9904716	-0.16671304
329339460398488	1.6769371	0.588399	2.010363
329339470398488	1.4611908	0.70607877	2.0495899
329339480398488	0.9904716	0.5099458	1.4121575
329339490398488	0.5295591	0.6374322	1.3533176
329339500398488	0.0392266	0.39226598	0.5001391
329339510398488	-1.3140911	0.26477954	-0.44129923
329339520398488	-2.0888164	1.1179581	-0.49033248
329339530398488	-1.3631244	1.0493115	0.71588546
329339540398488	-1.147378	0.2353596	1.6475172
329339586298488	-0.00980665	0.12748645	1.1081514
329339586398488	0.1372931	0.049033247	0.51975244
329339586498488	0.28439283	-0.17651969	0.38245934
329339586598488	0.5099458	-0.098066494	0.2353596
329339593398488	0.78453195	0.0	0.0
329339601398488	0.83356524	0.18632634	0.2745862
329339610398488	0.8727918	0.4707192	0.14709975
329339620398488	0.8041453	1.1669914	-0.5001391
329339654998488	1.1277647	1.8044236	-1.3533176
329339655098488	0.42168593	1.372931	-1.9711366
329339655198488	0.3334261	1.0198916	-1.5298374
329339670398488	0.0	0.2353596	-0.088259846
329339683298488	-0.06864655	-0.30400613	1.176798
329339696298488	0.57859236	-1.5494506	4.511059
329339706298488	1.5298374	-2.353596	3.8834333
329339774098488	1.2062179	-2.8733485	-0.37265268
329339774198488	0.3138128	-3.0302548	-2.2359161
329339774298488	-0.28439283	-3.216581	-2.5791488
329339774398488	-0.2549729	-2.9321883	-1.5592573
329339774498488	-0.40207264	-1.6769371	-0.61781895
329339774598488	-2.7164419	-1.343511	0.0784532
329339774698488	-4.7169986	-1.8926834	0.7649187
329339785298488	-5.8447633	-2.432049	1.5886773
329339796298488	-7.1882744	-3.5794272	4.9523582
329339806298488	-7.4922805	-3.9128532	6.9627213
329339816298488	-6.796008	-3.697107	5.217138
329339826298488	-4.815065	-3.304841	1.7259704
329339836298488	-3.4813607	-3.9618864	2.4026291
329339896798488	-4.6679654	-3.7167203	-1.7455837
329339896898488	-4.736612	-0.4511059	-8.414105
329339896998488	-4.7464185	1.99075	-10.591182
329339897098488	-5.060231	1.343511	-10.512729
329339897198488	-2.7164419	-1.2552512	-1.7161638
329339897298488	-2.186883	-3.1283212	0.93163174
329339904398488	-1.8632635	-6.1487694	2.6281822
329339912398488	-0.88259846	-8.541592	4.648352
329339920398488	0.24516624	-10.699055	4.560092
329339930398488	1.7455837	-11.660107	1.7750036
329339940398488	2.4222424	-11.807206	-0.9904716
329340001098488	5.3544307	-11.130548	-5.236751
329340001198488	6.5312285	-8.002226	-4.736612
329340001298488	4.6091256	-4.030533	-3.1773546
329340001398488	3.167548	-1.3238977	-3.167548
329340001498488	2.3830159	-1.0983448	-2.4516625
329340010398488	-2.353596	-0.74530536	-4.991585
329340020398488	-4.0795665	0.2549729	-6.668522
329340066298488	-5.344624	1.6573238	-5.1681046
329340066398488	-1.5592573	2.128043	-6.3743224
329340066498488	2.5987623	1.93191	-6.5704556
329340066598488	3.9324665	1.7848103	-7.58054
329340076398488	5.1386843	0.83356524	-7.3746004
329340084398488	5.9134097	0.60801226	-7.6884136
329340100398488	8.041452	2.128043	-6.550842
329340110398488	7.021561	1.2846711	-7.3157606
329340184898488	7.6295733	0.9120184	-7.1294346
329340184998488	7.4922805	-0.22555295	-6.923495
329340185098488	8.629851	0.8139519	-6.1978025
329340185198488	8.061066	1.1081514	-5.119071
329340185298488	9.433997	1.8044236	-4.7464185
329340185398488	9.179024	1.8436501	-5.2857842
329340200398488	8.806372	2.490889	-3.5892339
329340210398488	8.443525	2.7654753	-2.7262487
329340286198488	7.423634	2.4222424	-1.6965504
329340286298488	6.972528	1.7455837	-0.1372931
329340286398488	6.668522	1.5102241	1.4415776
329340286498488	4.9719715	0.2353596	5.7270837
329340286598488	3.5990405	-1.6867437	10.581375
329340286698488	-0.26477954	-5.599597	12.052373
329340286798488	-5.0994577	-7.982613	10.924608
329340296398488	-11.179581	-12.532898	11.669913
329340307298488	-12.984004	-12.444638	13.042844
329340320398488	-12.513285	-8.227779	7.1784678
329340330398488	-6.050703	-0.32361946	4.9229383
329340444098488	3.500974	4.4129925	4.8248715
329340444198488	9.012311	3.8245933	4.8935184
329340444298488	11.660107	-1.2454445	3.2852278
329340444398488	12.326959	-5.374044	1.5886773
329340444498488	11.62088	-8.610238	-4.9131317
329340444598488	9.77723	-11.336487	-6.639102
329340444698488	3.9520798	-12.052373	-8.16894
329340444798488	-2.9223816	-10.296982	-9.198637
329340444898488	-13.974476	-0.98066497	-8.953471
329340444998488	-12.856518	3.9324665	-7.6001534
329340457398488	0.70607877	6.580262	-7.1784678
329340469298488	4.903325	6.0899296	-8.953471
329340480398488	7.72764	3.6088471	-10.650022
329340490398488	5.344624	0.70607877	-6.7371683
329340500398488	1.6082906	-1.9809432	-4.5208654
329340545298488	-1.0296983	-2.6674087	-1.3533176
329340545398488	-0.6766588	-2.5595355	0.8237586
329340545498488	0.51975244	-1.4513842	0.40207264
329340545598488	1.7259704	-0.02941995	1.176798
329340560398488	3.3146477	1.0787314	0.56878567
329340594998488	3.471554	1.0002782	0.7256921
329340595098488	2.9714148	0.3138128	0.8727918
329340595198488	2.098623	0.36284605	0.098066494
329340610398488	0.37265268	0.65704554	-1.2062179
329340667598488	-1.4415776	1.5102241	-1.2650578
329340667698488	-2.5301156	1.4709975	1.5298374
329340667798488	-0.8237586	0.6276256	1.4906107
329340667898488	0.1176798	0.40207264	0.49033248
329340667998488	0.89240515	0.74530536	-0.84337187
329340676398488	1.0787314	0.12748645	-1.90249
329340684398488	0.98066497	0.06864655	-1.539644
329340695298488	0.7747253	-0.0196133	-1.3925443
329340706298488	-0.46091253	-0.2549729	0.088259846
329340738198488	-0.3334261	0.17651969	1.0100849
329340738298488	-0.22555295	0.71588546	1.3631244
329340738398488	0.049033247	1.3925443	1.2160245
329340738498488	0.38245934	1.90249	0.69627213
329340745398488	0.39226598	2.4124358	0.49033248
329340810098488	0.14709975	2.7360554	-0.5001391
329340810198488	0.3138128	2.1084297	-0.36284605
329340810298488	0.088259846	0.588399	0.35303938
329340810398488	0.20593965	-0.37265268	1.7750036
329340810498488	0.19613299	-1.7259704	3.0302548
329340818298488	0.48052585	-3.0989013	3.971693
329340826298488	0.8531785	-4.275699	2.441856
329340828298488	1.2748644	-4.932745	1.3925443
329340836398488	1.7651969	-5.236751	1.1866046
329340847298488	1.9711366	-5.070038	1.5788707
329340906098488	-1.8828768	-2.853735	-0.97085834
329340906198488	-4.0991797	-2.2751427	-0.5099458
329340906298488	-6.7371683	-2.3634026	4.864098
329340906398488	-8.031646	-3.4029074	5.67805
329340906498488	-8.247393	-3.8442068	5.1975245
329340920398488	-6.413549	-5.4819174	4.0795665
329340930398488	-4.981778	-6.697942	5.9428296
329341005298488	-4.0991797	-5.4328837	-1.0885382
329341005398488	-3.7951734	-2.353596	-3.4519408
329341005498488	-3.4323275	-0.0784532	-4.4914455
329341005598488	-1.4611908	0.06864655	-3.3636808
329341005698488	2.6772153	-0.49033248	2.098623
329341005798488	2.8635418	-2.6281822	2.9321883
329341014298488	4.089373	-5.8937964	5.3642373
329341022298488	4.677772	-7.247114	6.00167
329341024298488	4.1874394	-8.776952	5.011198
329341033298488	4.0501466	-10.051816	3.3636808
329341041398488	4.177633	-10.934415	1.4219642
329341050398488	4.834678	-11.4247465	0.5099458
329341060398488	6.825428	-9.92433	-1.0395049
329341073298488	7.953193	-8.531785	-3.0400615
329341092598488	5.550564	-3.7069137	-2.6183755
329341092698488	4.324733	-2.0790098	-2.2261095
329341110398488	-0.098066494	-0.3138128	-2.7360554
329341120398488	-2.608569	0.57859236	-1.8534569
329341130398488	-3.7657535	1.6082906	-3.8147867
329341140398488	-2.098623	2.0005565	-2.5595355
329341150398488	0.18632634	0.98066497	-2.941995
329341160398488	3.550007	0.71588546	-4.285506
329341170398488	5.3348174	-0.1176798	-3.079288
329341180398488	6.9921412	-0.48052585	-2.941995
329341190398488	8.296426	0.28439283	-3.0302548
329341200498488	8.394492	0.30400613	-2.657602
329341210398488	8.688692	-0.6374322	-2.7262487
329341220398488	9.198637	-1.4219642	-2.8439283
329341230398488	9.796844	-2.1182363	-2.9223816
329341240398488	10.051816	-2.5595355	-2.5987623
329341250398488	10.316595	-2.5105023	-2.5595355
329341260398488	10.385242	-1.9613299	-2.4810824
329341270398488	10.287175	-1.5690639	-2.294756
329341280498488	10.267562	-1.5004175	-1.9809432
329341290398488	10.277369	-0.7649187	-1.5298374
329341300398488	10.130269	0.19613299	-1.1669914
329341310398488	9.649743	1.0296983	-0.44129923
329341319398488	9.267284	1.5200307	-0.049033247
329341330398488	8.561205	1.3337044	2.0593965
329341340398488	8.3846855	0.8139519	2.9812214
329341349498488	8.3846855	0.14709975	5.393657
329341357398488	8.237586	-1.1571847	8.963278
329341368198488	7.923773	-2.5497289	10.395049
329341380498488	4.001113	-10.463696	15.563153
329341390398488	-2.941995	-13.87641	17.15183
329341400398488	-8.414105	-15.30818	15.4847
329341410398488	-10.846154	-15.043401	12.709418
329341420398488	-7.472667	-14.415775	10.022396
329341430398488	-1.0100849	-5.1681046	7.0411744
329341440398488	3.000835	-0.5393657	5.0994577
329341450398488	9.022118	0.7256921	4.3541527
329341460398488	13.55279	-2.0495899	2.5595355
329341470398488	14.866881	-7.139241	2.6281822
329341480398488	15.42586	-11.29726	2.265336
329341490398488	14.082349	-14.445195	-3.7559469
329341500398488	9.149604	-14.092155	-5.6192102
329341510398488	1.9809432	-13.778343	-13.484143
329341520398488	-6.099736	-3.8344	-9.061344
329341530298488	-10.816734	-1.3631244	-11.70914
329341546298488	-8.021839	2.265336	-8.070872
329341555298488	2.353596	4.4718323	-6.2468357
329341563298488	8.590625	5.0013914	-6.4037423
329341571298488	10.1989155	3.4617474	-6.4723887
329341573398488	9.208445	1.7259704	-8.531785
329341584298488	8.521978	1.5494506	-8.217973
329341596298488	4.2364726	-2.7654753	-3.8540134
329341606298488	1.539644	-5.2759776	-0.83356524
329341616298488	1.1964113	-5.011198	2.4124358
329341626298488	1.6279038	-4.3149257	2.8145084
329341636298488	3.1969678	-2.5987623	2.3928225
329341640298488	4.226666	-0.83356524	2.4026291
329341656298488	5.0013914	-0.088259846	4.059953
329341666298488	5.746697	-0.22555295	4.785645
329341676198488	5.7368903	-0.10787315	4.001113
329341686298488	4.962165	-0.5099458	2.5006957
329341696298488	3.1577413	-0.8727918	-0.1569064
329341706298488	1.2454445	-1.0395049	-0.51975244
329341716298488	-0.9610517	-0.18632634	-0.0784532
329341726098488	-2.2751427	0.2941995	1.3533176
329341730298488	-2.3928225	-0.2549729	1.1375713
329341746298488	-1.8534569	-0.46091253	2.1476562
329341756298488	-1.1866046	-0.049033247	1.3238977
329341766298488	-0.65704554	0.12748645	2.1084297
329341770298488	1.1669914	0.83356524	1.1179581
329341780298488	1.8436501	0.93163174	0.32361946
329341796298488	1.5886773	0.69627213	0.1372931
329341798298488	1.4906107	0.78453195	-0.00980665
329341806398488	1.7848103	0.9904716	-0.5982056
329341818098488	1.6573238	0.8629852	-0.9022118
329341854098488	1.2552512	0.5982056	-2.294756
329341854198488	1.2552512	0.88259846	-2.2163029
329341854298488	1.176798	1.2160245	-1.4023509
329341870398488	1.9711366	1.2062179	1.7651969
329341880398488	2.1672697	-0.35303938	3.0302548
329341914998488	2.6674087	-2.2064962	2.4124358
329341915098488	2.8145084	-3.7363336	3.7363336
329341915198488	2.1966896	-4.4620256	2.5595355
329341922398488	1.5298374	-5.119071	0.98066497
329341930398488	0.7256921	-5.423077	-0.588399
329341940398488	-0.14709975	-5.1092644	-0.049033247
329341950398488	-0.6276256	-3.667687	1.7553903
329341960398488	-2.1476562	-2.657602	2.5399222
329341970398488	-4.1285996	-2.2261095	2.010363
329341980398488	-5.82515	-2.1182363	2.294756
329341990398488	-7.4922805	-2.4516625	3.0989013
329342000298488	-7.9728065	-2.657602	3.86382
329342016298488	-8.414105	-3.3931007	4.9719715
329342020298488	-7.227501	-4.403186	3.7167203
329342036298488	-5.5309505	-6.5704556	5.2857842
329342046298488	-4.305119	-5.5799837	1.3140911
329342050298488	-3.216581	-3.0989013	-3.559814
329342060298488	-3.1185145	-1.2160245	-3.8344
329342076298488	-2.520309	-0.34323275	-6.5018086
329342101898488	-0.6374322	-0.4707192	-2.7164419
329342101998488	2.5497289	-3.000835	1.93191
329342102098488	3.697107	-5.4721107	3.7461402
329342110498488	4.6679654	-7.2961473	6.0703163
329342120398488	4.589512	-8.806372	5.266171
329342221098488	4.8052583	-9.796844	2.6968286
329342221198488	4.903325	-10.463696	1.9515233
329342221298488	5.089651	-10.924608	1.5984839
329342221398488	6.0408964	-8.884825	-2.3928225
329342221498488	5.9232163	-6.8548484	-3.6774936
329342221598488	5.1779113	-3.304841	-2.2849493
329342221698488	3.9226599	-1.0787314	-1.9221034
329342221798488	2.1574628	-0.098066494	-3.0302548
329342221898488	-0.8139519	0.40207264	-3.000835
329342221998488	-3.7559469	0.4118793	-3.0989013
329342232398488	-3.7657535	1.5004175	-4.9425516
329342250398488	-1.8534569	2.6281822	-6.354709
329342260398488	1.7553903	2.2064962	-5.79573
329342270398488	4.5993185	1.9515233	-4.9425516
329342280398488	5.9232163	1.5004175	-5.0504246
329342288398488	6.835235	1.0002782	-5.3053975
329342297398488	7.3157606	1.1964113	-5.776117
329342308298488	7.472667	1.3238977	-5.982056
329342320398488	7.4628606	0.7256921	-5.6094036
329342330398488	7.5118937	0.1569064	-5.5015306
329342340498488	7.305954	-0.75511205	-5.060231
329342363898488	7.560927	-0.00980665	-4.6385455
329342363998488	7.708027	0.16671304	-4.511059
329342380398488	8.051259	1.3827376	-4.030533
329342390398488	8.100293	2.2555294	-3.6774936
329342412898488	8.178746	3.89324	-3.5696206
329342412998488	8.041452	4.677772	-3.0400615
329342420398488	7.5707335	5.060231	-2.9714148
329342430398488	7.2373075	5.491724	-1.3140911
329342440498488	7.1882744	5.9428296	1.0787314
329342452298488	7.198081	6.0114765	2.5987623
329342460398488	6.550842	3.7363336	8.365072
329342474298488	6.776395	2.7556686	11.375713
329342486098488	4.8248715	-3.3538742	13.69989
329342496298488	-2.0299766	-9.316318	14.945334
329342506298488	-10.140076	-12.013146	18.338434
329342516098488	-13.454723	-11.924886	18.348242
329342526298488	-13.484143	-11.964112	11.434553
329342530298488	-7.423634	-4.707192	6.9823346
329342546298488	0.6864655	3.108708	5.2563643
329342556298488	8.159133	4.9719715	4.422799
329342566298488	14.621715	2.5791488	3.049868
329342576198488	15.367021	-3.1283212	2.9616082
329342586198488	13.601823	-8.267006	2.432049
329342596298488	14.101962	-11.189387	-3.079288
329342606298488	12.4642515	-11.846433	-7.1294346
329342616098488	3.667687	-11.630687	-7.7178335
329342626098488	-6.825428	-4.962165	-6.590069
329342636298488	-14.200028	-1.2062179	-11.110934
329342646098488	-14.150995	3.6088471	-8.973084
329342655298488	-5.7172766	6.9333014	-4.4914455
329342657298488	4.785645	8.316039	-7.560927
329342665398488	11.552234	7.6982203	-9.443804
329342676498488	10.542149	2.8439283	-5.295591
329342687098488	9.384964	1.4415776	-4.501252
329342700398488	1.2356379	-1.3238977	-3.2361944
329342710398488	-2.3634026	-2.2163029	-0.2941995
329342720398488	-3.0596747	-2.2261095	1.3631244
329342730398488	-2.3634026	-2.4810824	0.5982056
329342740398488	-0.36284605	-0.5001391	1.9613299
329342750398488	0.65704554	1.5102241	1.7848103
329342783698488	1.0493115	1.6180972	3.89324
329342783798488	2.010363	1.4317709	2.9223816
329342783898488	2.4712758	1.7553903	2.9027684
329342791398488	2.0790098	1.0787314	2.294756
329342800398488	1.4023509	0.26477954	1.539644
329342810398488	-0.12748645	-0.60801226	1.3238977
329342830698488	-1.4709975	-0.088259846	0.8629852
329342830798488	-2.010363	0.79433864	1.1375713
329342839398488	-2.324176	1.3337044	1.3140911
329342850298488	-2.7654753	1.4219642	1.9711366
329342928198488	-1.90249	0.51975244	0.8237586
329342928298488	-0.2353596	0.5982056	0.6472389
329342928398488	0.46091253	0.5982056	-0.34323275
329342928498488	0.16671304	0.5491724	-0.8237586
329342928598488	0.30400613	0.71588546	-0.60801226
329342928698488	0.6374322	1.0395049	-1.0787314
329342928798488	0.56878567	1.0395049	-0.8139519
329342936398488	0.6374322	1.2258313	-0.8629852
329342944398488	0.37265268	0.9610517	-0.6766588
329342960398488	0.74530536	0.83356524	0.8041453
329342970398488	1.1866046	0.16671304	2.1476562
329342993698488	1.8730701	-1.3631244	3.9422731
329342993798488	2.0495899	-2.186883	3.1479347
329343046298488	2.9812214	-5.325011	3.9913065
329343046398488	1.7848103	-5.85457	-0.2353596
329343046498488	0.38245934	-5.5015306	-1.3238977
329343046598488	-0.30400613	-4.8542914	-1.5592573
329343055398488	-1.5494506	-3.638267	-0.7649187
329343063398488	-2.9714148	-2.8635418	1.735777
329343080398488	-6.6783285	-3.726527	7.1882744
329343089398488	-7.953193	-4.8248715	7.60996
329343097398488	-7.8845463	-5.207331	8.365072
329343105398488	-6.5312285	-5.0504246	9.610517
329343116298488	-5.6192102	-4.7169986	8.924051
329343143698488	-1.9809432	-4.677772	1.5984839
329343143798488	-3.2263877	-3.697107	-3.2361944
329343160398488	-2.745862	1.3925443	-9.875297
329343181698488	-2.9616082	1.4611908	-7.198081
329343181798488	-1.8534569	0.42168593	-2.7360554
329343189398488	-0.5982056	-2.6281822	4.2953124
329343197398488	-0.1569064	-5.776117	5.8153434
329343208298488	0.2745862	-7.4628606	6.158576
329343233698488	4.0991797	-11.228614	3.0106416
329343233798488	5.5309505	-11.375713	0.8139519
329343250398488	9.767424	-10.208722	-2.1378496
329343328198488	8.963278	-8.041452	-2.991028
329343328298488	7.2373075	-4.001113	-0.75511205
329343328398488	4.8052583	-0.83356524	-1.4121575
329343328498488	-0.10787315	-0.48052585	-4.6875787
329343328598488	-2.2359161	0.51975244	-2.2849493
329343328698488	-4.726805	2.3045628	-3.412714
329343328798488	-4.9229383	3.1185145	-4.0795665
329343337398488	-3.3636808	2.8047018	-6.442969
329343345398488	0.5001391	1.90249	-6.335096
329343353398488	4.403186	1.8632635	-5.462304
329343361398488	5.8349566	1.6573238	-6.0703163
329343370398488	7.2667274	1.1081514	-6.0899296
329343380398488	8.669079	1.9711366	-6.8548484
329343426298488	8.394492	1.8240368	-6.4037423
329343426398488	8.1101	1.0002782	-6.6587152
329343426498488	8.747532	1.2258313	-6.590069
329343426598488	8.894631	1.0198916	-6.364516
329343435398488	8.982891	0.7649187	-5.88399
329343443398488	8.963278	0.8531785	-5.6682434
329343471698488	9.590903	1.0885382	-4.9131317
329343471798488	9.914523	1.6475172	-4.06976
329343479398488	9.590903	1.99075	-3.6578803
329343487398488	9.002504	2.2457228	-2.9616082
329343539498488	7.5118937	2.5497289	-0.32361946
329343539598488	6.6587152	2.2163029	1.4611908
329343539698488	5.8643765	1.2650578	3.7461402
329343539798488	5.8447633	-0.02941995	7.5118937
329343548398488	5.6682434	-2.5105023	10.610795
329343560398488	1.4906107	-7.119628	14.278482
329343570398488	-4.2364726	-10.630408	14.504035
329343580398488	-7.7178335	-12.876131	13.131104
329343601698488	-12.699612	-12.758451	9.855683
329343601798488	-11.150161	-12.738838	8.669079
329343610398488	-4.530672	-4.2953124	7.050981
329343620498488	1.7259704	0.951245	4.962165
329343630398488	8.306232	2.5987623	3.8147867
329343640498488	12.601545	0.35303938	2.8929617
329343662898488	13.81757	-4.0109196	2.824315
329343662998488	14.131382	-5.1779113	0.4314926
329343680398488	13.121298	-12.091599	-10.875574
329343690398488	6.609682	-12.179859	-12.444638
329343712698488	-5.658437	-9.45361	-4.560092
329343712798488	-11.62088	-5.462304	-7.5511203
329343720398488	-13.58221	-0.8139519	-7.404021
329343730398488	-12.140633	3.7951734	-6.2272224
329343740398488	-0.8139519	7.4138274	-6.1978025
329343762698488	10.395049	6.9823346	-7.6197667
329343762798488	11.287454	4.1580195	-6.3252892
329343770398488	9.669356	0.42168593	-2.5105023
329343803998488	5.374044	-1.1669914	0.32361946
329343804098488	-1.99075	1.2552512	-0.7354987
329343804198488	-2.4026291	0.2157463	-0.9610517
329343811398488	-0.46091253	-0.7747253	0.0392266
329343820398488	-0.44129923	-1.0787314	1.3042845
329343830398488	0.98066497	-0.2549729	1.4906107
329343842298488	1.3238977	0.2353596	1.8240368
329343861698488	1.4709975	1.147378	1.4513842
329343861798488	1.1277647	1.147378	0.38245934
329343873298488	0.40207264	0.9022118	-0.5982056
329343886298488	-0.89240515	0.7747253	-1.3827376
329343902498488	-2.7556686	1.1179581	0.3138128
329343902598488	-3.4323275	0.7354987	1.8142302
329343910298488	-3.5794272	0.88259846	3.1577413
329343926298488	-2.3045628	0.9022118	3.5402005
329343936298488	-0.3138128	0.3334261	0.46091253
329343951598488	1.4317709	0.6864655	-2.0397832
329343951698488	1.0689248	0.93163174	-1.6180972
329343959398488	0.78453195	1.2552512	-1.1866046
329343970398488	0.22555295	1.6769371	-0.42168593
329344003998488	-0.19613299	1.5886773	-0.56878567
329344004098488	-0.4511059	1.735777	-0.69627213
329344004198488	-0.44129923	1.7946169	-0.92182505
329344020398488	-0.40207264	1.99075	-0.6374322
329344042898488	0.00980665	2.0495899	0.9414384
329344042998488	0.5001391	1.4709975	1.0493115
329344050498488	0.93163174	-0.32361946	1.6769371
329344060398488	1.0787314	-2.5791488	3.9520798
329344070398488	1.4219642	-4.1384063	4.3345394
329344097698488	2.2751427	-5.0504246	2.991028
329344097798488	1.8828768	-5.207331	0.69627213
329344097898488	0.7747253	-5.8349566	-0.60801226
329344110498488	-0.1176798	-5.1975245	0.93163174
329344119398488	-0.7747253	-3.8540134	3.108708
329344127398488	-2.3928225	-2.9223816	3.1577413
329344137398488	-4.8052583	-3.108708	1.2160245
329344148298488	-6.0114765	-3.1479347	0.74530536
329344160398488	-8.590625	-3.2067745	6.835235
329344170398488	-9.0515375	-3.8834333	7.6491866
329344191698488	-6.7371683	-4.0403395	5.0504246
329344191798488	-5.119071	-5.403464	6.6292953
329344200398488	-3.550007	-5.570177	1.7455837
329344210398488	-3.0890946	-3.9520798	-6.0605097
329344219398488	-2.2849493	-1.3827376	-8.698499
329344230298488	-2.128043	-0.6276256	-8.4925585
329344240398488	-1.3042845	-0.75511205	-5.5309505
329344262698488	1.4121575	-4.4620256	4.6875787
329344262798488	1.6180972	-7.472667	5.011198
329344270398488	2.4614692	-9.747809	5.9722495
329344280398488	3.3636808	-10.7578945	5.5015306
329344292398488	4.815065	-10.855961	1.6867437
329344300398488	5.991863	-10.963835	-0.71588546
329344313298488	7.256921	-11.120741	-0.8531785
329344328598488	9.267284	-7.5413136	-4.658159
329344328698488	7.72764	-6.2762556	-3.6774936
329344337398488	6.442969	-4.285506	-3.2558076
329344345398488	4.560092	-2.010363	-4.1089864
329344360398488	-0.7256921	-0.5099458	-4.9229383
329344372298488	-1.8338435	-0.5001391	-5.207331
329344386298488	-5.060231	2.4614692	-4.059953
329344395298488	-5.1092644	3.638267	-5.089651
329344403298488	-3.9618864	3.4519408	-5.746697
329344412298488	-1.0395049	2.5791488	-6.580262
329344414298488	2.490889	2.2849493	-6.3154826
329344425298488	4.344346	2.0790098	-6.237029
329344436298488	6.972528	2.4810824	-7.276534
329344457398488	8.639658	2.853735	-7.1882744
329344457498488	9.286898	3.1773546	-6.894075
329344457598488	8.463139	2.0397832	-6.8156214
329344470398488	8.571012	0.61781895	-6.4723887
329344480398488	8.924051	0.57859236	-6.237029
329344489398488	8.963278	0.19613299	-6.080123
329344500398488	8.894631	-0.4118793	-5.570177
329344510398488	8.884825	0.088259846	-5.5015306
329344520398488	8.816178	0.44129923	-4.932745
329344530398488	8.737725	0.88259846	-4.393379
329344540398488	8.845598	1.4906107	-3.7069137
329344550398488	8.531785	2.3928225	-2.824315
329344560398488	7.560927	2.441856	-1.8044236
329344570398488	7.2961473	2.745862	0.12748645
329344580398488	6.1683826	3.2656143	0.8531785
329344590398488	5.2857842	2.608569	4.030533
329344600398488	5.2269444	1.1179581	8.855405
329344610398488	5.6682434	-1.4709975	12.287732
329344620398488	3.6284604	-4.393379	13.631243
329344630398488	-1.2160245	-7.305954	13.768537
329344640398488	-3.6480737	-10.846154	12.542705
329344672998488	-7.0705943	-12.817291	11.199194
329344673098488	-5.7270837	-12.709418	8.718112
329344673198488	-1.5984839	-7.560927	7.5217004
329344680398488	2.8733485	-1.8142302	5.67805
329344690398488	7.923773	1.8436501	2.3143694
329344700398488	11.159967	1.8044236	1.6867437
329344710398488	13.356657	-0.88259846	2.5693421
329344720398488	13.415497	-1.9417167	0.1569064
329344730398488	12.356379	-6.217416	-9.286898
329344740398488	9.247671	-11.522814	-16.426138
329344762698488	5.540757	-11.258034	-14.278482
329344762798488	1.9417167	-11.032481	-6.766588
329344770398488	-5.2465577	-10.875574	1.1277647
329344780398488	-9.7183895	-2.4222424	0.6472389
329344790398488	-13.003617	4.0109196	-2.324176
329344801298488	-12.738838	6.6489086	-4.177633
329344816298488	-5.903603	9.885103	-7.982613
329344826298488	0.02941995	8.433719	-7.6001534
329344836298488	3.9815	6.9627213	-5.5113373
329344857898488	5.7270837	3.4323275	-4.305119
329344857998488	5.060231	0.60801226	-2.1770763
329344858098488	3.8344	-0.18632634	-1.4415776
329344870398488	1.1375713	1.2258313	0.98066497
329344880398488	-0.57859236	1.2454445	1.3533176
329344890398488	-0.65704554	-0.18632634	1.6769371
329344900398488	-0.9022118	-1.0885382	1.343511
329344927998488	-1.0002782	-1.1571847	1.2356379
329344928098488	-0.92182505	-1.1277647	0.951245
329344928198488	-0.74530536	-0.71588546	0.098066494
329344940398488	-0.0196133	0.7649187	1.0591182
329344950398488	0.9904716	1.2160245	1.0395049
329344960398488	1.7946169	1.2748644	2.4026291
329344970398488	1.372931	0.88259846	1.0395049
329345027598488	0.37265268	1.2160245	-0.4707192
329345027698488	-1.3042845	1.0100849	-3.216581
329345027798488	-1.9221034	1.5690639	-3.9128532
329345027898488	-1.3337044	1.9809432	-3.0989013
329345027998488	-0.93163174	1.99075	-2.2555294
329345036498488	-0.6766588	1.4611908	-1.0689248
329345047198488	-0.55897903	1.6671305	-0.78453195
329345060398488	0.36284605	2.3732092	-0.1176798
329345070398488	0.7747253	2.7556686	-0.30400613
329345090698488	0.89240515	2.8341217	-1.1375713
329345090798488	1.0002782	2.7066352	-1.3337044
329345098398488	1.2846711	2.4614692	-1.176798
329345109298488	1.4121575	2.0790098	-0.8727918
329345228098488	2.0005565	-1.343511	1.7259704
329345228198488	1.8534569	-3.9226599	3.3636808
329345228298488	1.3631244	-5.6682434	3.9030466
329345228398488	1.2160245	-5.658437	3.9226599
329345228498488	0.71588546	-5.2269444	4.1580195
329345228598488	-1.1277647	-4.8248715	2.8635418
329345228698488	-4.020726	-4.2953124	-0.00980665
329345228798488	-6.688135	-3.0694814	0.51975244
329345228898488	-9.845877	-2.657602	4.6385455
329345228998488	-11.728753	-2.912575	6.9921412
329345237398488	-12.111213	-3.3244543	7.72764
329345245398488	-11.473781	-3.8147867	7.2176943
329345253398488	-8.620045	-4.3345394	5.8349566
329345262398488	-4.2364726	-4.2953124	4.4718323
329345273298488	-2.432049	-4.422799	5.0210047
329345286298488	-1.1375713	-4.785645	4.422799
329345325198488	-3.7461402	-2.7948952	-4.0403395
329345325298488	-2.9812214	1.1964113	-7.7178335
329345325398488	-2.8635418	1.3827376	-6.913688
329345325498488	-2.775282	-0.088259846	-3.304841
329345340398488	0.38245934	-5.8055367	6.0899296
329345373998488	2.5791488	-9.022118	7.7766733
329345374098488	3.89324	-10.081236	5.67805
329345374198488	5.1681046	-10.130269	4.2953124
329345447898488	7.305954	-10.169496	3.1969678
329345447998488	7.394214	-7.021561	-2.1574628
329345448098488	6.00167	-4.0501466	-1.3140911
329345448198488	4.3149257	-1.3337044	-1.6475172
329345448298488	1.6573238	0.7354987	-2.8145084
329345448398488	-0.8629852	0.8041453	-2.6183755
329345456398488	-3.2656143	1.4513842	-1.8534569
329345467298488	-4.7954516	2.0593965	-1.9613299
329345480398488	-6.335096	5.491724	-5.82515
329345490398488	-1.90249	2.7360554	-3.8834333
329345500398488	2.6379888	1.3631244	-3.6088471
329345619098488	7.1784678	1.6867437	-2.3634026
329345619198488	9.787037	1.4513842	-2.3339827
329345619298488	9.404577	1.0689248	-2.0495899
329345619398488	8.835792	0.8041453	-2.265336
329345619498488	8.767145	0.79433864	-2.3830159
329345619598488	8.708305	0.0196133	-2.3732092
329345619698488	9.15941	-0.56878567	-2.2064962
329345619798488	9.767424	-0.2941995	-1.2846711
329345619898488	10.502922	-0.18632634	-1.0787314
329345619998488	10.640215	-0.2157463	-0.2941995
329345626398488	11.248227	0.5393657	0.74530536
329345634398488	11.41494	1.2454445	1.3042845
329345642398488	10.640215	1.4611908	1.6377105
329345650398488	10.159689	1.93191	2.3634026
329345660398488	9.60071	1.0100849	3.2852278
329345669398488	9.747809	0.44129923	5.325011
329345680298488	9.9047165	0.049033247	7.3746004
329345798098488	9.914523	-4.5993185	15.769093
329345798198488	2.6674087	-10.885382	19.113161
329345798298488	-3.3244543	-14.906108	16.180973
329345798398488	-9.747809	-14.553068	17.661776
329345798498488	-11.209001	-14.307902	14.200028
329345798598488	-7.8747396	-11.640493	8.463139
329345798698488	3.246001	0.84337187	5.658437
329345798798488	13.091877	6.207609	3.2558076
329345798898488	17.906942	4.883712	3.3440676
329345798998488	19.858465	1.2356379	4.5502853
329345807398488	19.240646	-1.8436501	2.186883
329345815398488	15.975033	-5.4819174	-5.550564
329345823398488	12.856518	-11.581654	-12.827098
329345835298488	11.62088	-13.08207	-15.112047
329345846298488	6.1978025	-12.679998	-13.268397
329345856298488	-1.5690639	-12.375992	1.0395049
329345866298488	-9.443804	-12.209279	7.3746004
329345877298488	-12.660385	-5.540757	5.011198
329345886298488	-12.630965	4.030533	2.608569
329345897298488	-7.119628	10.336209	-2.1574628
329345906298488	0.6276256	11.53262	-5.0798445
329345988398488	9.77723	11.748366	-0.8727918
329345988498488	14.484422	5.6878567	-2.0593965
329345988598488	11.336487	-2.9321883	1.5690639
329345988698488	7.227501	-4.167826	5.5113373
329345988798488	3.4813607	-3.4323275	7.100014
329345988898488	0.3138128	-0.92182505	2.9616082
329345988998488	-2.3928225	-2.0790098	-0.16671304
329345989098488	-3.1577413	-3.0302548	0.0196133
329346000398488	-2.7556686	-1.8534569	3.86382
329346010398488	-3.1773546	-1.4023509	2.4516625
329346020398488	-2.8341217	-1.0885382	2.4124358
329346030398488	-2.657602	-0.8041453	2.9027684
329346065998488	-1.2552512	0.35303938	5.658437
329346066098488	-1.0002782	1.5690639	6.6292953
329346066198488	-1.5592573	1.4808041	4.991585
329346073398488	-1.9122967	1.7848103	2.2064962
329346081398488	-2.432049	1.4023509	1.1179581
329346090398488	-2.824315	0.65704554	0.61781895
329346099398488	-2.8733485	0.6472389	0.56878567
329346110398488	-2.775282	0.9610517	1.4513842
329346133698488	-2.0201697	1.8338435	2.265336
329346133798488	-1.3042845	2.2163029	1.5984839
329346186298488	-0.74530536	2.6772153	-1.1375713
329346186398488	-0.56878567	1.7848103	-1.1964113
329346186498488	-0.5001391	0.5295591	0.74530536
329346186598488	-0.14709975	-0.10787315	2.2849493
329346194398488	0.70607877	-0.84337187	3.5794272
329346202398488	1.3533176	-0.7649187	3.3440676
329346210398488	1.4121575	-1.147378	1.8142302
329346220398488	0.84337187	-1.8044236	1.3140911
329346233298488	0.8237586	-2.1084297	2.010363
329346304798488	-1.4611908	-4.2070527	-1.0100849
329346304898488	-3.049868	-5.4132705	-2.5399222
329346304998488	-4.2462792	-4.560092	-1.2748644
329346305098488	-5.491724	-3.9324665	0.84337187
329346305198488	-7.3451805	-4.059953	1.4023509
329346305298488	-8.316039	-4.393379	1.6867437
329346315298488	-9.002504	-4.530672	2.7066352
329346326298488	-9.120184	-5.0210047	8.227779
329346335298488	-8.394492	-5.1092644	6.7273617
329346343298488	-7.2961473	-4.511059	1.0983448
329346345298488	-5.187718	-3.1871612	-0.5295591
329346354398488	-2.6772153	-3.049868	-2.941995
329346370398488	-1.0198916	-0.55897903	-10.954028
329346379398488	-0.56878567	0.2941995	-11.179581
329346390398488	-1.6867437	-0.88259846	-13.719503
329346422998488	-1.9515233	-5.187718	-0.38245934
329346423098488	0.9414384	-9.51245	4.6875787
329346423198488	2.608569	-10.463696	6.187996
329346440398488	6.2762556	-10.591182	1.5886773
329346449398488	6.8744617	-10.679441	-0.78453195
329346457398488	7.482474	-10.326403	-2.5399222
329346467398488	8.149326	-8.208166	-6.1781893
329346478298488	8.051259	-7.6491866	-6.4821954
329346550298488	4.1384063	-4.7660317	-5.79573
329346550398488	0.06864655	-2.1770763	-5.187718
329346550498488	-4.020726	-1.2356379	-4.403186
329346550598488	-6.521422	1.8926834	-6.8058147
329346550698488	-8.119906	3.216581	-7.63938
329346550798488	-7.678607	3.667687	-7.78648
329346560398488	-0.6374322	3.4421341	-5.148491
329346570398488	5.119071	3.5303938	-5.148491
329346580398488	7.247114	3.7069137	-5.236751
329346590398488	8.610238	4.285506	-5.1975245
329346614698488	8.159133	2.853735	-5.3348174
329346614798488	7.4628606	1.5298374	-5.3642373
329346741098488	6.8842683	0.9022118	-5.8153434
329346741198488	7.305954	1.0689248	-5.6976633
329346741298488	8.747532	1.7848103	-4.834678
329346741398488	9.335931	2.3437893	-4.8935184
329346741498488	9.335931	2.1182363	-4.1874394
329346741598488	9.54187	3.6480737	-2.775282
329346741698488	8.639658	4.373766	-2.1770763
329346741798488	7.7962866	4.579705	-0.84337187
329346741898488	6.639102	4.7954516	0.55897903
329346741998488	6.462582	3.6284604	1.7161638
329346751398488	7.080401	2.0593965	3.7755601
329346763298488	7.472667	0.9022118	5.746697
329346776298488	8.031646	-1.0493115	10.149882
329346786298488	6.766588	-2.912575	12.06218
329346796298488	3.2067745	-6.305676	15.092434
329346806298488	-1.2454445	-10.336209	14.504035
329346916998488	-3.5892339	-11.689527	8.708305
329346917098488	-8.747532	-11.56204	7.0411744
329346917198488	-3.246001	-5.4721107	7.864933
329346917298488	1.99075	2.6477954	5.315204
329346917398488	6.266449	4.903325	3.7755601
329346917498488	10.914802	4.3835726	2.9321883
329346917598488	13.964669	2.6477954	-0.6374322
329346917698488	13.43511	-2.1770763	-15.563153
329346917798488	9.698776	-9.610517	-19.20142
329346917898488	8.090487	-10.208722	-8.267006
329346929398488	1.176798	-10.0910425	-3.3440676
329346937398488	-6.462582	-10.012589	1.9711366
329346948298488	-10.679441	-9.286898	4.501252
329346960398488	-15.867159	5.266171	-7.8747396
329346970398488	-9.394771	10.895188	-15.043401
329346980398488	-2.745862	11.6110735	-11.150161
329347039098488	4.2953124	9.698776	-7.482474
329347039198488	6.217416	4.511059	-3.7069137
329347039298488	4.8052583	1.6279038	1.2552512
329347039398488	2.2849493	0.588399	3.7069137
329347039498488	-0.1372931	-1.1866046	1.2944778
329347049998488	-1.2258313	-2.7066352	0.14709975
329347064098488	-0.57859236	-1.8926834	2.0201697
329347080398488	-0.71588546	-1.176798	0.951245
329347090398488	-0.588399	-0.5982056	0.26477954
329347100398488	-0.55897903	-0.0588399	0.5393657
329347110398488	-0.7354987	0.83356524	0.74530536
329347133698488	-1.93191	1.4415776	1.5494506
329347133798488	-1.5592573	1.0395049	0.0
329347186298488	-1.4023509	0.9414384	-3.3440676
329347186398488	-0.65704554	0.7256921	-1.8926834
329347186498488	-0.0784532	0.84337187	-0.6276256
329347186598488	0.38245934	0.9022118	0.17651969
329347193398488	0.70607877	1.0198916	0.79433864
329347201398488	1.0395049	1.1081514	0.9610517
329347213298488	1.1277647	0.9904716	0.8531785
329347226298488	1.5984839	0.98066497	0.2549729
329347236298488	1.7651969	0.9120184	-0.00980665
329347344998488	2.520309	0.42168593	0.49033248
329347345098488	3.2361944	0.37265268	0.88259846
329347345198488	4.226666	-0.00980665	1.0591182
329347345298488	3.8834333	-1.1179581	1.5690639
329347345398488	1.2258313	-2.0005565	2.7066352
329347345498488	0.5295591	-3.167548	3.0302548
329347345598488	-0.32361946	-4.4718323	4.844485
329347345698488	-1.3533176	-5.3838506	5.119071
329347345798488	-3.6578803	-4.9719715	4.0795665
329347345898488	-5.2269444	-4.197246	1.90249
329347365698488	-6.541035	-3.5107806	0.16671304
329347365798488	-7.3157606	-2.9027684	0.17651969
329347376298488	-7.894353	-2.687022	0.56878567
329347390398488	-10.640215	-5.2759776	6.913688
329347400398488	-11.67972	-8.090487	5.374044
329347445298488	-10.081236	-8.217973	5.540757
329347445398488	-5.5015306	-6.2958694	4.7464185
329347445498488	-1.7259704	-3.7461402	-5.1288776
329347445598488	-0.4314926	-2.2163029	-4.991585
329347460398488	-0.7649187	-0.28439283	-9.15941
329347567798488	0.2745862	0.00980665	-7.4432473
329347567898488	1.9711366	-3.4225209	5.9232163
329347567998488	3.304841	-5.7859235	7.198081
329347568098488	4.658159	-7.7178335	6.717555
329347568198488	5.3838506	-8.659272	3.7755601
329347568298488	5.442691	-9.071151	-0.44129923
329347568398488	6.0605097	-7.953193	-4.06976
329347568498488	5.442691	-4.5208654	-5.070038
329347568598488	4.422799	-2.7262487	-4.167826
329347580398488	0.0196133	-1.2454445	-4.932745
329347590398488	-2.5497289	-1.6475172	-3.3538742
329347600398488	-4.2364726	0.28439283	-3.2852278
329347610398488	-5.88399	1.9221034	-4.2658925
329347620398488	-5.82515	2.9714148	-4.481639
329347630398488	-4.844485	3.6088471	-5.8055367
329347643098488	-2.883155	3.9422731	-6.305676
329347661598488	3.0989013	4.167826	-3.5892339
329347661698488	4.4718323	4.7169986	-4.1089864
329347672298488	5.060231	5.1681046	-4.2070527
329347686298488	5.4328837	4.7169986	-4.344346
329347755098488	5.8349566	4.305119	-4.2953124
329347755198488	5.4819174	3.1871612	-4.4129925
329347755298488	5.491724	2.9616082	-4.3835726
329347755398488	6.2762556	3.0989013	-3.9815
329347755498488	6.9921412	3.1969678	-3.9030466
329347755598488	7.4628606	3.7167203	-3.0204482
329347755698488	7.2667274	3.7461402	-3.0890946
329347770398488	6.4233556	3.638267	-1.9809432
329347780398488	5.5309505	4.2168593	-1.6279038
329347790398488	5.266171	4.6973853	-1.4513842
329347823998488	4.883712	5.6976633	-0.5982056
329347824098488	4.834678	7.4334407	1.3925443
329347824198488	5.5113373	7.6197667	3.1773546
329347840398488	5.8447633	5.462304	8.482752
329347849398488	6.0899296	4.4620256	10.032203
329347873698488	7.139241	-1.0100849	11.179581
329347873798488	5.491724	-4.1089864	12.876131
329347890398488	-1.9711366	-10.375436	13.160524
329347945598488	-8.796565	-10.287175	12.748645
329347945698488	-8.521978	-10.306788	11.748366
329347945798488	-0.5001391	-5.089651	10.561762
329347945898488	5.874183	-1.1866046	7.4922805
329347945998488	10.061623	0.098066494	3.9324665
329347952398488	13.709697	0.37265268	-0.56878567
329347960398488	13.592016	-3.4323275	-4.5502853
329347970398488	14.190222	-5.3348174	-11.660107
329347980398488	12.748645	-6.5312285	-14.288289
329347990398488	9.816457	-6.766588	-10.954028
329348000398488	1.5592573	-2.5987623	-6.433162
329348010398488	-6.5116153	-0.2549729	-4.6385455
329348020398488	-13.43511	3.0989013	-4.3541527
329348030398488	-14.435389	7.0902076	-7.2078876
329348040398488	-11.26784	8.159133	-11.307067
329348050398488	-7.0705943	7.1588545	-11.29726
329348060398488	-2.3045628	6.354709	-7.913966
329348070398488	1.1081514	4.3345394	-3.4519408
329348080398488	1.8436501	1.9515233	-0.8041453
329348090398488	1.7750036	1.0198916	2.2751427
329348100398488	1.5298374	0.16671304	4.275699
329348113298488	0.71588546	-0.8041453	4.560092
329348131598488	-0.8727918	-2.991028	5.85457
329348131698488	-0.9022118	-2.8635418	8.639658
329348143298488	-0.5982056	-2.2163029	9.77723
329348156298488	0.3138128	-1.1081514	7.737447
329348166298488	0.57859236	-0.39226598	5.040618
329348176298488	-0.098066494	-0.37265268	3.4421341
329348186298488	-1.4317709	-0.5001391	1.3140911
329348196298488	-2.9518015	-1.1179581	0.0588399
329348234198488	-3.3538742	-0.4707192	0.32361946
329348234298488	-1.8436501	0.20593965	0.38245934
329348234398488	-0.8041453	0.6276256	-0.34323275
329348234498488	-0.18632634	0.60801226	-0.69627213
329348250398488	0.0	1.1277647	-0.28439283
329348260398488	0.1569064	1.372931	-0.1569064
329348281698488	0.78453195	1.7848103	0.2549729
329348281798488	1.176798	1.9613299	0.34323275
329348289398488	1.4121575	1.735777	0.02941995
329348297398488	1.6671305	1.4906107	-0.02941995
329348352298488	2.3732092	0.4314926	0.049033247
329348352398488	3.0400615	0.18632634	0.37265268
329348352498488	4.275699	-0.61781895	1.4121575
329348352598488	4.5502853	-1.1277647	2.2849493
329348360398488	3.9422731	-1.4219642	2.912575
329348370398488	1.9221034	-1.6965504	1.8730701
329348380398488	1.5984839	-2.5987623	2.8341217
329348390398488	1.0493115	-3.89324	4.118793
329348400398488	-0.20593965	-4.560092	3.0106416
329348408398488	-1.6671305	-4.7660317	1.539644
329348419298488	-2.5791488	-4.677772	1.2258313
329348481098488	-5.5015306	-3.383294	1.6867437
329348481198488	-6.639102	-3.4225209	0.5001391
329348481298488	-7.6001534	-3.3636808	2.490889
329348481398488	-9.041731	-5.85457	7.953193
329348481498488	-8.13952	-7.3157606	5.874183
329348491998488	-5.76631	-6.364516	3.9226599
329348510398488	-0.8237586	-6.207609	3.8344
329348520398488	-0.12748645	-4.9131317	-4.0403395
329348530398488	-0.79433864	-2.5791488	-8.933858
329348563998488	-3.3244543	-2.1378496	-11.003061
329348564098488	-2.1966896	-2.3928225	-6.6489086
329348564198488	0.35303938	-3.7363336	2.8341217
329348580398488	3.9226599	-7.0902076	5.393657
329348593298488	4.815065	-7.6491866	5.393657
329348612798488	5.521144	-8.404299	0.88259846
329348612898488	5.8349566	-8.247393	-0.951245
329348623198488	6.2762556	-7.737447	-2.6968286
329348636298488	5.991863	-6.109543	-5.2269444
329348645298488	4.8052583	-3.7755601	-5.393657
329348653298488	2.5791488	-1.90249	-4.5698986
329348663598488	-0.38245934	-1.4317709	-6.050703
329348663698488	-2.687022	-1.0885382	-5.5015306
329348680498488	-6.1978025	1.5298374	-4.256086
329348690398488	-5.8055367	2.4222424	-4.481639
329348700398488	-3.1871612	2.7654753	-4.2364726
329348710398488	0.56878567	1.0885382	-2.432049
329348720498488	3.334261	1.6671305	0.2745862
329348730398488	6.2958694	3.0890946	-0.0588399
329348740398488	8.1983595	4.177633	-0.79433864
329348750398488	8.629851	3.3636808	-0.8237586
329348760398488	8.512172	2.4026291	-0.8139519
329348770398488	7.6982203	1.0296983	-1.147378
329348780398488	7.6001534	0.5001391	-1.4317709
329348790398488	8.316039	0.92182505	-1.99075
329348799398488	8.551398	1.2258313	-1.6377105
329348810398488	8.845598	1.1964113	-1.176798
329348820398488	9.414384	1.706357	-1.1179581
329348830498488	9.875297	1.9515233	-0.6668522
329348840498488	9.669356	2.1476562	-0.4314926
329348850398488	9.149604	2.5791488	0.06864655
329348860398488	8.816178	3.334261	0.38245934
329348870398488	8.4925585	3.7461402	0.6472389
329348891698488	7.58054	4.2168593	1.0296983
329348891798488	7.109821	4.177633	1.90249
329348900398488	7.2667274	4.001113	3.9913065
329348909398488	8.208166	3.3538742	5.82515
329348920398488	10.149882	1.5200307	8.747532
329348930398488	11.640493	-0.83356524	12.483865
329348940398488	12.03276	-3.6873002	14.298096
329348950398488	9.306511	-7.560927	18.37766
329348958398488	5.5799837	-12.444638	20.535124
329348970398488	2.6674087	-12.091599	17.102797
329349001698488	-2.4516625	-11.699333	12.483865
329349001798488	-2.4124358	-11.522814	10.855961
329349001898488	-1.1669914	-11.493394	10.787314
329349010398488	3.4323275	0.6668522	7.835513
329349020398488	8.13952	4.285506	6.1781893
329349030398488	12.228892	4.4914455	3.6186538
329349040398488	15.798512	2.5791488	1.4317709
329349051298488	15.710253	1.4023509	-0.26477954
329349095198488	12.885938	-4.1285996	-14.700168
329349095298488	7.8845463	-9.9047165	-11.483587
329349095398488	2.5497289	-9.885103	-1.735777
329349095498488	-4.883712	-9.86549	2.9714148
329349110398488	-16.465364	-3.7951734	5.629017
329349120398488	-17.59313	1.735777	-1.0002782
329349142698488	-8.708305	7.2373075	-8.100293
329349142798488	-3.4029074	8.296426	-6.550842
329349150398488	2.2849493	8.737725	-5.3053975
329349160398488	6.697942	8.296426	-5.1386843
329349170498488	6.7371683	5.4328837	-2.6674087
329349180398488	4.4424124	3.1871612	0.1372931
329349190398488	1.9122967	1.0885382	4.2070527
329349200398488	0.02941995	-0.7256921	4.981778
329349210398488	-1.2454445	-2.3928225	5.1288776
329349220398488	-1.6279038	-2.6183755	3.6480737
329349230398488	-1.7455837	-2.0692031	3.108708
329349240398488	-1.0885382	-0.30400613	3.5303938
329349250398488	-1.1866046	0.049033247	2.1084297
329349260398488	-1.1669914	-0.17651969	0.6766588
329349270398488	-1.6671305	-0.8041453	-0.0784532
329349280398488	-1.8730701	-1.0787314	0.65704554
329349290398488	-0.5491724	0.38245934	0.88259846
329349300398488	-0.4707192	1.2454445	1.2062179
329349310498488	-0.6276256	1.4611908	0.70607877
329349320398488	-1.0395049	0.89240515	0.35303938
329349330398488	-0.55897903	0.79433864	-1.2062179
329349340398488	-0.6766588	0.36284605	-1.2748644
329349350398488	-0.8531785	0.14709975	-0.7649187
329349360498488	-0.8531785	0.6276256	0.0392266
329349370398488	-0.4118793	1.4808041	0.79433864
329349380498488	-0.22555295	1.8240368	0.8041453
329349390398488	0.0588399	2.3045628	0.00980665
329349399398488	0.10787315	2.3143694	-0.75511205
329349410298488	0.16671304	2.1770763	-0.8531785
329349420398488	1.2650578	2.1574628	-1.9122967
329349430398488	1.4808041	1.0885382	-1.2160245
329349440398488	2.1770763	0.02941995	-0.2745862
329349450498488	2.824315	-1.1081514	0.97085834
329349460398488	3.7461402	-2.128043	3.0400615
329349472098488	3.89324	-2.7164419	3.6774936
329349480398488	4.991585	-3.7461402	5.5897903
329349490498488	4.0991797	-5.070038	5.060231
329349500398488	2.9518015	-5.4524975	3.1381278
329349524498488	1.5102241	-4.9719715	1.4513842
329349524598488	0.2157463	-4.648352	1.5494506
329349536098488	-2.3830159	-4.1580195	2.775282
329349546298488	-4.177633	-4.4718323	3.7755601
329349556298488	-6.1683826	-5.570177	5.7270837
329349566298488	-7.806093	-6.913688	9.031924
329349576298488	-7.8845463	-7.2667274	7.1882744
329349586298488	-6.609682	-6.5998755	6.6194887
329349596298488	-4.197246	-7.100014	8.443525
329349606298488	-1.9221034	-5.991863	6.5018086
329349616298488	-1.2748644	-4.0501466	-1.5690639
329349626298488	-2.0692031	-1.8436501	-4.8052583
329349663198488	-2.4516625	-0.19613299	-8.002226
329349663298488	-1.7750036	0.06864655	-7.4628606
329349663398488	1.9221034	-1.8534569	3.3931007
329349663498488	2.912575	-3.6186538	5.6682434
329349670398488	4.0991797	-5.540757	6.1978025
329349678398488	5.3053975	-6.8744617	6.5018086
329349690398488	6.541035	-8.227779	5.217138
329349700398488	7.0705943	-8.600431	2.6477954
329349744898488	9.061344	-7.2373075	-1.9809432
329349744998488	8.365072	-4.226666	-3.2263877
329349745098488	6.0114765	-2.3732092	-2.8341217
329349745198488	4.7169986	-1.8142302	-3.246001
329349752398488	2.5301156	-1.8142302	-3.80498
329349770498488	-1.7946169	-0.37265268	-3.6284604
329349780398488	-3.4323275	1.9809432	-2.432049
329349789398488	-4.305119	2.128043	-3.0106416
329349813698488	-2.353596	3.412714	-6.2566423
329349813798488	-0.1372931	3.4225209	-5.011198
329349842698488	4.8542914	4.3835726	-3.3146477
329349842798488	5.746697	4.5993185	-3.5696206
329349860398488	6.1683826	3.7167203	-3.334261
329349906498488	6.305676	2.5889556	-3.7461402
329349906598488	6.943108	3.1479347	-3.9815
329349906698488	6.207609	3.3734875	-3.383294
329349906798488	6.864655	3.89324	-3.246001
329349934798488	7.7766733	4.9523582	-3.2067745
329349934898488	7.7178335	4.8739047	-2.912575
329349942498488	7.335374	5.2465577	-2.4810824
329349960498488	6.7567816	6.050703	-1.4023509
329349970398488	5.903603	6.442969	-0.71588546
329349980398488	5.295591	6.4723887	0.2745862
329349993298488	5.148491	6.6587152	1.5788707
329350006298488	5.658437	5.76631	4.7758384
329350016298488	6.442969	4.089373	8.610238
329350026298488	8.629851	2.432049	11.258034
329350036298488	9.45361	-1.4317709	14.219642
329350057898488	5.962443	-8.227779	19.858465
329350057998488	1.9515233	-10.630408	20.211506
329350058098488	-0.8041453	-10.444082	20.240925
329350070398488	-7.8551264	-10.336209	13.572403
329350080398488	-3.334261	-10.365629	12.876131
329350090398488	1.3042845	-0.75511205	8.3846855
329350100398488	5.79573	5.8055367	4.452219
329350110398488	10.365629	9.267284	0.9120184
329350120398488	14.768814	8.737725	-1.5494506
329350130398488	15.896579	7.247114	-5.0994577
329350140398488	15.3964405	2.1378496	-13.84699
329350150398488	13.08207	-3.6088471	-19.40736
329350160398488	9.002504	-9.95375	-11.67972
329350170398488	7.305954	-9.9047165	-3.500974
329350180398488	-2.7556686	-9.875297	5.2857842
329350190398488	-15.42586	-9.86549	8.149326
329350200498488	-18.299208	-8.423912	7.5413136
329350246098488	-18.03443	2.5105023	-7.335374
329350246198488	-11.41494	9.277091	-12.513285
329350246298488	-2.441856	12.013146	-10.924608
329350246398488	4.6973853	12.209279	-9.394771
329350246498488	7.7962866	10.885382	-7.149048
329350256398488	8.698499	6.913688	-3.3244543
329350268298488	8.129713	5.393657	-1.9417167
329350280398488	4.020726	0.4314926	5.3544307
329350289398488	1.6965504	-1.9613299	6.9529147
329350300298488	0.75511205	-3.5892339	7.963
329350310398488	0.588399	-4.7464185	9.0515375
329350319398488	0.4511059	-4.344346	6.492002
329350330298488	0.088259846	-4.275699	5.6878567
329350364998488	-0.02941995	-1.706357	2.9714148
329350365098488	-0.71588546	-0.74530536	2.657602
329350365198488	-0.5393657	0.32361946	2.7556686
329350380398488	-1.7161638	0.2941995	4.3149257
329350415998488	-2.5301156	0.3138128	4.148213
329350416098488	-1.7259704	0.89240515	-0.2941995
329350416198488	-1.1081514	0.588399	-1.0983448
329350426398488	-0.7747253	0.4118793	-1.1375713
329350434398488	-0.37265268	0.4511059	-0.2941995
329350450398488	0.44129923	1.2454445	0.57859236
329350464098488	0.49033248	1.4513842	0.71588546
329350476298488	0.6766588	1.735777	0.4118793
329350486298488	1.1179581	2.010363	-0.17651969
329350496298488	1.6867437	1.6965504	-1.0983448
329350506298488	2.2457228	1.4121575	-1.2062179
329350515298488	2.7654753	0.71588546	0.14709975
329350523298488	3.667687	0.3138128	1.5200307
329350532298488	4.1580195	-0.2941995	2.1770763
329350534298488	3.8834333	-0.8531785	2.4026291
329350545298488	4.1580195	-1.8436501	3.1969678
329350556298488	3.3440676	-2.9616082	4.3149257
329350566298488	3.8442068	-3.7559469	5.9232163
329350576298488	2.8145084	-4.5698986	4.4129925
329350586298488	1.0689248	-4.864098	1.2650578
329350596298488	-0.88259846	-4.6091256	0.1176798
329350606298488	-3.334261	-4.226666	2.0495899
329350616298488	-5.187718	-4.481639	3.5402005
329350626298488	-6.129156	-4.648352	2.8439283
329350636298488	-7.256921	-5.570177	3.0596747
329350646298488	-7.943386	-6.129156	5.344624
329350656298488	-8.639658	-6.129156	8.433719
329350666298488	-7.2961473	-5.0210047	9.110377
329350676298488	-5.3642373	-5.217138	5.2759776
329350686298488	-2.8439283	-5.8937964	2.5987623
329350696298488	-1.2160245	-4.324733	-1.5886773
329350706298488	-2.3045628	-3.2263877	-7.6197667
329350716298488	-3.89324	-1.7750036	-12.287732
329350726298488	-4.059953	-0.9414384	-12.130826
329350736298488	-2.4124358	-2.0495899	-6.639102
329350738298488	0.32361946	-3.726527	1.5494506
329350747398488	2.7948952	-5.982056	5.8643765
329350758298488	3.6774936	-6.894075	6.3252892
329350770398488	7.482474	-8.953471	4.785645
329350780398488	8.13952	-8.953471	0.61781895
329350790398488	8.943665	-8.365072	-5.0994577
329350800398488	8.914245	-5.746697	-7.590347
329350810398488	7.3451805	-2.6183755	-4.501252
329350819398488	5.629017	-1.99075	-4.501252
329350830298488	4.4620256	-1.8828768	-5.4328837
329350840398488	-0.98066497	-2.6477954	-5.3544307
329350850398488	-3.4813607	-1.1375713	-6.1193495
329350860398488	-5.8055367	0.0	-3.2950344
329350870398488	-6.4037423	1.3533176	-4.677772
329350880398488	-4.4424124	2.9027684	-6.129156
329350892298488	-2.8635418	3.1185145	-6.0703163
329350912598488	2.824315	4.030533	-5.933023
329350912698488	4.148213	4.658159	-6.3449025
329350920398488	4.962165	5.0308113	-6.7371683
329350931298488	5.040618	4.883712	-6.7077484
329350946298488	6.1389627	5.0798445	-6.7862015
329350954298488	5.393657	4.1285996	-6.8842683
329350962298488	5.0013914	3.7755601	-6.825428
329350984398488	4.883712	3.4617474	-7.0411744
329350984498488	5.6878567	3.2067745	-7.2667274
329350984598488	6.0605097	3.4029074	-6.835235
329351000398488	6.6587152	4.1874394	-6.3939357
329351010398488	6.5998755	4.6973853	-5.991863
329351020398488	6.413549	5.2269444	-5.0798445
329351064298488	5.8447633	6.1193495	-4.148213
329351064398488	4.707192	6.492002	-3.0596747
329351064498488	3.6774936	6.835235	-1.2748644
329351064598488	3.6480737	6.4723887	0.0
329351080398488	5.9232163	4.6679654	3.9618864
329351090398488	6.8156214	2.5987623	7.8159
329351099398488	7.5118937	0.39226598	10.061623
329351107398488	7.0902076	-2.1084297	12.121019
329351115398488	5.3642373	-6.492002	15.494507
329351126298488	4.0991797	-8.620045	16.56343
329351140398488	0.78453195	-10.385242	11.277647
329351149398488	-2.4614692	-10.346016	7.75706
329351184698488	1.2944778	-4.6189322	6.796008
329351184798488	4.7169986	1.2454445	4.589512
329351184898488	6.8842683	2.9321883	2.687022
329351200398488	11.944499	0.8727918	-2.8635418
329351221698488	12.542705	-3.80498	-17.62255
