accelerometer_timestamp	accelerometer_x_data	accelerometer_y_data	accelerometer_z_data
76653431031222	1.683136	4.365158	9.061111
76653439423556	1.8427429	4.5443573	8.642029
76653447815890	2.030304	4.6859283	8.306122
76653456208224	1.9006653	4.7506714	8.196655
76653464600558	1.4771118	4.642761	8.384613
76653472992892	1.1170654	4.3828278	8.711929
76653481385226	1.119461	4.0916595	8.948807
76653489777560	1.244461	3.9796448	8.976822
76653498169894	1.1581268	3.9525452	8.897888
76653506562228	1.0366364	3.9368744	8.77449
76653514954562	0.9732361	3.9542694	8.675171
76653523346896	1.0058441	4.010498	8.615555
76653531739230	1.0867004	4.086502	8.5672455
76653540131564	1.0438232	4.131378	8.47554
76653548523898	1.0603943	4.1450043	8.232407
76653556916232	1.1404114	4.16864	8.027908
76653565308566	1.2447052	4.1966705	8.159714
76653573700900	1.3214417	4.197113	8.489777
76653582093234	1.3422089	4.163208	8.693665
76653590485568	1.3571167	4.1960144	8.693665
76653598877902	1.3226929	4.1988983	8.618164
76653607270236	1.2122498	4.157852	8.457397
76653615662570	1.0710602	4.120041	8.230148
76653624054904	0.91090393	4.09964	7.9684753
76653632447238	0.7541809	4.096817	7.720093
76653640839572	0.7232666	4.1347046	7.56456
76653649231906	0.8321991	4.18898	7.521866
76653657624240	0.9905853	4.197937	7.6630554
76653666016574	1.2488251	4.2102814	7.988693
76653674408908	1.5574188	4.2300873	8.5989685
76653682801242	1.7310944	4.2244263	9.333603
76653691193576	1.3672028	4.1436615	9.003571
76653699585910	1.036911	4.159836	8.728958
76653707978244	0.92800903	4.1707153	8.810059
76653716370578	0.8956604	4.1831665	8.847855
76653724762912	0.8681183	4.211624	8.750397
76653733155246	0.86402893	4.25766	8.632828
76653741547580	0.9826813	4.27861	8.51918
76653749939914	1.1328583	4.261505	8.361618
76653758332248	1.2475586	4.2560425	8.202866
76653766724582	1.2602234	4.240616	8.139206
76653775116916	1.2071228	4.217972	8.168518
76653783509250	1.1805573	4.201706	8.248108
76653791901584	1.2437897	4.178009	8.432877
76653800293918	1.3249512	4.197418	8.803558
76653808686252	1.3231812	4.216385	9.16832
76653817078586	1.2472839	4.220108	9.396957
76653825470919	1.1687775	4.1800995	9.461166
76653833863253	1.1568604	4.08638	9.388672
76653842255587	1.1508942	4.0267334	9.147125
76653850647921	1.1496277	4.0724945	8.978424
76653859040255	1.1843109	4.160019	8.85553
76653867432589	1.283371	4.1950073	8.757187
76653875824923	1.4200897	4.201889	8.714996
76653884217257	1.5476532	4.2631226	8.760239
76653892609591	1.6866608	4.356125	8.790237
76653901001925	1.864914	4.389084	8.630005
76653909394259	1.9328766	4.4166718	8.514481
76653917786593	1.8759003	4.408142	8.474243
76653926178927	1.7427216	4.3857727	8.514465
76653934571261	1.6082611	4.401352	8.622177
76653942963595	1.4975891	4.453186	8.757782
76653951355929	1.4838104	4.4818115	8.91806
76653959748263	1.4885712	4.499893	8.9934845
76653968140597	1.5272827	4.51268	8.954803
76653976532931	1.5741272	4.5325317	8.826874
76653984925265	1.5771484	4.5646667	8.647202
76653993317599	1.5272827	4.5587006	8.347122
76654001709933	1.6803131	4.540268	8.151901
76654010102267	1.9273987	4.5819244	8.154816
76654018494601	2.1461487	4.644562	8.281921
76654026886935	2.2892303	4.686508	8.4761505
76654035279269	2.3634949	4.677292	8.674942
76654043671603	2.352295	4.6253357	8.753372
76654052063937	2.2520294	4.645691	8.651642
76654060456271	2.1519165	4.6934967	8.521393
76654068848605	2.1026917	4.7402344	8.539597
76654077240939	2.069641	4.7900085	8.70842
76654085633273	1.948822	4.8482666	8.852692
76654094025607	1.6218567	4.803589	8.648575
76654102417941	1.4203339	4.717148	8.281143
76654110810275	1.2302399	4.7150116	8.000351
76654119202609	1.1046448	4.7341614	7.8827515
76654127594943	1.0988922	4.74971	7.930908
76654135987277	1.2608795	4.7718353	8.115448
76654144379611	1.6018372	4.7369385	8.35173
76654152771945	1.9584198	4.7497406	8.749466
76654161164279	2.180313	4.81604	8.964951
76654169556613	2.3068237	4.899597	8.949875
76654177948947	2.357315	4.961151	8.71788
76654186341281	2.3384705	4.97554	8.325165
76654194733615	2.3904266	4.9622803	7.9003906
76654203125949	2.367447	4.986725	7.6122284
76654211518283	2.3327484	4.9649353	7.452652
76654219910617	2.317749	4.9474487	7.405777
76654228302951	2.24057	4.9542694	7.4490204
76654236695285	2.0001526	4.9669037	7.558792
76654245087619	1.8854828	4.9629364	7.7671814
76654253479953	1.7666626	4.8924103	7.9787903
76654261872287	1.7730255	4.8528595	8.306244
76654270264621	1.8408813	4.8355713	8.618317
76654278656955	1.8956451	4.8368835	8.800293
76654287049289	1.901001	4.858719	8.822128
76654295441623	1.9264679	4.837311	8.826187
76654303833957	1.9904022	4.8142242	8.612976
76654312226291	2.0623474	4.8092194	8.317902
76654320618625	2.1148376	4.8157196	8.043411
76654329010959	2.1331024	4.8269043	7.880371
76654337403293	2.1197968	4.8421783	7.8533173
76654345795627	2.085907	4.869095	7.754608
76654354187961	2.0477753	4.825943	7.844742
76654362580294	2.0484161	4.78154	8.0286255
76654370972628	2.0229797	4.777359	8.20697
76654379364962	1.9868011	4.8142395	8.306641
76654387757296	2.0177002	4.854477	8.147171
76654396149630	2.0027924	4.8614197	6.5776367
76654404541964	2.2098846	4.899521	7.170212
76654412934298	2.3722076	4.9006805	8.021881
76654421326632	2.390503	4.9006653	8.678513
76654429718966	2.3308258	4.8869934	9.061264
76654438111300	2.3578186	4.817795	9.235794
76654446503634	2.296814	4.8477936	9.154785
76654454895968	2.0441284	4.905075	9.007477
76654463288302	1.8934326	4.9212646	8.766922
76654471680636	1.913147	4.9016876	8.324738
76654480072970	2.0419464	4.9076843	7.7668915
76654488465304	2.1326904	5.020172	7.3728943
76654496857638	1.9941101	5.130844	7.6341248
76654505249972	1.9232635	5.0591583	7.975647
76654513642306	1.9967041	4.9314117	8.277344
76654522034640	2.0407715	4.829651	8.392838
76654530426974	1.953186	4.796341	8.350739
76654538819308	1.7706604	4.8312225	8.307968
76654547211642	1.6748352	4.833206	8.288208
76654555603976	1.56781	4.75795	8.139938
76654563996310	1.6081696	4.718338	7.9253693
76654572388644	1.8066406	4.726776	7.0323944
76654580780978	2.0758667	4.79657	6.158203
76654589173312	2.2897797	4.9369965	7.0908966
76654597565646	2.6217957	4.930008	7.581909
76654605957980	2.5519714	4.977417	7.840866
76654614350314	2.273529	5.0279846	8.059845
76654622742648	2.035141	5.058792	8.283844
76654631134982	1.9519806	5.068405	8.556793
76654639527316	1.9459381	5.070526	8.929138
76654647919650	1.9270477	5.0257874	9.271088
76654656311984	1.8872375	5.0401	9.321564
76654664704318	1.8115387	5.015396	9.104904
76654673096652	1.9411011	4.9417725	8.721008
76654681488986	2.1930847	4.907135	8.328934
76654689881320	2.1619568	5.0510406	8.056244
76654698273654	1.9373016	5.2627563	7.598984
76654706665988	2.0654755	5.258606	7.302765
76654715058322	2.3039398	5.1592712	7.3966675
76654723450656	2.4490356	5.0703735	7.8789673
76654731842990	2.4316406	5.024826	8.510132
76654740235324	2.3322144	4.9787903	8.799744
76654748627658	2.1828308	4.919235	8.623993
76654757019992	1.8850403	4.8371735	8.367615
76654765412326	1.6481323	4.818741	8.197571
76654773804660	1.4532318	4.839676	8.117111
76654782196994	1.3072815	4.8503113	8.067841
76654790589328	1.2841644	4.7975616	7.954361
76654798981662	1.2582397	4.7008514	7.8586426
76654807373996	1.3210144	4.6194153	7.891098
76654815766330	1.5511627	4.597595	8.102631
76654824158664	2.0055847	4.5990295	8.395157
76654832550998	2.610733	4.5839844	8.648178
76654840943332	3.0908813	4.5411224	8.779861
76654849335666	2.6112976	4.4982452	8.798798
76654857728000	2.0452423	4.587967	8.79361
76654866120334	1.7080688	4.674103	8.832153
76654874512668	1.5734406	4.694931	8.884369
76654882905002	1.484024	4.64888	8.903915
76654891297336	1.2677765	4.589218	8.848328
76654899689669	1.1232147	4.545349	8.504379
76654908082003	0.8896637	4.5271606	8.206604
76654916474337	1.1070557	4.367996	8.155838
76654924866671	1.5923004	4.027481	8.207291
76654933259005	1.9011536	3.8085938	8.169525
76654941651339	1.630127	4.334442	7.948517
76654950043673	1.8457642	5.144333	7.7328796
76654958436007	1.9010468	5.3787994	8.0195465
76654966828341	2.0603638	5.1046295	8.320465
76654975220675	2.320343	4.677002	8.425888
76654983613009	2.4746857	4.412506	8.357269
76654992005343	2.176117	4.4517365	8.403381
76655000397677	1.9195557	4.6240845	8.825424
76655008790011	1.9940643	4.7059784	9.423813
76655017182345	1.9539795	4.635681	9.606689
76655025574679	1.7996979	4.47818	9.401688
76655033967013	1.5872803	4.347946	8.992401
76655042359347	1.2485962	4.3508453	8.492279
76655050751681	0.5885773	4.395584	7.9346466
76655059144015	-0.12904358	4.37854	7.4989166
76655067536349	-0.86746216	4.134491	7.1541595
76655075928683	-1.0007019	4.1805573	7.0944214
76655084321017	-0.18997192	4.7225494	7.3830566
76655092713351	1.1550903	5.1566315	7.7796783
76655101105685	2.0611267	5.3076477	7.964691
76655109498019	2.8520203	5.28833	8.011047
76655117890353	3.3526917	5.3053894	7.9747467
76655126282687	3.3720398	5.297226	7.903122
76655134675021	2.9490814	5.1540527	7.904175
76655143067355	2.5178223	4.837738	8.193024
76655151459689	1.7138977	4.663437	8.793274
76655159852023	0.5043793	4.3972473	9.827454
76655168244357	-0.25080872	4.1094513	11.165634
76655176636691	-0.4707489	3.9012146	12.034454
76655185029025	-0.19577026	3.7530212	11.813889
76655193421359	0.75865173	3.430481	10.659882
76655201813693	1.9886932	3.175476	9.640839
76655210206027	2.6025543	3.3770294	8.971649
76655218598361	2.8564758	3.820465	8.559387
76655226990695	2.8269958	4.269821	8.13382
76655235383029	2.59021	4.5621643	7.5446777
76655243775363	2.2679596	4.6592712	6.927887
76655252167697	1.9359589	4.686264	6.6048737
76655260560031	1.3769073	4.6735535	6.685837
76655268952365	0.9308319	4.6922607	7.0779724
76655277344699	0.84490967	4.733673	7.4532013
76655285737033	1.1829987	4.7444153	7.5947723
76655294129367	1.6668701	4.644226	7.607086
76655302521701	2.0316772	4.5020905	7.265152
76655310914035	2.7808838	4.5402374	6.8841248
76655319306369	3.7070465	4.5366364	6.6114655
76655327698703	4.5552673	4.3086395	6.451523
76655336091037	5.113266	3.8476257	6.443924
76655344483371	5.26149	3.4594421	6.772873
76655352875705	5.018524	3.6700134	7.63945
76655361268039	4.4707184	3.895218	8.624252
76655369660373	4.1421967	3.7143555	9.191101
76655378052707	3.9423676	3.4678192	9.128052
76655386445041	3.6690216	3.5126343	8.62323
76655394837375	3.3736267	3.6806183	8.20166
76655403229709	3.7215881	3.914917	7.6692657
76655411622043	4.2332	4.053955	7.2416687
76655420014377	4.8053436	4.272766	6.8516083
76655428406711	5.3428802	4.608017	6.6222687
76655436804035	5.863098	4.912445	6.5594025
76655445196369	6.5972443	4.812149	6.2637024
76655453588703	7.427231	4.545746	5.258774
76655461981037	7.4364624	4.3170013	3.967575
76655470373371	6.638092	4.2625732	2.7989655
76655478765705	5.552887	4.4329376	2.546585
76655487158039	4.884384	4.7552795	3.607788
76655495550373	5.425766	4.923767	5.070389
76655503942707	6.254715	4.9006195	6.5860443
76655512335041	7.195755	4.641968	7.2353516
76655520727375	7.854416	4.5033417	7.1894684
76655529119709	8.241135	4.505829	6.6026917
76655537512043	8.475403	4.6036987	5.675171
76655545904377	8.446487	4.994522	4.7379913
76655554296711	8.408096	5.300873	3.9673615
76655562689045	8.481262	5.452652	3.348816
76655571081379	8.632935	5.477722	2.703827
76655579473713	8.80838	5.3841705	2.1664734
76655587866047	8.957901	5.2579956	1.9716492
76655596258381	9.073547	5.3377533	2.2976685
76655604650715	9.606781	5.61203	2.7425232
76655613043049	10.027145	6.1601257	3.0540924
76655621435383	10.063751	6.5654144	3.1933136
76655629827717	9.783646	6.728836	3.0500183
76655638220051	9.416214	6.7466125	2.5996552
76655646612385	9.134903	6.784378	2.08078
76655655004719	9.16954	6.716339	1.6187439
76655663397053	9.323395	6.695099	1.3866272
76655671789387	9.545639	6.6499786	1.4292297
76655680181721	9.705521	6.526932	1.6009064
76655688574055	9.641861	6.336319	1.7219849
76655696966389	9.207153	6.2106934	1.7399445
76655705358723	8.413528	6.036743	1.7154694
76655713751057	7.740219	5.927582	1.8612671
76655722143391	7.2991943	5.926773	2.0757751
76655730535725	7.126129	6.006256	2.2282257
76655738928059	7.184494	6.1063232	2.2234497
76655747320393	7.3579865	6.178116	2.0718994
76655755712727	7.1878815	6.395752	1.6981506
76655764105061	6.853302	6.706497	1.1844025
76655772497395	6.2813873	7.030945	0.5804596
76655780889729	5.6880493	7.2885437	-0.013717651
76655789282063	5.3737946	7.432266	-0.4814453
76655797674397	5.440399	7.4938965	-0.72895813
76655806066731	5.8683167	7.370514	-0.8408356
76655814459065	6.317444	5.9622955	-0.1616211
76655822851399	6.1576385	5.83284	0.98387146
76655831243733	6.3736115	6.49675	1.6575165
76655839636067	7.6824036	6.2807007	1.5265045
76655848028401	7.413025	5.529236	2.8107605
76655856420735	6.4216003	6.513214	2.647995
76655864813069	6.2690277	6.36911	2.184555
76655873205403	6.15329	6.465103	1.887619
76655881597737	5.969742	6.911148	1.625351
76655889990071	6.015747	7.156891	1.1034851
76655898382405	6.2510376	7.4559784	0.6388855
76655906774739	6.2728424	7.7427673	-0.15835571
76655915167073	5.960022	8.031204	-1.7389984
76655923559407	5.643799	8.326431	-2.9884033
76655931951741	5.623047	8.501175	-3.3299408
76655940344075	5.9120483	8.416122	-2.8705597
76655948736409	5.76947	8.145935	-2.437851
76655957128743	6.0600433	8.058121	-1.7144928
76655965521077	6.5326996	7.876541	-0.7778473
76655973913410	6.740799	7.5796814	0.09832764
76655982305744	6.571274	7.0696106	1.0151215
76655990698078	6.2796173	6.416321	2.2500763
76655999090412	6.576828	6.512741	3.7848206
76656007482746	5.5617676	6.1125793	3.4341736
76656015875080	4.295212	5.7696075	3.6658783
76656024267414	5.28743	6.0545044	3.4473267
76656032659748	7.873123	6.56604	3.2910461
76656041052082	9.1605835	6.5481873	4.0563965
76656049444416	6.9081573	6.5670776	2.7741241
76656057836750	6.5734253	6.9536133	1.730484
76656066229084	6.113846	7.083191	1.233902
76656074621418	5.8184814	7.0037994	1.2855377
76656083013752	5.8229218	6.877716	1.6773376
76656091406086	6.0282135	6.880905	2.0312042
76656099798420	6.5207214	7.103241	1.7779541
76656108190754	7.0095367	7.3988953	1.5785522
76656116583088	6.8867188	7.644104	1.4220734
76656124975422	6.376343	7.7970886	1.1377716
76656133367756	5.550659	7.812088	0.80529785
76656141760090	4.3749847	7.699707	0.60424805
76656150152424	3.1911163	7.7533875	0.18676758
76656158544758	3.8714752	7.809967	1.3860626
76656166937092	5.6619263	8.144562	1.5495911
76656175329426	6.2229156	8.180649	0.4216156
76656183721760	5.310425	7.861084	-0.9088898
76656192114094	4.4408875	7.632477	-0.893219
76656200506428	4.243088	7.877014	0.1733551
76656208898762	4.7938995	8.36705	0.59877014
76656217291096	5.513031	8.683121	0.9306793
76656225683430	5.955658	8.810715	1.1982727
76656234075764	5.8872986	8.716385	1.3992157
76656242468098	5.3098297	8.405487	1.5367279
76656250860432	4.3806305	8.401489	1.5048218
76656259252766	4.675125	8.3703	1.4566803
76656267645100	5.091751	8.423386	1.6295624
76656276037434	5.3714294	8.544617	1.638977
76656284429768	5.3420563	8.556305	1.4929199
76656292822102	4.9483643	8.308441	1.5297852
76656301214436	4.7818604	8.52977	1.4071503
76656309606770	4.8744507	9.063446	0.872879
76656317999104	4.8297577	9.291275	0.5822296
76656326391438	4.803833	9.119232	0.55859375
76656334783772	4.6555176	8.844269	0.7603607
76656343176106	4.0801697	8.892014	1.072525
76656351568440	4.005615	8.648483	0.743515
76656359960774	3.7087708	8.5460205	1.0349884
76656368353108	3.4635925	8.555603	1.259079
76656376745442	3.2581482	8.699646	1.1938019
76656385137776	3.0993195	8.981049	0.8106537
76656393530110	3.0258942	9.339645	0.24351501
76656401922444	2.8344574	9.437347	-0.15031433
76656410314778	2.9853668	9.253189	0.19282532
76656418707112	3.177246	9.108063	0.21530151
76656427099446	3.3157196	8.966278	0.039627075
76656435491780	3.463791	8.70871	-0.18876648
76656443884114	3.7341309	8.32428	-0.3816986
76656452276448	3.568634	8.835739	0.9273529
76656460668782	3.6004639	9.18158	0.24012756
76656469061116	3.662262	9.213425	-0.025131226
76656477453450	3.902069	9.217102	-0.03414917
76656485845784	4.1532745	9.2638855	-0.20747375
76656494238118	3.9628448	9.098129	-0.5972748
76656502630452	4.001602	8.642883	-0.5624695
76656511022785	4.09787	8.597916	-0.38308716
76656519415119	4.172943	8.79599	-0.63157654
76656527807453	4.306259	8.953384	-1.1184387
76656536199787	4.472992	8.870148	-1.5409088
76656544592121	4.4832764	8.472244	-1.6642151
76656552984455	4.4932404	8.046509	-1.6203613
76656561376789	4.819351	7.7713623	-1.0660553
76656569769123	5.0796204	7.7602997	-0.73446655
76656578161457	4.9291687	7.8276978	-0.6642456
76656586553791	4.3165283	7.643692	-0.7792053
76656594946125	3.7599487	6.902252	-0.9944153
76656603338459	3.7021332	5.860382	-1.1419678
76656611730793	3.6958618	5.0066833	-1.284378
76656620123127	3.5564117	4.3584595	-1.340805
76656628515461	3.304657	3.8004303	-1.3679047
76656636907795	2.8908234	3.2094116	-1.4343262
76656645300129	2.1736603	2.5235748	-1.577774
76656653692463	1.9132233	1.8724976	-1.9336243
76656662084797	1.8939056	1.0695953	-2.136856
76656670477131	1.4865723	0.6145172	-2.1848297
76656678869465	0.98565674	0.36839294	-2.1878662
76656687261799	0.69407654	0.13868713	-2.164978
76656695654133	0.5499573	-0.06871033	-1.9490051
76656704046467	0.4482422	-0.28108215	-1.6578674
76656712438801	0.39048767	-0.41741943	-1.713089
76656720831135	-0.010177612	-0.3554535	-1.89888
76656729223469	-0.71829224	0.045822144	-2.122284
76656737615803	-1.5754242	0.8422241	-2.2475586
76656746008137	-2.383194	1.83078	-2.0718994
76656754400471	-2.9766235	2.7432861	-2.0231934
76656762792805	-3.4370575	3.3030243	-2.1674957
76656771185139	-3.7665405	3.4422913	-1.9565582
76656779577473	-3.9130707	3.4168854	-1.401001
76656787969807	-3.8603516	3.6207275	-0.8438568
76656796362141	-3.7139435	4.2914276	-0.7367401
76656804754475	-3.9417114	5.1129913	-1.0414276
76656813146809	-4.8779755	5.705368	-1.5892487
76656821539143	-5.989029	6.080597	-2.059204
76656829931477	-6.837021	6.347824	-2.367157
76656838323811	-7.2421875	6.6329956	-2.5285797
76656846716145	-7.351181	7.0054474	-2.5388489
76656855108479	-7.8466644	7.4343414	-2.5594025
76656863500813	-8.675156	7.9453125	-2.7149048
76656871893147	-9.513901	8.293533	-2.83638
76656880285481	-10.209259	8.423935	-2.8924866
76656888677815	-10.689301	8.434113	-2.9680939
76656897070149	-10.834061	8.474487	-3.2240448
76656905462483	-10.842026	8.60112	-3.2908325
76656913854817	-10.792404	8.611725	-3.3426208
76656922247151	-10.541748	8.3971405	-3.1888428
76656930639485	-10.129135	8.047363	-2.7375336
76656939031819	-9.864166	7.77359	-2.152481
76656947424153	-10.295303	7.748825	-1.9480286
76656955816487	-10.775864	7.728882	-2.1693726
76656964208821	-11.47435	7.73555	-2.1657562
76656972601155	-12.021194	7.728943	-2.1351776
76656980993489	-12.124191	7.5947113	-2.2361145
76656989385823	-11.781418	7.275833	-2.4738007
76656997778157	-11.568283	6.939087	-2.5478363
76657006170491	-11.705368	6.7677307	-2.550766
76657014562825	-11.672562	6.6511993	-2.3791199
76657022955159	-11.61731	6.59079	-2.2887573
76657031347493	-11.573502	6.740082	-2.4532623
76657039739827	-11.543991	7.190033	-2.7092743
76657048132160	-11.607956	7.779022	-2.218811
76657056524494	-11.564102	8.062164	-1.6355591
76657064916828	-11.451141	8.197922	-1.4194031
76657073309162	-11.31987	8.115753	-1.1033325
76657081701496	-11.261429	7.8747864	-0.7741394
76657090093830	-11.227417	7.5556183	-0.66456604
76657098486164	-10.797165	7.0605927	-0.69088745
76657106878498	-10.266129	6.9187164	-1.6247406
76657115270832	-9.791412	6.4681854	-1.6177063
76657123663166	-9.422882	6.066101	-1.4961853
76657132055500	-9.151978	5.9500885	-1.6655884
76657140447834	-8.964554	6.203064	-2.1179962
76657148840168	-8.881058	6.5927124	-2.308838
76657157232502	-8.978455	6.746399	-1.6984253
76657165624836	-9.379761	6.4691772	-1.4814606
76657174017170	-9.725143	6.139084	-1.4436188
76657182409504	-9.973022	5.946579	-1.52594
76657190801838	-10.226685	5.95459	-1.6825409
76657199194172	-10.414124	6.2447357	-1.7074738
76657207586506	-10.3771515	6.5037994	-1.7781067
76657215978840	-10.244949	6.5712433	-1.7391052
76657224371174	-9.908432	6.4929504	-1.5332642
76657232763508	-9.507507	6.3619385	-1.237915
76657241155842	-9.178329	6.2683105	-0.9884949
76657249548176	-8.693253	6.277252	-0.90400696
76657257940510	-8.346161	6.154587	-0.65374756
76657266332844	-8.178696	6.1907043	-0.39297485
76657274725178	-8.199478	6.5011597	-0.21922302
76657283117512	-8.289551	6.892563	-0.07609558
76657291509846	-8.296799	7.0214996	0.12239075
76657299902180	-8.228195	6.7342224	0.23570251
76657308294514	-8.147873	6.3452454	0.006362915
76657316686848	-8.040817	5.9914703	-0.08818054
76657325079182	-8.096207	5.6897583	-0.22627258
76657333471516	-8.212433	5.452179	-0.3575592
76657341863850	-8.148148	5.277008	-0.3197174
76657350256184	-8.029877	5.1179504	-0.26504517
76657358648518	-8.008835	5.178253	-0.14408875
76657367040852	-7.6640625	5.2671204	0.27694702
76657375433186	-7.2855225	5.248398	0.7009735
76657383825520	-6.9925537	5.1683807	0.91741943
76657392217854	-6.750702	5.1748047	0.9284363
76657400610188	-6.7048492	5.255554	0.95635986
76657409002522	-6.7573853	5.31131	1.0429993
76657417394856	-6.96933	5.3941803	1.0611115
76657425787190	-7.241501	5.559067	0.99949646
76657434179524	-7.5338287	5.8001556	0.89064026
76657442571858	-7.872818	6.050049	0.7769928
76657450964192	-8.274384	6.161392	0.6805725
76657459356526	-8.750641	6.156143	0.57917786
76657467748860	-8.983704	6.110733	0.4410553
76657476141194	-9.0336	5.979141	0.28877258
76657484533528	-8.94043	5.787216	0.18412781
76657492925862	-8.703125	5.6113434	0.18600464
76657501318196	-8.36615	5.5059814	0.21087646
76657509710530	-8.0686035	5.2904663	0.21983337
76657518102864	-7.871109	5.0507355	0.19282532
76657526495198	-7.6994324	4.8285217	0.17770386
76657534887532	-7.53566	4.6355133	0.13890076
76657543279866	-7.4165344	4.4999847	0.03919983
76657551672200	-7.3877106	4.6321716	0.1197052
76657560064534	-7.5042267	4.9097443	0.19747925
76657568456868	-7.833145	5.0979767	0.2528534
76657576849202	-8.116241	5.225342	0.2697296
76657585241535	-8.338089	5.3445435	0.2723999
76657593633869	-8.624725	5.500534	0.30451965
76657602026203	-8.702484	5.7617493	0.3782959
76657610418537	-8.691147	6.046173	0.37504578
76657618810871	-8.580704	6.1246033	0.4190216
76657627203205	-8.467163	6.026001	0.46426392
76657635595539	-8.329117	5.858856	0.5237274
76657643987873	-8.060242	5.7593536	0.64971924
76657652380207	-7.637085	5.712784	0.7813263
76657660772541	-7.375473	5.7156677	0.8742523
76657669164875	-7.2948914	5.642227	1.0166931
76657677557209	-7.311325	5.5335236	1.1147308
76657685949543	-7.4279175	5.4155884	1.1044464
76657694341877	-7.7124176	5.2963715	1.0134125
76657702734211	-8.101074	5.2456665	1.0491943
76657711126545	-8.477097	5.5036316	1.2093353
76657719518879	-8.854202	6.1740265	1.4403534
76657727911213	-9.062271	6.8220825	1.6356201
76657736303547	-9.046646	7.0863037	1.7094574
76657744695881	-8.910416	6.8680115	1.6434937
76657753088215	-8.690735	6.406784	1.5291901
76657761480549	-8.359207	6.172592	1.3238525
76657769872883	-8.147186	6.1674194	1.0094147
76657778265217	-7.805237	6.31781	0.6274414
76657786657551	-7.430374	6.371811	0.7823334
76657795049885	-7.420227	6.075241	1.9997711
76657803442219	-7.3308563	5.888397	1.1417084
76657811834553	-7.091324	5.708252	0.45483398
76657820226887	-7.3200684	5.495117	0.7827606
76657828619221	-7.6713867	5.3605194	0.6824646
76657837011555	-7.8760376	5.4293823	-0.12965393
76657845403889	-7.965042	5.7206573	-0.37942505
76657853796223	-8.550171	5.474655	0.22494507
76657862188557	-8.871231	5.4406586	0.143219
76657870580891	-8.937225	5.4656677	0.1784668
76657878973225	-8.982178	5.448929	0.3231659
76657887365559	-9.064011	5.3556213	0.42288208
76657895757893	-9.017822	5.2387085	0.33180237
76657904150227	-8.968124	5.2605743	0.30496216
76657912542561	-8.839188	5.4769287	0.1837616
76657920934895	-8.725128	5.716507	0.20169067
76657929327229	-8.6736145	5.9082184	0.3751526
76657937719563	-8.648743	5.977295	0.6516876
76657946111897	-8.5642395	5.8643494	0.9936371
76657954504231	-8.659668	5.612854	1.7212677
76657962896565	-8.52066	5.4887085	2.3934174
76657971288899	-8.194366	5.404892	2.5925598
76657979681233	-7.798523	5.5066376	2.3320007
76657988073567	-7.631378	5.64122	1.9667206
76657996465901	-7.9733124	5.329178	1.9880371
76658004858235	-7.704651	5.1549377	1.7368927
76658013250569	-7.836212	5.2035065	1.5347748
76658021642903	-7.948227	5.3003235	1.61763
76658030035237	-7.970825	5.4173737	1.6451263
76658038427571	-7.8647156	5.508606	1.4141998
76658046819905	-7.563629	5.490158	1.0938873
76658055212239	-7.5407715	5.834091	0.6634674
76658063604573	-7.3211517	6.5220337	0.7873535
76658071996907	-7.156357	6.8909607	0.6391144
76658080389241	-7.194687	7.014435	0.2114563
76658088781575	-7.3680267	7.072098	-0.2965088
76658097173909	-7.3385468	7.1530457	-0.6330414
76658105566243	-7.0731506	7.094406	-0.4789734
76658113958577	-6.859787	6.8187256	0.0664978
76658122350910	-6.7871094	6.565201	0.20318604
76658130743244	-7.008713	6.3629456	0.07196045
76658139135578	-7.5812225	6.346649	0.007675171
76658147527912	-8.292526	6.801605	0.11994934
76658155920246	-8.541214	7.5186462	0.13542175
76658164312580	-8.64978	7.478836	0.40379333
76658172704914	-8.638199	6.8804016	0.4868164
76658181097248	-8.49028	6.2138824	0.54045105
76658189489582	-8.299667	5.809311	0.67144775
76658197881916	-8.320953	5.6413574	0.6721039
76658206274250	-8.140198	5.5702667	0.89042664
76658214666584	-8.1353	5.026062	1.5991058
76658223058918	-7.7730713	4.5746155	1.6205444
76658231451252	-7.1371	4.403366	1.3607788
76658239843586	-6.453888	4.4683228	1.2563171
76658248235920	-5.9396973	4.451996	1.0478058
76658256628254	-5.820053	4.1269684	0.701828
76658265020588	-5.5146027	3.9349976	0.824173
76658273412922	-5.542282	4.2360077	0.9724121
76658281805256	-5.6613007	4.844635	1.0262909
76658290197590	-5.78598	5.4627686	0.9126892
76658298589924	-6.4397736	5.9047546	0.54089355
76658306982258	-7.374954	6.5458374	0.051361084
76658315374592	-7.787079	7.532303	-0.3474884
76658323766926	-8.279587	7.860718	-1.2396393
76658332159260	-8.766602	7.739914	-2.2292633
76658340551594	-8.874664	7.643097	-2.654663
76658348943928	-8.311401	7.568817	-2.3142242
76658357336262	-7.26355	7.4541626	-2.276352
76658365728596	-6.882324	7.459198	-1.7699127
76658374120930	-5.1729584	7.529434	-1.5138855
76658382513264	-4.3054657	7.396637	-1.4155884
76658390905598	-5.810608	6.817444	-1.1078796
76658399297932	-6.703018	5.8054047	-0.26264954
76658407690266	-6.7556915	5.698059	0.93115234
76658416082600	-7.1808777	5.7950134	1.4455719
76658424474934	-7.6221924	6.1539764	1.6422577
76658432867268	-7.9766235	6.686905	1.5196381
76658441259602	-8.360489	7.3568726	0.90864563
76658449651936	-9.159393	8.318176	-0.3494568
76658458044270	-9.449524	8.492645	-0.45115662
76658466436604	-10.521698	8.224121	-0.7754669
76658474828938	-11.179489	8.211945	-1.3592987
76658483221272	-10.923935	8.573715	-1.2520905
76658491613606	-9.637741	9.177933	0.00970459
76658500005940	-7.190506	10.009857	1.1489563
76658508398274	-5.734833	10.295898	0.58758545
76658516790608	-5.121933	9.63121	0.37345886
76658525182942	-4.637726	8.635986	0.5019531
76658533575276	-4.452423	7.6955414	0.9654846
76658541967610	-4.9036407	6.998871	1.4551392
76658550359944	-5.7193146	6.6463623	1.1711731
76658558752278	-5.740158	6.8118286	1.1281433
76658567144612	-5.9542694	6.9051056	0.60679626
76658575536946	-6.230728	6.982834	0.53515625
76658583929280	-6.401535	6.9710236	0.8604126
76658592321614	-6.3538055	6.816223	1.1858673
76658600713948	-6.1989746	6.7357483	1.3141937
76658609106282	-6.2427216	6.835144	1.3141937
76658617498616	-6.2309875	6.92128	1.2943573
76658625890950	-6.2694244	6.9133453	1.2342224
76658634283284	-6.276062	6.899582	1.10849
76658642675618	-6.175308	7.0069427	0.91838074
76658651067952	-6.158371	7.224289	0.7548828
76658659460285	-6.08107	7.495453	0.52253723
76658667852619	-6.480133	7.93367	0.43806458
76658676244953	-6.710907	8.080429	0.25512695
76658684637287	-6.743454	7.9939117	0.13446045
76658693029621	-6.804901	7.945465	0.26049805
76658701421955	-6.7760773	7.8639526	0.17997742
76658709814289	-6.658737	7.825424	0.12084961
76658718206623	-6.5275574	7.7562103	0.23117065
76658726598957	-6.456909	7.6256714	0.40693665
76658734991291	-6.3854675	7.45166	0.59980774
76658743383625	-6.2090607	7.2636566	0.74598694
76658751775959	-5.928894	7.061264	0.65426636
76658760168293	-6.0716248	6.988083	0.9746399
76658768560627	-6.41066	6.852951	1.3842468
76658776952961	-6.695755	6.796463	1.7297821
76658785345295	-6.953171	6.927719	1.8538513
76658793737629	-7.261963	7.2588043	1.6809998
76658802129963	-7.3892975	7.6306	1.290863
76658810522297	-7.385254	7.815674	1.1217194
76658818914631	-7.1805267	7.854477	0.9200134
76658827306965	-6.895859	7.850403	0.8251343
76658835699299	-6.621292	7.7629547	0.7262268
76658844091633	-6.4316864	7.5084686	0.5260925
76658852483967	-6.413788	7.2142487	0.71395874
76658860876301	-6.2421265	6.85672	0.7736206
76658869268635	-6.060028	6.576309	0.8335571
76658877660969	-6.0210114	6.2967224	0.8813324
76658886053303	-5.9866333	6.0220795	0.95521545
76658894445637	-5.7346954	5.8334045	1.0721283
76658902837971	-5.5472565	5.8394012	1.0322571
76658911230305	-5.8317566	5.6163483	0.8875122
76658919622639	-5.9888153	5.6003876	0.9416809
76658928014973	-6.159683	5.7464905	1.0738525
76658936407307	-6.389084	5.9899597	1.1521149
76658944799641	-6.6215057	6.2590027	1.1008606
76658953191975	-6.7488403	6.3995667	0.9623413
76658961584309	-7.0723114	6.3897095	1.1908875
76658969976643	-7.2864227	6.5743256	1.3283844
76658978368977	-7.4661255	6.9409637	1.3309021
76658986761311	-7.6091614	7.4093933	1.2040558
76658995153645	-7.634079	7.876343	0.9906769
76659003545979	-7.439514	8.228775	0.8867798
76659011938313	-7.227783	8.0750885	0.9619293
76659020330647	-7.285553	8.039352	1.339325
76659028722981	-7.177826	8.094162	1.5870972
76659037115315	-6.8655396	8.271545	1.4846802
76659045507649	-6.665756	8.592987	1.1398621
76659053899983	-6.5630646	8.786407	0.7958832
76659062292317	-6.347824	8.8776245	0.65805054
76659070684651	-6.222809	8.961563	0.45224
76659079076985	-6.197693	9.028656	0.16737366
76659087469319	-6.1976166	8.998474	-0.06791687
76659095861653	-6.147537	8.803864	-0.061309814
76659104253987	-6.2415466	8.771851	0.15769958
76659112646321	-6.0271454	8.99054	-0.26339722
76659121038655	-6.1463776	9.027512	-0.44396973
76659129430989	-6.3095703	8.89122	-0.45913696
76659137823323	-6.3568726	8.596649	-0.3911438
76659146215657	-6.325226	8.15419	-0.2484436
76659154607991	-6.367996	7.8200836	-0.05491638
76659163000325	-6.516754	7.7494354	0.12747192
76659171392659	-6.7617035	7.579132	0.5063324
76659179784993	-6.8280945	7.3936615	0.8888397
76659188177327	-6.740341	7.309784	1.0989685
76659196569660	-6.7471313	7.398773	1.0433807
76659204961994	-6.7237854	7.502365	0.83621216
76659213354328	-6.845154	7.4297028	0.57951355
76659221746662	-6.904312	7.7591248	0.4851532
76659230138996	-6.988022	8.187759	0.39120483
76659238531330	-7.155136	8.357346	0.26339722
76659246923664	-7.409195	8.046371	0.21864319
76659255315998	-7.81575	7.670639	0.16000366
76659263708332	-7.778656	7.532608	0.6257477
76659272100666	-7.7512817	7.34848	0.64927673
76659280493000	-7.851227	7.1453247	0.5363159
76659288885334	-8.092148	7.014618	0.38414
76659297277668	-8.387238	7.1054688	-0.11430359
76659305670002	-8.201401	7.864029	-1.5735321
76659314062336	-8.108902	8.286011	-1.8099213
76659322454670	-8.3602295	7.9322357	-1.0119934
76659330847004	-8.516617	7.3588257	-0.26731873
76659339239338	-8.423691	6.976288	0.01473999
76659347631672	-8.30571	6.861618	0.17614746
76659356024006	-8.5338745	6.71698	0.13946533
76659364416340	-8.876801	6.6091156	-0.23500061
76659372808674	-9.159378	6.649887	-0.67349243
76659381201008	-9.353668	6.748123	-0.9428406
76659389593342	-9.431885	6.8196106	-0.8737488
76659397985676	-9.369919	6.831848	-0.4729309
76659406378010	-9.248703	6.819626	-0.28549194
76659414770344	-9.699509	6.757187	-0.48643494
76659423162678	-10.186478	6.5263977	-0.59568787
76659431555012	-10.201569	6.1425934	-0.57218933
76659439947346	-9.594177	5.7067566	-0.41986084
76659448339680	-8.733002	5.3991394	-0.16487122
76659456732014	-7.972412	5.292511	-0.47865295
76659465124348	-7.3827972	5.3402557	-0.50753784
76659473516682	-7.313431	5.487015	-0.6480713
76659481909016	-7.6526794	5.634262	-0.7229309
76659490301350	-8.102753	5.7072144	-0.589447
76659498693684	-8.290207	5.6787415	-0.29336548
76659507086018	-7.9082336	5.7174683	-0.3605957
76659515478352	-7.2165985	5.7371826	-0.39263916
76659523870686	-6.420456	5.802902	-0.33258057
76659532263020	-5.6311646	5.914978	-0.2841797
76659540655354	-4.8852844	6.0263824	-0.25878906
76659549047688	-4.1590424	6.0560455	-0.11450195
76659557440022	-3.6640015	6.0805054	0.045410156
76659565832356	-3.4730682	6.4206085	-0.24205017
76659574224690	-3.652542	6.9219055	-0.6453247
76659582617024	-3.995926	7.3605804	-0.78486633
76659591009358	-4.2285156	7.598282	-0.5826416
76659599401692	-4.128372	7.700699	-0.4738922
76659607794026	-3.6697388	7.7884216	-0.73609924
76659616186360	-3.136917	7.9196167	-1.0987091
76659624578694	-2.6711884	7.992447	-1.325943
76659632971028	-2.2144928	8.040268	-1.3912811
76659641363362	-1.6955566	8.108139	-1.3790131
76659649755696	-1.1108551	8.210648	-1.434906
76659658148030	-1.0772552	8.407242	-1.4267578
76659666540364	-1.5157471	8.5394745	-1.708435
76659674932698	-2.0168304	8.66748	-1.9122314
76659683325032	-2.1888428	8.830597	-1.9107666
76659691717366	-1.9281464	8.994904	-1.8208466
76659700109700	-1.5122681	9.0265045	-2.0033722
76659708502034	-1.0010071	8.95459	-2.054596
76659716894368	-0.6168823	8.882446	-2.0086823
76659725286702	-0.20732117	8.930054	-1.8287964
76659733679035	0.16009521	9.104813	-1.6402283
76659742071369	0.43974304	9.336548	-1.5475616
76659750463703	0.7832489	9.445267	-1.5266418
76659758856037	1.0280151	9.421494	-1.2362671
76659767248371	1.1736603	9.283691	-1.051239
76659775640705	0.8274994	9.184525	-1.2135468
76659784033039	0.042312622	9.159485	-1.6547394
76659792425373	-0.92492676	9.177338	-2.1964874
76659800817707	-1.6063538	9.153854	-2.57872
76659809210041	-2.1666718	9.158844	-2.9386597
76659817602375	-2.3746185	9.151398	-3.1089478
76659825994709	-2.179016	8.95015	-3.042572
76659834387043	-1.6884155	8.587479	-2.7904053
76659842779377	-1.0745087	8.197708	-2.4666138
76659851171711	-0.49302673	7.9581604	-2.2220764
76659859564045	0.07237244	8.003967	-2.1663818
76659867956379	0.48773193	7.98201	-1.8403168
76659876348713	0.61831665	7.9093323	-1.5779572
76659884741047	0.6021576	7.880844	-1.4666138
76659893133381	0.59931946	7.9826202	-1.475769
76659901525715	0.612854	8.244949	-1.543869
76659909918049	0.57618713	8.199356	-1.5339661
76659918310383	0.414917	8.102585	-1.4335632
76659926702717	0.12350464	8.014252	-1.39505
76659935095051	-0.30767822	7.953018	-1.4252472
76659943487385	-0.8293915	7.9313507	-1.4910889
76659951879719	-1.218811	7.983795	-1.6023407
76659960272053	-1.2842102	8.011139	-1.5613403
76659968664387	-1.2992706	7.889679	-1.6591034
76659977056721	-1.4061127	7.7412415	-1.7442322
76659985449055	-1.5664825	7.6576996	-1.7338562
76659993841389	-1.7046967	7.659897	-1.6022339
76660002233723	-1.8500214	7.649811	-1.3741455
76660010626057	-2.141159	7.592972	-1.2006531
76660019018391	-2.471344	7.4957275	-1.0132751
76660027410725	-2.8642273	7.364395	-0.96954346
76660035803059	-3.464096	7.2044525	-0.9973755
76660044195393	-4.2196045	7.0137634	-0.98176575
76660052587727	-4.513489	6.7710114	-0.9627075
76660060980061	-4.670044	6.525757	-0.8962555
76660069372395	-4.718033	6.3055115	-0.97380066
76660077764729	-4.6662903	6.0826263	-1.056427
76660086157063	-4.578247	5.8520203	-1.0291595
76660094549397	-4.5021973	5.62059	-0.870224
76660102941731	-4.384552	5.394272	-0.7336426
76660111334065	-4.2664185	5.385208	-0.66238403
76660119726399	-4.319351	5.5401764	-0.6826782
76660128118733	-4.463196	5.66098	-0.6808319
76660136511067	-4.60672	5.667633	-0.58096313
76660144903401	-4.749283	5.6078644	-0.43159485
76660153295735	-5.0802917	5.6425476	-0.51187134
76660161688069	-5.523178	5.6215973	-0.7558136
76660170080403	-5.9299164	5.8246	-1.0505524
76660178472737	-6.340744	6.135605	-1.3545532
76660186865071	-6.7394104	6.4539795	-1.5483398
76660195257405	-7.107498	6.720169	-1.5257263
76660203649739	-7.5301056	6.860077	-1.3067017
76660212042073	-8.109451	6.9187164	-1.274292
76660220434407	-8.507675	6.8342133	-1.3918762
76660228826741	-8.510437	6.70253	-1.5388947
76660237219075	-8.314148	6.5762024	-1.6368256
76660245611409	-8.226196	6.4816437	-1.646759
76660254003743	-8.1718445	6.457382	-1.5671844
76660262396077	-8.275436	6.4306335	-1.3989105
76660270788410	-8.538559	6.3726044	-1.212677
76660279180744	-8.894577	6.3706055	-1.1031799
76660287573078	-9.311417	6.427841	-1.0462799
76660295965412	-9.791473	6.495285	-0.99160767
76660304357746	-10.324905	6.55661	-1.0548706
76660312750080	-10.221756	7.6136475	-1.679779
76660321142414	-10.003479	9.764038	-2.2188263
76660329534748	-10.706436	9.719971	-1.4987183
76660337927082	-11.349884	8.066162	-0.46040344
76660346319416	-10.682678	7.3675537	-0.5656128
76660354711750	-11.1772	7.0953674	-0.27848816
76660363104084	-11.097656	8.370178	-0.42234802
76660371496418	-10.819122	8.4319	-0.4380951
76660379888752	-10.566864	7.9063873	-0.5686188
76660388281086	-10.293961	7.369156	-0.649704
76660396673420	-9.843445	7.090866	-0.39057922
76660405065754	-9.355377	7.1316223	-0.22955322
76660413458088	-9.066101	7.271652	-0.028778076
76660421850422	-8.742828	7.2724915	0.3107605
76660430242756	-8.454224	7.153244	0.73487854
76660438635090	-8.266159	7.010498	1.0101471
76660447027424	-8.178726	6.9276733	0.92645264
76660455419758	-8.016205	6.7801056	0.8367157
76660463812092	-7.905197	6.4273834	0.666626
76660472204426	-7.8602753	6.0059357	0.53125
76660480596760	-7.8141785	5.6230774	0.3125
76660488989094	-7.7463684	5.333664	0.021255493
76660497381428	-7.6667023	5.134781	-0.2039032
76660505773762	-7.481827	5.005554	-0.20291138
76660514166096	-7.3993683	4.8972015	-0.07572937
76660522558430	-7.393921	4.79126	-0.04107666
76660530950764	-7.4775085	4.747635	-0.08381653
76660539343098	-7.615616	4.7947235	-0.0836792
76660547735432	-7.7612305	4.915024	0.06266785
76660556127766	-7.952652	5.0426483	0.16835022
76660564520100	-8.217926	5.1772614	0.10572815
76660572912434	-8.474075	5.3601074	-0.008300781
76660581304768	-8.624695	5.5482635	-0.21166992
76660589697102	-8.654068	5.703232	-0.39187622
76660598089436	-8.600204	5.8206787	-0.3556366
76660606481770	-8.394821	5.9971466	-0.18814087
76660614874104	-8.26561	6.155838	0.047210693
76660623266438	-8.211304	6.279114	0.32907104
76660631658772	-8.243179	6.3463593	0.512146
76660640051106	-8.35585	6.4163055	0.5700226
76660648443440	-8.531464	6.602936	0.5834198
76660656835774	-8.771027	6.9637604	0.5218048
76660665228108	-8.911728	7.286789	0.66796875
76660673620442	-9.045044	7.370392	0.90252686
76660682012776	-9.034912	7.3741302	1.0305023
76660690405110	-8.867996	7.4081573	1.0298309
76660698797444	-8.653244	7.438507	1.0508728
76660707189778	-8.362122	7.397644	1.1744995
76660715582112	-7.9799347	7.314865	1.1507263
76660723974446	-7.4269257	7.2070007	0.986084
76660732366780	-6.832062	7.1059723	0.8956299
76660740759114	-6.3830566	6.93071	0.924469
76660749151448	-6.208679	6.538971	0.9197998
76660757543782	-6.1488495	6.0823517	0.8629608
76660765936116	-6.224243	5.587204	0.9834442
76660774328450	-6.25856	5.2837677	0.99186707
76660782720784	-6.277893	5.146103	0.89920044
76660791113118	-6.3296204	5.2014008	0.69792175
76660799505452	-6.4263916	5.5151367	0.3499298
76660807897785	-6.4273834	5.77536	0.060806274
76660816290119	-6.4318542	5.857834	-0.08328247
76660824682453	-6.4158783	5.778351	-0.1318512
76660833074787	-6.4232635	5.561157	-0.1486969
76660841467121	-6.420883	5.3023834	-0.11047363
76660849859455	-6.3374786	5.139801	0.08509827
76660858251789	-6.581009	5.195465	0.3137207
76660866644123	-6.9663086	5.195923	0.3454895
76660875036457	-7.3072205	5.28891	0.1914978
76660883428791	-7.6198425	5.4847717	-0.07505798
76660891821125	-7.9100647	5.7982635	-0.34658813
76660900213459	-8.109619	6.2707825	-0.5290375
76660908605793	-8.077713	6.699478	-0.4293213
76660916998127	-8.023956	6.893173	-0.25798035
76660925390461	-7.9067383	6.9585724	-0.10649109
76660933782795	-7.7545166	6.8985596	0.11808777
76660942175129	-7.559967	6.7686005	0.4178009
76660950567463	-7.2687225	6.6993713	0.6376953
76660958959797	-6.9745026	6.742111	0.61383057
76660967352131	-6.6795044	6.99292	0.5119324
76660975744465	-6.246765	7.15123	0.45744324
76660984136799	-5.888687	7.1889954	0.38970947
76660992529133	-5.732788	7.2205505	0.28138733
76661000921467	-5.662964	7.4385834	0.19744873
76661009313801	-6.1195984	7.5382843	-0.102645874
76661017706135	-6.3242493	8.097595	-0.09416199
76661026098469	-6.6313934	8.420959	-0.07623291
76661034490803	-6.9651184	8.457764	-0.06097412
76661042883137	-7.2164	8.452255	-0.028839111
76661051275471	-7.392761	8.642181	-0.009140015
76661059667805	-7.244644	7.952347	0.071380615
76661068060139	-6.844635	7.559204	0.28523254
76661076452473	-6.4537506	7.502136	0.4320984
76661084844807	-6.0777283	7.3305664	0.44770813
76661093237141	-5.680954	6.893997	0.44343567
76661101629475	-5.294754	6.8585815	0.702713
76661110021809	-5.229965	7.2431183	1.0234985
76661118414143	-5.28714	7.6819	1.1914368
76661126806477	-5.558136	7.9057465	1.0889282
76661135198811	-5.910507	8.266129	0.6857147
76661143591145	-6.2053375	8.957687	0.19429016
76661151983479	-6.411804	9.482254	0.22964478
76661160375813	-6.788391	8.460556	-0.061706543
76661168768147	-6.191742	8.267532	0.265625
76661177160481	-5.753067	8.408997	0.5487366
76661185552815	-5.403595	8.576523	0.43540955
76661193945149	-4.947235	8.563065	-0.027740479
76661202337483	-4.731247	8.362976	-0.25726318
76661210729817	-4.902725	8.365952	0.12159729
76661219122151	-5.0679626	7.8422546	0.3305664
76661227514485	-5.160324	7.362625	0.3350525
76661235906819	-5.1842346	7.406021	0.34259033
76661244299153	-5.0717163	8.004517	0.56340027
76661252691487	-4.614319	8.572327	0.99942017
76661261083821	-5.0236053	8.420715	0.98158264
76661269476155	-5.827881	8.176788	0.87960815
76661277868489	-6.716049	8.072784	0.7241974
76661286260823	-7.252014	7.912735	0.5111084
76661294653157	-7.370819	7.632599	0.30584717
76661303045491	-7.683792	7.7820587	0.3449707
76661311437825	-7.2079163	8.563065	0.7449951
76661319830159	-6.406143	8.845459	1.2361145
76661328222493	-5.6659546	8.964218	1.5696716
76661336614827	-5.108856	8.774078	1.732727
76661345007160	-4.7682343	8.20871	1.7430115
76661353399494	-4.7238464	7.8370514	1.4443359
76661361791828	-4.561325	7.878937	1.3426361
76661370184162	-4.3705444	8.097427	1.380249
76661378576496	-3.4866333	8.251312	1.7587738
76661386968830	-2.5382538	8.288406	1.7887115
76661395361164	-2.376648	8.188705	0.85269165
76661403753498	-2.729004	7.831909	-0.37773132
76661412145832	-3.5705566	7.3056793	-1.1656036
76661420538166	-3.0455475	7.1434326	-0.8381653
76661428930500	-1.2957001	7.397995	-1.4220886
76661437322834	-1.7059479	7.917206	-1.8729706
76661445715168	-5.047638	8.36232	-1.1088257
76661454107502	-4.22023	8.301971	-1.2314758
76661462499836	-3.2037964	8.550735	-1.1693878
76661470892170	-3.0442352	8.842117	-1.1643982
76661479284504	-3.282959	9.154373	-1.3828125
76661487676838	-3.719284	9.522171	-1.6466217
76661496069172	-4.1535645	9.907944	-1.7398224
76661504461506	-4.0839844	10.048096	-1.7616882
76661512853840	-4.0549164	10.02179	-1.8104401
76661521246174	-4.4071198	9.799545	-1.5639343
76661529638508	-4.916977	9.533646	-1.5666962
76661538030842	-4.600647	9.260895	-1.9855042
76661546423176	-3.1596527	8.974564	-2.6075287
76661554815510	-3.585312	8.716492	-2.530426
76661563207844	-2.848938	8.39769	-2.1315308
76661571600178	-2.8265533	8.390503	-1.7124939
76661579992512	-3.1535187	8.502853	-1.268219
76661588384846	-3.4831085	8.600311	-0.85905457
76661596777180	-3.6744843	8.656052	-0.6885071
76661605169514	-4.0094604	8.789246	-1.1626587
76661613561848	-4.192337	8.816193	-1.611145
76661621954182	-4.4084473	8.82608	-1.7111206
76661630346516	-4.406845	8.821564	-1.585022
76661638738850	-4.1411896	8.786865	-1.3479462
76661647131184	-3.7447662	8.690582	-1.0743408
76661655523518	-3.4333038	8.499237	-0.7941437
76661663915852	-3.229599	8.315964	-0.70111084
76661672308186	-3.106842	8.161102	-0.86268616
76661680700520	-2.8138428	7.8783875	-0.6872406
76661689092854	-3.0350952	7.355438	-0.35353088
76661697485188	-4.1956787	6.795044	-0.45162964
76661705877522	-3.8391724	7.489746	-1.4783936
76661714269856	-3.284027	7.6424866	-1.2140198
76661722662190	-2.5930023	7.8569336	-1.044281
76661731054524	-2.1403198	8.117813	-0.8987274
76661739446858	-1.9674377	8.382172	-0.96533203
76661747839192	-1.8991394	8.671219	-1.4516449
76661756231526	-1.8851776	9.241501	-1.9222412
76661764623860	-2.012207	9.979752	-2.32576
76661773016194	-2.7417908	10.034775	-2.4300995
76661781408528	-2.6500092	9.920364	-2.7684784
76661789800862	-2.2788544	10.016876	-3.12677
76661798193196	-2.890274	10.257263	-2.85289
76661806585530	-2.8863525	9.901886	-1.8365631
76661814977864	-2.760376	9.3311615	-0.9134369
76661823370198	-2.7237396	8.646179	-1.1103668
76661831762532	-2.7146454	8.012939	-1.4576721
76661840154866	-2.7026978	7.406891	-1.4928894
76661848547200	-2.7353668	6.673752	-1.306366
76661856939534	-3.0643768	5.7065735	-1.4832916
76661865331868	-2.4705658	4.868805	-1.3976288
76661873724202	-1.3997345	4.8696136	-1.7567902
76661882116535	-0.27201843	5.1607056	-1.9727478
76661890508869	0.011932373	5.592499	-1.3748779
76661898901203	-1.3308411	6.402054	0.21588135
76661907293537	-2.8699799	8.144913	0.81585693
76661915685871	-3.7791443	9.886749	1.7075043
76661924078205	-5.1063995	10.901291	1.6303406
76661932470539	-5.7261963	11.4579315	0.9284973
76661940862873	-5.4503784	11.603668	-0.20631409
76661949255207	-4.9205475	11.269638	-1.7100983
76661957647541	-4.198715	10.819	-3.3451843
76661966039875	-3.039322	10.273514	-3.991516
76661974432209	-2.4708557	9.614868	-3.0695953
76661982824543	-1.9064636	9.110168	-1.965744
76661991216877	-1.1628723	8.694778	-1.3175964
76661999609211	-0.39434814	8.127121	-0.87971497
76662008001545	0.8035736	7.7444153	-0.15725708
76662016393879	1.6769409	7.4222717	-0.15211487
76662024786213	1.7073059	7.257431	-0.27441406
76662033178547	1.2193298	7.3190002	-0.35598755
76662041570881	0.51664734	7.5293884	-0.36824036
76662049963215	-0.252594	7.711334	-0.3932953
76662058355549	-0.8405609	7.8636475	-0.6562958
76662066747883	-1.2041321	8.338837	-1.3789673
76662075140217	-1.7242584	9.119431	-1.8685455
76662083532551	-2.2720642	9.928833	-1.8808899
76662091924885	-2.5769043	10.558762	-1.305481
76662100317219	-2.285614	10.866623	-0.26226807
76662108709553	-1.2508698	10.728455	0.0021209717
76662117101887	-1.109375	10.462418	-0.31427002
76662125494221	-1.0148621	10.117249	-0.59954834
76662133886555	-0.83499146	9.762299	-0.7785492
76662142278889	-0.39945984	9.484772	-0.8786926
76662150671223	0.37010193	9.320877	-0.9810333
76662159063557	0.7677002	9.040573	-1.0883789
76662167455891	0.9507904	8.671387	-1.18927
76662175848225	1.1119537	8.6289215	-1.3463898
76662184240559	1.2866516	8.873138	-1.3690186
76662192632893	1.2718964	9.308975	-1.2705078
76662201025227	0.6829529	9.985855	-1.3201752
76662209417561	-0.31385803	11.591858	-1.5232391
76662217809895	-0.35125732	11.595657	-1.1601105
76662226202229	-1.0738983	12.794739	-1.0275879
76662234594563	-1.1297913	13.443115	-0.83203125
76662242986897	0.2517395	12.048599	-0.3769226
76662251379231	2.061966	9.317474	0.015396118
76662259771565	2.8230438	9.210434	-0.48506165
76662268163899	2.6749878	9.827026	-0.65467834
76662276556233	2.618042	10.040085	-0.7813568
76662284948567	2.7348328	9.666946	-0.5371704
76662293340901	3.102356	9.219498	-0.44592285
76662301733235	3.806961	9.6749115	-1.7521362
76662310125569	3.652893	9.591415	-1.2382355
76662318517903	3.2145233	9.9986725	-1.272995
76662326910237	3.14859	9.802826	-1.1107941
76662335302571	3.268341	9.655151	-0.9215088
76662343694905	3.3530579	9.876343	-0.89556885
76662352087239	3.3516388	9.812485	-0.9309082
76662360479573	2.589447	9.750183	-0.8384247
76662368871907	2.7466888	8.945541	-0.4472046
76662377264241	2.9490814	8.750916	-0.27809143
76662385656575	3.1536407	8.923279	-0.39035034
76662394048909	3.3349762	9.085648	-0.6539612
76662402441243	3.2424011	9.131592	-0.7829132
76662410833577	3.2533417	9.01828	-0.677536
76662419225910	3.0977783	9.033356	-0.59210205
76662427618244	3.1179657	9.146683	-0.5353699
76662436010578	3.224594	9.282928	-0.48109436
76662444402912	3.2780304	9.440109	-0.4375763
76662452795246	3.2697906	9.732574	-0.46784973
76662461187580	3.15979	9.937317	-0.3629303
76662469579914	2.9613342	9.921051	-0.31427002
76662477972248	2.8416595	9.711044	-0.2775421
76662486364582	2.9406433	9.489716	-0.2587433
76662494756916	3.019928	9.254593	-0.27757263
76662503149250	2.3423615	8.636124	-0.37387085
76662511541584	1.8927155	8.047882	-0.82551575
76662519933918	0.96440125	7.7029266	-1.2810364
76662528326252	1.4856415	7.368042	-1.3072205
76662536718586	2.350113	7.600891	-0.87953186
76662545110920	2.364212	8.4206085	-0.32858276
76662553503254	2.1403503	8.544601	-0.2695465
76662561895588	2.4528198	8.777252	-0.2870636
76662570287922	2.6207428	8.992401	-0.41963196
76662578680256	2.6091766	9.384171	-0.9020233
76662587072590	2.530243	9.696762	-1.3220062
76662595464924	2.4618378	9.649979	-1.277771
76662603857258	2.3134766	9.246124	-0.8504791
76662612249592	1.8520355	8.999619	-0.6080475
76662620641926	1.687912	8.811615	-0.5923157
76662629034260	1.6569061	8.759262	-0.62020874
76662637426594	1.7037811	8.835602	-0.6511841
76662645818928	1.8280334	8.970886	-0.67259216
76662654211262	2.083435	9.060883	-0.6484833
76662662603596	2.271881	9.14064	-0.63153076
76662670995930	2.4150543	9.303497	-0.69877625
76662679388264	2.597992	9.371414	-0.74557495
76662687780598	2.730835	9.376907	-0.63594055
76662696172932	2.7555084	9.343811	-0.42707825
76662704565266	2.8048096	9.143768	-0.5375824
76662712957600	2.503128	9.255066	-0.7758026
76662721349934	2.3084717	9.18158	-0.7897339
76662729742268	2.1953125	9.095306	-0.7331085
76662738134602	2.120575	9.089249	-0.64715576
76662746526936	2.069748	9.115097	-0.53564453
76662754919270	2.0977936	8.905304	-0.43873596
76662763311604	1.9907227	8.97052	-0.258667
76662771703938	2.1802673	9.154785	0.3788147
76662780096272	2.2783356	8.960602	-0.3166809
76662788488606	2.3275452	8.719376	-1.1334686
76662796880940	2.4685516	8.820129	-0.6878357
76662805273274	2.5592804	8.81514	-0.70877075
76662813665608	2.5024872	9.052002	-0.21899414
76662822057942	2.5119934	9.128647	0.0887146
76662830450276	2.4805145	9.059433	0.21105957
76662838842610	2.3574982	8.919449	0.2084198
76662847234944	2.156784	8.772491	0.1555481
76662855627278	2.0059204	8.605911	0.11994934
76662864019612	1.8886261	8.621826	0.098083496
76662872411946	1.9783936	8.665741	0.20074463
76662880804280	1.9247131	8.542404	0.08306885
76662889196614	1.8856354	8.538361	0.05970764
76662897588948	2.0428162	8.991501	0.3453827
76662905981282	1.9270477	9.686096	-0.042526245
76662914373616	2.3400116	9.914551	0.12734985
76662922765950	2.6549225	10.260223	0.5266571
76662931158284	2.6738586	10.441467	0.75323486
76662939550618	2.5619507	10.347427	0.73109436
76662947942952	2.4942474	9.992752	0.58036804
76662956335285	2.223053	9.530151	0.5205536
76662964727619	1.7786407	9.260223	0.20996094
76662973119953	1.3364563	9.162186	0.039382935
76662981512287	0.99990845	9.180191	0.08660889
76662989904621	0.79315186	9.285324	0.23805237
76662998296955	0.673172	9.444626	0.33676147
76663006689289	0.60072327	9.582474	0.39311218
76663015081623	0.4906006	9.705948	0.35150146
76663023473957	0.46697998	9.8281555	0.25985718
76663031866291	0.59942627	9.937775	0.15748596
76663040258625	0.8757782	9.978561	0.056900024
76663048650959	1.2002716	9.889633	-0.05407715
76663057043293	1.4003143	9.671326	-0.22366333
76663065435627	1.4685669	9.473373	-0.41841125
76663073827961	1.5277863	9.304092	-0.59176636
76663082220295	1.5460815	9.1419525	-0.77796936
76663090612629	1.5060577	9.028366	-0.9220886
76663099004963	1.4351196	9.022537	-0.9640808
76663107397297	1.4573975	9.111618	-1.0288696
76663115789631	1.4998779	9.159836	-0.9680023
76663124181965	1.4741669	9.242386	-0.9479828
76663132574299	1.4499207	9.280121	-0.9374542
76663140966633	1.462265	9.282425	-0.935791
76663149358967	1.5093994	9.296341	-0.96102905
76663157751301	1.5581055	9.29834	-0.99980164
76663166143635	1.5887604	9.317642	-1.0058746
76663174535969	1.6345825	9.277435	-0.9394226
76663182928303	1.6654053	9.212784	-0.8786316
76663191320637	1.6091766	9.121521	-0.8533478
76663199712971	1.4052734	8.989349	-0.8529358
76663208105305	1.1258545	8.859772	-0.8559723
76663216497639	0.8619995	8.870865	-0.88479614
76663224889973	0.62815857	8.914246	-0.8993988
76663233282307	0.40213013	8.997498	-0.89060974
76663241674641	0.2016449	9.130325	-0.82814026
76663250066975	0.07020569	9.296997	-0.69577026
76663258459309	0.042785645	9.395493	-0.5952301
76663266851643	-0.020080566	9.533554	-0.48880005
76663275243977	-0.006225586	9.563965	-0.39105225
76663283636311	0.006088257	9.575577	-0.30015564
76663292028645	-0.025375366	9.570419	-0.22232056
76663300420979	-0.07168579	9.501999	-0.162323
76663308813313	0.022018433	9.513199	-0.08389282
76663317205647	0.058425903	9.407974	-0.024398804
76663325597981	0.22923279	9.310516	-0.04283142
76663333990315	0.38542175	9.269241	-0.060806274
76663342382649	0.48320007	9.28331	-0.029907227
76663350774983	0.6069946	9.321625	0.046340942
76663359167317	0.8263397	9.410355	0.13406372
76663367559651	0.82688904	9.367889	0.22817993
76663375951985	0.91999817	9.356369	0.3808899
76663384344319	0.97436523	9.323471	0.49067688
76663392736653	0.9346161	9.234253	0.52246094
76663401128987	0.85388184	9.099457	0.5216217
76663409521321	0.77734375	8.986145	0.5713196
76663417913655	0.5499115	8.881073	0.5945282
76663426305989	0.44889832	8.948502	0.6221161
76663434698323	0.23945618	9.020554	0.6300049
76663443090657	-0.0970459	9.041214	0.60672
76663451482991	-0.37052917	9.087021	0.58018494
76663459875325	-0.6756134	9.226593	0.67588806
76663468267659	-0.67230225	9.483795	0.8180237
76663476659993	-0.5324402	9.851715	0.95970154
76663485052327	-0.16012573	10.347534	0.9288025
76663493444660	0.4497223	11.018082	0.6497345
76663501836994	1.14534	11.899658	0.19992065
76663510229328	1.3846283	12.669342	-0.060287476
76663518621662	1.1902618	12.725388	-0.09928894
76663527013996	1.3000641	12.288467	-0.08554077
76663535406330	1.5988007	11.682159	-0.059127808
76663543798664	1.9174042	11.142853	-0.036026
76663552190998	2.1836243	10.739822	-0.033065796
76663560583332	2.2782135	10.382248	-0.1355133
76663568975666	2.5498657	10.035645	-0.422287
76663577368000	2.5627747	9.732651	-0.6647339
76663585760334	2.557602	9.43721	-0.84114075
76663594152668	2.7078552	9.201324	-1.0364227
76663602545002	2.9496613	9.193405	-1.3848877
76663610937336	3.074295	9.588226	-1.8624573
76663619329670	3.119812	10.32634	-2.2977295
76663627722004	3.2422485	11.198654	-2.6393127
76663636114338	3.385376	11.971985	-2.914688
76663644506672	3.530899	12.433441	-3.072998
76663652899006	3.6875	12.455917	-2.9700623
76663661291340	3.32193	12.228439	-2.654251
76663669683674	2.5722198	11.840958	-1.9322205
76663678076008	1.7282715	11.119751	-0.9086151
76663686468342	1.3095856	10.010162	-0.20794678
76663694860676	1.3028717	9.082764	-0.09312439
76663703253010	1.1853485	9.258987	-0.28286743
76663711645344	2.3383942	8.692535	-0.9388733
76663720037678	2.2442627	8.245163	-1.1267853
76663728430012	2.1592407	8.060226	-1.1934967
76663736822346	2.2374878	8.074188	-1.2013855
76663745214680	2.358612	8.2265625	-1.1603699
76663753607014	2.3715057	8.515167	-1.0914307
76663761999348	2.3974304	9.022644	-1.1382751
76663770391682	2.4441986	9.420166	-1.2055054
76663778784016	2.3032684	9.522339	-1.3533936
76663787176350	2.0767975	9.391693	-1.4678802
76663795568684	1.7788849	9.05217	-1.5066223
76663803961018	1.3057556	8.47731	-1.5418854
76663812353352	1.0811157	7.7944183	-1.454422
76663820745686	0.9366455	7.185379	-1.5780792
76663829138020	0.8109894	6.6270905	-1.8596649
76663837530354	0.7058716	6.152649	-2.0612335
76663845922688	0.6029053	5.7702484	-2.100586
76663854315022	0.43652344	5.4487915	-2.1506042
76663862707356	0.13343811	5.258362	-2.1286774
76663871099690	0.023086548	5.241699	-2.1424713
76663879492024	-0.11817932	5.366913	-2.1799011
76663887884358	-0.20059204	5.6139526	-2.1997986
76663896276692	-0.14367676	5.923477	-2.189087
76663904669026	-0.020309448	6.2052917	-2.197815
76663913061360	-0.10626221	6.6667023	-2.4438477
76663921453694	0.10469055	6.706955	-2.4892426
76663929846028	0.17189026	6.735901	-2.4876404
76663938238362	0.14489746	6.766876	-2.5891876
76663946630696	0.17506409	6.7512817	-2.9036865
76663955023030	0.36360168	6.704483	-3.4454498
76663963415364	0.47973633	6.4813995	-3.6175842
76663971807698	0.025299072	6.726013	-3.53096
76663980200032	-0.28964233	7.234726	-3.658722
76663988592366	-0.5939789	7.9140625	-3.986084
76663996984700	-1.1390076	8.767441	-4.297531
76664005377034	-2.0292969	9.887314	-4.2357483
76664013769368	-2.0568848	11.044983	-4.131531
76664022161702	-1.911499	12.3506775	-3.9810333
76664030554035	-1.6336365	13.506683	-3.7421875
76664038946369	-1.1868439	14.095947	-3.4425964
76664047338703	-0.69566345	13.900085	-3.211914
76664055731037	-0.49009705	12.895416	-3.2801971
76664064123371	-0.721405	11.340103	-3.8345337
76664072515705	-1.125946	9.690186	-4.3767242
76664080908039	-1.5303802	8.13913	-4.73999
76664089300373	-1.8500061	6.8413544	-4.9617615
76664097692707	-2.117569	5.899292	-5.0791016
76664106085041	-2.4966278	5.37796	-5.006378
76664114477375	-2.5644226	5.7129517	-5.1449585
76664122869709	-2.572052	6.89476	-4.5990753
76664131262043	-2.519577	9.069748	-3.7250214
76664139654377	-2.1219788	12.116409	-2.4117584
76664148046711	-0.93914795	15.81044	-0.40942383
76664156439045	1.644455	19.542114	2.4019775
76664164831379	6.2965393	20.174774	4.7861023
76664173223713	9.438019	17.244644	3.6359863
76664181616047	9.302658	13.477768	0.81370544
76664190008381	6.8889008	10.370529	-1.9803162
76664198400715	4.058716	8.154602	-3.611679
76664206793049	2.0638428	5.6385193	-3.9064026
76664215185383	-0.046554565	3.9855652	-2.9648132
76664223577717	-1.5194092	3.2243347	-1.664093
76664231970051	-2.0735168	3.1779938	-0.37753296
76664240362385	-1.865097	3.57753	0.6512604
76664248754719	-1.2313995	4.135315	1.4063263
76664257147053	-0.5252228	4.55777	2.1708527
76664265539387	0.16825867	5.0591583	2.2821655
76664273931721	1.0062866	6.131531	2.0330048
76664282324055	1.8542328	7.7750854	1.6169281
76664290716389	2.7924194	9.824371	1.1863861
76664299108723	3.8162842	11.937805	0.86979675
76664307501057	4.5570984	13.378128	0.83296204
76664315893391	3.6605072	13.35228	1.0844421
76664324285725	2.227066	12.410812	0.7142639
76664332678059	0.7752533	10.992386	0.014251709
76664341070393	-0.31782532	9.559677	-0.653244
76664349462727	-0.8729248	8.423782	-0.9700775
76664357855061	-0.9651489	7.7165985	-0.6452179
76664366247395	-0.7669678	7.43248	-0.13754272
76664374639729	-0.63160706	7.2606354	0.29910278
76664383032063	-0.4837494	7.081787	0.6172638
76664391424397	-0.14585876	6.851715	0.8439789
76664399816731	0.5484009	6.639572	1.0745697
76664408209065	1.6411438	6.6814575	1.4713898
76664416601399	2.88826	7.0909576	2.0711517
76664424993733	3.7560577	7.613785	2.2941284
76664433386067	4.0658264	8.120163	2.2704163
76664441778401	3.9784546	8.606842	1.8897858
76664450170735	3.6608887	9.111481	1.0545349
76664458563069	2.8042908	9.632172	-0.087631226
76664466955403	1.6993256	9.906937	-0.88623047
76664475347737	0.80514526	9.960846	-0.9587555
76664483740071	0.18287659	9.89476	-0.4081726
76664492132405	-0.015670776	9.726944	0.4313202
76664500524739	0.2233429	9.560013	1.086731
76664508917073	0.51815796	9.790421	1.1269836
76664517309407	1.0571747	10.2017975	1.1654663
76664525701741	1.1116486	10.444153	1.1698303
76664534094075	0.70477295	10.486832	1.1208191
76664542486409	0.058441162	10.364868	1.1455383
76664550878743	-0.4494171	10.11113	1.2965088
76664559271077	-0.24502563	9.706345	1.2785797
76664567663410	-0.3332672	9.755966	0.96698
76664576055744	-0.40011597	9.829605	1.0883331
76664584448078	-0.83154297	9.960922	1.572586
76664592840412	-1.4594421	10.102936	2.0401611
76664601232746	-1.8423157	10.200073	2.1136475
76664609625080	-1.5444946	10.279556	1.7242584
76664618017414	-0.5536957	10.615784	1.3776093
76664626409748	0.4953003	10.866867	1.1622314
76664634802082	1.2478333	10.880051	0.9206085
76664643194416	1.6287231	10.802841	0.67926025
76664651586750	1.6837463	10.891327	0.631897
76664659979084	1.3728333	11.318954	1.1782379
76664668371418	1.1747589	11.84787	2.5233612
76664676763752	1.2575378	11.978073	3.5561981
76664685156086	1.4941406	11.66507	3.806961
76664693548420	1.7284698	11.025787	3.3724823
76664701940754	1.8423462	10.260834	2.6734924
76664710333088	1.850296	9.578949	2.1874237
76664718725422	1.8815918	9.580597	1.46315
76664727117756	2.658661	10.410675	0.024490356
76664735510090	3.872635	11.711746	-1.1548767
76664743902424	5.235321	13.005615	-1.461731
76664752294758	6.4792175	13.900131	-0.8667755
76664760687092	7.2734222	14.333511	-0.17393494
76664769079426	7.5972443	14.500687	0.2977295
76664777471760	7.8260803	14.11911	0.7937622
76664785864094	7.8882294	13.161163	0.9559021
76664794256428	7.557419	12.215256	0.7089844
76664802648762	6.698227	11.865616	0.21000671
76664811041096	5.696228	11.949356	-0.26158142
76664819433430	4.4223022	11.769836	-0.39274597
76664827825764	3.2735748	11.30246	-0.6585846
76664836218098	2.2098846	10.562119	-0.9050598
76664844610432	1.1264191	9.623535	-1.0565948
76664853002766	-0.03012085	8.615082	-1.1518402
76664861395100	-1.0610199	7.7088013	-1.3701782
76664869787434	-1.7808228	7.0352173	-1.6038513
76664878179768	-2.1788177	6.35849	-1.6116028
76664886572102	-2.0828857	5.81102	-1.3535156
76664894964436	-1.5982361	5.4786835	-1.0467987
76664903356770	-1.0025177	5.36174	-0.94337463
76664911749104	-0.62464905	5.3507843	-0.98124695
76664920141438	-0.24073792	5.231598	-1.0234222
76664928533772	0.2505951	5.0291443	-1.0559235
76664936926106	0.6367645	4.8516693	-1.0504303
76664945318440	0.9404144	4.6913147	-1.0548248
76664953710774	1.2980652	4.4945984	-1.1342621
76664962103108	1.5972595	4.36438	-1.2346649
76664970495442	1.7662811	4.3563385	-1.4286499
76664978887776	1.885437	4.407364	-1.625824
76664987280110	2.0602722	4.433197	-1.8075562
76664995672444	2.1673126	4.429077	-1.9947205
76665004064778	2.0429688	4.428406	-2.1965485
76665012457112	1.9662018	4.381546	-2.2842865
76665020849446	1.8584442	4.2595673	-2.3626251
76665029241780	1.7302856	4.1750946	-2.3937988
76665037634114	1.6239166	4.1759796	-2.4394379
76665046026448	1.5326691	4.2853546	-2.549652
76665054418782	1.4249573	4.5234528	-2.7460632
76665062811116	1.3212585	4.9761047	-3.0102692
76665071203450	1.1877594	5.7073364	-3.1403198
76665079595784	1.0221405	6.51886	-3.1891785
76665087988118	0.8696594	7.2734985	-3.179062
76665096380452	0.7103729	7.8907166	-3.1488495
76665104772785	0.4946289	8.364807	-3.1526184
76665113165119	0.269989	8.797211	-3.2639465
76665121557453	0.13323975	9.137054	-3.347519
76665129949787	-0.08934021	9.367813	-3.6039429
76665138342121	-0.24617004	9.479279	-4.012726
76665146734455	-0.25759888	9.45079	-4.5283813
76665155126789	-0.14727783	9.271774	-5.0915527
76665163519123	0.019210815	9.007568	-5.5671234
76665171911457	0.13874817	8.808746	-5.9745483
76665180303791	0.32148743	8.664383	-6.242157
76665188696125	0.4504242	8.606628	-6.224472
76665197088459	0.54208374	8.601059	-5.932144
76665205480793	0.69340515	8.562103	-5.5148163
76665213873127	0.73327637	8.423508	-5.1439514
76665222265461	0.6489105	8.295883	-5.1640778
76665230657795	0.5760498	8.045715	-5.2813263
76665239050129	0.4895935	7.6374664	-5.3976746
76665247442463	0.31314087	7.0690002	-5.4374847
76665255834797	-0.029541016	6.3709106	-5.3530273
76665264227131	-0.51109314	5.6391144	-5.190506
76665272619465	-0.8588867	4.959152	-4.9415436
76665281011799	-1.1393127	4.4202576	-4.574356
76665289404133	-1.4671783	4.027298	-4.149521
76665297796467	-1.7717133	3.721283	-3.6979675
76665306188801	-1.8573456	3.4095154	-3.2147064
76665314581135	-1.8036652	3.067566	-2.7256622
76665322973469	-1.6505432	2.597412	-2.1720734
76665331365803	-1.407547	2.0948792	-1.3501129
76665339758137	-1.0182495	1.6876831	-0.2806549
76665348150471	-0.29206848	1.5540314	1.0779572
76665356542805	1.0387115	1.8760834	2.652954
76665364935139	3.1164703	2.7185516	2.9450836
76665373327473	4.832443	5.0215607	1.0280457
76665381719807	5.0388947	13.161667	-4.2647095
76665390112141	5.9898987	24.436676	-6.1763763
76665398504475	10.863724	33.548157	-1.3237915
76665406896809	20.966034	34.402115	7.1335754
76665415289143	23.50241	21.815948	5.9062653
76665423681477	8.079681	15.015671	3.9522552
76665432073811	-2.6900177	11.670471	3.20813
76665440436740	-7.703247	10.559311	2.799881
76665448829074	-9.6107025	11.938858	1.5358887
76665457221408	-10.657227	16.939087	-1.1295624
76665465613742	-9.845657	22.550323	-3.1116486
76665474006076	-4.8883514	21.649063	-2.7611237
76665482398410	-1.4429016	18.220047	-1.562439
76665490790744	-0.14509583	14.585709	-0.27542114
76665499183078	0.21879578	11.911331	0.5124817
76665507575412	1.5236359	10.230957	0.4911499
76665515967746	3.3810577	9.993668	0.37747192
76665524360080	5.0156097	10.320221	-0.35638428
76665532752414	5.7006683	11.148361	-1.0185852
76665541144748	5.305725	12.46315	-1.336853
76665549537082	4.0841064	13.791809	-0.91345215
76665557929416	2.6184082	14.242905	0.65060425
76665566321750	2.137848	13.311707	2.0164948
76665574714084	2.869156	11.712082	1.6547089
76665583106418	3.2791748	10.130554	0.6397095
76665591498752	3.0855255	8.6514435	-0.23146057
76665599891086	2.3250122	7.261627	-0.45318604
76665608283420	1.3075714	5.9499817	-0.07426453
76665616675754	0.6216278	4.715683	0.4501648
76665625068088	0.48716736	3.8931885	0.47058105
76665633460422	0.5886688	3.588028	-0.22409058
76665641852755	0.9144287	3.7441406	-1.2837372
76665650245089	1.269928	4.239975	-2.1196594
76665658637423	1.2199402	4.932251	-2.0893097
76665667029757	0.6307068	5.548401	-0.6825409
76665675422091	-0.47357178	5.67572	1.0479584
76665683814425	-1.2265778	5.3121796	2.0499115
76665692206759	-1.4770203	4.9916534	2.2025757
76665700599093	-1.421814	5.270569	1.7054596
76665708991427	-1.4238892	6.532791	0.8531647
76665717383761	-1.164444	7.8558197	0.4992981
76665725776095	-1.0890656	8.99324	0.35331726
76665734168429	-1.0729065	9.644562	0.5342407
76665742560763	-1.1820374	9.635696	0.81259155
76665750953097	-1.3331909	8.94632	0.84339905
76665759345431	-1.1806335	7.832657	0.29226685
76665767737765	-1.1477356	6.885483	-0.43556213
76665776130099	-1.6007843	6.8742676	-0.38174438
76665784522433	-2.3696594	7.52652	1.3245087
76665792914767	-2.736145	9.181717	2.6755524
76665801307101	-2.0674896	11.976059	2.3967743
76665809699435	-0.25390625	15.2934265	1.7145844
76665818091769	2.0988464	16.087738	2.5527039
76665826484103	2.9130554	16.5363	3.2525787
76665834876437	3.222168	15.877869	2.8182983
76665843268771	3.7406769	14.708649	1.6159973
76665851661105	4.7738495	14.005707	0.5146179
76665860053439	6.171997	14.267914	0.0078125
76665868445773	7.034683	15.575165	-0.34469604
76665876838107	7.5320587	17.248169	-0.34606934
76665885230441	7.8941803	18.353668	-0.4371643
76665893622775	8.175934	18.728455	-0.75575256
76665902015109	8.326477	18.596878	-1.0668335
76665910407443	8.225433	18.32866	-0.7200165
76665918799777	8.08783	17.423386	-0.18962097
76665927192111	8.405655	15.905045	0.48724365
76665935584445	8.5720825	14.095963	1.3616638
76665943976779	7.845093	12.574005	1.9663086
76665952369113	5.802124	11.750641	1.8730774
76665960761447	2.8783264	11.47464	1.1172943
76665969153781	0.5792389	10.850525	0.2548828
76665977546115	-0.9400635	9.592834	0.10575867
76665985938449	-1.5617676	7.9733276	0.26283264
76665994330783	-1.4605713	6.3635406	0.4919281
76666002723117	-0.9931183	5.0927887	0.6024933
76666011115451	-0.32711792	4.2294617	0.4794922
76666019507785	0.038757324	3.7014923	0.4105835
76666027900119	0.43045044	3.2467804	0.49308777
76666036292453	0.9046936	3.0775604	0.5153656
76666044684787	1.4558258	3.102127	0.43501282
76666053077121	2.0312347	3.109024	0.2259674
76666061469455	2.5428772	2.898819	-0.23309326
76666069861789	2.986557	2.5020142	-0.8442688
76666078254123	3.1680603	2.2053986	-1.3994293
76666086646457	3.19841	2.023056	-2.084076
76666095038791	2.9506378	1.9013214	-2.8114624
76666103431125	2.3677063	1.7261353	-3.4384155
76666111823459	1.69104	1.338913	-3.9337158
76666120215793	0.76361084	0.8568115	-4.213043
76666128608127	-0.2514801	0.47602844	-4.1588287
76666137000461	-1.1011505	0.25598145	-3.8568268
76666145392795	-1.4919891	0.17440796	-3.5024567
76666153785129	-1.3161469	0.20646667	-3.2465515
76666162177463	-0.97602844	0.43777466	-2.9239044
76666170569797	-1.134552	1.4108582	-2.712555
76666178962130	-1.0835419	3.6772766	-3.1935883
76666187354464	-1.7095642	7.6974792	-3.8354187
76666195746798	-2.2037811	13.095428	-4.941818
76666204139132	-1.057251	19.479813	-6.7107086
76666212531466	2.6257477	27.932571	-8.304947
76666220923800	0.23220825	29.690933	-8.115082
76666229316134	-1.2246552	22.693573	-6.34317
76666237708468	-0.29559326	14.837936	-4.9176636
76666246100802	0.9690857	9.225098	-4.909836
76666254493136	0.497818	5.82872	-6.2046204
76666262885470	-0.1499939	3.5756989	-7.078232
76666271277804	0.11959839	2.5507965	-6.9740753
76666279670138	0.37849426	2.8644257	-5.8791046
76666288062472	0.3327484	4.301651	-4.3743896
76666296454806	-0.058425903	8.035645	-3.2892761
76666304847140	-0.65423584	15.710175	-3.0542145
76666313239474	-1.0484467	27.755325	-2.3982391
76666321631808	6.8497925	32.277573	3.7434235
76666330024142	16.270325	26.470825	6.9464417
76666338416476	16.635498	16.777283	5.5271454
76666346808810	9.015045	7.961624	0.75050354
76666355201144	1.8096466	2.7975006	-3.675415
76666363593478	-1.4546814	-0.44395447	-4.262863
76666371985812	-3.929779	-1.2339478	-2.7985382
76666380378146	-6.4470215	-1.0340729	-0.5829773
76666388770480	-7.553604	0.21939087	1.4247284
76666397162814	-6.6241302	2.1658173	2.7278595
76666405555148	-4.124222	4.368103	3.2055664
76666413947482	-2.0345001	6.6143494	2.7110596
76666422339816	-0.89871216	8.451843	2.4395142
76666430732150	1.0896912	9.627182	2.853531
76666439124484	3.8372955	10.373322	3.6187744
76666447516818	6.5112457	11.102554	4.2448883
76666455909152	8.229294	11.995728	4.33519
76666464301486	8.408768	12.420456	3.4398804
76666472693820	8.081696	11.717773	2.0173187
76666481086154	7.240265	10.448578	0.50439453
76666489478488	4.9705353	9.11908	-0.62442017
76666497870822	2.1514282	8.006454	-1.2318115
76666506263156	0.5877991	7.2621613	-1.3669434
76666514655490	0.74931335	6.9799957	-1.1476135
76666523047824	0.6470947	6.8426056	-0.68362427
76666531440158	0.5991516	6.782135	0.0662384
76666539832492	0.75083923	6.8559113	0.8664856
76666548224826	1.0044708	7.0656433	1.5702362
76666556617160	1.0371399	7.3738556	2.1064758
76666565009494	0.4299469	7.870392	2.313858
76666573401828	-0.30444336	8.44873	1.4591522
76666581794162	-0.62794495	9.054108	0.04864502
76666590186496	-0.73646545	9.578629	-1.1805878
76666598578830	-0.6615143	9.932037	-1.3597717
76666606971164	-0.28630066	10.039368	-0.08546448
76666615363498	0.25941467	9.756088	1.4741364
76666623755832	0.45259094	9.4254	1.7075958
76666632148166	0.48561096	9.334549	1.3890076
76666640540500	0.4298401	9.441544	0.96580505
76666648932834	0.46235657	9.61087	0.6082001
76666657325168	0.74624634	9.724319	0.30273438
76666665717502	1.0483246	9.915741	0.18011475
76666674109836	0.72869873	10.138092	0.89152527
76666682502170	0.14675903	10.19429	1.5331421
76666690894504	-0.5772705	10.224869	1.7099457
76666699286838	-1.170578	10.313385	1.4745178
76666707679172	-1.263443	10.474701	1.1404877
76666716071505	-0.9026184	10.74707	0.7707062
76666724463839	-0.44174194	10.707382	0.91448975
76666732856173	-0.21142578	10.282196	1.5973053
76666741248507	-0.16854858	9.89476	2.1993256
76666749640841	-0.101760864	9.959244	2.463974
76666758033175	0.23817444	10.628571	2.6570892
76666766425509	0.65341187	11.489761	3.1962128
76666774817843	1.0559235	12.296722	2.4845886
76666783210177	1.3219147	12.982422	1.1375427
76666791602511	1.3827362	13.412949	0.1765747
76666799994845	1.545227	13.521652	0.039764404
76666808387179	2.3936615	13.45372	0.18374634
76666816779513	4.163986	13.94278	-0.37091064
76666825171847	5.834793	15.051224	0.110672
76666833564181	7.2526093	16.73056	1.0385132
76666841956515	8.8824005	18.591125	1.655899
76666850348849	10.80957	19.90303	1.5282288
76666858741183	12.459396	19.644531	0.8892822
76666867133517	12.906052	17.563782	1.5453186
76666875525851	10.774719	15.565109	2.1569061
76666883918185	7.582184	14.161102	1.7446594
76666892310519	4.6438446	13.017517	0.74679565
76666900702853	2.4987946	11.718613	-0.22982788
76666909095187	0.7580261	9.954742	-0.66023254
76666917487521	-0.06599426	7.864334	-0.40376282
76666925879855	-1.0650482	6.446991	-0.258667
76666934272189	-1.7241516	5.1565857	-0.25094604
76666942664523	-2.0352325	3.9844818	-0.4069519
76666951056857	-2.1218567	3.1024323	-0.61231995
76666959449191	-2.0417633	2.721054	-0.6371002
76666967841525	-1.6539154	2.680191	-0.27618408
76666976233859	-1.3457794	2.4832	-0.060943604
76666984626193	-0.94291687	2.0684204	-0.04711914
76666993018527	-0.43136597	1.5018463	-0.23155212
76667001410861	0.08377075	0.9361572	-0.56669617
76667009803195	0.43319702	0.5465088	-0.9766388
76667018195529	0.68244934	0.4916687	-1.4053345
76667026587863	0.9334259	0.5988617	-2.0142822
76667034980197	1.243866	0.55384827	-2.6383514
76667043372531	1.4306183	0.62228394	-3.241562
76667051764865	1.3726501	0.97698975	-3.6948547
76667060157199	1.1634979	1.4208527	-3.7345123
76667068549533	1.0627899	1.7428894	-3.7903442
76667076941867	0.99645996	2.2307434	-3.655426
76667085334201	0.7264862	2.6793365	-3.4650574
76667093726535	0.34126282	2.997406	-3.2872467
76667102118869	0.08325195	3.2187805	-3.3620148
76667110511203	0.1806488	3.5974274	-4.023941
76667118903537	-0.38891602	5.1997833	-3.9583588
76667127295871	-0.85720825	8.533066	-3.2429962
76667135688205	-0.86068726	13.938141	-3.2292786
76667144080539	0.39622498	22.22615	-3.6049042
76667152472873	2.9708862	31.598923	-4.214142
76667160865207	5.2327576	35.94594	-5.7733765
76667169257541	3.2119446	24.118927	-5.304184
76667177649875	2.675232	14.223145	-5.8166046
76667186042209	1.568634	8.441772	-7.116455
76667194434543	0.33720398	5.3306427	-8.414566
76667202826877	-0.22302246	3.3319855	-8.844727
76667211219211	-0.25219727	1.9738007	-7.890259
76667219611545	-0.53842163	1.1344452	-5.371216
76667228003879	0.12799072	1.7682953	-4.148239
76667236396213	-0.45957947	4.3132324	-3.2266693
76667244788547	-2.2959137	9.943085	-2.9893188
76667253180880	-4.1635284	19.064362	-3.3014984
76667261573214	-3.4576416	29.332306	-1.8645172
76667269965548	7.645447	29.889923	7.5865173
76667278357882	17.211243	21.564499	8.998596
76667286750216	16.581726	12.458969	5.7115326
76667295142550	10.369156	6.358734	0.8378906
76667303534884	5.224533	4.062912	-3.1757202
76667311927218	2.4516907	2.7637787	-5.359268
76667320319552	-0.86035156	1.8622131	-5.149536
76667328711886	-3.5367432	1.3629303	-3.7792664
76667337104220	-4.559906	1.1802063	-1.8897858
76667345496554	-4.1951447	1.401474	0.14048767
76667353888888	-3.2878265	2.1655884	1.8821716
76667362281222	-2.5455475	3.5066833	2.7981873
76667370673556	-1.1039429	5.5771027	2.9091492
76667379065890	0.07545471	7.651123	3.1986237
76667387458224	1.8731232	9.295929	3.8870697
76667395850558	4.541794	10.686859	4.3592987
76667404242892	7.5529785	12.124161	4.007416
76667412635226	9.013824	13.676956	3.0116882
76667421027560	8.116241	13.656067	2.8675537
76667429419894	5.1220093	11.672272	0.7683258
76667437812228	1.8169708	9.217102	-0.86027527
76667446204562	-0.25828552	7.0986023	-1.5323334
76667454596896	-0.4757843	5.723709	-1.4633636
76667462989230	-0.41481018	5.1529083	-0.8120575
76667471381564	-0.45959473	4.8248596	0.15356445
76667479773898	-0.368042	4.974655	0.8685608
76667488166232	-0.0068511963	5.598007	1.1158142
76667496558566	0.43544006	6.6285706	1.0912476
76667504950900	0.65567017	7.8035126	1.1024933
76667513343234	0.49266052	8.614655	1.1705017
76667521735568	0.19586182	8.763046	0.4734192
76667530127902	0.41622925	8.656738	-0.39360046
76667538520236	0.56869507	8.727371	-0.8533478
76667546912570	0.70150757	9.151855	-0.67066956
76667555304904	0.9990082	9.863617	0.014572144
76667563697238	1.0068817	10.577805	0.64108276
76667572089572	0.9931183	10.834076	1.1598358
76667580481906	0.67601013	10.802582	1.5770264
76667588874240	0.21205139	10.789993	1.710495
76667597266574	-0.113464355	10.880264	1.5509186
76667605658908	0.0028839111	10.987274	1.1811371
76667614051242	0.73934937	10.823288	0.7553406
76667622443576	0.7158203	10.992081	1.3088379
76667630835910	0.02357483	10.996307	2.1024017
76667639228244	-0.9355774	10.902252	2.3218842
76667647620578	-1.7282867	10.812759	2.0493927
76667656012912	-1.9137878	10.820206	1.6782684
76667664405246	-1.231842	10.922897	1.2026825
76667672797580	-0.17871094	10.980209	0.83039856
76667681189914	0.45866394	10.777206	0.73960876
76667689582248	0.8550415	10.760635	1.2946625
76667697974582	1.1828308	11.179825	2.5921173
76667706366916	1.502243	11.949081	4.340637
76667714759250	1.5421143	12.590149	5.989685
76667723151584	1.9416351	12.396072	6.3406982
76667731543918	1.9315796	11.426071	4.5082397
76667739936252	1.6272736	10.519714	2.1754456
76667748328586	1.2814026	10.420959	0.2620697
76667756720920	1.3052063	11.58963	-0.8920746
76667765113254	2.3291473	13.417175	-1.3546753
76667773505588	4.3373413	14.923752	-1.7647858
76667781897922	6.3721313	16.857162	-0.25724792
76667790290255	8.195633	19.48909	2.0220642
76667798682589	9.9674225	21.967606	3.7223816
76667807074923	12.093277	22.86586	4.012497
76667815467257	15.071335	20.841064	3.4737396
76667823859591	17.62822	16.629166	2.982254
76667832251925	15.771805	14.213745	2.7566376
76667840644259	11.118851	13.089218	2.0848541
76667849036593	6.046341	12.323868	0.80877686
76667857428927	2.9609528	10.83786	-0.51194763
76667865821261	1.1945953	8.440308	-0.7366028
76667874213595	-0.28712463	6.4984894	-0.51353455
76667882605929	-1.3731995	5.175415	-0.5964966
76667890998263	-2.0929565	4.0751343	-0.73646545
76667899390597	-2.493454	3.1602783	-0.9267731
76667907782931	-2.6882172	2.6600647	-1.227478
76667916175265	-2.9015656	2.6072235	-1.006134
76667924567599	-2.812439	2.5102081	-0.58825684
76667932959933	-2.4638062	2.1192322	-0.14105225
76667941352267	-1.8766632	1.5172882	0.027740479
76667949744601	-1.2421112	0.84039307	-0.22297668
76667958136935	-0.7476196	0.23042297	-0.82987976
76667966529269	-0.115997314	-0.13311768	-1.478775
76667974921603	0.4506073	-0.16586304	-2.1512146
76667983313937	0.9496155	-0.0075683594	-2.7640991
76667991706271	1.2671509	0.22685242	-3.3425598
76668000098605	1.3986969	0.46839905	-3.9921112
76668008490939	1.3882599	0.6732788	-4.8030853
76668016883273	1.1122284	0.6936493	-5.42749
76668025275607	0.9715576	0.90760803	-5.4539337
76668033667941	1.059494	1.0409088	-5.0243683
76668042060275	1.1230011	1.0975189	-4.3480835
76668050452609	0.79611206	1.2575378	-3.4289398
76668058844943	-0.090423584	1.8356018	-2.2981415
76668067237277	-0.70274353	3.232193	-1.8657532
76668075629611	-1.3882904	6.0461273	-1.96875
76668084021945	-2.0672455	10.228592	-2.362732
76668092414279	-2.176468	16.241257	-2.8963013
76668100806613	-0.8973999	24.752731	-3.96315
76668109198947	1.8883209	34.685867	-6.19664
76668117591281	1.9162292	34.74568	-9.251465
76668125983615	1.2188721	23.486984	-9.107697
76668134375949	2.3177185	14.208374	-8.502457
76668142768283	3.1193085	8.212051	-9.058105
76668151160617	2.9618378	4.722046	-10.262085
76668159552951	2.9586487	2.650467	-9.920883
76668167945285	3.2053986	1.2891846	-7.178772
76668176337619	2.9578247	1.6842651	-5.3786774
76668184729953	1.7462921	4.4477997	-4.482193
76668193122287	0.37895203	9.7846985	-4.6544495
76668201514621	-0.375	17.492325	-5.258972
76668209906955	0.14874268	26.49739	-4.7613983
76668218299289	5.7358246	29.58725	1.4172821
76668226691623	12.238174	21.192383	6.197876
76668235083957	10.546646	12.311264	6.147354
76668243476291	5.8835907	5.592911	3.4867706
76668251868625	2.7288818	1.7106476	0.49290466
76668260260959	1.6396484	-0.034347534	-1.4063416
76668268653293	-0.3902893	0.33854675	-2.4452362
76668277045627	-2.4643097	0.868927	-3.000473
76668285437961	-3.488083	1.0730286	-2.6067352
76668293830295	-3.517685	1.2089996	-1.3468323
76668302222629	-2.9496307	1.6782684	0.3818817
76668310614963	-2.1582336	2.913742	1.9774933
76668319007297	-0.4021454	5.4114075	2.1914063
76668327399630	0.04272461	8.515045	2.1898804
76668335791964	1.1477966	10.838318	2.543686
76668344184298	3.1221466	12.378067	2.6980438
76668352576632	5.229309	13.314484	2.3943481
76668360968966	6.1141663	13.620117	1.9809875
76668369361300	5.167877	12.637146	2.5524292
76668377753634	3.4676514	10.931519	1.9136047
76668386145968	1.5098114	9.127823	0.45646667
76668394538302	-0.051239014	7.609482	-0.9898529
76668402930636	-0.7468567	6.5948486	-1.6644287
76668411322970	-0.622345	6.035919	-1.2020111
76668419715304	-0.42678833	5.927948	-0.08154297
76668428107638	-0.2781372	6.312393	0.8085785
76668436499972	-0.034454346	6.9296875	1.2923889
76668444892306	0.55215454	7.6763916	1.5224609
76668453284640	1.339386	8.378143	1.5238037
76668461676974	1.544281	8.70726	1.0872345
76668470069308	1.6293335	8.413101	0.5235138
76668478461642	1.683197	7.941971	0.40350342
76668486853976	1.3308716	7.5691376	0.7690277
76668495246310	1.0390167	7.4945984	0.9713745
76668503638644	1.1782379	7.865799	0.38186646
76668512030978	1.7208862	8.819321	-1.3585205
76668520423312	2.3624725	10.219681	-2.23349
76668528815646	2.4380646	11.167816	-0.21855164
76668537207980	2.1486511	11.1588745	2.077301
76668545600314	1.8379974	10.5876465	3.0329742
76668553992648	1.7102051	10.089371	2.4061584
76668562384982	1.7013397	10.259201	1.4738922
76668570777316	1.2636871	10.506973	1.2058258
76668579169650	0.4060669	10.5846405	0.9503784
76668587561984	-0.45062256	10.436325	1.0389557
76668595954318	-1.1717377	10.195831	1.2748718
76668604346652	-1.6217041	10.093277	1.3648071
76668612738986	-1.6552582	10.353394	1.1733704
76668621131320	-1.1413574	10.929916	1.1256409
76668629523654	-0.4774933	11.612076	1.0775604
76668637915988	0.06338501	12.014282	0.94670105
76668646308322	0.32836914	11.902069	0.8708954
76668654700656	0.37591553	11.432892	0.9859009
76668663092990	0.5035553	11.256683	1.3383179
76668671485324	1.1964264	11.708679	2.1869812
76668679877658	1.5761414	11.863922	3.0254364
76668688269992	1.4712219	11.735458	3.271698
76668696662326	1.2978516	11.569702	2.9041595
76668705054660	1.3351288	11.504974	2.1857147
76668713446994	1.347992	11.387405	1.496048
76668721839328	1.2336273	11.446579	0.15493774
76668730231662	1.249527	11.928146	-0.6759796
76668738623996	1.7897339	12.747665	-0.54599
76668747016330	2.9628754	13.5872345	0.06819153
76668755408664	4.636978	14.319336	0.6344147
76668763800998	6.2213135	15.306168	0.9914856
76668772193332	7.1390533	16.558762	1.5372467
76668780585666	8.266373	17.753494	1.850708
76668788978000	10.1548	18.185867	2.0977783
76668797370334	11.878784	17.463974	2.725174
76668805762668	12.025284	15.697205	3.7040863
76668814155002	9.353729	14.031906	3.7359467
76668822547336	6.4165497	12.461639	2.0998688
76668830939670	4.3224335	10.7356415	0.6874542
76668839332004	2.8029327	8.843887	-0.23506165
76668847724338	1.7961578	7.0163116	-0.69929504
76668856116672	1.2090912	5.430374	-0.8321991
76668864509005	0.77911377	4.0268555	-0.6855469
76668872901339	0.28607178	3.2902985	-0.64974976
76668881293673	-0.4704895	3.1723633	-0.70321655
76668889686007	-1.3655243	3.1250153	-0.7224884
76668898078341	-2.0285187	2.8569336	-0.65353394
76668906470675	-2.2211761	2.3121185	-0.50686646
76668914863009	-2.1190033	1.6634369	-0.36586
76668923255343	-1.9897919	0.9378052	-0.8330536
76668931647677	-1.584198	0.38345337	-1.3625183
76668940040011	-1.107605	0.097961426	-1.9259644
76668948432345	-0.63212585	0.08381653	-2.4573517
76668956824679	-0.18153381	0.3010254	-2.9095306
76668965217013	0.19007874	0.6660156	-3.324112
76668973609347	0.5843048	0.9045105	-3.6093292
76668982001681	0.7702484	1.3724823	-3.933197
76668990394015	0.859375	1.9546051	-4.3131256
76668998786349	0.82977295	2.5219727	-4.5764923
76669007178683	0.65031433	3.0327606	-4.567642
76669015571017	0.475235	3.619339	-4.3885345
76669023963351	0.49049377	4.003937	-4.4157104
76669032355685	0.57606506	4.336197	-4.12059
76669040748019	0.4491577	5.1102753	-4.067215
76669049140353	0.03614807	6.8948364	-4.481949
76669057532687	-0.5985718	10.253525	-5.4229126
76669065925021	-1.3438568	15.895874	-7.0418854
76669074317355	1.0985718	22.999878	-9.969711
76669082709689	3.5049133	26.76712	-11.164169
76669091102023	2.878418	24.58078	-10.568619
76669099494357	1.3219604	18.397629	-8.560959
76669107886691	1.7753143	11.999817	-6.1920624
76669116279025	2.4214172	7.33992	-5.5668488
76669124671359	2.6054993	4.5298767	-5.5073547
76669133063693	3.887497	3.3391724	-5.643753
76669141456027	5.0272827	4.373398	-6.0996704
76669149848361	3.9108582	8.334488	-6.408676
76669158240695	0.1452179	15.668716	-6.4565125
76669166633029	-1.2483826	25.673416	-7.9236755
76669175025363	2.1974487	29.993027	-3.4278412
76669183417697	8.318222	23.7285	1.8130951
76669191810031	9.339874	13.703598	4.56485
76669200202365	5.8862305	5.2967377	4.329071
76669208594699	2.8159637	0.48745728	2.3646393
76669216987033	1.5998535	-1.6050568	0.12557983
76669225379367	-0.24914551	-1.002945	-1.226059
76669233771701	-2.2917023	0.26205444	-1.8978271
76669242164035	-3.397583	1.0501099	-1.6750183
76669250556369	-3.4988098	1.2192078	-0.75141907
76669258948703	-3.1839905	1.2989655	0.35664368
76669267341037	-2.9594421	2.1795807	0.9746399
76669275733371	-2.1635132	4.5688477	1.3783112
76669284125705	-1.1464081	8.500427	1.7606049
76669292518039	0.4177246	12.2043915	2.1948547
76669300910373	2.6776886	14.643997	2.6240845
76669309302707	5.319992	15.6631775	2.9395447
76669317695041	6.949127	15.42688	3.1080322
76669326087375	6.2178497	14.017715	2.729065
76669334479709	4.137207	11.565903	1.3406525
76669342872043	1.7775421	8.905579	-0.31425476
76669351264377	-0.056167603	6.7302704	-1.4772339
76669359656711	-1.032486	5.3605347	-1.7831268
76669368049045	-1.0873108	4.8550415	-1.526886
76669376441379	-0.5988159	4.9703217	-0.92274475
76669384833713	-0.02748108	5.4501343	-0.16619873
76669393226047	0.5260925	6.124832	0.5753479
76669401618380	1.1053925	6.864792	1.1758881
76669410010714	1.6841431	7.525879	1.4914093
76669418403048	1.5887146	7.728653	1.1027527
76669426795382	1.4254608	7.6783752	0.5576935
76669435187716	1.2574768	7.777237	0.23822021
76669443580050	1.005539	7.996826	0.11843872
76669451972384	0.8326111	8.341705	0.053131104
76669460364718	0.9458618	8.892975	-0.20355225
76669468757052	0.95381165	9.854172	-1.0981598
76669477149386	1.6439362	10.536774	-1.2179718
76669485541720	2.2018585	10.566345	0.38479614
76669493934054	1.9917755	10.223053	2.4078827
76669502326388	1.4534454	9.99588	3.3714142
76669510718722	1.4950714	10.254791	2.6752625
76669519111056	1.542923	10.925781	1.9554138
76669527503390	1.0511932	11.239548	1.5839844
76669535895724	0.28556824	11.0928955	1.0549469
76669544288058	-0.3406067	10.665741	0.79977417
76669552680392	-0.6355896	10.244339	0.8537445
76669561072726	-0.68115234	10.063614	0.8870392
76669569465060	-0.6513214	10.268372	0.99638367
76669577857394	-0.31079102	10.824539	1.1800385
76669586249728	0.1730957	11.431351	1.2040558
76669594642062	0.46813965	11.766357	1.2310181
76669603034396	0.54000854	11.868042	1.4460144
76669611426730	0.6626129	12.127396	1.9619598
76669619819064	1.2480927	13.141281	2.7094574
76669628211398	1.7468109	13.947327	4.065979
76669636603732	1.9185791	14.03093	4.435669
76669644996066	1.7387543	13.591248	3.509674
76669653388400	1.3312378	12.817841	2.0610046
76669661780734	0.9136505	11.786163	1.3305817
76669670173068	0.6750946	10.6549835	0.57810974
76669678565402	0.7973938	10.292862	-0.86868286
76669686957736	1.1716461	10.605362	-1.509491
76669695350070	1.8951569	11.304779	-1.0600128
76669703742404	3.0636444	12.144211	0.10588074
76669712134738	4.6660004	13.080643	1.3479614
76669720527072	5.986038	14.046814	2.2038116
76669728919406	7.0552063	15.020325	2.0162964
76669737311740	8.316727	16.051956	1.4941864
76669745704074	9.717636	16.768967	1.5280914
76669754096408	10.288162	16.681366	2.4972534
76669762488742	8.657547	15.450241	3.8925018
76669770881076	5.9098053	13.693527	3.4129486
76669779273410	4.4650726	11.459106	1.6524811
76669787665744	3.5526733	9.248688	0.3200531
76669796058078	2.5977936	7.2549286	-0.42300415
76669804450412	1.4169464	5.625122	-0.77749634
76669812842746	0.2629242	4.4605713	-0.99790955
76669821235080	-0.51374817	3.5981598	-1.0208282
76669829627414	-0.9281769	3.2453918	-1.2488708
76669838019748	-1.1060028	3.073578	-1.3263092
76669846412082	-1.2329712	3.0058746	-1.1846771
76669854804416	-1.3590546	3.031311	-1.0036621
76669863196750	-1.3155365	3.1500092	-1.0682068
76669871589084	-0.97457886	2.9919586	-1.0572815
76669879981418	-0.46141052	2.6141968	-1.2198486
76669888373752	-0.16763306	2.297821	-1.5169678
76669896766086	0.06529236	2.1272583	-1.8991394
76669905158420	0.39076233	2.108551	-2.3358154
76669913550754	0.7357178	2.2152405	-2.842636
76669921943088	0.99993896	2.294983	-3.3002625
76669930335422	1.24617	2.4652405	-3.6227875
76669938727755	1.3482513	2.584732	-3.9891815
76669947120089	1.2723846	2.698822	-4.3184967
76669955512423	1.0473328	2.844818	-4.4368744
76669963904757	0.8068085	2.98497	-4.1554565
76669972297091	0.6841583	3.2362213	-3.7436981
76669980689425	0.63972473	3.5166779	-3.3877869
76669989081759	0.7500458	3.8836823	-3.1995697
76669997474093	0.8156891	4.642212	-3.2936401
76670005866427	0.48902893	6.285446	-3.644928
76670014258761	-0.63801575	9.50885	-4.005615
76670022651095	-1.4600677	14.607132	-4.8793488
76670031043429	-0.3557434	21.334732	-6.262039
76670039435763	1.1450195	26.653793	-7.9809723
76670047828097	1.0666809	26.203552	-9.014679
76670056220431	-0.35954285	19.80188	-8.659271
76670064612765	0.014968872	12.894638	-7.2074585
76670073005099	0.81018066	8.869888	-7.035492
76670081397433	1.0722504	6.3716736	-7.277237
76670089789767	1.2345276	4.5130005	-7.0420837
76670098182101	1.3216858	3.1102295	-6.264557
76670106574435	1.3547668	2.5273132	-5.4423065
76670114966769	1.5115356	3.522171	-5.3748627
76670123359103	0.088531494	7.554886	-5.2882843
76670131751437	-0.49676514	14.4478	-6.2777405
76670140143771	-0.34788513	22.691696	-5.488556
76670148536105	2.992691	28.197617	-0.94732666
76670156928439	10.259735	26.830856	6.0122375
76670165320773	16.35794	16.751587	7.5553894
76670173713107	10.328278	8.606674	3.5256805
76670182105441	6.138199	3.9307404	0.13589478
76670190497775	3.750824	1.2190704	-1.9352112
76670198890109	1.6316681	0.0640564	-2.9754639
76670207282443	-1.2388	0.18510437	-3.335495
76670215674777	-3.7692719	0.512619	-3.067047
76670224067111	-4.105057	0.6567993	-1.7916412
76670232459445	-3.5999146	1.2336884	0.006713867
76670240851779	-2.8557434	2.3780975	1.5701904
76670249244113	-1.8701477	4.1739197	2.3413696
76670257636447	-0.7640686	6.544647	2.3047638
76670266028781	-0.30403137	9.295181	2.0019531
76670274421115	0.8035126	11.209793	2.6944275
76670282813449	3.0282288	12.582916	3.0740204
76670291205783	5.2556305	13.690002	2.5178375
76670299598117	6.200287	14.11467	1.5482788
76670307990451	5.267212	13.386093	0.8777466
76670316382785	2.8235016	11.333237	0.4550171
76670324775119	0.6307068	8.984497	-0.7404785
76670333167453	-0.6995239	7.470764	-1.5856476
76670341559787	-1.1539764	6.6174164	-1.8484192
76670349952121	-1.0552979	6.28006	-1.5735321
76670358344455	-0.8498993	6.2858887	-0.9447632
76670366736789	-0.7270813	6.4802246	-0.08091736
76670375129123	-0.55059814	6.7474365	0.7884979
76670383521457	-0.20793152	6.878235	1.4274597
76670391913791	-0.020523071	6.840439	1.7331238
76670400306125	0.09968567	6.709442	1.747055
76670408698459	0.4316101	6.6630554	1.5920563
76670417090793	1.1142731	6.9062347	1.3392792
76670425483127	1.9913025	7.4026794	0.6607971
76670433875461	2.5709076	8.082367	-0.3364563
76670442267795	2.6990356	8.877716	-1.191391
76670450660129	2.6560516	9.568451	-1.2784271
76670459052463	2.7770844	9.98259	-0.27998352
76670467444797	2.9834442	10.190903	1.4818726
76670475837130	2.4168396	10.490692	2.1591644
76670484229464	2.1688385	10.670822	1.9473724
76670492621798	1.8018341	10.812393	1.6783905
76670501014132	1.0502777	10.844452	1.6947937
76670509406466	-0.05267334	10.668869	1.8381805
76670517798800	-0.95365906	10.3428955	1.2358246
76670526191134	-1.2800446	10.25946	1.0931702
76670534583468	-1.2452698	10.396622	1.3088226
76670542975802	-1.1414032	10.627029	1.4661407
76670551368136	-0.9638214	10.969742	1.484314
76670559760470	-0.5993805	11.486359	1.4552765
76670568152804	-0.09977722	12.105789	1.4766083
76670576545138	0.28559875	12.584	1.4847565
76670584937472	0.43974304	12.602921	1.4589233
76670593329806	0.64826965	12.697815	1.6538086
76670601722140	1.2795105	13.158249	2.0750885
76670610114474	2.293579	13.796265	2.6822968
76670618506808	2.6116333	13.718506	3.8069153
76670626899142	2.235443	12.858597	3.790268
76670635291476	1.6265106	11.9140625	2.68161
76670643683810	1.1574402	11.128616	1.4744415
76670652076144	0.9284668	10.64267	0.61177063
76670660468478	0.87835693	10.532059	-0.121673584
76670668860812	1.0497284	10.833649	-1.5718689
76670677253146	1.3990021	11.405609	-1.6315613
76670685645480	2.1816254	11.906555	-0.56747437
76670694037814	3.3881836	12.440247	0.59295654
76670702430148	4.7032623	13.122635	1.4884033
76670710822482	5.7879486	13.986862	2.1690216
76670719214816	6.7334747	14.777496	2.274292
76670727607150	8.060074	15.162582	1.7878113
76670735999484	9.466705	15.137909	1.7765198
76670744391818	10.134689	14.585663	2.4123077
76670752784152	9.316071	13.720551	3.1709595
76670761176486	6.881241	12.833206	3.0761719
76670769568820	4.569153	11.544052	1.4051666
76670777961154	3.274109	9.602371	0.10592651
76670786353488	2.2666016	7.7434235	-0.4894104
76670794745822	1.3700256	6.1689453	-0.64868164
76670803138156	0.57865906	5.0292206	-0.6700287
76670811530490	-0.041763306	4.334015	-0.7346039
76670819922824	-0.58425903	3.8248138	-0.786499
76670828315158	-1.0064545	3.8515778	-0.94374084
76670836707492	-1.2072144	3.8970795	-0.9346771
76670845099826	-1.3631287	3.884842	-0.88453674
76670853492160	-1.3220367	3.752411	-0.8688507
76670861884494	-0.82774353	3.445221	-0.88323975
76670870276828	-0.52565	3.006546	-0.9330902
76670878669162	-0.17077637	2.5714874	-1.1813202
76670887061496	0.015380859	2.294876	-1.5223236
76670895453830	0.19892883	2.1577911	-1.8842621
76670903846164	0.42858887	2.1262054	-2.2893066
76670912238498	0.63746643	2.1966095	-2.7915344
76670920630832	0.89108276	2.361618	-3.1612854
76670929023166	0.9268036	2.5143433	-3.4711304
76670937415500	0.78300476	2.7117004	-3.8333588
76670945807834	0.5258026	2.8796692	-4.074066
76670954200168	0.25680542	3.0009918	-4.088043
76670962592502	0.08969116	3.1380463	-3.9057922
76670970984836	0.12060547	3.372345	-3.6994019
76670979377170	0.46505737	3.899063	-3.711563
76670987769504	0.74043274	4.881241	-4.1528015
76670996161838	0.21824646	7.1434937	-4.647293
76671004554172	-0.9008484	11.252487	-5.1856995
76671012946505	-1.2806854	17.166199	-5.987503
76671021338839	1.2108307	24.934631	-6.16716
76671029731173	3.7880096	31.347656	-6.8448944
76671038123507	2.2410583	27.965012	-7.4050293
76671046515841	0.5345764	19.87471	-6.8531036
76671054908175	0.35784912	11.979355	-5.741211
76671063300509	0.23519897	7.1726685	-6.001526
76671071692843	-0.02658081	4.323593	-7.3002625
76671080085177	0.3036499	2.7454224	-7.6538544
76671088477511	0.03527832	1.6893921	-6.819931
76671096869845	-0.39250183	1.3388519	-5.860092
76671105262179	-0.5152283	1.8831635	-5.325699
76671113654513	-0.15971375	3.3969116	-5.0702057
76671122046847	0.110458374	6.4068604	-5.3005066
76671130439181	-1.1543121	14.008865	-4.9256744
76671138831515	-1.4248657	23.118195	-2.7818604
76671147223849	3.942749	27.679321	2.587494
76671155616183	13.124542	24.046951	8.484833
76671164008517	17.134033	14.572144	8.919785
76671172400851	11.376343	8.210266	4.0454254
76671180793185	6.7604675	5.161667	-0.7987366
76671189185519	3.278534	3.2971802	-3.9109344
76671197577853	0.2468872	2.2813263	-4.927948
76671205970187	-2.6003265	1.8230591	-4.273224
76671214362521	-4.5386963	1.5110321	-2.8275757
76671222754855	-3.9499817	1.2874603	-0.8905945
76671231147189	-2.5366974	1.6502075	0.56173706
76671239539523	-1.1816864	2.6074066	1.1238861
76671247931857	-0.1478424	3.9228973	1.2475281
76671256324191	0.5342102	5.3569946	1.2987213
76671264716525	1.0273438	6.749893	1.4023132
76671273108859	2.0143738	8.9674225	2.0532227
76671281501193	3.7683868	11.958252	2.3376007
76671289893527	5.5284576	14.65744	2.0878143
76671298285861	5.9640045	16.112427	1.8451996
76671306678195	4.330261	15.698471	1.7264404
76671315070529	1.1538696	13.359695	0.9507904
76671323462863	-1.4822083	10.17128	-0.5965576
76671331855197	-2.5080261	7.674881	-1.5339508
76671340247531	-2.7570648	6.240265	-1.4772491
76671348639865	-2.5966034	5.500458	-0.70158386
76671357032199	-2.2594757	5.083206	0.3144989
76671365424533	-1.7718506	5.023178	1.1628113
76671373816867	-0.7437897	5.3795166	1.7251587
76671382209201	-0.047668457	6.0006866	1.538971
76671390601535	0.47364807	6.587204	0.74824524
76671398993869	1.327301	7.204376	-0.11705017
76671407386203	2.7817535	7.9874268	-0.63116455
76671415778537	4.503708	8.9930725	-0.6431885
76671424170871	4.553406	9.703796	-0.22570801
76671432563205	3.6312714	10.256546	-0.5863495
76671440955539	2.989273	10.841766	-0.60894775
76671449347873	2.1678467	11.240234	0.38926697
76671457740207	0.97369385	11.180008	2.075653
76671466132541	0.47769165	10.584656	2.8501282
76671474524875	0.36532593	10.3558655	1.9541931
76671482917209	-0.042633057	10.758545	1.3000641
76671491309543	-0.46691895	11.027054	1.0088959
76671499701877	-0.7509308	10.949249	1.0044861
76671508094211	-0.8478699	10.613922	1.1365662
76671516486545	-0.85858154	10.342438	1.2653198
76671524878879	-0.9423218	10.230759	1.0918427
76671533271213	-0.86660767	10.432083	0.97683716
76671541663547	-0.64793396	10.97345	1.0483093
76671550055880	-0.42707825	11.596039	1.2448578
76671558448214	-0.2733307	11.99353	1.7013702
76671566840548	-0.019714355	12.053406	2.9705963
76671575232882	0.51394653	12.432358	3.9419708
76671583625216	1.4019928	12.824295	3.7176971
76671592017550	2.293457	12.7951355	3.196579
76671600409884	2.805893	12.277451	2.250122
76671608802218	2.8206177	11.463425	0.57418823
76671617194552	2.7774506	10.871826	-1.6461945
76671625586886	3.239502	11.049545	-2.3692017
76671633979220	3.8535004	11.426346	-1.8881378
76671642371554	4.930176	11.973526	-0.90153503
76671650763888	6.2053986	12.791824	0.19361877
76671659156222	7.2066803	13.897659	1.1273193
76671667548556	7.6126404	15.04129	1.7471466
76671675940890	8.008453	15.647461	1.245636
76671684333224	8.79306	16.144608	0.59706116
76671692725558	9.690674	16.532562	0.6235504
76671701117892	9.570557	16.50235	1.3937378
76671709510226	7.5947876	15.748032	2.2701263
76671717902560	4.4169464	14.233612	1.9412537
76671726294894	2.9483643	12.172791	0.7976837
76671734687228	1.7212677	10.018326	-0.020584106
76671743079562	0.42259216	8.190674	-0.6111908
76671751471896	-0.68922424	6.6753693	-0.87039185
76671759864230	-1.3018951	5.3272247	-0.78118896
76671768256564	-1.607544	4.212265	-0.72080994
76671776648898	-1.4959106	3.5199738	-0.87454224
76671785041232	-1.4321442	3.140335	-0.9762268
76671793433566	-1.352356	2.964508	-0.9884491
76671801825900	-1.0715027	2.82341	-0.9747009
76671810218234	-0.51997375	2.587494	-1.010086
76671818610568	-0.065338135	2.2903748	-1.0619202
76671827002902	0.21096802	1.984848	-1.1442566
76671835395236	0.44499207	1.7845612	-1.377945
76671843787570	0.7431793	1.7228546	-1.7171631
76671852179904	0.9725189	1.7941895	-2.1627655
76671860572238	1.0077057	1.9561615	-2.6950684
76671868964572	1.1008301	2.1484985	-3.189087
76671877356906	1.2509613	2.2389832	-3.7350616
76671885749240	1.1247559	2.1958466	-4.290451
76671894141574	0.7930908	2.1500702	-4.6456757
76671902533908	0.31523132	2.19693	-4.6615295
76671910926242	-0.18530273	2.3866577	-4.3603973
76671919318576	-0.45350647	2.682785	-4.070282
76671927710910	-0.1764679	2.9641724	-3.6080933
76671936103244	0.13746643	3.5000153	-3.4784393
76671944495578	0.30574036	4.894455	-3.7152405
76671952887912	0.05265808	7.7460327	-4.300064
76671961280246	-0.50201416	12.378937	-5.250122
76671969672580	0.25572205	18.511612	-6.8224335
76671978064914	2.034027	25.35196	-8.0312805
76671986457248	0.8921356	26.12259	-8.655884
76671994849582	-0.49839783	21.238846	-8.19194
76672003241916	-0.5988159	14.395111	-7.078827
76672011634250	0.5543823	9.2074585	-6.2684937
76672020026584	0.9960785	5.941223	-7.057129
76672028418918	2.1347961	3.9331665	-6.9599915
76672036811252	3.9330292	3.2878113	-6.7835236
76672045203586	4.361252	4.7998505	-6.063385
76672053595920	2.8910828	9.35051	-5.3395844
76672061988254	0.19744873	17.747162	-5.518509
76672070380588	-1.3556519	29.687653	-6.567871
76672078772922	3.024582	33.255966	-0.52931213
76672087165255	9.716034	24.410583	4.130783
76672095557589	11.001312	12.919754	5.007004
76672103949923	7.176346	4.2309265	2.5885162
76672112342257	3.9528046	-0.31796265	-0.46658325
76672120734591	2.5746155	-2.1433258	-1.7958832
76672129126925	-0.007385254	-1.0909882	-3.348938
76672137519259	-2.380066	-0.15402222	-3.878296
76672145911593	-3.440033	0.2538147	-3.1281433
76672154303927	-3.250702	0.39102173	-1.4350739
76672162696261	-2.5865479	0.8636627	0.6207428
76672171088595	-2.5149841	2.4888763	1.9696045
76672179480929	-1.8239746	5.6438904	2.2786865
76672187873263	-1.56073	9.571121	2.1910553
76672196265597	-0.52867126	13.233276	2.3059998
76672204657931	1.6859131	15.807602	2.6963959
76672213050265	4.418289	16.808243	2.9797668
76672221442599	5.973709	16.344772	2.6212158
76672229834933	5.20578	14.115021	1.5340576
76672238227267	3.3101501	11.310364	0.22735596
76672246619601	1.2656403	8.72966	-0.944458
76672255011935	-0.3607025	6.885498	-1.6804352
76672263404269	-1.3955536	5.9084015	-1.8286133
76672271796603	-1.6806183	5.4373627	-1.6569519
76672280188937	-1.2799225	5.331024	-1.1044464
76672288581271	-0.8798828	5.566681	-0.40724182
76672296973605	-0.3990326	6.0045624	0.47895813
76672305365939	0.20539856	6.5036163	1.4304657
76672313758273	0.8782959	6.9672394	2.1555176
76672322150607	1.6824493	7.2902985	2.3811646
76672330542941	2.194641	7.2803345	2.0479126
76672338935275	2.37146	7.0940247	1.3838806
76672347327609	2.3921661	7.0182037	0.7626648
76672355719943	2.2337189	7.2589417	0.2534027
76672364112277	1.7040405	7.85495	-0.43670654
76672372504611	1.2514038	8.558853	-1.6670227
76672380896945	1.2483063	9.102997	-2.3992767
76672389289279	1.2581635	9.40683	-1.5815582
76672397681613	1.3062439	9.598633	0.24447632
76672406073947	1.4536438	9.783661	2.0918121
76672414466281	1.679657	10.029968	2.7389069
76672422858615	1.6399231	10.407867	2.0207672
76672431250949	1.2764893	10.781204	1.5793457
76672439643283	0.7203522	10.9049225	1.4852753
76672448035617	0.07954407	10.824661	1.305893
76672456427951	-0.52023315	10.633301	0.9276581
76672464820285	-0.9404602	10.453781	0.6544342
76672473212619	-1.0932465	10.49556	0.64730835
76672481604953	-1.0783234	10.839508	0.6721344
76672489997287	-0.89682007	11.283493	0.7216339
76672498389621	-0.56622314	11.758896	0.6894684
76672506781955	-0.15499878	12.138306	0.5342102
76672515174289	0.23779297	12.218567	0.3438263
76672523566623	0.61750793	11.720581	0.408432
76672531958957	1.0051422	11.220413	0.8016052
76672540351291	1.2286377	10.986496	1.4540253
76672548743625	1.2186127	10.915497	2.1593475
76672557135959	1.0089417	10.854675	2.988968
76672565528293	0.7455597	10.714935	4.252716
76672573920627	0.6729889	10.508194	4.008194
76672582312961	0.73753357	9.866913	2.08313
76672590705295	0.89442444	9.648788	0.2610321
76672599097629	1.005249	10.385727	-0.6400604
76672607489963	1.1626129	12.029175	-0.6121826
76672615882297	1.7818146	13.947327	-0.2561493
76672624274630	3.212204	14.869751	-0.45892334
76672632666964	4.334244	15.734497	0.24023438
76672641059298	5.428177	16.898758	1.2079315
76672649451632	6.7265015	17.914902	1.8743591
76672657843966	8.216873	18.186966	1.9313965
76672666236300	9.512985	17.36676	1.6110687
76672674628634	10.132126	15.824402	2.0258179
76672683020968	8.579498	14.476303	2.02359
76672691413302	6.209305	13.102356	1.3150177
76672699805636	3.9961548	11.621674	0.35791016
76672708197970	2.3704224	9.999695	-0.4528656
76672716590304	1.1987	8.198914	-1.1728363
76672724982638	0.15283203	6.683441	-1.6583862
76672733374972	-0.44296265	5.422241	-1.7072754
76672741767306	-1.153717	4.53006	-1.582962
76672750159640	-1.8042603	3.8969116	-1.3351898
76672758551974	-2.1835785	3.4598846	-0.95947266
76672766944308	-2.3694458	3.2745209	-0.5058136
76672775336642	-2.1696472	3.1920166	-0.35073853
76672783728976	-1.7471619	3.0523376	-0.32452393
76672792121310	-1.3057098	2.8181458	-0.4978485
76672800513644	-0.85775757	2.5650787	-0.74990845
76672808905978	-0.3503418	2.3796844	-0.99050903
76672817298312	0.2654724	2.3127441	-1.2582397
76672825690646	1.0447693	2.3733673	-1.5952148
76672834082980	1.5886078	2.528778	-2.0341644
76672842475314	1.9661713	2.8038483	-2.4721832
76672850867648	2.1748352	3.052475	-2.9360046
76672859259982	2.2108002	3.1620178	-3.4439392
76672867652316	2.119278	3.2102814	-3.899826
76672876044650	1.8648224	3.023407	-4.0161285
76672884436984	1.6185913	2.7998657	-3.9170074
76672892829318	1.404953	2.6730194	-3.5675507
76672901221652	1.1762848	2.769226	-3.1649017
76672909613986	0.97062683	3.0997314	-3.0329437
76672918006320	1.0569	3.4524384	-3.5237274
76672926398654	1.2924957	4.014038	-4.086334
76672934790988	0.66604614	5.6982727	-4.2544403
76672943183322	-0.33311462	9.202621	-4.5164948
76672951575656	-0.96177673	15.00238	-5.045517
76672959967990	-0.22380066	23.032944	-5.513275
76672968360324	3.2204437	31.543655	-4.7737274
76672976752658	2.9067383	30.915894	-4.4265594
76672985144992	1.1716309	22.018112	-4.007492
76672993537326	0.07434082	13.800339	-4.1901245
76673001929660	-0.49295044	8.305405	-5.278763
76673010321994	-0.8960724	5.0092773	-7.0940857
76673018714328	-0.197052	3.2542114	-8.487137
76673027106662	1.5792999	3.898941	-9.456512
76673035498996	1.026825	7.3073883	-8.75621
76673043891330	-1.3701324	13.0668335	-7.2384033
76673052283664	-3.2398682	20.24797	-5.266861
76673060675998	-1.7922058	26.564026	-2.2649536
76673069068332	4.9774475	27.745468	4.305298
76673077460666	11.067612	18.676483	7.5015106
76673085853000	10.311569	9.90715	5.56192
76673094245334	7.2910156	3.5704956	2.5372467
76673102637668	4.7843475	-0.35395813	0.13702393
76673111030002	3.6709442	-2.7250519	-1.3569794
76673119422336	2.4207	-3.877594	-2.3978424
76673127814670	-0.06333923	-2.768158	-3.0944061
76673136207004	-1.4647522	-0.8282471	-3.4969635
76673144599338	-1.8692169	0.83551025	-2.85997
76673152991672	-1.6361542	2.0857086	-0.94737244
76673161384005	-1.18927	3.5322113	1.768631
76673169776339	-0.78248596	6.3567657	3.8683624
76673178168673	-1.0403595	10.707794	4.073715
76673186561007	0.076293945	14.669174	3.2921906
76673194953341	2.0971527	16.907074	2.5195618
76673203345675	3.9938965	17.210175	1.9841461
76673211738009	4.686371	16.01152	1.3077393
76673220130343	3.6225586	13.820068	-0.353302
76673228522677	1.4259338	10.9422455	-1.5711975
76673236915011	-0.36863708	8.474701	-2.0342712
76673245307345	-1.3520355	6.725525	-1.919632
76673253699679	-1.5848236	5.7079163	-1.5388336
76673262092013	-1.3922882	5.273117	-1.1243591
76673270484347	-1.107132	5.297058	-0.55007935
76673278876681	-0.92489624	5.58519	0.1436615
76673287269015	-0.69511414	6.0661163	0.76319885
76673295661349	-0.19517517	6.534622	1.3437958
76673304053683	0.57058716	6.959381	1.8697052
76673312446017	1.3031616	7.346573	2.198944
76673320838351	1.1974792	7.4163513	1.9247742
76673329230685	1.2291718	7.4001923	1.4434357
76673337623019	1.8238678	7.734024	0.871933
76673346015353	2.61026	8.412704	0.21183777
76673354407687	3.0036926	9.263031	-0.5529022
76673362800021	2.5766296	10.037903	-1.381012
76673371192355	1.409668	10.389786	-1.9923096
76673379584689	0.9031067	10.435944	-1.5810852
76673387977023	0.5165405	10.348587	-0.2808075
76673396369357	0.29281616	10.161987	1.2134094
76673404761691	0.3837738	10.073196	2.1504822
76673413154025	0.8407135	10.307144	2.1312103
76673421546359	1.1776733	10.88765	1.53479
76673429938693	0.7501068	11.319366	1.3899384
76673438331027	0.1724701	11.156815	1.2752838
76673446723361	-0.21199036	10.705154	1.143692
76673455115695	-0.29814148	10.248077	1.1214447
76673463508029	-0.21342468	9.957581	1.3456879
76673471900363	-0.34562683	9.858185	1.6279907
76673480292697	-0.45132446	10.017593	1.5286865
76673488685031	-0.19100952	10.371933	1.3484039
76673497077365	0.27174377	10.922272	1.1954803
76673505469699	0.71022034	11.460876	1.1697998
76673513862033	0.96875	11.749924	1.3780823
76673522254367	1.1422272	12.00116	1.9962311
76673530646701	1.4616394	12.540802	3.3306732
76673539039035	1.6840515	12.883301	4.340683
76673547431369	1.6326904	12.817841	4.671036
76673555823703	1.4942169	12.411423	4.1931915
76673564216037	1.5885315	11.891617	2.988037
76673572608371	1.6074219	11.283279	1.3339996
76673581000705	1.6651764	11.088348	-0.22018433
76673589393039	1.8755188	11.359207	-1.4233704
76673597785373	2.402832	11.8246	-1.8026428
76673606177707	3.3874664	12.339859	-1.3489227
76673614570041	4.807022	12.957672	-0.44703674
76673622962375	6.0453033	14.0095215	0.6686096
76673631354709	6.731415	14.957718	1.7457428
76673639747043	7.589966	15.4153595	2.04068
76673648139377	8.638199	15.183685	1.7531738
76673656531711	9.5191345	14.60228	1.4829559
76673664924045	9.565918	14.290268	1.8518066
76673673316379	7.6206512	14.046722	2.4929352
76673681708713	5.175888	13.061783	1.8709564
76673690101047	3.5346375	11.590973	1.0178528
76673698493380	2.4836578	9.813797	0.25593567
76673706885714	1.5185547	8.072067	-0.32266235
76673715278048	0.23620605	6.728821	-0.74964905
76673723670382	-0.84454346	5.551361	-0.8862457
76673732062716	-1.4829559	4.703415	-1.0011749
76673740455050	-1.6139374	4.1236877	-1.0729218
76673748847384	-1.554718	3.7914581	-1.0626221
76673757239718	-1.4352417	3.6381683	-1.0179138
76673765632052	-1.1412811	3.5480804	-1.0466919
76673774024386	-0.57598877	3.3975372	-1.111496
76673782416720	-0.21574402	3.141327	-1.2219849
76673790809054	0.21560669	2.8022156	-1.4463348
76673799201388	0.6041565	2.5088043	-1.7087402
76673807593722	0.9269104	2.3442535	-1.983429
76673815986056	1.2824097	2.3176422	-2.3005981
76673824378390	1.5000916	2.4468842	-2.5332031
76673832770724	1.5902557	2.6026611	-2.900406
76673841163058	1.6149445	2.6510315	-3.1725159
76673849555392	1.5026398	2.5666962	-3.4274292
76673857947726	1.1988525	2.3995361	-3.7391357
76673866340060	0.7046356	2.262741	-4.0615387
76673874732394	0.093322754	2.3531952	-3.9074707
76673883124728	-0.30203247	2.7000885	-3.4380188
76673891517062	-0.44615173	3.2021484	-3.0476074
76673899909396	-0.31025696	3.7582397	-2.9430542
76673908301730	0.025619507	4.348755	-3.1815186
76673916694064	0.3124237	5.12027	-3.652588
76673925086398	-0.25585938	6.9587708	-4.0214844
76673933478732	-1.4993591	10.4626465	-4.8506775
76673941871066	-1.7867737	15.501007	-5.778595
76673950263400	-0.13580322	22.065842	-6.5754547
76673958655734	2.6336212	27.900818	-7.196167
76673967048068	3.8529053	28.381866	-7.663681
76673975440402	2.1290588	20.14647	-6.3476105
76673983832736	2.1482239	13.4626465	-5.395691
76673992225070	1.8179932	8.792419	-5.879318
76674000617404	1.3654175	5.6849976	-7.1586914
76674009009738	1.1257935	3.5513306	-8.269653
76674017402072	0.8368225	2.0862122	-8.33548
76674025794406	0.17381287	1.2586823	-6.8449554
76674034186740	0.7562256	1.6753235	-6.4791565
76674042579074	1.0739136	3.3868713	-6.2029266
76674050971408	0.145401	7.610962	-6.041565
76674059363742	-1.9862518	15.738098	-6.271103
76674067756076	-3.4448853	27.45224	-6.469635
76674076148410	0.43789673	34.090057	2.5268097
76674084540744	12.772049	28.2034	9.1914215
76674092933078	16.387619	17.228851	8.986328
76674101325412	11.959381	7.891922	4.796051
76674109717746	5.5358887	3.0355835	0.3381958
76674118110080	2.5797882	0.24299622	-2.8688202
76674126502414	0.017532349	-0.71299744	-4.056778
76674134894748	-3.0719604	-0.7578888	-4.2747803
76674143287082	-5.0114136	-0.5265503	-3.3230286
76674151679416	-5.2626495	-0.14047241	-1.3285522
76674160071750	-4.3042755	0.624588	1.1233368
76674168464084	-3.4149323	2.1436615	2.9025269
76674176856418	-2.0320587	4.539505	3.1517792
76674185248752	-1.156189	7.4147644	2.8765411
76674193641086	-0.39308167	10.0529785	2.8370056
76674202033420	1.2120667	12.345947	3.0625763
76674210425754	4.14859	14.235153	3.2133331
76674218818088	7.3275757	15.489685	2.7442627
76674227210422	8.189377	14.988693	1.3158722
76674235602755	7.0740356	13.286194	0.22377014
76674243995089	4.041275	11.014236	-0.6908417
76674252387423	0.5532379	8.900162	-1.2466431
76674260779757	-1.5289001	7.523819	-1.3434143
76674269172091	-1.3950043	6.9691315	-1.1815033
76674277564425	-0.8473053	6.842224	-0.91789246
76674285956759	-0.892334	6.925308	-0.42962646
76674294349093	-0.9054413	7.026291	0.12503052
76674302741427	-0.69688416	7.0967865	0.6210022
76674311133761	-0.30595398	7.17276	1.008194
76674319526095	0.25994873	7.2967377	1.3232422
76674327918429	0.7631378	7.395447	1.2738953
76674336310763	1.3281708	7.598175	0.7778778
76674344703097	1.9951782	7.9190826	0.1940155
76674353095431	2.5816956	8.338409	-0.2751007
76674361487765	2.702301	8.8280945	-0.6473999
76674369880099	1.842102	9.39299	-1.1240845
76674378272433	0.9228668	9.764862	-1.2437134
76674386664767	0.58262634	9.977814	-0.5097656
76674395057101	0.35121155	10.003372	0.65270996
76674403449435	0.1612854	9.889511	1.7340088
76674411841769	0.17402649	9.785706	2.1614838
76674420234103	0.51994324	9.903	1.6873322
76674428626437	0.8510437	10.281937	1.6294556
76674437018771	0.69511414	10.505936	1.6389313
76674445411105	0.30314636	10.640701	1.5478668
76674453803439	-0.17118835	10.697189	1.4124451
76674462195773	-0.5960388	10.678833	1.3666992
76674470588107	-0.81240845	10.650909	1.3527374
76674478980441	-0.79045105	10.686829	1.3074341
76674487372775	-0.4399414	10.914001	1.1825867
76674495765109	0.058624268	11.299667	1.107666
76674504157443	0.4888153	11.752014	1.1975098
76674512549777	0.71066284	12.2087555	1.5301666
76674520942111	0.72657776	12.719681	2.1573792
76674529334445	1.5217743	13.419891	2.7573853
76674537726779	2.265747	13.842941	3.757782
76674546119113	2.7156677	13.7443695	4.624115
76674554511447	2.8684387	13.063095	4.6665955
76674562903781	2.7871552	11.921234	3.4481964
76674571296115	2.3358765	10.663818	1.3856201
76674579688449	2.1757965	9.783813	0.46484375
76674588080783	2.1400146	9.55748	-0.22512817
76674596473117	2.2388306	9.952591	-0.9660797
76674604865451	2.543991	10.765472	-1.4719696
76674613257785	3.129486	11.642014	-1.1008148
76674621650119	3.9211273	12.283096	0.42263794
76674630042453	4.718048	12.982941	1.5278473
76674638434787	5.2881165	13.513977	1.9081879
76674646827121	5.821747	13.851212	1.8478088
76674655219455	6.5734863	13.970474	1.6463318
76674663611789	7.6208496	13.94014	1.5865479
76674672004123	8.378281	14.077316	1.8549194
76674680396457	7.147949	14.264603	2.3201752
76674688788791	5.137665	13.761124	2.102417
76674697181125	3.5253754	12.494904	1.403656
76674705573459	2.489334	10.698761	0.54823303
76674713965793	1.4774323	8.689194	-0.22869873
76674722358127	0.349823	6.8108673	-0.64123535
76674730750461	-0.7675476	5.827896	-0.9561615
76674739142795	-1.4991455	5.078354	-1.3672333
76674747535129	-1.6721344	4.4879913	-1.6152496
76674755927463	-1.492981	4.101822	-1.6042938
76674764319797	-1.3193512	4.0026245	-1.4125977
76674772712130	-0.8909302	3.9986572	-1.2823792
76674781104464	-0.33146667	3.9642944	-1.3000641
76674789496798	0.021957397	3.8047638	-1.3477783
76674797889132	0.3357544	3.529358	-1.4803467
76674806281466	0.6693115	3.1976624	-1.7001495
76674814673800	0.9356842	2.9088745	-1.9532776
76674823066134	1.135086	2.6865387	-2.3241577
76674831458468	1.3248138	2.6750793	-2.7646027
76674839850802	1.41745	2.7323303	-3.209259
76674848243136	1.4563446	2.8182526	-3.554016
76674856635470	1.4088135	2.8537598	-3.7541962
76674865027804	1.1835327	2.7575836	-3.8536377
76674873420138	0.89338684	2.6249695	-3.8695831
76674881812472	0.7227783	2.4686737	-3.7383118
76674890204806	0.5219574	2.4480438	-3.3318787
76674898597140	0.39970398	2.6186523	-2.8155823
76674906989474	0.36701965	3.0025635	-2.4013214
76674915381808	0.28863525	3.5563965	-2.2275696
76674923774142	0.31306458	4.2551727	-2.5148163
76674932166476	0.31726074	5.1905975	-3.0503845
76674940558810	-0.19880676	7.031433	-3.3735657
76674948951144	-0.9358978	10.338989	-3.995575
76674957343478	-1.1946869	15.400909	-4.896591
76674965735812	0.027267456	22.016663	-5.257538
76674974128146	4.133255	30.073776	-4.441635
76674982520480	4.290741	30.038849	-4.6106567
76674990912814	2.6673737	22.628586	-4.957367
76674999305148	1.3400574	14.03241	-5.4411774
76675007697482	0.9026184	8.233459	-6.329254
76675016089816	0.2293396	4.8146515	-7.8619843
76675024482150	0.009994507	2.940277	-9.051407
76675032874484	0.31703186	1.8696594	-9.175964
76675041266818	0.17533875	1.5213013	-8.351776
76675049659152	-0.69151306	2.4684143	-7.038025
76675058051486	-1.8944397	4.9737396	-5.889908
76675066443820	-2.5600586	8.959549	-5.384903
76675074836154	-1.6846924	14.788025	-5.045929
76675083228488	-0.862381	21.751282	-3.4683838
76675091620822	2.4741364	25.493225	0.6087189
76675100013156	8.050201	23.910355	4.8217163
76675108405490	12.436386	17.425674	6.018112
76675116797824	10.053864	10.467499	2.5018158
76675125190158	5.770752	6.1056213	-0.2578888
76675133582492	3.5980225	3.3040466	-1.665329
76675141974826	1.5938873	1.9291534	-2.3310394
76675150367160	-0.5214691	1.559082	-2.4604187
76675158759494	-2.4025269	1.8087006	-2.2219849
76675167151828	-3.3118591	2.3714752	-1.8605347
76675175544162	-2.9798584	3.0912933	-0.80670166
76675183936496	-2.4029846	3.7260742	0.59684753
76675192328830	-1.5516815	4.4785767	1.6303253
76675200721164	-0.71539307	5.510788	2.182541
76675209113498	-0.02658081	6.929306	2.3061676
76675217505832	0.77871704	8.659515	2.1806793
76675225898166	2.121643	10.435806	1.8784943
76675234290500	4.0356445	12.656189	1.3300171
76675242682834	5.3184814	14.144897	1.019516
76675251075168	5.164215	14.390671	1.1839752
76675259467502	3.470871	13.28035	1.5289154
76675267859836	1.287857	11.214157	1.0967407
76675276252170	-0.3640442	9.320877	-0.2893982
76675284644504	-1.1448517	7.9765472	-1.2845459
76675293036838	-1.500351	7.120926	-1.4174957
76675301429172	-1.6935272	6.6587524	-0.8776398
76675309821505	-1.8216858	6.467621	-0.09370422
76675318213839	-1.7945557	6.4296417	0.57829285
76675326606173	-1.4844208	6.5837097	0.8745117
76675334998507	-0.67633057	6.9605865	1.0559845
76675343390841	0.58839417	7.450424	1.200882
76675351783175	1.683075	7.7990723	1.2503204
76675360175509	2.1789093	7.8255005	1.1570435
76675368567843	2.486206	7.6361237	1.0019379
76675376960177	2.7484283	7.8235474	0.83743286
76675385352511	2.4066772	8.24942	0.49458313
76675393744845	1.9420013	8.717606	0.05618286
76675402137179	1.5750122	9.135925	-0.23646545
76675410529513	1.4166718	9.482849	-0.17704773
76675418921847	1.4843445	9.820114	0.13697815
76675427314181	1.8671875	10.259796	0.35832214
76675435706515	2.2281952	10.652527	0.654541
76675444120614	2.2468414	10.842606	1.0802307
76675452512948	1.8296509	10.858917	1.6119995
76675460905282	1.0994263	10.847275	2.0834656
76675469297616	0.37696838	10.965393	2.1820679
76675477689950	0.10446167	11.166183	1.846283
76675486082284	0.042236328	11.133865	1.3461609
76675494474618	0.05192566	10.967148	1.0076294
76675502866952	6.5612793E-4	10.723938	0.9092407
76675511259286	-0.17648315	10.47731	0.97576904
76675519651620	-0.44805908	10.405823	1.0585022
76675528043954	-0.4779663	10.664047	1.103363
76675536436288	-0.13362122	11.096924	1.0782013
76675544828622	0.450531	11.435669	1.0415955
76675553220956	0.9706726	11.564026	1.0133209
76675561613290	1.187851	11.519394	1.0095367
76675570005624	1.2423859	11.575195	1.0713348
76675578397958	1.4908905	11.898254	1.4033356
76675586790292	1.6439972	12.373352	2.0987701
76675595182626	1.642334	12.698654	3.067871
76675603574960	1.5828857	12.567322	3.8937836
76675611967294	1.6043091	11.811951	4.0356293
76675620359628	1.7216034	10.494873	3.1012573
76675628751962	1.6660767	9.17688	1.2805481
