linearaccelerometer_timestamp	linearaccelerometer_x_data	linearaccelerometer_y_data	linearaccelerometer_z_data
59573301982000	-0.7062211	-0.44482136	-0.42407823
59573322184000	1.5042256	2.6053915	-0.730536
59573328776000	2.414974	3.5177145	-1.7155919
59573338115000	2.1751697	3.4349442	-2.2082427
59573348796000	1.2780304	3.7244391	-2.145587
59573358287000	0.8143351	4.8012567	-1.8592839
59573369059000	0.5263235	5.607169	-1.7083571
59573378276000	0.5075606	5.9263697	-1.7052848
59573389476000	0.6800735	6.1263647	-2.062619
59573398478000	0.79351294	6.5417166	-2.5336485
59573418681000	0.63776565	6.2017026	-3.6722934
59573438701000	0.3056816	5.273811	-4.187504
59573458903000	0.59958863	4.3098764	-5.2824574
59573490306000	2.0799417	1.8282839	-7.2958965
59573498057000	3.1143162	0.8226938	-9.316595
59573518046000	2.5394974	-2.002944	-13.543476
59573551371000	0.8089359	-11.739291	-13.492917
59573569743000	3.3510017	-7.1407447	-3.8889518
59573589457000	-1.1428648	2.4463816	-0.4649253
59573609446000	-0.9987483	5.335943	2.181706
59573649546000	-1.5460824	-2.8392515	1.9055574
59573671153000	-3.8520117	-10.268349	-6.9560914
59573689677000	-3.3769155	-8.129788	10.82456
59573718943000	-1.9459612	4.594229	6.319632
59573738994000	4.3000593	3.2991762	6.401087
59573758983000	7.6583815	-0.6735449	7.346258
59573789348000	5.007963	-5.725753	-4.6602697
59573798686000	3.3368397	-6.3389997	-4.542196
59573809764000	2.3622198	-4.44059	-1.8788111
59573818705000	0.6854328	-1.8099976	0.023640752
59573829356000	-1.2204635	0.4925232	-0.055098176
59573838725000	-2.8947616	1.9206376	-0.60446197
59573850993000	-3.7184587	2.55091	-0.7365712
59573858714000	-3.7162821	2.2332735	-0.9848137
59573869487000	-3.0821342	1.111784	-1.3443787
59573878733000	-2.144382	0.19054794	-1.4158536
59573889476000	-1.17265	0.08169079	-0.52822495
59573898784000	-0.08836919	0.32274055	0.09297156
59573909465000	1.013639	0.44637394	0.046230257
59573918834000	1.2788968	0.41287422	-0.1453079
59573929850000	0.37540042	0.57784367	-0.16859043
59573938823000	-0.69264853	1.0272236	-0.06684035
59573949534000	2.189609	0.43564272	-2.649572
59573958873000	-1.4737563	2.2159033	1.4228148
59573969523000	-1.9175146	1.7579064	0.19440734
59573978862000	-2.2233694	1.145668	-2.6324139
59573989879000	-1.7748802	0.90450764	-3.8899407
59573998881000	-1.1279249	0.6611824	-2.8189015
59574009593000	0.20411271	0.37799644	-1.8101077
59574018931000	2.1333146	0.6533451	-1.2299597
59574031169000	4.1236224	0.5392628	0.030297522
59574038920000	5.319666	-0.08583355	2.1086116
59574049693000	4.563762	-0.14941978	2.2866442
59574058940000	1.7287514	-0.61903954	0.4542583
59574071421000	-1.414686	-1.7025671	-0.7181039
59574080180000	-2.2123635	-2.2469673	-1.1780484
59574093730000	-0.25976765	-2.0241232	-1.1592536
59574098979000	2.2573526	-1.8517056	0.6934563
59574112651000	3.9933524	-1.9404593	2.4325516
59574119029000	4.1707816	-2.0170784	2.4061341
59574132853000	2.793923	-2.2236233	0.31938922
59574139018000	0.30462778	-3.1890478	-2.4256063
59574153270000	-0.88410956	-5.48481	-3.5208437
59574159068000	-0.3224094	-7.277564	-2.7758493
59574174388000	0.388816	-6.650141	-2.531226
59574178965000	0.93353295	-5.4517965	-3.2455678
59574191813000	0.013867021	-4.8767424	-4.0746765
59574200023000	-1.5665112	-5.164731	-4.253358
59574212077000	-2.6064672	-4.8814774	-2.767321
59574219554000	-2.7530398	-3.108265	-0.017080903
59574231334000	-2.7488155	-2.1046	2.268444
59574241008000	-2.7415082	-2.3768177	3.7007203
59574252330000	-3.0387146	-3.3790255	5.3330026
59574259166000	-2.3522444	-4.9236374	6.2810845
59574272227000	-1.9970951	-7.07302	4.7078824
59574279643000	-1.6643252	-8.855167	2.412703
59574293742000	-0.93301964	-9.233645	0.3746975
59574299113000	0.5039152	-7.891721	-1.2903397
59574311656000	0.65899587	-6.137295	-0.18077508
59574320598000	-0.29446897	-5.9908705	0.8031454
59574332347000	-1.5529712	-6.652484	0.7245283
59574339213000	-1.9174966	-6.87119	-1.0173725
59574350291000	-3.0547647	-6.3399734	-1.1990336
59574359263000	-3.6205566	-5.1447477	0.24543753
59574369944000	-4.1065383	-3.842636	2.2080195
59574379283000	-3.2521186	-1.7344284	2.7753015
59574391520000	-1.5841986	0.6325836	2.2842731
59574399302000	0.120753765	2.7958755	1.730947
59574410136000	1.1161168	4.5116243	1.8202223
59574419322000	1.8343549	5.0587635	1.4065481
59574429911000	0.85022104	4.6250725	1.3376334
59574439311000	0.16720626	5.1310415	1.9593326
59574450084000	-0.21112752	6.4875827	3.040096
59574459391000	-0.7577441	7.4673967	3.8145633
59574470378000	-0.9497546	8.255063	4.5383224
59574479380000	-0.9516373	9.124009	4.6634426
59574490123000	-0.9993404	9.753768	4.597948
59574499400000	-1.0535642	10.082193	4.3781466
59574510112000	-1.2504038	10.042058	4.238039
59574519450000	-1.3966649	9.8353815	3.9248483
59574530497000	-1.0936575	9.682542	3.5691426
59574539470000	-0.6719322	9.377487	2.959731
59574549418000	-0.44319355	9.062186	2.304988
59574558787000	-0.6792504	8.741856	1.6547525
59574571086000	-1.1141067	7.994316	0.20292783
59574578776000	-1.2204485	6.164731	-3.098788
59574589549000	1.4763819	2.4276862	-10.408387
59574598857000	2.4958918	-1.708353	-17.20569
59574609507000	4.8352776	-7.7362556	-20.737404
59574618876000	4.8782034	-10.376308	-19.002865
59574631785000	5.4329185	-10.391751	-16.839382
59574638896000	8.972832	-10.392313	-13.675425
59574649852000	7.801893	-6.4106903	-10.061964
59574658915000	1.9142141	-0.8676872	-2.8036008
59574669566000	-0.20455024	2.0072393	-1.1137543
59574678935000	-0.72063625	2.8630548	-0.7465029
59574689555000	-0.6381591	3.625531	0.05708456
59574698954000	-1.030133	4.6689425	1.8851719
59574710032000	-4.2716794	2.3277965	4.7644696
59574718913000	-4.4057713	-1.918067	7.3474226
59574729655000	-3.3753953	-4.222456	6.3764963
59574738994000	-4.298096	-5.6294527	0.78342795
59574751963000	-6.649969	-8.974965	-6.023002
59574759654000	-7.842374	-10.777359	-10.068296
59574770396000	-7.174923	-10.784272	-0.11273193
59574779612000	-0.43074846	-6.501652	11.735068
59574790385000	2.5876408	2.5549479	12.453458
59574799693000	3.2908525	7.0642977	11.114568
59574810466000	3.6885257	7.6570044	9.826564
59574819712000	4.744666	5.7717113	10.268352
59574830760000	6.942795	2.7953362	10.21467
59574839732000	7.370636	-0.951931	7.955385
59574850474000	6.5185347	-3.54667	3.4042377
59574859752000	5.6804204	-5.1480675	-2.2107158
59574870433000	4.5237927	-8.063953	-7.234479
59574879741000	2.8710613	-9.092885	-6.8704677
59574890849000	1.3502551	-6.1573334	-0.6870443
59574899791000	-0.26981616	-2.8395557	2.0711937
59574910441000	-2.0241575	-0.17472076	1.2510129
59574919810000	-3.8031776	1.307765	-0.7009398
59574932078000	-4.741292	1.8242903	-1.9478804
59574939830000	-5.005177	2.042859	-1.7571247
59574950602000	-4.490023	0.9118662	-2.194529
59574959849000	-3.1901686	-0.3853016	-2.7518096
59574970530000	-1.3107867	-0.32731533	-2.0772483
59574979869000	0.5097805	0.58592606	-0.17444849
59574990580000	1.7282106	1.2268286	0.8193735
59574999919000	2.166316	1.3483686	0.5241723
59575011027000	1.9524453	1.4010344	-0.30255544
59575019999000	1.0842881	1.8916073	-0.5803295
59575030681000	0.21572863	2.5757976	-0.068318844
59575040019000	-0.8422382	2.61938	-0.067217946
59575050700000	-1.9255185	1.9899988	-1.8452284
59575060222000	-1.6816038	1.388628	-2.4832537
59575071269000	-0.79492176	0.7398062	-1.0057964
59575080272000	0.081587255	-0.023191452	0.13041002
59575091014000	0.77386934	-0.118349075	0.41201103
59575100444000	1.0230492	0.6844301	-0.4929405
59575112681000	1.5359142	0.42672253	-2.2714841
59575120616000	2.0445523	-1.5403605	-2.53792
59575131389000	2.1139135	-2.538475	-1.7011681
59575140635000	1.1595745	-2.3241282	-0.6842601
59575151500000	0.33096623	-2.1420937	-0.39678222
59575160838000	1.3590745	-2.1345825	-0.6724282
59575173777000	3.6599085	-2.423973	-0.30682665
59575181041000	5.0486546	-2.8201904	0.32711947
59575192027000	4.4815755	-3.1239433	0.011052147
59575201060000	2.483025	-3.5311909	-1.1242075
59575220225000	0.653322	-4.0702724	-2.9820964
59575230845000	0.5723512	-5.440671	-3.6958272
59575240245000	2.0054743	-7.024311	-2.2609277
59575251262000	2.1439123	-5.870229	-1.2801732
59575260264000	0.87611747	-4.301449	-2.003886
59575270915000	-0.6402743	-3.3989725	-3.0608163
59575280284000	-1.6357163	-2.6951265	-3.0837007
59575292521000	-1.4217414	-2.7891684	-1.0783143
59575300303000	-1.3685275	-3.9434662	0.6754255
59575311015000	-2.7904208	-5.602256	4.1253724
59575320323000	-3.7137885	-6.8173	9.571047
59575330912000	-4.4408975	-8.910876	10.782007
59575340342000	-5.159338	-10.327076	8.525146
59575350962000	-4.3434243	-10.449796	4.6829214
59575360392000	-3.0279765	-10.337689	1.3211633
59575371348000	-2.5992756	-9.009505	1.019938
59575380381000	-1.2487562	-7.712364	-0.46203646
59575391032000	-3.0368059	-8.344553	0.93617904
59575400401000	-3.690874	-8.03304	0.7543492
59575411052000	-3.0156312	-7.387187	-0.5340849
59575420421000	-3.2317824	-7.5754557	-0.28255585
59575431437000	-3.420298	-6.788165	1.31352
59575440440000	-3.344233	-4.8700123	2.897366
59575451060000	-1.5095015	-2.114874	3.6096416
59575460429000	0.9054691	1.0750189	3.2563384
59575472667000	2.1000628	2.6887488	2.7845707
59575480479000	2.3438375	2.8846169	1.9458808
59575491221000	1.5372391	2.431993	0.78572935
59575500468000	0.82296383	2.7585864	0.22113019
59575511119000	0.20894423	4.2459683	1.6236217
59575520488000	-0.53453785	5.9621067	3.2135694
59575531108000	-0.88225394	7.5420303	4.114879
59575540507000	-1.3460387	8.725662	4.765434
59575551494000	-1.5665388	9.882734	5.0684013
59575560527000	-1.6095433	10.728825	5.067427
59575571208000	-1.53401	11.163387	4.8939095
59575580546000	-1.653028	11.247543	4.711685
59575591227000	-1.5782927	11.062492	4.427833
59575600566000	-2.3077815	10.855342	3.953387
59575611613000	-3.503621	11.052828	3.1177187
59575620585000	-3.9699752	11.267303	2.4142334
59575631236000	-2.3867323	9.934254	0.91703606
59575640605000	-1.0510942	7.1336594	-1.2306415
59575652812000	3.2464366	2.5958343	-8.341427
59575660624000	2.557041	0.6501789	-8.529157
59575671367000	2.1879647	-2.979104	-11.084377
59575680644000	4.3107977	-8.778936	-18.119385
59575691325000	2.1598527	-10.011161	-20.188454
59575700663000	2.5413191	-10.011963	-20.14197
59575713542000	6.4188485	-10.00405	-14.026952
59575720652000	5.1909795	-7.311778	-7.9330206
59575731669000	0.82826483	-4.818424	-0.86570406
59575740702000	-0.7838115	-5.1042833	-0.43434334
59575751323000	-1.2090464	-4.123213	-0.5237708
59575760722000	-2.0702488	-4.274789	-4.471236
59575771403000	-2.20052	-7.9084883	-8.631136
59575780742000	-1.2016965	-11.041642	-8.878292
59575791789000	-2.036466	-10.413819	-5.76209
59575800761000	-2.5729585	-4.3314285	7.9307756
59575811412000	-4.8839827	5.4495716	23.75268
59575820781000	-7.1503673	10.737815	23.189392
59575833018000	-5.469573	11.595473	15.541202
59575840770000	-2.2604182	10.332354	11.378732
59575851573000	0.71414924	7.3984957	2.6419785
59575860820000	2.5082912	1.0137434	-0.9659751
59575871501000	4.1328316	-4.9074793	3.6021717
59575880839000	5.070221	-9.047097	5.672928
59575891490000	5.395604	-10.491953	0.13845444
59575900859000	7.2572684	-10.584442	-7.078234
59575911876000	8.790068	-9.072468	-7.9398003
59575920878000	3.9053025	-3.2543106	-3.4304698
59575931559000	1.727402	1.416645	-1.1101571
59575940898000	0.92342275	4.426792	-0.40987203
59575951518000	0.7962878	6.1024036	-0.9170964
59575960887000	0.79368806	6.461194	-1.2398137
59575971934000	0.45577437	5.264157	-1.2649271
59575980906000	0.03648019	3.4529943	-0.554141
59575991587000	0.44008982	0.6709862	-0.28432962
59576000956000	0.9796155	-1.9978209	0.014831424
59576013011000	2.1522975	-3.1480236	-0.008791447
59576020854000	3.002396	-2.3883858	0.15642798
59576031596000	2.7483232	-0.20828533	-0.09384513
59576040843000	1.6491367	1.3937149	-0.92654264
59576051494000	0.17954528	1.5667534	-1.2139733
59576060862000	-1.1896434	1.3716917	-0.44225383
59576071544000	-2.1148014	1.3435001	0.16244546
59576080882000	-2.3966184	1.1579762	0.5245222
59576091899000	-2.5559952	1.0920429	0.04442537
59576100901000	-2.9521408	1.4662132	-0.9616176
59576111583000	-3.455388	2.1358151	-1.8773923
59576120921000	-3.9366689	2.1389475	-2.4009082
59576131572000	-3.409471	1.7245789	-1.7351403
59576140941000	-2.2424927	1.2912045	0.37701106
59576152049000	-0.26322627	0.52277374	1.4108529
59576160960000	2.0257819	-7.4386597E-4	1.3156133
59576171580000	3.986416	0.22756481	1.2831213
59576180980000	4.605151	-0.1798296	1.312351
59576195414000	3.9546838	-1.6639957	0.8510851
59576200999000	2.1889424	-2.5164146	0.0013123155
59576211711000	-0.4903192	-3.0908203	-1.8969082
59576221019000	-2.7210298	-3.531167	-2.119829
59576231700000	-1.8901922	-3.600751	-0.4009332
59576241038000	1.677684	-4.0775385	1.8117445
59576251689000	4.959738	-4.458153	2.5465612
59576261058000	5.6336665	-4.3171406	0.9774268
59576272075000	4.343299	-3.9346771	-1.4692885
59576281077000	2.7575383	-4.3541565	-2.472303
59576291758000	2.0281913	-5.2562075	-2.0613356
59576301097000	1.5467207	-5.4704695	-1.9874097
59576311717000	1.1494789	-5.626338	-2.6976342
59576321116000	0.20522428	-6.037751	-2.9953694
59576332164000	-0.9477405	-5.4252567	-2.1872172
59576341136000	-1.6253672	-3.892292	-2.0246437
59576351848000	-2.8469937	-3.0626106	-2.9885645
59576361155000	-4.3503118	-2.747756	-1.9913784
59576373393000	-4.9882874	-3.0222445	-0.9421897
59576381175000	-5.0626206	-3.849328	0.8316566
59576392009000	-4.0061626	-5.0963087	7.773658
59576401194000	-3.0834038	-7.0410967	12.243255
59576411845000	-3.5560503	-8.708986	9.849879
59576421214000	-3.2042072	-8.89162	4.501222
59576431926000	-0.8445254	-7.557454	-3.1299028
59576441233000	0.30595455	-6.036742	-4.373505
59576452250000	0.05011195	-5.608529	-1.9114211
59576461253000	-1.4424601	-6.6052914	0.04963146
59576471965000	-2.2737894	-7.082818	0.3477011
59576481273000	-2.7916498	-6.7702265	-0.40186727
59576492015000	-3.6577644	-6.5940847	-0.25382367
59576501292000	-3.363041	-5.0342226	1.3396075
59576512400000	-1.8709811	-2.2594051	2.7507436
59576521342000	-0.6571797	0.9817238	2.834942
59576532023000	1.3461046	3.5909996	2.0040312
59576541362000	2.2881558	4.9696555	2.4370413
59576553630000	1.2667773	5.190334	2.633519
59576561351000	0.14277107	5.2711935	2.4691467
59576572093000	-0.36255512	5.8721	2.683023
59576581370000	-0.8373536	6.5652122	3.4611652
59576592051000	-1.0883632	7.595809	4.3132234
59576601420000	-1.2375591	8.487166	4.911914
59576612071000	-1.450636	9.375082	5.3109245
59576621409000	-1.6856769	10.22668	5.4062104
59576632487000	-1.7974914	10.823273	5.3109837
59576641459000	-1.7849269	10.759039	5.301202
59576652140000	-1.6034694	10.3804865	5.186218
59576661479000	-1.266143	9.798908	4.807823
59576672099000	-1.0100514	9.313835	4.2729635
59576681498000	-0.8851652	8.8520775	3.722076
59576692576000	-1.0513533	7.924024	3.0616617
59576701518000	-1.2253094	6.2406816	2.0333524
59576712138000	1.6855352	1.8606052	-6.7995186
59576721537000	2.500996	-0.50228786	-9.745475
59576733775000	4.140503	-3.6590996	-16.060982
59576741557000	5.5483384	-7.9944153	-21.810299
59576754557000	2.7822275	-10.450811	-22.204464
59576761607000	1.215094	-10.453566	-21.52224
59576772441000	5.2980747	-10.40966	-16.987968
59576781749000	5.2970295	-6.451353	-13.703249
59576792460000	-0.11099604	-2.8013873	-3.2541242
59576801982000	-1.7450582	-0.5703678	-0.59643936
59576812938000	-2.0205536	-1.4023046	0.88807535
59576822032000	-0.62563235	-2.5604877	2.173158
59576832835000	-0.35644644	-1.3594122	2.7745888
59576842173000	-1.5049589	-1.7463703	-0.533576
59576852855000	-3.0450084	-5.6314716	-4.316133
59576862407000	-4.241384	-8.501334	-6.0844665
59576873362000	-4.4529753	-7.927701	-4.549137
59576882426000	-2.346023	-5.535285	5.3034253
59576893260000	-1.4082977	-0.24313736	16.92547
59576902598000	-1.9658331	5.1286426	18.036222
59576914836000	-1.663528	7.3942947	12.657594
59576932505000	-0.4906156	7.3898087	6.7570305
59576941752000	0.90824234	5.901575	1.2200143
59576952464000	1.7997849	1.9626684	-1.1497351
59576961741000	4.732996	-1.40697	3.5441833
59576972453000	6.8095136	-4.39653	7.333566
59576981761000	7.3259735	-6.1303453	4.819299
59576992778000	5.6216373	-6.3320923	-0.62611735
59577002147000	4.5625644	-5.542798	-3.9309235
59577012553000	2.9965782	-3.6763897	-3.1682816
59577021922000	1.2646081	-1.0950651	-1.1728605
59577032573000	-0.2672931	1.0878983	-0.20414394
59577041942000	-1.4043467	2.3146777	0.011521697
59577052958000	-1.8780851	2.8020844	-0.18434143
59577061931000	-1.9662836	2.551384	-0.718811
59577072612000	-1.764427	1.578167	-0.5980532
59577081950000	-1.3085876	0.50836754	-0.23234487
59577094218000	-0.5631547	-0.1384964	-0.21182615
59577101970000	0.0774471	-0.086159706	-0.27060616
59577112773000	0.63514847	-0.046538353	-0.34358567
59577122020000	1.1394906	0.5490351	-0.32740343
59577132701000	1.1496603	1.1045103	-0.76317906
59577142070000	0.8202815	1.4368	-0.5182009
59577152690000	0.41826516	1.7812653	-0.35022274
59577162028000	0.079393566	2.058878	0.16555351
59577173014000	-0.2274997	2.1296024	0.56796247
59577182048000	-0.6813959	1.8253317	-0.04584831
59577192729000	-1.5330691	1.0658092	-1.7992916
59577202067000	-2.279897	0.48854923	-2.8663256
59577212687000	-1.8122209	0.42099857	-2.44208
59577222148000	-0.66388595	0.32297993	-0.9839684
59577233165000	0.7453513	0.13493252	-0.032263562
59577242167000	1.9672214	0.544816	0.62992144
59577252787000	2.756964	0.970521	0.6429285
59577262126000	3.1088762	0.16879463	0.24910352
59577274394000	2.9266026	-0.7810888	0.091557175
59577282145000	1.4172827	-1.2051916	0.29414442
59577294932000	-1.3165073	-1.9015226	0.20482117
59577302165000	-3.274894	-2.5854263	-0.41752195
59577312816000	-2.0824945	-2.632784	-1.0516803
59577322215000	0.96122634	-2.7554808	-0.050676003
59577332896000	3.606427	-2.8685284	2.0833478
59577342204000	4.7384076	-2.6200666	2.501626
59577353251000	4.0384617	-2.414319	1.0173817
59577362223000	1.7742032	-2.4874458	-1.3958672
59577372905000	-0.03983605	-3.2584848	-3.7024763
59577382274000	0.26198828	-5.637395	-3.7435386
59577392924000	1.0186424	-6.942253	-2.8666217
59577402293000	0.87699735	-6.1249065	-3.0256946
59577413340000	0.21207571	-5.3337517	-3.2477078
59577422282000	-0.9747963	-4.0044317	-3.7262022
59577432902000	-2.117566	-3.1840134	-4.7267694
59577442332000	-2.761105	-2.4207888	-2.0341887
59577454570000	-2.4400005	-1.8479586	1.6165918
59577462352000	-2.1771758	-2.2525463	3.974093
59577473094000	-2.9253478	-3.562045	7.1456556
59577482341000	-2.8979928	-5.388938	9.132442
59577492991000	-3.4272015	-7.53765	7.619659
59577502452000	-3.4146106	-9.20886	3.9024243
59577512919000	-2.2243524	-9.652948	-0.1385901
59577522258000	-0.7900767	-8.371513	-2.1103532
59577533275000	1.2006603	-6.277398	-2.2871082
59577542277000	0.6711013	-5.8301773	-0.14932239
59577552989000	-0.66997254	-6.943574	0.5041019
59577562327000	-1.1580794	-7.6017303	-0.117760554
59577572978000	-1.8065088	-6.8594904	-0.54752326
59577582347000	-2.8733249	-5.8848324	0.6149105
59577593364000	-3.3508718	-4.2458353	3.317255
59577602366000	-2.695968	-1.4758434	3.8013086
59577613017000	-1.8289659	1.325386	2.4895754
59577622386000	-0.58409876	2.9928408	1.5786425
59577634593000	0.32002255	4.1750712	1.6905024
59577642405000	0.87499213	4.4722085	1.6351622
59577653117000	0.2482742	4.276616	1.8964024
59577662425000	-0.22495413	4.6714787	2.2460032
59577673076000	-0.3130784	5.803334	3.3297389
59577682475000	-0.6855966	6.998273	4.380616
59577693034000	-1.14625	7.8957577	4.8528123
59577702494000	-1.4831436	8.906917	5.214537
59577713389000	-1.7181636	9.715865	5.1497493
59577722483000	-1.647795	10.242446	5.181662
59577733104000	-1.7991517	10.178832	4.874439
59577742473000	-1.8228315	10.118454	4.7179585
59577753154000	-1.944493	9.8939495	4.653698
59577762492000	-1.9481084	9.665378	4.197195
59577773509000	-2.2073607	9.648754	3.4087362
59577782542000	-2.6544292	9.315461	2.7683158
59577793193000	-1.6242143	7.7920423	1.5653508
59577802531000	-0.42078167	5.5517817	-0.60111135
59577814738000	2.9063406	1.6594028	-9.333909
59577822520000	2.4208226	-3.3485117	-17.756493
59577833262000	5.3912563	-9.930941	-23.411858
59577842570000	5.952156	-11.069786	-23.403383
59577855204000	3.5645776	-11.092814	-23.679976
59577862559000	9.055483	-11.068649	-21.081348
59577873240000	6.712433	-5.9272184	-16.395792
59577882579000	0.43556452	0.35034084	-4.107799
59577893626000	0.013544977	2.2956958	-0.18105364
59577902629000	-0.4042922	2.3777785	4.2983074
59577913279000	-2.9192908	1.8792167	6.1786256
59577922648000	-2.4730887	-0.18138885	6.134689
59577933299000	-0.7945948	-0.76562977	5.8420634
59577942668000	-1.5060993	-1.2375774	2.3676906
59577953715000	-2.8414915	-4.2695484	-3.8990617
59577962657000	-2.3419466	-7.9808636	-8.518526
59577973338000	-2.1281905	-10.155591	-8.746002
59577982676000	-2.4047623	-9.779619	1.4278567
59577995005000	-2.3290462	-5.7205467	12.494776
59578003032000	-4.3650045	-0.21685028	14.733515
59578013530000	-4.390128	4.868964	13.526872
59578022837000	-2.775219	8.200054	9.784243
59578033519000	-3.0644503	8.333484	2.848845
59578042857000	-2.133813	5.6599817	-2.0353312
59578053599000	2.7544935	2.165882	1.9372166
59578062846000	8.006944	-0.5465479	8.337656
59578073924000	11.475298	-2.8630009	10.1637335
59578082866000	11.501018	-5.2367992	4.684342
59578093577000	10.291071	-7.0858746	-2.5647497
59578102946000	8.826276	-7.6743593	-6.0270305
59578113566000	3.4894822	-5.339198	-3.2800312
59578122935000	1.760782	-2.202159	-0.6846
59578133983000	-0.13043666	0.45145512	-0.084017396
59578142955000	-1.7743154	2.2306967	-0.42400163
59578153605000	-3.1309025	3.0487428	-0.89703786
59578162974000	-3.6115372	3.0155296	-1.2513713
59578175242000	-3.4775822	2.4305449	-1.3607707
59578182963000	-3.1835663	1.6247263	-1.2711544
59578193736000	-2.504651	0.72777843	-1.4475074
59578203044000	-1.3274235	0.15506077	-1.3423536
59578213664000	0.19729075	-0.29673767	-0.8767626
59578223033000	1.5646281	-0.04646778	-0.34393984
59578233683000	2.0190713	0.6806345	0.20341581
59578243052000	1.7236068	1.3340445	0.19179988
59578254069000	1.3467636	1.9054914	0.30678338
59578263041000	0.7062772	2.3723469	0.3912182
59578273692000	-0.08619067	2.6025271	0.5409233
59578283061000	-1.1535558	2.1663203	-0.4475177
59578293773000	-2.5776756	1.2350903	-2.2678275
59578303111000	-2.9012554	0.5649357	-3.224647
59578314128000	-2.0383768	0.43258476	-1.614394
59578323130000	-0.67043316	0.27103806	0.3730246
59578333781000	1.276217	0.5097494	1.0498549
59578343150000	3.1436768	1.0227385	0.8564242
59578355418000	4.3527565	0.35878658	0.44440266
59578363139000	4.5385795	-1.311698	0.4398048
59578373912000	3.3825653	-1.9680614	-0.22824149
59578383159000	-0.035461664	-2.449706	-1.213874
59578395793000	-3.0801485	-3.0160027	-1.4610394
59578403209000	-2.9718509	-3.085062	-0.7488535
59578413829000	0.19669864	-3.2479563	0.23952977
59578423228000	3.5216024	-3.4347515	1.554446
59578434184000	5.053148	-3.4411297	1.6047082
59578443217000	4.609315	-3.5228767	0.4693079
59578453929000	3.5307589	-4.695072	-0.6899171
59578463450000	2.4496515	-6.0079393	-1.2484231
59578474070000	1.4199905	-5.9604435	-2.2723808
59578483439000	1.236629	-6.05624	-3.328852
59578494670000	0.08528292	-6.4879675	-3.1840796
59578503672000	-1.216816	-6.4650774	-3.4688032
59578514262000	-2.3640876	-6.143734	-4.6778774
59578523814000	-3.5841846	-4.7463417	-3.8578863
59578536052000	-4.3118105	-2.779212	-1.1845405
59578543803000	-4.6743917	-1.6721087	0.42100298
59578554698000	-4.6399636	-1.3374176	3.5798464
59578564006000	-3.29377	-2.5490437	8.547909
59578574687000	-2.368069	-4.958619	9.300733
59578584239000	-2.8209755	-7.6087246	6.7593875
59578594889000	-2.1997926	-9.20015	2.548577
59578604228000	-0.40131783	-8.655372	-1.4441762
59578623362000	1.5398332	-6.299658	-3.839452
59578634013000	1.1378157	-4.526829	-1.8250369
59578643382000	-0.49052054	-4.909869	0.3180822
59578654094000	-1.6237072	-6.2152348	0.7692795
59578663401000	-2.3561192	-6.467355	0.28289413
59578674449000	-3.881295	-6.300194	-0.53245986
59578683421000	-4.581103	-5.78139	0.16452698
59578694102000	-3.8860326	-3.572073	2.149991
59578703441000	-1.861382	-0.3862028	2.4224906
59578715709000	0.19628829	2.5423212	2.2825003
59578723460000	1.3698791	4.4718633	2.4284914
59578734233000	2.4758115	5.7734966	2.2459676
59578743480000	1.997688	5.6775284	1.9977179
59578754161000	0.6311013	5.463753	1.630624
59578763499000	-0.20907792	5.8641005	2.0432363
59578774180000	-0.60868573	6.569398	3.3749928
59578783549000	-0.9412656	7.664074	4.5263233
59578794474000	-1.3897312	8.62816	5.008756
59578803538000	-1.5063726	9.217376	5.1409893
59578814219000	-1.4048014	9.943162	5.4443254
59578823558000	-1.0869452	10.26469	5.375307
59578834239000	-0.875026	10.151806	5.330787
59578843577000	-0.81637776	9.900582	5.2141676
59578854625000	-1.2448066	9.7298565	4.810829
59578863597000	-1.2378055	9.665771	3.9843879
59578874217000	-1.3775973	9.282811	3.0601254
59578883616000	-0.92108816	8.330991	2.1228426
59578895854000	0.32531393	6.4761467	0.39494175
59578903636000	3.059612	2.6748114	-7.6132536
59578914348000	2.6776853	-0.26572895	-9.725311
59578923655000	3.7642438	-6.2054358	-18.316824
59578934306000	6.374827	-10.157043	-21.796618
59578943705000	3.85086	-10.170917	-21.786095
59578956340000	6.4261847	-10.146428	-18.400772
59578963725000	7.0789514	-8.705983	-15.780775
59578974742000	1.6388606	-2.5733457	-5.248405
59578983744000	0.25346875	1.3990178	-1.85741
59578994365000	-1.1960025	1.380784	2.4824471
59579003733000	-3.6611347	-1.4252939	4.391011
59579014384000	-3.5157418	-3.713234	3.41323
59579024211000	-2.5421677	-3.1086187	3.1081226
59579034251000	-2.870314	-3.767352	0.2977543
59579043193000	-3.9192257	-7.335368	-4.227889
59579053813000	-3.9022899	-10.273207	-7.7463
59579063182000	-3.8013895	-8.752741	-6.7540784
59579075480000	-1.6171796	-5.8850985	1.1900773
59579083201000	-0.9589894	-1.2642117	13.0555
59579093974000	-3.0710254	4.215907	18.810858
59579103221000	-4.282203	7.8939366	14.589396
59579113902000	-3.197151	9.285091	8.644461
59579123240000	-1.993995	8.665076	2.8645043
59579133921000	-0.71520114	6.2917223	-3.7893338
59579143290000	3.4665933	2.1668906	-0.5605818
59579154307000	9.228932	-1.5539246	7.9912252
59579163279000	12.102773	-5.839137	10.514079
59579173961000	10.547998	-8.944624	4.050452
59579183329000	9.199606	-8.916218	-3.1284158
59579194011000	3.9929588	-6.7960873	-5.543172
59579203349000	1.6413575	-3.3489285	-3.0935078
59579214366000	-0.5896136	-0.008198738	-0.8507059
59579223338000	-2.1017582	2.0950956	-0.30904096
59579233958000	-3.0382814	3.415936	-0.32706934
59579244059000	-3.3305192	3.7128496	-0.70887464
59579256327000	-2.8796322	3.3721547	-0.5667636
59579264079000	-2.039092	2.177796	-0.2101261
59579274821000	-0.9883094	0.345541	-0.19490916
59579284129000	-0.36062372	-1.1912546	-0.03759682
59579294780000	0.3878551	-1.6175499	-0.34741116
59579304118000	1.3487592	-1.4130344	-0.5748405
59579314769000	1.8169887	-0.25791454	-0.84602654
59579324138000	1.3623872	1.2470865	-0.8582732
59579335154000	0.38061407	2.0555015	-0.8113228
59579344157000	-0.13994156	2.2428617	-0.117735624
59579354808000	-0.23661095	2.400393	0.30710912
59579364177000	-0.41657415	2.291201	0.32092768
59579374858000	-0.7474761	1.535574	-0.2335974
59579384196000	-1.2592201	0.6160288	-1.7906206
59579395213000	-1.5469835	0.4069805	-2.8799517
59579404246000	-1.307029	0.47817326	-2.5504909
59579414866000	-0.50964844	0.094825745	-1.1879256
59579424235000	0.8244003	0.020528793	-0.55431587
59579436686000	2.4657116	0.67945004	-0.38349283
59579444285000	3.8769784	0.85163975	0.096813776
59579455180000	4.617574	-0.3760643	1.0808767
59579464457000	4.073854	-1.2682676	1.6106571
59579476054000	1.9117702	-1.3770733	0.4893369
59579484538000	-1.9961654	-1.63445	-1.5499244
59579496898000	-3.5190449	-1.8126316	-2.0253508
59579504283000	-1.7123742	-2.404086	-0.91542584
59579515330000	1.433166	-3.015442	1.2045877
59579524302000	3.7532449	-3.4022636	2.451148
59579534953000	4.6160984	-3.6059437	1.3602785
59579544383000	4.153525	-3.9244356	-0.42446315
59579555034000	3.3606374	-4.983137	-1.4847399
59579564372000	2.2200415	-5.60635	-2.2617655
59579575389000	1.6658502	-5.506261	-2.566505
59579584391000	1.5142746	-5.831192	-2.6559632
59579595012000	-0.060055017	-5.9258404	-3.0674706
59579604411000	-2.419774	-6.1052494	-3.3359902
59579616679000	-4.4487457	-5.046282	-1.4839514
59579624431000	-5.818444	-3.650405	0.31272042
59579635142000	-7.045837	-3.544261	0.8816887
59579644450000	-6.6956983	-4.117427	2.6931832
59579655131000	-4.3454795	-4.9821186	8.142096
59579664470000	-3.2409515	-6.6852064	8.58975
59579675120000	-3.2875152	-8.561213	4.6358414
59579684489000	-2.3681118	-9.1478405	-0.1870836
59579695506000	-0.7564552	-7.96037	-2.7858074
59579704509000	0.96218324	-6.1453476	-3.3835707
59579715190000	0.0045019984	-5.88999	-0.27065074
59579724528000	-1.489125	-7.0717125	1.1742088
59579735209000	-2.0631964	-7.5441494	0.53438467
59579744548000	-2.7965846	-6.3347034	0.047508627
59579755595000	-3.2792764	-4.910116	0.58285147
59579764567000	-3.3688226	-3.4782133	2.121062
59579775218000	-3.0462935	-1.0148354	3.4005194
59579784587000	-1.0541483	1.3880405	2.6337237
59579796855000	0.33328837	3.144771	2.0497608
59579804606000	2.0928462	4.818641	2.4020333
59579815379000	2.2645464	5.2884746	2.5476675
59579824626000	0.8756118	5.0169525	2.0219982
59579835307000	0.0221861	5.419292	2.2159073
59579844645000	-0.2519257	6.5868783	3.464024
59579855296000	-0.5732643	7.533723	4.4464507
59579864665000	-0.850832	8.324009	4.9492035
59579875621000	-1.094731	9.274924	5.269417
59579884684000	-1.0868298	10.060306	5.54875
59579895335000	-0.94301975	10.581427	5.6406965
59579904704000	-0.9371935	10.7374325	5.4317803
59579915385000	-0.81898284	10.679278	5.3653283
59579924723000	-0.7848411	10.374589	5.1155624
59579935771000	-1.0150003	10.099831	4.6840115
59579944743000	-0.91414917	9.695468	3.945013
59579955424000	-0.711182	8.6716	2.9071183
59579964763000	-0.26836917	6.904538	0.6488793
59579976970000	2.114074	2.558268	-9.217754
59579984782000	1.7744195	-0.21066761	-12.323183
59579995494000	3.7643335	-6.3364134	-20.284811
59580004771000	6.7078505	-10.281272	-21.557743
59580017283000	3.182863	-10.320113	-21.68216
59580024669000	8.072827	-10.316237	-18.373203
59580035319000	8.65519	-8.975446	-14.661219
59580044749000	1.908839	-2.875536	-4.596274
59580055705000	0.037435114	1.1762495	-1.8121939
59580064708000	-1.4175019	2.188181	1.5791802
59580075358000	-4.0883527	-0.32177162	3.3888295
59580084727000	-3.4243171	-2.5357647	4.420574
59580095378000	-2.412002	-1.9144888	5.3434343
59580104747000	-3.599077	-2.9516582	1.3126109
59580115825000	-5.558184	-7.555049	-5.5007296
59580124766000	-5.137897	-9.952856	-10.9887085
59580135417000	-4.4866405	-8.700989	-6.632063
59580144786000	-1.688648	-3.795391	12.569649
59580157237000	-1.4636778	3.0761614	19.134851
59580164958000	-2.1637967	7.1187325	15.654347
59580175731000	-1.8310149	8.392405	10.289048
59580185191000	-0.35861826	7.7463923	4.8216987
59580195872000	1.5145316	3.8512745	0.6417497
59580205211000	4.090153	-0.8857193	3.1291976
59580216075000	6.2995386	-4.2869587	7.356852
59580225383000	6.9087133	-6.4419794	6.003172
59580236461000	5.5424333	-6.7350283	0.5098748
59580245585000	5.040596	-6.0245714	-3.8182821
59580256297000	4.008971	-4.4547157	-4.2891903
59580265788000	2.40483	-2.2054396	-1.8242445
59580276469000	0.7439648	-0.028629303	-0.13781631
59580285838000	-0.45956093	1.1390381	0.07680988
59580304942000	-1.2973456	1.6327648	-0.1365546
59580315562000	-1.31078	1.9319372	-0.7221839
59580324962000	-1.4559789	1.3053284	-0.66337097
59580337260000	-1.4531051	0.67240906	-0.3632058
59580344981000	-1.0936329	0.16765404	-0.31913346
59580355754000	-0.6736407	0.060338974	-0.4394995
59580364970000	-0.47609043	0.23199558	-0.39800805
59580375651000	-0.523086	0.21634388	-0.5954875
59580385051000	-0.31816608	0.1498928	-0.54786503
59580405040000	0.70998836	1.1789026	-0.63358307
59580415995000	0.6465759	1.5334635	-0.603552
59580425090000	0.2895473	2.2217822	-0.17139316
59580435740000	-0.17617491	2.8616424	0.43573463
59580455760000	-1.1751283	1.9078069	-1.4349155
59580465098000	-1.1903675	1.1760921	-2.754721
59580476115000	-0.6359101	0.9242506	-1.6219115
59580495799000	0.9841025	0.3295784	-0.8544825
59580505290000	2.5180366	0.86192036	-2.0609853
59580517436000	3.887264	0.33490372	-1.4385633
59580525187000	4.5783954	-0.67974854	1.1964105
59580536021000	3.840625	-0.8243561	2.0512996
59580545207000	1.0545368	-0.80367374	1.0590897
59580555919000	-2.0019178	-1.418129	-0.29236102
59580565226000	-3.3970723	-2.2196255	-1.5129454
59580577861000	-2.1921368	-2.0159311	-1.8849816
59580585276000	0.37950265	-1.8985815	-0.5193626
59580596263000	2.6452765	-1.9898252	2.002467
59580605265000	3.8827338	-2.006401	3.1207283
59580615886000	3.9403415	-2.0424767	1.7803619
59580625285000	3.1107595	-3.2848463	-0.54462373
59580635997000	2.2702208	-6.013715	-1.7231908
59580645305000	1.2551951	-6.875928	-2.4077108
59580656321000	0.6982759	-6.1495266	-3.501165
59580665324000	0.5672419	-5.918481	-3.5267942
59580676005000	-0.58203125	-5.767846	-3.2403042
59580685374000	-1.8219881	-5.493181	-4.7176447
59580697551000	-2.7355404	-4.631562	-3.6191604
59580705363000	-3.0346007	-2.7657928	-0.18317461
59580716136000	-3.5392714	-2.0543423	2.5803719
59580725383000	-4.100657	-2.4642773	4.1065626
59580736064000	-3.870501	-4.083128	7.1081243
59580745402000	-3.1609955	-6.396144	9.225191
59580756083000	-3.0815232	-8.329659	7.1299405
59580765452000	-2.1303144	-9.556187	2.916163
59580776408000	-0.37334555	-9.542963	-0.41263187
59580785472000	0.92352325	-8.104652	-1.0001614
59580796122000	1.5769169	-6.429468	-1.1698737
59580805461000	0.29147768	-6.855074	0.4905112
59580816142000	-1.3511156	-8.077834	0.83818805
59580825480000	-2.9853892	-8.130402	0.12683015
59580836589000	-3.4704373	-6.9130774	0.038214434
59580845500000	-4.1206355	-5.722969	2.1699674
59580856181000	-4.4003754	-3.1894007	3.9948487
59580865519000	-3.5442672	0.64421177	3.2332249
59580877787000	-2.174892	3.696186	2.2292664
59580885569000	0.16462064	5.409869	1.7479081
59580896281000	0.86281806	5.208304	2.2200742
59580905589000	0.6420684	4.6785073	2.2225192
59580916240000	0.17654374	4.600772	2.3055696
59580925578000	-0.07859218	5.3032527	2.752902
59580936259000	-0.35742494	6.598153	3.74758
59580945628000	-0.82611763	7.536084	4.1214046
59580956584000	-1.1053727	8.536345	4.658002
59580965648000	-1.0923271	9.482137	5.084344
59580976298000	-0.9708643	9.9879465	5.1553183
59580985637000	-0.81689733	10.302758	5.02868
59580996318000	-0.9479252	10.398089	4.918887
59581005687000	-1.0487242	10.4673195	4.971243
59581016703000	-1.05972	10.446154	4.541124
59581025676000	-1.175722	10.213144	3.79473
59581036357000	-1.1152405	9.784774	3.0330245
59581045726000	-0.017530978	8.181103	1.6698256
59581057963000	0.75964963	5.880742	-0.8346025
59581065745000	2.6079507	2.2361732	-9.108721
59581076457000	1.776493	-1.122611	-11.58209
59581085765000	3.4363048	-7.2621975	-19.424122
59581096446000	4.783001	-9.99559	-20.540464
59581105754000	2.1472003	-10.005193	-20.597303
59581118449000	8.760229	-10.00186	-18.123983
59581125865000	8.435329	-7.6694345	-13.386108
59581136882000	2.259325	-2.6793494	-3.9675884
59581145884000	0.834537	0.15624714	-0.5979228
59581156504000	0.57909334	1.9555731	2.9261675
59581165904000	-1.1590528	3.393939	4.4218054
59581176585000	-3.027948	1.7424192	4.8461576
59581185923000	-1.861664	-0.04605484	6.3509483
59581197001000	-1.586643	-0.84746265	3.8713653
59581205943000	-3.3319178	-4.2090263	-1.0901184
59581216594000	-4.326576	-8.266545	-4.5407143
59581225962000	-5.9929013	-10.467405	-2.7634845
59581238231000	-8.756136	-9.567592	4.584758
59581245982000	-7.21158	-5.205265	7.3795133
59581256755000	-5.146392	-0.08218002	9.074832
59581266002000	-1.9656563	5.103609	10.587899
59581276652000	-0.0014071465	7.5882797	8.122491
59581286021000	1.1949556	6.1327734	4.9398923
59581296702000	4.538453	3.210476	6.1568913
59581306041000	8.117154	0.27009583	9.042165
59581317057000	8.83121	-3.2662306	9.64017
59581326060000	6.41293	-5.5385714	4.548318
59581336741000	4.983265	-6.3890524	-3.203778
59581346080000	3.5230622	-6.9469566	-7.0971317
59581356761000	2.8216743	-5.726989	-4.2915716
59581366099000	2.0061212	-3.2429523	-0.7691239
59581377147000	0.405751	-0.9604788	0.26597464
59581386119000	-1.3198433	1.0403423	-0.28067887
59581396800000	-2.8869274	2.4194827	-0.7549024
59581406138000	-3.7997894	3.06535	-1.0379081
59581418376000	-3.5088198	2.8309293	-1.1430386
59581426158000	-2.916175	1.599719	-0.87824714
59581436992000	-2.0168734	0.27559566	-0.6847657
59581446177000	-1.0016639	-0.4661789	-0.8185941
59581456858000	0.09519029	-0.6640825	-0.451625
59581466227000	1.8435433	-0.39576435	0.17554057
59581476878000	2.8081176	0.17514324	0.023313165
59581486216000	2.3024871	0.98704815	-0.26724368
59581497294000	1.564586	2.0758276	-0.4354462
59581506205000	0.8449261	2.7146087	-0.06903219
59581516856000	0.13924858	2.4337888	0.056214094
59581526164000	-1.0384032	1.2454853	-1.6725531
59581536876000	-1.6866171	0.3471775	-3.5169249
59581546214000	-1.215426	0.40096474	-2.984844
59581557292000	-0.12706132	0.9010029	-1.3675556
59581566233000	1.0256112	1.255907	-0.4569772
59581576854000	2.0822756	1.08739	-0.3081348
59581586253000	2.8053865	0.61060333	0.25595164
59581598521000	3.486772	0.23001957	0.54371166
59581606242000	3.5800188	0.032919884	0.109798044
59581617045000	2.2838635	-0.30374813	-0.42650035
59581626262000	-0.099196315	-1.4820223	-0.24452932
59581636973000	-2.131642	-2.6675186	-0.022639692
59581646281000	-2.9037666	-2.7190351	-0.75207627
59581658946000	-1.9435923	-1.8390722	-1.0079162
59581666301000	0.056448102	-1.4425993	0.22638504
59581677317000	1.8890052	-1.4586239	1.9222426
59581686320000	2.6188066	-1.4914284	2.1654053
59581697001000	2.0866892	-1.6291828	0.5016607
59581706340000	0.7034303	-2.0073414	-1.7998376
59581717021000	0.48316526	-3.6499119	-2.7493107
59581726359000	1.0302633	-6.276593	-1.9043169
59581737437000	0.9210892	-6.35855	-1.796863
59581746409000	0.5401932	-6.0683565	-3.604912
59581757090000	-0.6424661	-5.298893	-4.696061
59581766429000	-2.1227937	-4.465646	-4.334349
59581778636000	-2.3770814	-3.856388	-1.3328538
59581786418000	-1.5696622	-2.685028	1.1954215
59581797191000	-1.8081019	-2.8625603	2.7641745
59581806437000	-3.1643689	-4.0913525	5.2748995
59581817119000	-3.4918296	-5.4961395	7.747684
59581826457000	-3.8334103	-7.275646	6.676822
59581837138000	-3.4787023	-9.073194	3.2225797
59581846476000	-1.8364044	-9.906752	-0.6361723
59581857463000	-0.21053219	-9.470617	-1.7997011
59581866679000	1.4904552	-7.5671644	-1.7433761
59581877360000	0.48557782	-6.848645	0.5744693
59581886699000	-0.5809157	-7.4444914	1.045813
59581897563000	-1.6858722	-7.912184	0.42126584
59581906901000	-2.3593926	-7.349249	-0.18844911
59581917979000	-2.5196798	-5.9819574	0.87786126
59581927073000	-2.819689	-4.6793594	2.7953796
59581937724000	-3.562334	-2.8911095	4.1091967
59581947123000	-2.2954662	0.04047203	2.9451451
59581959544000	-1.3591964	1.7141914	1.8208618
59581967296000	-0.24617922	2.5837765	1.7999496
59581978068000	1.0734589	3.2902627	1.7730167
59581987498000	0.82083327	3.3157525	1.4698007
59581998149000	0.68551004	4.26146	1.5011208
59582007579000	0.19101241	5.8907356	2.7496397
59582026713000	-0.6687286	7.400847	3.8762555
59582037669000	-0.9974406	8.83071	4.554826
59582046733000	-0.9483144	9.972015	4.7038608
59582057414000	-0.6089802	10.90201	4.3097935
59582066783000	-0.534501	11.59435	3.8485086
59582077433000	-0.8243748	11.836523	3.5805607
59582086772000	-1.2875623	11.735465	3.441135
59582097819000	-2.0111766	11.680486	3.3119957
59582106791000	-2.7526288	11.667994	3.4054391
59582117411000	-2.7000506	10.704292	2.4721491
59582126811000	-1.3324404	8.45958	1.0537169
59582139048000	-0.40827408	5.9224844	-0.890006
59582146861000	2.6352327	1.7533369	-7.675468
59582157573000	2.0974839	-0.37645435	-8.744825
59582166850000	1.3458003	-5.466629	-15.200321
59582177501000	3.3955429	-10.618196	-22.3807
59582186869000	2.6181877	-10.982029	-23.610107
59582199412000	5.277049	-10.968731	-23.560474
59582206889000	10.449545	-10.79069	-18.947628
59582217875000	4.9360733	-5.146179	-4.549507
59582226909000	3.7678056	0.40767002	-1.7724576
59582237559000	2.794166	1.7884555	0.24273682
59582246928000	1.5324746	3.0526175	1.9886816
59582257548000	-1.5304806	3.2771835	4.2946568
59582266948000	-3.1711454	0.5310974	6.242796
59582277995000	-1.8211491	-0.57634354	7.2645082
59582286967000	-2.500574	-0.9001169	4.1911182
59582297648000	-5.12691	-4.0260916	-0.74562144
59582306987000	-6.5810356	-8.04574	-4.471277
59582319194000	-6.096141	-10.360346	-8.198558
59582327006000	-5.5436044	-10.464697	-1.6303458
59582337779000	-3.532133	-7.687868	9.790047
59582347026000	-2.7856288	-0.59070015	13.040021
59582357707000	-3.2435093	5.3666778	11.632031
59582367045000	-2.8956428	8.114753	7.9794164
59582377726000	-2.4144342	8.012606	4.164823
59582387065000	-0.4229231	5.8969765	1.5416334
59582398082000	3.905015	2.5472517	2.597269
59582407084000	7.623104	-0.99978065	7.1092877
59582417765000	8.5760145	-3.7713442	6.3165684
59582427104000	6.877508	-5.7181797	0.53671336
59582437785000	4.6034184	-6.5079174	-3.835946
59582447123000	3.5101235	-5.45907	-4.164429
59582458201000	2.5513577	-3.2165575	-2.4130883
59582467143000	1.1586546	-0.88674736	-0.8591385
59582477763000	-0.16092211	1.0885973	-0.02655685
59582487132000	-0.9801356	2.698093	-0.12655294
59582499431000	-1.6225913	3.0514212	-0.70750695
59582507121000	-1.756345	2.3283353	-0.50003594
59582517894000	-1.4212276	1.0711441	-0.55947655
59582527140000	-0.79831165	-0.18420124	-0.26337922
59582537822000	-0.323565	-0.54546547	-0.64686173
59582547160000	0.26371497	-0.33279228	-0.7409103
59582557811000	0.7156056	0.091897964	-0.5594555
59582567180000	0.85265005	0.53088284	-1.0229248
59582578135000	0.70736706	1.2814703	-1.0788822
59582587199000	0.20038408	1.7568755	-0.53941244
59582597911000	-0.109800965	1.8961673	-0.05559975
59582607219000	-0.5913541	1.7462454	-0.29090106
59582617900000	-1.474237	1.3903704	-0.970222
59582627208000	-2.2425284	1.032917	-1.7341175
59582638255000	-2.139472	0.953022	-1.7226211
59582647258000	-1.4172928	0.57989025	-0.9073192
59582657939000	0.119425714	0.09777069	-0.6134847
59582667277000	1.8891464	0.57189083	-0.60576105
59582679515000	3.1361754	0.9634056	-0.4917378
59582687297000	3.7046645	0.551198	0.19147739
59582698008000	3.6980302	-0.2764349	0.6018214
59582707347000	2.1183896	-0.8137369	0.6078868
59582718028000	-0.5102666	-1.3977575	0.15966243
59582727305000	-2.1018453	-2.114067	-0.5983336
59582739940000	-1.2008643	-2.3609896	-1.3235818
59582747294000	1.1993649	-2.7152176	-0.5133014
59582758281000	3.4028347	-3.1405392	1.6906145
59582767314000	4.2358055	-3.2189388	3.03026
59582777964000	3.7719688	-3.2428532	1.5522299
59582787333000	2.3286638	-3.5598125	-1.4647233
59582798045000	1.547591	-4.286933	-3.1835515
59582807353000	1.7282615	-5.4518137	-2.6776304
59582818431000	1.4964983	-5.948225	-2.5262778
59582827372000	0.72702026	-5.707	-2.8658733
59582838054000	-0.7685466	-5.9578085	-3.4490263
59582847392000	-2.3183026	-5.251403	-4.335465
59582859660000	-3.2974439	-4.0657406	-4.660759
59582867411000	-4.2512608	-2.6093683	-1.3505175
59582878184000	-4.5592346	-2.13663	0.8472867
59582887431000	-4.863108	-2.5302496	2.024996
59582898112000	-4.476311	-3.726347	6.727731
59582907451000	-3.3248656	-6.110983	10.509087
59582918132000	-3.2344062	-8.696838	8.725202
59582927470000	-2.7862782	-9.930963	4.531372
59582938487000	-1.4518762	-9.976261	0.3195374
59582947490000	-0.17896605	-8.578545	-0.8083184
59582958171000	0.7687547	-7.0005493	-1.1901891
59582967509000	-0.8386595	-7.3264627	0.79153603
59582978190000	-1.88884	-7.9284563	0.735098
59582987529000	-2.6503558	-7.746561	-0.14716889
59582998607000	-3.2599025	-6.4394054	0.17041677
59583007640000	-3.6806939	-5.2121572	1.5832167
59583018321000	-3.6225524	-2.9612226	3.2029016
59583027659000	-2.619223	-0.6908598	2.8595517
59583039927000	-1.2180879	1.5304136	2.206222
59583047679000	0.25292766	3.2289386	1.5072069
59583058421000	1.2018971	4.3064218	1.7010055
59583067698000	0.75115764	4.3998446	1.7349629
59583078349000	-0.2504124	5.0682163	1.7229553
59583087687000	-0.96620506	6.591878	2.2033632
59583098369000	-1.5301763	7.783376	3.0733085
59583107737000	-1.7597774	8.580623	3.8282294
59583118724000	-1.8495721	9.403199	4.4727907
59583127757000	-1.8072412	10.344527	5.034979
59583138438000	-1.5740715	10.68827	5.279871
59583147776000	-1.1899995	10.796172	5.295398
59583158458000	-1.1003909	10.939261	5.3182874
59583167796000	-1.0689298	10.941386	5.182556
59583178843000	-1.0558386	10.854387	4.782619
59583187816000	-1.4214064	10.264761	4.0230703
59583198466000	-1.4540378	9.4606905	3.0897079
59583207805000	-1.4575928	8.138933	1.64165
59583220103000	-1.4578576	5.9726315	-1.3752694
59583227824000	2.364402	1.3439527	-11.667198
59583238597000	3.6551483	-3.5811787	-19.669333
59583247874000	6.2819004	-9.829661	-23.095528
59583260417000	4.5602407	-11.385574	-23.20891
59583267863000	4.2231674	-11.392114	-21.664719
59583278514000	9.528778	-11.370977	-16.729158
59583287913000	8.1322365	-7.0625553	-13.347862
59583298930000	0.40650532	-1.4000483	-2.454914
59583307902000	-0.7403778	1.0552945	-1.2561569
59583318553000	-0.8571739	2.521762	0.06298351
59583327952000	-1.3415866	4.389287	1.566431
59583338542000	-3.808817	2.7914004	3.7333064
59583347972000	-2.8359015	-0.4855461	7.609501
59583359019000	-2.1330504	-1.965064	7.356301
59583367961000	-3.6385612	-3.2035093	0.089624405
59583378672000	-7.62882	-7.408078	-6.0996184
59583387980000	-8.4675255	-10.794391	-9.525971
59583400309000	-8.9538965	-10.824336	-1.7053852
59583408000000	-4.1194296	-7.6940145	11.527076
59583418803000	1.7820444	1.341371	14.6100445
59583428050000	2.4706712	6.1172447	12.560119
59583438731000	2.7948318	6.091278	8.414849
59583448039000	3.5831006	2.998448	6.079972
59583458781000	5.544176	-0.165205	5.8494368
59583468058000	7.9028697	-1.6698446	7.346737
59583479136000	8.25739	-2.283846	6.547857
59583488078000	6.649339	-2.5189838	2.7154515
59583498820000	4.949391	-3.2295961	-2.4027743
59583508006000	3.0941362	-4.630411	-5.225689
59583518687000	2.0390444	-4.5431967	-3.5768661
59583528239000	1.051046	-2.878543	-0.4110068
59583539286000	-0.78133386	-1.3691711	0.17474794
59583548259000	-2.4370756	0.26682377	-0.6705928
59583559092000	-3.5425997	1.6458225	-0.8487298
59583568431000	-4.056474	2.8679342	-1.0303677
59583580668000	-3.6235561	3.243095	-1.0201465
59583588633000	-3.0769136	2.1229305	-0.9175973
59583599406000	-2.3523388	1.0664301	-0.9091153
59583608653000	-1.6076485	0.60451317	-0.4734391
59583619517000	-0.4001962	-0.10113907	-0.20433629
59583628856000	1.1741896	-0.7560034	-0.3491214
59583639506000	2.8337564	-0.734169	-0.44444394
59583649058000	3.3976605	-0.23056126	-0.5931847
59583660075000	3.2645285	1.4225149	-1.0308454
59583678874000	2.5885444	2.832817	-0.33888918
59583688182000	1.7395612	3.1067305	0.5314466
59583698863000	0.5689351	2.4164424	-0.046471953
59583708232000	-0.6303695	1.5879507	-1.8100686
59583719279000	-1.1450816	1.0770473	-2.81216
59583728221000	-0.6024349	0.6905756	-2.3832488
59583738902000	0.31301844	0.33455753	-1.587171
59583748240000	1.1288726	0.5479717	-1.1851494
59583760508000	1.7356265	0.9127493	-1.0313798
59583768260000	2.076603	1.0467834	0.10414894
59583779033000	2.0976605	0.54771423	1.2197952
59583788310000	1.7142086	-0.32006836	1.3022414
59583798991000	0.717728	-1.2375059	0.6058949
59583808329000	-0.79239076	-2.1955738	-0.44771805
59583818950000	-2.2788763	-2.912487	-0.93953216
59583828349000	-3.05968	-3.1194067	-1.5651562
59583841349000	-2.255202	-3.2098408	-1.8870711
59583848338000	-0.3431477	-3.3459778	0.006862864
59583859019000	1.6783049	-3.2836523	2.060682
59583868358000	3.2246623	-3.0289955	1.5129888
59583879039000	3.927164	-3.3627443	-0.45713705
59583888408000	3.7494	-4.948333	-1.4570798
59583899455000	2.9664621	-6.0094776	-1.3773575
59583908427000	2.0491204	-5.8179817	-2.8031824
59583919078000	1.1541066	-5.805806	-4.1640124
59583928447000	-0.4324062	-5.2648716	-3.6251192
59583940684000	-1.5803111	-4.5690346	-2.7142339
59583948436000	-2.0606618	-3.7475996	-2.9394765
59583959178000	-2.4941502	-2.990365	-1.72902
59583968455000	-2.6549785	-3.1483898	0.24369645
59583979136000	-2.280722	-3.8449755	3.6633482
59583988475000	-2.2031012	-4.865176	8.769541
59583999156000	-2.076737	-6.390785	11.115517
59584008586000	-2.3137753	-7.4873266	8.47907
59584019633000	-0.5427859	-7.4558973	2.3339708
59584028636000	1.1611042	-7.5576715	-0.20468232
59584039286000	1.787017	-6.9636173	-0.4126396
59584048625000	1.4045463	-6.1785583	0.31947455
59584059306000	0.21208036	-6.822236	1.4091818
59584068644000	-0.92485595	-8.002979	0.92044264
59584079692000	-1.8956887	-7.8301134	-0.2853224
59584088664000	-2.4352403	-6.641656	-0.7914938
59584099345000	-3.906376	-6.221077	1.362254
59584108683000	-4.2999344	-4.482402	3.6209455
59584120890000	-3.82863	-1.4987612	3.4430237
59584128703000	-2.9000084	1.557435	2.4120946
59584139506000	-1.4062676	3.0972886	1.5962399
59584148723000	-0.19841444	2.8886223	1.2067529
59584159434000	0.38087156	2.4542336	1.2729554
59584168742000	0.5434444	2.698813	1.3747029
59584179454000	0.64186114	3.835763	1.1837406
59584188762000	0.07888213	4.977999	1.5241749
59584199778000	-0.6170721	6.482694	2.0918088
59584208781000	-1.051476	7.4888144	2.4104888
59584219432000	-1.1606874	8.160555	2.4744792
59584228801000	-0.9292439	9.100713	2.6592925
59584239512000	-1.1826994	9.58664	2.3238745
59584248820000	-1.2180692	9.672818	2.120903
59584259868000	-1.7068998	9.608105	1.8344799
59584268840000	-2.247255	9.682686	1.5261718
59584279490000	-3.5755486	9.660128	1.0455573
59584288890000	-4.262039	9.867732	1.3814349
59584301158000	-2.3364043	8.620397	0.646312
59584308879000	-0.62746483	6.459343	-0.6729044
59584319590000	0.29535586	5.082559	-2.5166802
59584328929000	3.279986	2.3182921	-7.010854
59584339549000	2.923782	-0.24641132	-8.623006
59584348918000	4.410281	-4.7512417	-14.471656
59584359568000	4.6588774	-9.71425	-20.479626
59584368937000	4.587434	-10.108875	-21.231249
59584381968000	9.18047	-10.101662	-19.404583
59584388957000	9.517265	-9.114604	-11.668063
59584399608000	5.226645	-3.386341	-1.2364855
59584408976000	3.9217515	0.46576452	-0.5862007
59584419627000	0.4815625	-0.27193165	1.0216622
59584429026000	-2.15972	-2.0998096	2.536362
59584440104000	-2.885488	-2.3139124	2.7868009
59584449015000	-3.5676193	-3.4228716	-0.27557564
59584459727000	-4.8708262	-7.225891	-4.225265
59584469035000	-4.154856	-10.445516	-4.2069974
59584481334000	-3.5654507	-10.558615	1.9175248
59584489055000	-4.1678405	-4.59589	12.186462
59584499858000	-7.879856	2.9569545	13.58323
59584508983000	-8.032005	6.280464	10.395797
59584519694000	-5.726842	7.6992598	8.291441
59584529002000	-5.033555	7.47851	2.0907626
59584539683000	-2.2287858	5.3974433	-1.5556923
59584549052000	5.3584805	2.5401993	7.76241
59584560099000	11.391577	-0.8567591	13.619417
59584569011000	10.365807	-6.360915	10.150715
59584579722000	8.365289	-9.383689	2.2817686
59584589061000	8.290846	-9.207676	-5.4702687
59584599742000	8.18946	-8.193948	-6.602348
59584609080000	3.4827724	-4.585704	-2.7385263
59584620158000	2.0289218	-1.4955549	0.33825815
59584629100000	0.63067716	0.924819	0.80591214
59584639781000	-0.6926855	2.05062	-0.14151537
59584649119000	-1.8220785	2.3230186	-0.4147091
59584661357000	-2.3859136	2.3463397	-0.4718932
59584669108000	-2.04392	1.6413183	-0.43807787
59584679942000	-1.5182576	0.58592415	-0.7776538
59584689158000	-1.2777545	-0.18605423	-0.9283037
59584699809000	-0.67050505	-0.08302212	-1.165
59584709178000	0.241281	-0.025641441	-1.0943954
59584719889000	0.9792443	-0.052254677	-0.7658701
59584729197000	1.465816	0.255682	-0.4922456
59584740245000	1.1957083	0.55409145	-0.42723262
59584749217000	0.3905676	1.1917934	-0.23122996
59584759898000	-0.38050798	2.161934	0.01990199
59584769236000	-0.95923287	2.786848	-0.018475294
59584779948000	-1.724847	2.6654525	-0.90881777
59584789256000	-2.6103337	2.0324588	-3.158384
59584800334000	-2.0905924	1.593194	-4.1029024
59584809275000	-0.9481255	1.1608782	-2.2218502
59584819987000	0.7233763	0.6171417	-0.681488
59584829295000	2.8610506	1.0203466	-0.19173022
59584841594000	4.8196945	1.3868752	0.23798868
59584849315000	5.7625995	0.1690588	2.1919138
59584860118000	5.460564	-1.1750259	2.924844
59584869334000	3.048036	-1.3998146	0.7882377
59584880076000	-1.1079128	-1.6809053	-1.9862913
59584889354000	-4.060029	-2.2303343	-2.1901135
59584901988000	-3.0054393	-2.563836	-0.8452076
59584909343000	0.30425888	-2.964469	1.210978
59584920390000	3.2350638	-3.2366552	2.658103
59584929393000	4.0528235	-3.2588158	2.0640407
59584940104000	2.9536757	-3.3527746	0.046012104
59584949412000	1.6494124	-4.515332	-2.0366883
59584960093000	0.8570812	-5.845973	-2.8553503
59584969432000	0.6309633	-5.7890587	-3.2759733
59584980510000	1.0294726	-5.2698298	-2.5278697
59584989451000	1.1546394	-5.808503	-1.749125
59585000163000	-0.3614763	-5.927123	-2.5269
59585009562000	-2.2278185	-5.4928417	-3.3450265
59585022319000	-3.722134	-4.296215	-1.841458
59585029582000	-5.180603	-3.3149529	-0.15469193
59585039622000	-6.6909165	-3.400897	0.039506078
59585048900000	-6.8253813	-4.069277	2.1254327
59585059611000	-4.8928213	-5.163561	7.8393774
59585068950000	-3.9106636	-7.088175	9.166767
59585079600000	-3.6070838	-8.709147	5.933317
59585088969000	-2.1227856	-8.891713	0.9029122
59585099955000	0.6630293	-7.552045	-4.124173
59585108958000	1.4712756	-6.2135115	-3.5067263
59585119670000	0.32926846	-5.9704313	-0.6364763
59585129039000	-1.3321264	-6.7542963	0.40932077
59585139659000	-2.1326766	-6.9918623	0.2905097
59585149028000	-2.4604943	-6.466851	-0.1140987
59585160075000	-3.037916	-5.207411	1.0215111
59585169017000	-3.376579	-3.7778263	2.5932157
59585179698000	-2.4212186	-1.7039604	3.5648847
59585189219000	-1.1761063	0.42947865	2.8991754
59585201518000	-0.16244006	2.0064673	2.1742415
59585209269000	1.11655	3.3032594	1.8293085
59585220195000	1.4735079	4.5071874	1.9724413
59585229442000	0.6991484	5.0786104	1.7131922
59585240123000	0.29742524	5.9786057	1.8979207
59585249644000	-0.1282888	7.2739744	2.6995482
59585260325000	-0.5512527	8.200455	3.409077
59585269664000	-0.6418643	8.960488	4.0087223
59585280803000	-0.7851918	10.06041	4.641967
59585289866000	-0.84941995	10.969926	4.9649014
59585300547000	-0.7031179	11.514358	4.812849
59585310038000	-0.6969721	11.75019	4.6089153
59585320689000	-0.6903246	11.656181	4.4251146
59585330058000	-0.6065946	11.363739	4.0331078
59585349925000	-0.5882771	10.794827	3.5230281
59585360576000	-0.8726059	9.824265	2.6888793
59585369914000	-0.92190224	8.627237	1.3735917
59585382182000	-0.6422101	6.748073	-1.15403
59585389903000	2.2427464	2.668674	-9.871545
59585400645000	2.4195495	-0.5026598	-12.90582
59585409953000	4.2978954	-6.7023983	-18.629673
59585422587000	2.9594498	-10.119734	-19.212284
59585429942000	1.434617	-10.125831	-18.43243
59585440593000	7.430215	-10.14858	-14.293033
59585449992000	8.628911	-8.477152	-10.672775
59585461009000	2.5496027	-3.4173956	-2.833415
59585470042000	0.49022	-0.06603956	-1.0056548
59585480662000	-1.7906916	-0.1678462	0.2918725
59585490062000	-2.9519205	-2.5047798	1.5151892
59585500712000	-2.8239517	-2.8036928	3.9914665
59585510112000	-3.7089376	-2.6174927	2.0673265
59585521006000	-5.978796	-6.071292	-2.7466488
59585529979000	-8.070982	-9.179815	-6.972174
59585540599000	-8.515629	-8.190682	-10.176899
59585549998000	-5.616441	-5.942647	-1.5111752
59585562266000	-2.874588	0.037327766	15.739244
59585569987000	-1.9932973	6.178548	18.329393
59585580790000	-2.0762298	8.284923	12.633035
59585590068000	0.054121256	7.9970613	6.7764006
59585600749000	3.9387524	6.319427	2.4325228
59585610057000	6.1190557	2.590231	1.6841525
59585620738000	8.715986	-1.4612923	8.073206
59585630107000	10.829495	-4.4057016	12.227331
59585641124000	10.038463	-5.9316673	7.425379
59585650096000	5.488518	-6.594798	-1.6219262
59585660777000	3.9889195	-7.004489	-8.574176
59585670146000	2.4992456	-5.817651	-6.553264
59585680796000	1.8402122	-3.3012009	-1.5295173
59585690165000	0.37717128	-0.88607216	1.4568467
59585701152000	-0.754537	1.2339993	1.9021313
59585710154000	-1.6617332	2.5584745	1.1489185
59585720805000	-2.250663	3.1507359	0.037507534
59585730204000	-2.784101	3.0978274	-0.7521696
59585742442000	-2.7466264	2.4512668	-1.1573358
59585750193000	-2.5529082	1.159915	-0.5891325
59585760966000	-1.76439	0.16313648	-0.74856067
59585770274000	-0.7808202	-0.4346161	-0.9010539
59585780894000	0.111757934	-1.1652479	-0.83940005
59585790263000	1.0594468	-1.4922905	-0.7637097
59585800883000	1.8164302	-0.8851509	-1.0411153
59585810283000	1.6724416	0.55874157	-1.3787339
59585821269000	0.5559402	1.6133089	-1.388093
59585830302000	-0.3319009	2.1498227	-0.757766
59585840922000	-0.60685354	2.4487367	-0.17554662
59585850291000	-0.59192926	2.685442	0.5745723
59585860942000	-0.36329144	2.5321221	1.5417671
59585870311000	-0.28502953	1.9766307	0.7474675
59585881389000	-0.3642495	1.3479347	-1.6642896
59585890330000	-0.3227844	0.6797972	-1.8561578
59585901011000	-0.16056815	0.120370865	-0.62824166
59585910350000	0.352026	-0.24934196	-0.06448519
59585922618000	1.6520547	0.17374325	-1.0448148
59585930339000	3.1121566	0.62174034	-1.4533433
59585941142000	4.3235497	-0.1823492	0.17256078
59585950389000	4.4162025	-1.1611576	2.0278182
59585961070000	2.0079927	-1.3237982	1.4442996
59585970408000	-2.3645315	-1.70786	-0.6891737
59585983073000	-5.3115597	-2.101884	-1.8755324
59585990397000	-3.9779365	-2.520956	-1.571533
59586001445000	0.75793576	-2.9758387	-0.28128248
59586010447000	4.4452806	-3.288577	2.2900472
59586021067000	5.814932	-3.1683865	2.9177089
59586030467000	5.1163397	-2.7935772	1.5180268
59586041148000	3.4858332	-3.7889948	-0.6135476
59586050486000	1.796151	-5.8435764	-1.6919541
59586061473000	0.68036604	-5.8775234	-2.6421711
59586070506000	0.5915507	-5.675544	-3.5012035
59586081157000	0.12354398	-5.5924816	-3.0429323
59586090525000	-1.0344825	-5.1981134	-2.7427173
59586102733000	-1.9852393	-5.5254145	-4.275523
59586110545000	-3.1978612	-4.7504225	-2.7308664
59586121287000	-4.1766	-3.436471	0.83514553
59586130565000	-4.6497035	-3.0866995	2.3139837
59586141215000	-5.0488253	-3.613616	3.961601
59586150584000	-4.3034678	-5.1617575	8.010189
59586161235000	-3.6952343	-6.554701	9.623526
59586170604000	-3.6711226	-7.4475946	6.768158
59586181620000	-1.9982051	-7.615057	0.3321457
59586190623000	-0.1679861	-6.9123497	-3.0568676
59586201274000	1.1560315	-5.541562	-3.1694448
59586210643000	1.0955691	-4.704068	-1.4288096
59586221324000	-0.18669745	-5.3388195	0.115469374
59586230662000	-0.7442025	-6.3401995	0.13393661
59586241710000	-1.3419542	-6.4798384	-0.29181075
59586250682000	-2.2578716	-5.733574	-0.32115036
59586261363000	-3.3679276	-4.4664907	1.389579
59586270701000	-3.5145369	-1.8688478	3.1361651
59586282939000	-2.0359304	0.5791521	2.6186786
59586290690000	-0.29837275	2.3478498	2.0340676
59586301494000	1.4299119	3.8736591	2.2197177
59586310740000	2.6789	4.4644537	1.6878667
59586321330000	1.6239967	3.9492831	0.83157855
59586330760000	0.51852095	4.1270185	0.80351096
59586341441000	0.16709757	4.7370114	1.6402886
59586350779000	-0.14937809	5.4473805	2.8372984
59586361735000	-0.50755733	6.4278364	3.6926103
59586370768000	-1.0492133	7.5536027	4.1737022
59586381419000	-1.420685	8.343299	4.470711
59586390818000	-1.4545854	8.952902	4.4395533
59586401469000	-1.3411525	9.4628	4.465559
59586410838000	-1.2823939	9.642011	4.364755
59586422129000	-1.2718153	9.660479	4.284911
59586430919000	-1.1899754	9.601381	3.8976464
59586441630000	-1.4023238	9.564582	3.3327925
59586450938000	-1.6994375	9.307964	2.7862036
59586463206000	-0.9853828	8.18083	1.5474398
59586470958000	-0.31741905	6.296807	-0.46383768
59586481700000	1.9464775	2.8151956	-7.9876776
59586490977000	1.3670874	0.6754799	-9.778422
59586501689000	1.4678156	-4.101287	-18.1442
59586511027000	5.3978596	-9.633094	-22.088781
59586523631000	3.6792011	-10.357505	-22.259548
59586531016000	6.330275	-10.35686	-21.418911
59586542094000	9.153824	-9.7391205	-15.630538
59586550944000	3.3142219	-4.6857176	-4.0449414
59586561625000	0.9839581	-0.8543439	-1.7611051
59586570994000	-1.1754009	-0.634655	1.345871
59586581645000	-3.4340403	-2.8492165	2.8564265
59586591014000	-2.7375064	-3.2351017	3.3377533
59586602061000	-1.8521225	-1.4914532	4.115384
59586611033000	-2.0003586	-1.726655	1.2760968
59586621714000	-3.0743587	-5.212594	-3.2005477
59586631022000	-2.9957736	-7.8686056	-6.7596827
59586643260000	-4.4029155	-7.6297626	-6.1274123
59586651042000	-3.5839317	-5.8359566	2.233764
59586661845000	-3.7945247	-0.9073305	12.85963
59586671061000	-5.2863207	3.7969275	15.065342
59586681681000	-4.623966	6.557988	12.134088
59586691111000	-1.8372903	8.117518	8.795451
59586701823000	-0.08252239	7.8432975	4.6860247
59586711100000	1.8162249	4.345808	1.8414373
59586722178000	5.725528	-0.20289516	5.633902
59586731120000	9.225769	-3.9919844	9.58743
59586741801000	9.124603	-7.4819717	5.981187
59586751139000	8.16267	-9.223186	-0.6158005
59586761851000	8.074251	-8.847982	-5.5764313
59586771190000	3.4281342	-5.9775314	-4.2602587
59586782237000	1.28356	-2.627802	-1.6637067
59586791179000	-0.6843664	0.51085377	0.54501
59586801860000	-1.3390231	2.8916497	0.30831063
59586811198000	-1.8290758	3.7324553	-0.79540336
59586823466000	-2.4261365	3.5094805	-1.2933387
59586831218000	-2.086385	3.0053349	-0.85475653
59586842021000	-1.590487	1.9958339	-0.51972926
59586851237000	-0.93862736	0.8521986	-0.891016
59586861949000	-0.097298056	0.13367558	-1.363107
59586871257000	0.82733786	-0.23910141	-1.3670114
59586881968000	1.8555794	-0.17260551	-1.0911043
59586891276000	2.407718	0.29462242	-0.9075947
59586902324000	2.0309012	0.73937607	-0.83638287
59586911296000	1.4109042	1.2518568	-0.8469533
59586922007000	0.89051	1.8410072	-0.72011817
59586931315000	0.24078125	2.2410035	-0.27343306
59586941996000	-0.14149666	2.1584558	-0.16445342
59586951335000	-0.85275114	1.5317192	-0.5928804
59586962596000	-1.8808515	0.8183813	-2.3031826
59586971537000	-2.442726	0.558465	-3.648713
59586982158000	-1.9124159	0.37761116	-2.876371
59586991740000	-0.88048935	0.08039856	-0.75214756
59587004008000	0.6081179	-0.064229965	0.5500573
59587011973000	2.1936653	0.76524544	1.4444857
59587022776000	3.585877	1.4037447	1.8844857
59587032084000	4.043742	0.64996624	2.1231797
59587042735000	3.3701618	-0.19042397	1.4818641
59587052256000	1.0726328	-0.5791578	-0.17504752
59587064891000	-1.952606	-1.73806	-1.4654657
59587072245000	-3.239325	-2.7375479	-1.0315812
59587083415000	-1.4172332	-3.3884773	0.056959026
59587092509000	1.7073622	-3.8346577	1.6656436
59587111613000	3.932319	-3.8181353	2.13398
59587122233000	4.2727723	-3.5873404	0.62827754
59587131602000	3.2627058	-3.699379	-1.2200543
59587142711000	2.2165937	-4.6842556	-2.0688634
59587151622000	1.2898886	-5.2507467	-2.4406621
59587162272000	0.99082243	-4.951581	-2.3117466
59587171641000	0.9998485	-5.4051504	-1.9725599
59587183879000	-0.102915645	-6.323457	-2.1848605
59587191630000	-1.5305464	-7.467394	-3.110649
59587202433000	-3.1704183	-6.9783955	-3.3803365
59587211680000	-4.707159	-5.053918	-2.3349066
59587222422000	-5.6062565	-3.0932436	0.09283435
59587231700000	-5.5991397	-1.8084593	2.1434472
59587242350000	-5.143299	-2.4788027	5.681039
59587251719000	-3.9418917	-4.313817	8.14927
59587262736000	-4.0473137	-6.20798	7.686235
59587271739000	-4.235114	-7.6036606	4.826169
59587282451000	-2.0135713	-7.5167866	-0.44416374
59587291758000	0.31866848	-6.1212435	-2.9081578
59587302470000	1.7128882	-4.39384	-3.0570786
59587311778000	1.6911395	-3.9150715	-2.1071954
59587322856000	0.98819655	-4.8272	-1.0403439
59587331797000	0.3172183	-5.903817	-0.48473582
59587342479000	-1.2508523	-5.888139	-0.4364631
59587351786000	-2.8899355	-4.9010143	-0.058352232
59587364055000	-3.9183397	-2.9829187	2.3162687
59587371898000	-2.7855902	-0.013911247	2.8497498
59587382609000	-1.140654	2.2054172	1.9077818
59587391917000	0.31781805	3.403552	1.898637
59587402568000	1.3238492	4.425181	2.1328049
59587411906000	1.6635444	4.8165784	1.2993302
59587422618000	0.62828535	4.539064	0.6242678
59587431926000	0.14047813	4.6946387	1.1828089
59587442912000	0.15082097	5.1627836	2.4405441
59587451976000	0.28666008	5.8378887	3.497736
59587462596000	-0.05624035	6.8113227	4.014191
59587471995000	-0.5708111	7.7522416	4.3688726
59587482615000	-0.82048255	8.400555	4.67151
59587492015000	-0.7786212	8.99589	4.881614
59587502971000	-0.9541849	9.071327	4.908748
59587512034000	-1.0328231	8.922579	4.6770473
59587522624000	-0.9142256	8.819933	4.530772
59587531932000	-0.9779954	8.676678	3.9934547
59587544139000	-1.0166223	8.669375	3.1167636
59587551951000	-0.93138963	8.345774	2.0806408
59587562663000	-0.7694007	7.5350204	0.9478283
59587572001000	-0.71398544	6.211809	-0.4962743
59587582591000	1.3423792	3.2522082	-6.4189477
59587591960000	1.768846	0.8368864	-9.782502
59587602610000	4.203368	-3.6446638	-18.62917
59587611979000	5.936232	-9.3032255	-20.40479
59587624919000	3.0601888	-10.061381	-20.348516
59587631999000	5.314431	-10.053618	-16.648108
59587642650000	7.931704	-9.2883835	-13.860866
59587652018000	2.762707	-4.6197977	-5.3145533
59587662639000	0.49911833	-1.0658684	-2.6908674
59587672068000	-0.3425146	0.8211136	1.4755692
59587683055000	-1.9732375	1.7580571	4.2467246
59587692057000	-2.3480387	0.20089817	5.1689353
59587702739000	-0.58037806	-0.053821564	7.061138
59587712077000	-1.688387	-0.31237125	4.693153
59587724315000	-3.9940636	-3.8944187	-2.0716863
59587732097000	-5.5768623	-9.092289	-7.5904036
59587742778000	-6.128611	-10.804517	-10.67988
59587752086000	-6.1690416	-10.826386	-4.6856866
59587762797000	-3.4617724	-7.872183	7.934799
59587772105000	-2.619432	0.11321926	13.838848
59587782756000	-0.79182196	6.3232384	16.597565
59587792155000	0.8987831	9.857547	15.241112
59587803202000	0.44300973	9.984719	7.62976
59587812175000	0.8013848	7.069978	1.2477071
59587822856000	3.7484722	2.1930966	3.658773
59587832194000	5.8096123	-2.4343395	7.5916767
59587842875000	6.4404263	-5.981435	6.614654
59587852214000	6.2337823	-8.096993	0.7551327
59587863292000	6.4425526	-9.295131	-6.472356
59587872233000	6.3696175	-8.432236	-6.829404
59587882914000	2.6068292	-4.416518	-1.6469513
59587892222000	0.23799539	-0.90459824	0.21331656
59587904460000	-1.5929875	1.6757021	0.13189626
59587912272000	-2.3822258	3.3884225	-0.7229624
59587923014000	-2.809455	3.498589	-1.4031477
59587932322000	-2.5225537	3.0731206	-1.151827
59587942973000	-1.9986552	1.6235886	-0.6067752
59587952342000	-1.1425325	0.2049942	-0.22711217
59587962931000	-0.0856871	-0.9295492	-0.29129004
59587972361000	1.273079	-1.3491907	-0.99374586
59587983348000	2.413164	-1.1436367	-1.3858938
59587992381000	2.9955034	-0.1595087	-0.63452697
59588003032000	2.6022809	0.8668184	-0.23193628
59588012889000	1.974494	1.8508263	-0.038823843
59588023143000	1.6233628	2.5049481	0.48786843
59588032512000	1.4265558	2.8962855	1.2177303
59588043498000	0.9145373	2.8580194	0.80114377
59588052531000	-0.43140173	2.3776765	-1.596302
59588063182000	-1.8906361	1.8348622	-4.318425
59588072551000	-2.6092143	1.1521835	-3.995933
59588084788000	-2.1335726	0.07680321	-1.9592593
59588092570000	-1.0820938	-0.9826584	-0.107240774
59588103282000	0.38105068	-0.9915581	0.541013
59588112590000	1.8701262	-0.13037682	0.20870647
59588123240000	2.9455333	-0.07975292	-0.47512102
59588132609000	3.0681129	-1.302762	-0.6253826
59588143260000	1.9400519	-2.1489267	-0.74823946
59588152568000	-0.61086804	-2.3923445	-1.0954413
59588165507000	-2.9260106	-2.266779	-0.9481413
59588172587000	-2.4983249	-2.1060705	-0.19244333
59588183238000	0.5465812	-2.4513931	0.4970371
59588192607000	4.005353	-2.9088764	2.0098324
59588203288000	5.7826734	-2.682026	3.03977
59588212687000	5.353327	-2.7755404	2.5890708
59588223704000	3.856361	-3.790349	1.6263359
59588232676000	1.7780786	-4.7212257	0.24367172
59588243296000	0.090026855	-5.047265	-1.5262468
59588252665000	-0.24461639	-5.7480373	-2.4176292
59588264903000	-0.4242524	-6.235381	-2.046791
59588272685000	-1.1790637	-6.7525654	-1.985847
59588283427000	-2.2211697	-6.3135576	-2.8719764
59588292735000	-3.5873387	-4.7971935	-4.802855
59588303386000	-5.249613	-3.5077953	-3.8045368
59588312724000	-5.6237993	-2.3818712	-0.89604115
59588323436000	-5.2067747	-2.127864	0.49931675
59588332744000	-4.349343	-3.351944	3.2411213
59588343791000	-2.5116909	-5.4297905	7.3873363
59588352763000	-1.888045	-7.5355644	9.118952
59588363475000	-1.9082217	-8.8968525	7.0847144
59588372783000	-0.998203	-8.578929	2.643353
59588383464000	0.92785925	-6.804879	-3.0140228
59588392802000	1.2867928	-5.2426653	-3.1596344
59588403910000	-0.1317977	-5.2521067	-0.8450644
59588412822000	-1.2675825	-6.768811	0.48836058
59588423503000	-1.4807986	-7.5390463	0.22787412
59588432841000	-1.5582453	-6.5853605	-0.6985332
59588445109000	-2.7432733	-6.0809755	0.5231785
59588452861000	-2.6789331	-4.218198	2.3785257
59588463633000	-0.8036203	-1.2041817	2.6984699
59588472880000	0.9303344	2.1338573	3.4917588
59588483531000	2.7924907	4.4295745	3.0046608
59588492900000	2.4378123	4.212977	1.7781773
59588503672000	1.0904855	3.903574	0.7174653
59588512919000	-0.04256021	4.303295	0.66916406
59588523906000	-0.8996964	4.973565	1.8357093
59588532939000	-1.2893896	6.074937	3.2295334
59588543528000	-1.6071786	7.0941277	3.9494674
59588552928000	-2.1137855	8.024599	4.1035275
59588563578000	-2.6401234	9.007018	4.1097054
59588572947000	-3.0454936	9.859667	4.188223
59588583964000	-3.366768	9.864404	3.9007878
59588592967000	-3.2275498	9.65424	3.8463464
59588603648000	-3.1147823	9.344234	3.754737
59588612986000	-2.92109	9.231925	3.4476118
59588625224000	-2.8478813	9.038972	2.742037
59588633036000	-2.6773686	8.936383	2.2408674
59588643718000	-2.4313912	8.464914	1.8890336
59588653025000	-1.6150999	7.071209	0.706816
59588663646000	-0.61950994	5.1600323	-1.6610594
59588673045000	3.4356549	2.4948864	-7.4576864
59588683848000	3.7458367	0.36815453	-8.582578
59588693248000	5.595476	-4.019696	-13.386862
59588704234000	4.785131	-9.497681	-18.578135
59588713420000	0.6714948	-9.937406	-20.548819
59588726054000	4.98796	-9.94306	-19.689882
59588733470000	7.7541122	-9.700521	-13.702618
59588744304000	3.822073	-5.9676647	-4.028854
59588753672000	2.1859515	-0.9135599	-1.6719418
59588764689000	1.4029559	1.8856163	1.7283113
59588773875000	0.23004663	4.1706324	4.182807
59588784495000	-1.9505285	3.5427694	5.307309
59588793895000	-2.4932318	1.5643697	6.1843176
59588806285000	-1.987439	0.62035656	4.411076
59588814067000	-2.3279026	-1.4987755	0.28721476
59588824809000	-3.769424	-5.3060884	-3.4804783
59588843821000	-4.5426846	-8.572112	-5.491027
59588853221000	-5.1810803	-10.418526	-5.821785
59588863871000	-4.775316	-10.304349	1.7923477
59588873240000	-2.749103	-6.4072924	10.682452
59588884288000	-3.097176	0.18336391	13.358074
59588893260000	-2.1064346	5.551108	11.488408
59588903941000	-2.1324096	6.869185	7.127075
59588913279000	-2.0628622	6.4733434	2.9536505
59588923961000	0.027203083	4.955843	0.355209
59588933299000	3.8696723	1.8943706	3.1560616
59588944346000	7.027046	-0.7941942	7.2686534
59588953318000	7.5680227	-3.013588	6.041263
59588963969000	6.099412	-4.2086544	0.57770467
59588973338000	3.9702978	-4.710025	-3.8299973
59588985606000	2.928404	-3.8838034	-4.060922
59588993358000	1.7480282	-2.4623346	-1.808774
59589004130000	0.33281028	-0.95777607	-0.22472572
59589013377000	-0.6239298	0.64514446	-0.15235549
59589024058000	-1.5518458	1.6400919	-0.32160884
59589033427000	-2.0642972	1.8280959	-0.6490107
59589044139000	-1.8593893	1.50807	-0.5133583
59589053508000	-1.3517079	0.72756577	-0.3098228
59589064525000	-0.9825527	0.018994331	-0.42949206
59589073527000	-0.45992637	-0.1147213	-0.49062926
59589084208000	0.3716142	0.10742569	-0.6735644
59589093547000	0.74946344	0.3479824	-0.83119696
59589104167000	0.959977	0.9989729	-0.8731038
59589113566000	0.6473366	1.4197178	-0.37932846
59589124644000	0.10680267	1.502204	0.43680304
59589133586000	-0.5734005	1.8004022	0.63579017
59589144206000	-1.2341592	1.8669486	0.3687749
59589153605000	-2.2056677	1.4166746	-0.30338335
59589165873000	-3.016367	0.9140606	-1.7688336
59589173625000	-3.2001147	0.45270061	-2.2569308
59589184337000	-2.3382492	0.04931259	-1.4594156
59589193644000	-0.7501246	-0.07833195	-0.79361355
59589204326000	1.6157998	0.75142574	-1.3041172
59589213664000	3.76358	1.4897585	-1.8122137
59589224345000	5.375451	0.1473341	-0.34762338
59589233683000	5.927592	-1.2757473	2.3177102
59589244639000	4.2640395	-1.0700884	2.138142
59589253703000	0.8870082	-1.1718378	0.29394317
59589266337000	-1.3612037	-2.3134775	-1.2778747
59589273723000	-0.6099644	-3.5010958	-1.4133091
59589284373000	2.5887327	-3.7473679	0.29822308
59589293742000	4.8594217	-3.5888605	2.1112945
59589304789000	4.616621	-3.7187576	1.6196206
59589313762000	3.093293	-4.1670046	-0.30840135
59589324443000	2.1060638	-4.706237	-1.7433984
59589333781000	1.6023905	-4.5565586	-2.3948255
59589346019000	1.4836757	-4.0998707	-2.9011612
59589353801000	1.2682216	-4.442299	-2.8834367
59589364543000	0.08457589	-5.2859716	-2.3902073
59589373820000	-1.2319832	-5.2283087	-2.261029
59589384471000	-2.874168	-4.234002	-3.005875
59589393840000	-5.0461106	-3.3594532	-2.9681797
59589404490000	-6.588606	-3.1112604	-1.3909272
59589413859000	-7.229688	-3.2640696	-0.17069328
59589424846000	-6.266398	-4.4017467	4.101892
59589433879000	-5.275084	-6.6167517	10.205124
59589444682000	-5.099346	-8.666054	10.4152155
59589453898000	-4.5480704	-9.577758	6.7343216
59589464579000	-2.6120205	-8.645572	1.580595
59589473918000	0.95168024	-6.5243673	-4.3502474
59589485850000	1.1540065	-5.2230005	-3.382422
59589494090000	-0.7727274	-5.5085087	-1.7154589
59589504710000	-2.5749626	-6.906722	-0.2095061
59589514506000	-2.99432	-7.3118668	0.22608197
59589526072000	-3.472124	-6.3859034	0.009019315
59589533824000	-3.8889732	-5.6087627	-0.0011326671
59589544535000	-3.3903232	-3.9933424	1.9049039
59589553843000	-2.0712314	-1.5343218	2.8289778
59589564494000	-0.06615496	1.1220446	2.6645074
59589573863000	1.6317778	2.9651089	2.4295008
59589584544000	2.3051167	3.9750133	2.249864
59589593882000	1.1656574	4.0333138	1.4850829
59589604869000	-0.27714944	4.4052134	1.354705
59589613871000	-0.5460631	5.2718983	1.7480744
59589624583000	-0.44676423	5.8786407	2.594598
59589633952000	-0.22873133	6.4414797	3.2353868
59589644542000	-0.15930897	7.280217	3.59542
59589653941000	-0.24237043	8.624965	4.1637163
59589664988000	-0.63402504	9.786899	4.2059264
59589673961000	-0.71709603	10.490348	4.1644187
59589684611000	-0.5972565	10.555436	4.059883
59589693980000	-0.038161576	10.208419	4.0138264
59589706218000	0.33933833	9.587597	3.7877083
59589713969000	0.4277122	9.0726595	3.2457776
59589724742000	0.23012683	8.813296	2.733665
59589734019000	-0.37756872	7.8936625	1.5358806
59589744639000	-1.0111955	6.346858	-0.71053535
59589754039000	0.6453984	2.8340306	-8.605315
59589764689000	2.142653	0.08660126	-11.513628
59589774058000	5.4478755	-3.0049448	-15.2050705
59589785045000	5.7756968	-7.488927	-19.035715
59589794078000	3.3719058	-10.104987	-19.318703
59589806681000	4.406749	-10.110258	-15.660403
59589814067000	6.106249	-9.398458	-11.505193
59589824717000	1.0107334	-6.128147	-4.8221655
59589834117000	-0.6982697	-2.5042834	-3.3354397
59589845103000	-1.0088409	0.01214695	-0.5783253
59589854136000	-1.8950194	0.079769135	1.0215878
59589864787000	-1.1524734	-2.091154	2.3045537
59589874156000	-1.252845	-2.3089972	3.8834145
59589886424000	-2.161036	-1.7032366	1.2972603
59589894175000	-3.6241665	-4.043681	-3.6756244
59589904918000	-5.989328	-9.2307825	-6.473428
59589914164000	-6.72914	-11.163427	-8.440144
59589924846000	-4.4335885	-10.335385	-7.3942337
59589934214000	1.9805608	-5.6647234	4.9433427
59589944865000	2.6324892	0.68214273	21.240389
59589954234000	1.5565748	7.9577236	24.50024
59589965251000	-0.18739891	11.350358	14.42522
59589974254000	-1.0204089	10.0642185	6.6198945
59589984935000	0.18288815	7.5803037	-0.08885689
59589994243000	1.6024671	2.9399567	-2.6797032
59590005076000	3.8249245	-1.3677816	2.7811103
59590014384000	5.319581	-4.6303606	7.099102
59590025401000	5.4373984	-6.4541225	4.004704
59590034404000	4.7441864	-7.1430044	-1.6018459
59590045085000	3.3770933	-6.7791367	-4.20342
59590054423000	2.20289	-4.5510464	-2.7351327
59590066691000	0.77136874	-1.7022591	-0.404663
59590074412000	-0.34693986	0.957675	1.1464953
59590085154000	-0.99732995	2.4547734	0.96309674
59590094432000	-1.9397441	2.741053	0.102575004
59590105143000	-2.173856	2.6212735	-0.99666286
59590114482000	-2.0252473	1.674613	-1.044732
59590125163000	-1.4529482	0.64694595	-0.7521989
59590134501000	-0.72364426	0.14591122	-0.7366176
59590145457000	-0.024003968	-0.14145279	-0.5921395
59590154521000	0.74618196	-0.35226917	-0.46701866
59590165141000	1.4759939	-0.16192913	-0.46386194
59590174540000	1.5792911	0.4093504	-0.8216252
59590185222000	1.2500304	0.91832733	-1.1266994
59590194529000	0.67018324	1.4294558	-0.06958896
59590205638000	0.17000994	1.8575516	0.8120698
59590214579000	-0.22939387	2.1172118	0.75196034
59590225230000	-0.5108964	2.0256276	0.4545009
59590234599000	-1.0015097	1.5722647	-0.03524548
59590246837000	-1.7295699	0.81368446	-1.5515938
59590254619000	-2.3563232	0.29546738	-2.3936307
59590265300000	-2.0838459	0.009155273	-2.0413668
59590274608000	-1.239353	-0.3354082	-0.5638573
59590285319000	0.39533994	-0.15892601	0.056487903
59590294627000	2.1765006	0.49972916	-0.4130901
59590305339000	3.6095035	0.078463554	-0.59325117
59590314708000	4.3250484	-1.329155	0.53578126
59590325724000	3.9607837	-1.5342617	1.0593848
59590334697000	1.4111996	-1.0705938	-0.2833891
59590347361000	-1.7771152	-1.0965662	-1.199878
59590354716000	-2.3638587	-1.8074598	-0.9134312
59590365367000	0.088186204	-3.055253	-0.20653322
59590374736000	3.0312862	-3.633854	0.8997005
59590385753000	4.446651	-3.5015917	1.1132542
59590394908000	4.0473995	-3.6548662	0.14013809
59590405619000	3.1727943	-5.369054	-0.93405837
59590414927000	2.0693374	-6.547576	-1.4329588
59590427317000	1.1927705	-6.0841923	-2.8507197
59590435130000	1.1522723	-6.2535486	-4.198081
59590445872000	0.22348511	-5.719591	-3.1742735
59590455363000	-0.91280997	-4.929121	-2.834188
59590465983000	-2.038225	-4.6162443	-3.2775803
59590475352000	-3.527732	-3.5480728	-1.225234
59590486216000	-4.910535	-3.2756023	0.37490535
59590495524000	-5.8360033	-3.6368637	1.239547
59590506480000	-5.3583837	-4.8671923	5.7421193
59590515666000	-3.8080964	-6.9728737	10.881182
59590526317000	-3.4165022	-8.497042	10.454261
59590535685000	-2.9329832	-8.67963	6.798053
59590554820000	-0.4314803	-7.45125	-0.50813115
59590565837000	0.8718094	-5.9532347	-2.7024317
59590574839000	1.0547554	-4.8018255	-2.1519742
59590585521000	-0.12968874	-5.240015	-0.449934
59590594828000	-1.4806048	-6.8461847	0.15987507
59590607097000	-2.0224013	-7.6523304	0.09288126
59590614848000	-2.7720487	-6.9922028	-0.24335633
59590625621000	-3.9290242	-6.226883	0.09914237
59590634898000	-4.304639	-4.6852646	2.2795007
59590645549000	-3.1846452	-1.2804117	2.729975
59590654918000	-0.9821931	1.8904243	1.8820179
59590665599000	0.6962217	3.8498507	1.9172876
59590674937000	1.9639035	4.9032755	2.2084448
59590685893000	1.4617393	4.9339867	1.9095709
59590694957000	0.20369303	4.9566836	1.4516299
59590705607000	-0.53448504	5.5633364	1.9232156
59590714976000	-0.7598574	6.2057223	3.0418882
59590725657000	-0.7998995	7.1946993	4.252452
59590734996000	-1.0168266	8.102617	4.8003125
59590746013000	-1.1221888	9.132766	5.121115
59590754985000	-1.202671	10.303174	5.3614597
59590765696000	-1.0410205	10.627849	5.1376615
59590775035000	-0.8747779	10.60894	4.9675283
59590787272000	-0.873973	10.470315	5.013062
59590795024000	-0.7161504	10.226926	4.8104887
59590805796000	-1.1334914	9.868521	4.196415
59590815074000	-1.3414203	9.595178	3.4924755
59590825694000	-1.3676041	8.734542	2.6077647
59590835093000	-1.0558376	7.260247	0.96202654
59590845744000	-0.76284564	4.8951025	-2.2937117
59590855113000	2.4178145	0.69774723	-10.030018
59590866099000	4.4182487	-4.253565	-15.852695
59590875132000	7.1567574	-9.964157	-22.160349
59590887736000	4.20012	-10.754736	-22.73181
59590895121000	4.647534	-10.750858	-22.452856
59590905803000	9.372109	-10.607273	-18.734295
59590915171000	7.0532665	-4.7675257	-14.364403
59590926219000	0.88719434	-0.37792253	-2.0809598
59590935191000	-0.89300656	0.85788774	2.5247433
59590945842000	-2.3881533	-0.70587635	4.558352
59590955211000	-1.7946357	-1.7017317	3.8765912
59590967479000	-0.8237932	-0.76654434	2.317968
59590975200000	-1.1346824	-2.431754	-1.9819112
59590985972000	-1.4929538	-6.272935	-6.5618434
59590995250000	-1.9142829	-10.330721	-9.231745
59591005961000	-2.7542422	-10.750426	-8.43207
59591015330000	-2.0943825	-8.355404	-1.1360292
59591027049000	-1.0191491	-3.1608267	13.097749
59591034678000	-4.144997	4.6338167	23.246334
59591045695000	-6.7371483	9.618087	21.88294
59591054698000	-5.040619	11.130778	10.658375
59591065410000	-3.497721	10.09467	3.192154
59591074778000	-1.693867	7.4397826	-4.082799
59591085368000	2.3005154	2.2983794	-2.085895
59591094706000	8.159366	-2.196268	8.235865
59591105815000	11.256668	-7.050789	11.74399
59591114787000	9.624905	-10.135764	4.349784
59591125468000	8.60366	-10.223836	-3.5223672
59591134806000	7.547409	-7.9951563	-5.836312
59591147044000	1.9257914	-3.3701935	-3.2733002
59591154826000	-0.1411252	0.54239655	-0.8615
59591165568000	-1.0594037	2.978352	0.30273992
59591174876000	-1.685102	3.836062	0.28723443
59591185496000	-1.7892233	3.5205984	-0.6654884
59591194835000	-1.3302269	2.3880482	-0.76610494
59591205516000	-0.7540391	0.7837467	-0.062478304
59591214854000	0.028387606	-0.23808765	0.16158402
59591225901000	0.739934	-0.5530014	-0.2632442
59591236125000	1.3043756	-0.14010334	-0.6088233
59591246226000	1.5275328	0.6187439	-0.9514269
59591255565000	1.265511	1.153635	-1.3924838
59591266246000	0.8403028	1.2091713	-1.1032101
59591275584000	0.55377024	1.3378572	-0.0065222383
59591286662000	0.06469226	1.0656424	-0.0030073524
59591295604000	-0.35622376	1.2545538	0.16972983
59591306285000	-0.7876818	1.6001225	0.20892954
59591315623000	-1.7591181	1.6697178	-0.74113345
59591327922000	-3.0597198	1.3921499	-2.9530704
59591335643000	-3.8413408	0.9932852	-3.3976655
59591346385000	-3.1123824	0.61438465	-1.5898917
59591355662000	-1.4849186	-0.05648613	0.5434122
59591366343000	0.5980133	-0.41505527	1.313392
59591375712000	2.6033947	0.4002695	1.1295865
59591386393000	3.9395251	0.8116617	-0.019539684
59591395701000	4.369218	-0.2163105	-0.50083125
59591406749000	3.658244	-0.90812016	-0.45199528
59591415721000	1.2960277	-1.0849247	0.0743275
59591428386000	-1.1584873	-1.7924118	0.33963963
59591435740000	-1.3654569	-2.052682	0.24615532
59591446391000	0.63773096	-2.4767103	0.37830752
59591455760000	2.942166	-3.1588955	1.3660593
59591466807000	3.5307322	-3.5513945	1.7847788
59591475779000	2.228255	-3.8269691	0.4082324
59591486461000	0.9232117	-4.2393637	-1.7122555
59591495799000	1.0755626	-5.3411636	-1.9860154
59591507975000	1.8174708	-5.976735	-1.3427993
59591515757000	2.0835469	-5.623684	-2.448326
59591526500000	1.3927262	-6.120432	-3.3232026
59591535746000	-0.27767205	-6.3302155	-3.4076362
59591546428000	-1.4023659	-5.114951	-3.7018366
59591555766000	-2.4254832	-3.329708	-3.4609575
59591566447000	-3.7692175	-2.1657877	-0.5967057
59591575785000	-4.636959	-1.9078531	1.2081617
59591586802000	-5.581872	-2.670247	1.8378153
59591595805000	-5.2698565	-4.474015	5.516418
59591606456000	-4.361899	-6.7745285	9.779557
59591615825000	-4.2951818	-9.115081	8.438064
59591626506000	-3.4594016	-9.866282	4.2307663
59591635844000	-1.4739734	-9.111246	-0.3534131
59591646891000	1.2112793	-6.8900166	-3.8678186
59591655864000	0.9753274	-5.540799	-1.9230597
59591666545000	-0.8915262	-6.0601797	0.08124328
59591675883000	-2.1113782	-7.040455	0.48050812
59591688151000	-2.7470634	-6.9462433	0.45095205
59591695903000	-2.7363236	-5.6531086	0.061385617
59591706675000	-3.284551	-4.9024887	0.8003558
59591715922000	-3.562333	-3.3443975	3.1150928
59591726603000	-1.6668776	0.10635567	3.3260655
59591735942000	0.81679976	3.025311	2.6662164
59591746653000	2.3164947	4.679168	2.4899166
59591755961000	2.4919052	4.8409348	1.8820627
59591767009000	0.9836612	4.615541	1.4016918
59591775981000	-0.03586948	5.189147	1.6025716
59591786662000	-0.75822306	6.3583136	2.2396107
59591796000000	-1.3695238	7.3085413	3.0021768
59591806620000	-1.7447867	7.9373193	3.7454245
59591816020000	-1.7401124	8.569623	4.2194633
59591827037000	-1.9459229	9.239809	4.507356
59591836039000	-1.8066099	9.724238	4.6348658
59591846721000	-1.565629	9.977006	4.549586
59591856059000	-1.3898588	9.908206	4.4039984
59591868296000	-1.3873618	9.796576	4.415443
59591876078000	-1.5910293	9.65253	4.29029
59591886821000	-1.5162922	9.47787	3.8751903
59591896098000	-1.6995195	8.919456	3.1275837
59591906718000	-1.6301109	8.293858	2.3249493
59591916118000	-1.0780832	6.9030933	1.0531108
59591926799000	-0.18672787	4.533996	-1.9082772
59591936137000	2.9535534	0.54226685	-9.338251
59591947123000	4.1144648	-4.759471	-17.968306
59591956157000	7.610111	-10.223784	-22.49376
59591968730000	6.620713	-10.626412	-22.718208
59591976176000	8.630398	-10.639445	-22.005844
59591986827000	11.087052	-10.464069	-18.103266
59591996257000	6.886074	-4.5105104	-14.786658
59592007365000	0.5952635	-0.6223626	-3.7361455
59592016368000	-0.4679917	1.2568874	0.4442644
59592026988000	-2.3343878	1.4973073	4.283518
59592036357000	-4.5651064	-0.77773476	5.6228347
59592048625000	-2.8881567	-1.4302759	5.367928
59592056407000	-2.2238464	-1.4578123	4.600594
59592067149000	-3.132041	-3.5630903	0.37970304
59592076426000	-3.0721276	-7.245183	-5.5066924
59592087046000	-2.2730284	-9.285354	-10.061087
59592096385000	-2.2844906	-7.607115	-7.4033647
59592107066000	-0.4601003	-5.191413	4.1095963
59592116435000	-0.1502949	-0.45182705	18.036808
59592127421000	-3.1183288	4.499508	20.675014
59592136424000	-3.8402345	7.7754617	11.013151
59592147288000	-3.000812	8.171218	6.1015825
59592156627000	-2.3391714	6.999059	2.1880581
59592167338000	-0.2773664	3.4808435	-0.3922482
59592217051000	3.904355	-6.095132	-2.8817031
59592247966000	-0.036485136	0.6364126	-0.2718699
59592288157000	-1.7732518	1.7516031	-0.69272566
59592307689000	-1.1755297	0.8318901	-0.38658243
59592316600000	-0.28231677	-0.018824577	-0.34535056
59592336619000	1.2868749	-0.54821396	-0.47428346
59592367656000	1.5233502	1.4725723	-1.2401524
59592387339000	0.087218285	2.0723343	0.031264007
59592408946000	-0.688791	1.8552251	0.32907873
59592427470000	-1.8919407	1.0040894	-1.7664893
59592436717000	-2.4081385	0.5884571	-2.2613413
59592447337000	-2.2194169	0.21595478	-1.6174381
59592456736000	-1.3949641	-0.11586189	-0.20094518
59592467418000	0.03505987	-0.137187	0.32233843
59592476756000	1.7091137	0.6788063	-0.13005291
59592487773000	3.0051913	0.95659065	-0.87469554
59592496775000	3.4793599	-0.43096447	-0.6450544
59592507365000	3.098524	-1.7144337	0.12686315
59592516703000	1.199524	-1.9129677	0.33297378
59592529673000	-1.4948006	-1.730504	-0.13355215
59592536723000	-2.3207474	-1.9058361	-0.25341538
59592547709000	-0.28175828	-2.6168566	-0.23656712
59592556743000	2.5897808	-3.335493	0.9879531
59592567393000	4.519142	-3.53728	2.1631737
59592576762000	4.6734915	-3.287097	1.8151081
59592589030000	3.5308208	-3.2660627	0.3180018
59592596751000	2.6590626	-4.1658106	-1.0819272
59592607493000	2.0623937	-5.1679916	-1.8076189
59592616771000	1.7676613	-5.072014	-2.6726942
59592627452000	1.5864553	-5.1792994	-3.2504988
59592636821000	0.2469585	-5.5185995	-3.018951
59592647471000	-1.2814275	-5.4285316	-2.7589126
59592656840000	-2.3478098	-4.9812756	-3.3994446
59592667857000	-3.590571	-3.6274815	-2.76225
59592676860000	-4.807232	-2.677062	-0.7275777
59592687510000	-5.6100907	-2.5514927	0.50293493
59592696879000	-5.4001384	-2.8171444	3.2617462
59592707560000	-3.8015232	-4.2145634	8.84595
59592716899000	-3.4631436	-6.5856543	9.854814
59592727946000	-3.7482364	-8.333156	6.550074
59592736918000	-2.6085835	-8.488025	2.224011
59592747569000	0.23385376	-7.0731964	-2.8214495
59592756938000	1.2002321	-5.1371775	-3.135594
59592769206000	0.39125383	-4.2234154	-1.3158041
59592776957000	-0.8928344	-5.2964563	-0.066226035
59592787730000	-1.4550089	-7.0183973	0.3915043
59592796977000	-1.7248492	-7.051322	0.0128171
59592807658000	-2.3486865	-5.658371	-0.32220662
59592816996000	-3.6673222	-4.8549385	1.3621851
59592827647000	-3.8014388	-2.6962032	3.3829308
59592837016000	-1.4898385	0.108468056	2.4910178
59592848033000	0.38977116	2.2902184	2.1065462
59592857035000	1.9641776	4.1671453	2.156518
59592867686000	2.0390978	4.6023374	1.4133575
59592877055000	0.85535103	4.135442	0.7689439
59592887736000	0.03512013	4.402103	1.0639614
59592897075000	-0.39420655	4.9452047	2.2376506
59592908122000	-0.71095926	5.7105083	3.5369995
59592917094000	-0.9729679	6.6489816	3.9727244
59592927714000	-1.3660271	7.9191647	4.522508
59592937114000	-1.9157114	8.614166	4.7490993
59592949321000	-1.7731509	9.194395	4.9093194
59592957133000	-1.6402717	9.569856	4.9080577
59592967875000	-1.8203278	9.582675	4.604424
59592977153000	-1.6850228	9.619888	4.441042
59592987803000	-1.449583	9.457881	4.065756
59592997172000	-1.3312428	9.264125	3.2716222
59593007884000	-1.4238927	9.050215	2.3670547
59593017283000	-1.3772827	8.422823	1.4960852
59593028239000	-0.8947078	7.0472336	0.25577003
59593037303000	-0.42118776	4.893669	-2.568903
59593047923000	2.2607808	1.0231123	-9.52753
59593057322000	3.4105525	-4.29296	-18.596752
59593067942000	7.7139454	-9.848403	-21.661137
59593077342000	5.528877	-10.417054	-21.729055
59593090648000	8.795887	-10.399161	-19.966997
59593097361000	11.573748	-10.081952	-16.066153
59593107982000	3.9083068	-5.323002	-4.9741592
59593117381000	1.3884082	-0.27417374	-2.2664032
59593129588000	0.23628926	1.8663979	1.3010998
59593137400000	-1.1755799	3.7349336	4.301853
59593148112000	-4.0442634	2.7732105	5.291021
59593157420000	-3.4419544	0.051650047	5.778944
59593168101000	-2.7319329	-1.2466574	5.4101524
59593177409000	-4.098197	-3.0682907	1.0584936
59593188121000	-5.9525213	-6.7170563	-4.401498
59593197459000	-6.269488	-10.250824	-7.034875
59593208445000	-5.6800885	-10.708087	-7.025769
59593217479000	-3.8432586	-9.819002	0.6443496
59593228160000	-0.753044	-4.6629877	12.842512
59593237468000	-1.1112572	3.282556	18.162352
59593248149000	-1.2663472	8.476468	14.446475
59593257487000	-1.7799141	9.745135	8.06049
59593268596000	-2.0620353	8.696755	2.5589223
59593277507000	0.116882324	5.687976	-0.2834227
59593288249000	4.1560903	1.3109703	2.9421115
59593297526000	6.761115	-2.5534325	7.4208555
59593309794000	8.106514	-5.607209	5.0813513
59593317546000	6.0573063	-7.301569	-0.8315513
59593328349000	5.359503	-7.9387712	-5.4585543
59593337565000	3.6839786	-6.0277185	-4.103943
59593348277000	1.9764028	-3.0543976	-1.6569111
59593357585000	0.13981414	0.08671951	0.05659747
59593368235000	-1.0527716	2.3254752	0.049688578
59593377604000	-2.0086188	3.1826115	-0.5132852
59593388621000	-2.3314853	3.1008458	-1.0429224
59593397624000	-1.7483261	2.61337	-0.62729245
59593408305000	-1.022533	1.3403473	-0.44610322
59593417643000	-0.581165	0.05080986	-0.53507864
59593428325000	0.34080637	-0.54129505	-0.6133979
59593437663000	1.1553189	-0.70713806	-0.50426024
59593448710000	1.7318414	-0.4919672	-0.8627056
59593457682000	1.6581907	0.05423069	-1.0623571
59593468394000	1.2346692	1.0386019	-0.5216038
59593477702000	0.7263416	1.893528	0.45377225
59593489940000	0.12305206	2.1597447	0.8128872
59593497722000	-0.6771984	2.197877	0.4594971
59593508403000	-1.742605	1.7536173	-0.6935613
59593517680000	-3.1059313	0.95664597	-2.1834607
59593528300000	-3.4733243	0.53604126	-2.9290342
59593537669000	-2.7139556	0.48380566	-1.8347056
59593548350000	-1.292761	-0.02889061	-0.44281155
59593557719000	0.6510422	-0.034459114	-0.082194895
59593568705000	2.6911082	0.8811264	-0.16856034
59593577708000	4.011872	0.9523449	-0.1587655
59593588359000	4.4663706	-0.5424309	0.19802314
59593597728000	3.8488998	-1.4056501	0.42862815
59593608409000	1.5013992	-1.5853815	-0.1830407
59593617747000	-1.6211534	-2.1151533	-0.847669
59593631053000	-2.8602517	-2.956458	-0.85857797
59593637736000	-1.0051135	-3.0295954	-0.532109
59593648448000	2.5239716	-2.863081	0.55039227
59593657786000	4.6313405	-2.630536	1.8515018
59593669993000	4.5716763	-2.4267101	1.3209453
59593677806000	3.6943088	-3.0878277	-0.40105394
59593688578000	3.075207	-5.045314	-0.7755413
59593697825000	2.0881958	-5.4892206	-0.60935885
59593708445000	1.2251348	-5.313011	-2.185511
59593717845000	0.17606497	-6.233239	-3.5230632
59593728465000	-1.1996292	-6.500126	-3.6047206
59593737864000	-2.0492897	-6.1258097	-3.0143485
59593748881000	-2.9151745	-5.051379	-3.1350856
59593757884000	-4.199904	-3.911889	-1.9631671
59593768565000	-5.280935	-3.0534048	-0.07856333
59593777903000	-6.1372175	-2.8474169	0.63048
59593788585000	-5.5649686	-3.665989	4.508325
59593797923000	-3.9245677	-5.688347	10.522653
59593808970000	-3.0353062	-7.630868	10.893131
59593817942000	-2.1880999	-8.432265	6.9142404
59593828624000	0.6213567	-7.7871943	-1.0038193
59593837962000	2.443965	-6.5103645	-3.880521
59593850261000	2.1715813	-5.155175	-2.997175
59593857982000	0.12838148	-5.314541	-1.0181217
59593868754000	-1.6403024	-6.7833185	0.8718836
59593878001000	-2.1828005	-7.9521217	1.2768389
59593888682000	-2.970872	-7.2963934	0.68810195
59593898021000	-3.9679034	-6.9293375	0.11973289
59593908702000	-4.4480853	-5.727169	2.2380533
59593918223000	-2.8452818	-2.0284119	2.8990743
59593929240000	-0.79442525	2.0232801	2.786052
59593938243000	1.5526628	4.5919766	2.463016
59593949107000	1.7839379	4.8902717	2.0195677
59593958445000	0.86510205	4.3773417	1.1364849
59593969096000	-0.26093554	4.688064	0.9868483
59593978465000	-0.89869094	5.42392	1.9692026
59593989695000	-1.1991385	6.3676796	3.3826714
59593998637000	-1.3993077	7.353181	4.1759295
59594009379000	-1.5956509	7.982247	4.464387
59594018931000	-1.7000737	8.862607	4.701111
59594031199000	-1.7429152	9.638638	4.693595
59594038951000	-1.5692153	9.980926	4.622311
59594049907000	-1.5827757	9.839284	4.536188
59594059184000	-1.663717	9.617216	4.622533
59594069835000	-1.9452293	9.522065	4.7253075
59594088939000	-2.1945715	9.235172	4.2615933
59594098277000	-2.0766692	9.215406	3.542369
59594109294000	-1.7226174	8.951402	2.778493
59594118296000	-0.45410308	7.7697825	1.6584187
59594128947000	1.0903665	5.519404	-0.42283976
59594138347000	3.794436	1.8433924	-7.4002485
59594148967000	3.829949	-1.3096027	-9.885793
59594158336000	5.4860597	-6.907321	-17.457615
59594172099000	3.6893468	-9.924872	-20.735588
59594178386000	1.5515128	-9.92815	-20.75858
59594189036000	5.92118	-9.917776	-17.160902
59594198405000	6.2735653	-7.1590242	-12.2825
59594210673000	2.2981777	-1.8384452	-3.6546926
59594218425000	0.33319283	1.7006526	-1.2348366
59594229136000	-1.0447832	3.312469	1.3192134
59594238444000	-2.7198954	4.6961365	3.2388837
59594249125000	-4.0197496	2.3442736	4.3321705
59594258464000	-2.6466775	-0.9263191	6.4117002
59594269145000	-2.5407474	-2.1503754	5.5814924
59594278483000	-3.1660964	-3.3196926	0.52773976
59594289500000	-5.219434	-6.8784447	-3.9545474
59594298503000	-4.797023	-10.447563	-7.3188467
59594309153000	-3.464303	-10.63053	-8.421056
59594318522000	-0.48717973	-10.239858	2.3769603
59594329203000	1.3449912	-3.7756052	14.696076
59594338542000	0.14163482	5.3776426	17.29835
59594349620000	-1.2650425	10.064989	11.654406
59594358561000	-3.2309947	9.639667	5.028286
59594369243000	-3.1673217	7.0260615	0.45001608
59594378581000	0.0037443638	3.728352	-0.29721388
59594390879000	4.582381	0.5330372	5.473904
59594398600000	7.3908167	-2.4241753	9.349086
59594409343000	8.721475	-5.2710543	5.901885
59594418620000	5.9426208	-7.3103065	-1.5740072
59594429332000	4.201231	-8.173028	-5.515646
59594438639000	2.710481	-5.8710623	-2.7955523
59594449351000	0.9553119	-2.889822	-0.81226414
59594458659000	-0.8378587	0.05343628	-0.5936071
59594469645000	-1.9706922	2.210322	-0.6582489
59594478679000	-3.0888686	3.316455	-0.14777255
59594489299000	-3.0380502	3.7869353	-0.35514116
59594498698000	-2.1073775	3.056923	-0.39181173
59594509410000	-1.0753995	1.5963583	-0.4192599
59594518718000	-0.14293635	-0.005449295	-0.03239405
59594529734000	0.9209789	-1.6642551	-0.47442645
59594538737000	2.1882648	-1.7266054	-0.9688513
59594549418000	2.9293895	-0.108356476	-1.193722
59594558757000	2.589991	1.384366	-0.9067358
59594571025000	1.933272	2.1185093	-0.13997531
59594578776000	1.2469326	2.1873765	0.3997239
59594589488000	0.7272376	2.183681	0.30585408
59594598765000	-0.0733099	1.8946972	-0.15490937
59594609477000	-1.2042887	1.2384253	-1.9205942
59594618815000	-2.0918925	0.6760731	-3.3785276
59594629435000	-2.3204513	0.56315136	-2.98966
59594638835000	-1.7540973	0.5603008	-1.8300942
59594649821000	-0.52203274	0.43151093	-0.7909242
59594658854000	0.9428387	0.7313156	-0.067802206
59594669505000	2.3980613	1.0271425	0.12802899
59594678874000	3.450942	0.35471916	0.5997727
59594689525000	3.3824062	-0.26173592	0.8370032
59594698893000	1.4058985	-0.8095093	0.26588905
59594709971000	-1.7343593	-1.6501474	-0.73420626
59594718913000	-3.5822988	-2.042492	-0.9852584
59594732280000	-2.4357443	-1.9407072	-0.32053778
59594738932000	0.38123834	-1.8780985	0.8511767
59594751170000	2.5447373	-2.003684	2.4756618
59594758952000	2.8599186	-2.4451494	2.5355024
59594769725000	1.8673781	-3.2644472	0.44901687
59594778972000	1.1289678	-4.341014	-1.3047768
59594789592000	1.6720421	-5.744416	-1.4962445
59594798991000	2.0580175	-6.1018753	-1.4215251
59594809642000	2.267249	-6.057474	-2.6782894
59594818980000	1.9444654	-6.5823402	-3.3727217
59594830058000	0.25119722	-7.1113596	-3.2589493
59594839030000	-1.7446071	-6.655011	-4.5270605
59594849711000	-3.353787	-5.1188602	-5.0124097
59594859050000	-4.675682	-3.2348223	-1.8585597
59594869761000	-5.086988	-2.1836185	1.0339847
59594879069000	-5.4827905	-2.263462	2.6424417
59594890178000	-5.1953707	-3.4890804	6.2307963
59594899089000	-3.9066615	-5.356513	10.296962
59594909770000	-3.3325677	-7.6402864	8.597456
59594919078000	-1.9741555	-9.293497	3.0976715
59594931376000	0.7667781	-9.419964	-1.674145
59594939097000	3.6292884	-7.2097397	-4.4316454
59594949900000	3.2883656	-5.0246363	-1.7999139
59594959147000	0.9197414	-4.7227592	0.17417204
59594969828000	-0.8998028	-5.8868685	1.011611
59594979136000	-2.4823346	-6.883065	0.8000983
59594989817000	-3.795593	-6.170183	1.0519234
59594999156000	-4.25407	-4.3906517	2.064373
59595010264000	-4.0732355	-2.6110744	3.373098
59595019206000	-3.1277142	-0.078974724	3.5646977
59595029887000	-1.5499269	2.7117133	2.9846804
59595039225000	0.4526254	4.3097925	1.9075415
59595049937000	1.5979035	4.6113095	1.9888248
59595059245000	1.6053505	4.446186	1.7323742
59595070323000	0.86572105	4.529876	1.6147552
59595079264000	0.08490354	5.2772255	1.916168
59595089976000	-0.6998925	6.461856	2.789483
59595099284000	-1.0069826	7.3639345	3.6030557
59595111522000	-1.0680618	7.8691835	4.0346966
59595119304000	-0.8532523	8.806461	4.6032434
59595130076000	-0.9676863	9.547005	4.85996
59595139323000	-0.9795242	9.812596	4.7998567
59595150035000	-0.96673346	9.961312	4.886683
59595159343000	-1.0982734	9.916431	5.0402403
59595170085000	-1.2419971	9.783032	4.752496
59595179362000	-1.541198	9.559348	4.036852
59595190379000	-1.6273311	9.246628	3.4854746
59595199382000	-0.34839886	7.714358	2.1740954
59595210093000	0.92589974	5.692151	-0.42184812
59595219401000	3.0437617	2.320088	-7.8094254
59595230082000	2.7060735	-0.33145428	-9.798732
59595239421000	4.6105356	-5.427346	-16.707638
59595250468000	5.763013	-10.005507	-21.864262
59595259440000	4.802974	-10.168854	-22.068283
59595272776000	8.890789	-10.177914	-20.142767
59595279429000	7.6636243	-9.180997	-13.617767
59595291728000	2.4147608	-4.0510397	-3.2363567
59595299479000	0.18069935	-0.13171196	-1.1670814
59595310252000	-0.940831	1.8908267	1.1584897
59595319499000	-1.6306535	4.793818	2.3535254
59595330180000	-2.431334	6.368277	3.8259377
59595339549000	-4.4259324	3.3889108	6.4258833
59595350261000	-4.0286684	-0.8943243	8.814548
59595359538000	-3.200332	-2.3574696	7.3970537
59595370555000	-3.2844052	-3.1955633	0.9429083
59595379557000	-4.447102	-5.7345724	-3.5485628
59595390239000	-4.8618407	-9.244834	-6.160598
59595399608000	-5.02048	-10.258446	-6.655429
59595410289000	-3.5188627	-9.796257	1.5245501
59595419597000	-1.420098	-4.8087177	8.252136
59595430674000	-0.9624876	2.1512847	10.538695
59595439616000	-0.7673949	6.1498203	9.583154
59595450328000	-1.0559151	6.7227416	6.560031
59595459636000	-0.4545014	5.604943	3.3578165
59595471965000	2.93263	3.9291606	3.1165068
59595479655000	6.270624	1.6976175	6.43133
59595490428000	7.5421634	-1.144309	6.6835423
59595499675000	6.8393173	-4.0930166	2.5345283
59595510478000	4.290319	-6.589321	-2.7019634
59595519725000	2.2848127	-7.0762014	-4.9644127
59595530497000	1.2458794	-4.5924473	-3.2315345
59595539775000	-0.26163095	-2.3794298	-1.0433412
59595550792000	-1.9384772	-0.11967182	-0.25661218
59595559764000	-2.7103088	1.9767113	0.16429627
59595570475000	-2.8247151	3.0540109	-0.49814284
59595579814000	-2.3213372	3.1525855	-0.90346175
59595590495000	-1.177165	1.9713349	-0.37961423
59595599833000	0.07607962	0.05215931	0.007961512
59595610850000	1.4246534	-1.6448107	-0.13556957
59595619853000	2.2534878	-2.3571272	-0.49772376
59595630534000	2.7146027	-0.7899313	-1.268941
59595639872000	1.9127262	1.3078184	-1.7361866
59595652110000	0.38002807	2.2706466	-1.3201897
59595659922000	-0.8862559	2.5255537	-1.0261792
59595670634000	-1.6013074	2.5363908	-0.9537449
59595679911000	-1.4504148	2.6636662	-0.65980935
59595690562000	-1.0387156	2.6216092	-0.21197382
59595699931000	-0.78734076	2.2576265	-0.4558786
59595710612000	-0.60856706	1.7375488	-1.419688
59595719951000	-0.2289739	1.5331497	-1.5218744
59595739970000	0.3550836	1.1470861	-0.1921797
59595750773000	1.0704513	0.5228367	-0.46918723
59595770823000	3.5169513	0.07514572	-0.46140578
59595780345000	3.6818223	-0.45203018	0.72970665
59595791423000	1.480454	-0.6728678	0.74492437
59595811198000	-3.702106	-1.764555	-0.9866847
59595820567000	-1.9453055	-1.5612535	-0.17945202
59595835643000	1.4021584	-2.0001316	0.5372522
59595851451000	4.2305775	-2.8547182	1.3808995
59595860789000	3.2244792	-3.1573515	0.59368795
59595871623000	1.454986	-3.4638214	-1.6739562
59595880961000	1.1422153	-4.655957	-3.2918873
59595891642000	2.1430206	-6.619999	-2.6717362
59595911143000	2.829255	-6.488284	-2.1423926
59595920176000	2.9244344	-5.8752813	-2.4169075
59595930796000	1.0772998	-5.7707996	-2.3208864
59595940165000	-0.8719665	-5.8308506	-2.9840512
59595950785000	-2.6821609	-5.619048	-2.3153453
59595960185000	-4.366267	-4.092699	-0.11925769
59595971232000	-5.5064125	-2.995	1.2542206
59595980235000	-5.9348664	-2.7165785	2.8007483
59595990855000	-4.8395543	-4.0666275	6.631799
59596000254000	-3.7271378	-7.077547	8.62857
59596012400000	-3.6429384	-9.698315	6.940738
59596020121000	-3.0234427	-9.965454	2.7713122
59596030833000	-1.1683917	-9.050656	-0.7374332
59596040141000	1.72344	-6.1541433	-3.4706855
59596050151000	1.6685865	-5.1184044	-1.7739775
59596059520000	0.28306583	-6.422495	-0.30006993
59596070231000	-0.45114452	-7.7204523	0.20813847
59596079539000	-1.1598841	-7.6670036	0.52709484
59596090556000	-2.7759163	-6.6162367	0.68666667
59596099559000	-4.283638	-5.7057314	1.5453869
59596110179000	-4.321841	-3.6598568	3.2964392
59596119578000	-3.0137985	-0.36870098	3.7822685
59596130229000	-0.1990822	2.9571667	3.2740655
59596139598000	1.709542	4.194099	2.3880208
59596150676000	1.1466852	3.56564	1.3113911
59596159617000	-0.10065234	3.1188774	-0.15087885
59596170268000	-0.43793917	3.6454482	0.5528684
59596179637000	-0.32040513	4.6245694	1.9122167
59596191905000	-0.58360803	5.6260514	2.7436576
59596199656000	-0.884508	6.7631416	3.0850263
59596210399000	-1.2918057	8.147997	3.3804564
59596219676000	-1.5546494	9.080258	3.481586
59596230327000	-1.5387231	9.556411	3.6368117
59596239665000	-1.2141137	9.614018	3.7594638
59596250987000	-0.71170986	9.712116	3.96504
59596260356000	-0.32178104	9.606369	3.7897398
59596271342000	-0.4138795	9.700978	2.8711388
59596280345000	-0.9239782	9.995648	1.752241
59596291026000	-1.3143103	9.67934	0.73852396
59596300364000	-0.20420595	8.136847	-0.96069604
59596311015000	1.094923	5.689363	-3.4663892
59596320384000	3.298542	2.5740952	-7.9845552
59596331401000	2.2517455	-0.5654011	-9.954552
59596340403000	1.8975905	-6.0780926	-16.325487
59596351085000	0.8880986	-9.880492	-20.414928
59596360423000	4.5475836	-9.916775	-20.52549
59596374919000	9.322511	-9.918812	-15.839643
59596380473000	9.085965	-8.348753	-8.392586
59596391185000	4.3723245	-3.5037785	-0.887156
59596400462000	1.3947219	1.1190925	0.5202174
59596411082000	-0.238348	4.862061	1.6904988
59596420482000	-1.4618462	7.1067524	2.3012295
59596431102000	-3.4397635	4.8790107	4.304899
59596440471000	-2.9329534	1.4488902	6.401552
59596451518000	-1.1690204	-0.07136917	6.311269
59596460490000	-0.6806147	-2.4737139	2.1872678
59596471171000	-2.357373	-7.290413	-0.47242975
59596480510000	-4.55401	-10.343657	-1.9836018
59596491160000	-5.5279756	-10.311382	-4.0254555
59596500560000	-5.59434	-10.128836	-1.6480467
59596511607000	-3.3896554	-5.1307755	4.654549
59596520549000	-2.6045375	1.9738126	10.093106
59596531230000	-2.6405683	6.702475	10.757641
59596540568000	-3.9278016	7.3324833	7.4810166
59596552836000	-3.4623754	6.5678625	1.673606
59596560588000	0.22266293	4.679634	2.639801
59596571391000	4.321213	1.8565898	6.067012
59596580607000	6.303131	-1.0438213	6.556141
59596591288000	6.0687656	-4.163643	2.406506
59596600627000	4.4366913	-6.3969917	-2.6361046
59596611277000	3.8911567	-6.95529	-4.1163015
59596620646000	3.8010542	-5.710492	-2.351552
59596631694000	2.5191638	-3.6020107	-0.7522011
59596640666000	1.3783345	-0.8978939	-0.029405594
59596651286000	0.10032922	1.2778072	-0.04227805
59596660685000	-0.8394803	2.2189612	-0.2665242
59596671367000	-1.1695027	2.5072575	-0.50208265
59596680705000	-1.001127	1.9760523	-0.20222068
59596691844000	-0.63119566	0.9956627	0.04378307
59596700694000	-0.13450491	-0.1593132	0.06111765
59596711375000	0.6538234	-0.7145939	-0.20224452
59596720713000	1.0096512	-0.4561453	-0.21141827
59596732982000	1.3306355	0.2670107	-0.52891636
59596740733000	1.0366447	1.3483763	-0.73565674
59596751506000	0.087423086	2.3112407	-0.38701123
59596760753000	-0.60635054	2.6171007	-0.23974007
59596771434000	-0.9007117	2.4082804	-0.8613857
59596780803000	-1.2951108	1.7244463	-1.8717936
59596791453000	-1.4927778	1.0325508	-2.250058
59596800792000	-0.9536191	0.9063587	-1.6386482
59596811869000	0.111767605	1.5562849	-1.2482383
59596820811000	0.8747847	2.0334926	-1.3990836
59596831492000	1.3861729	1.67204	-1.0965096
59596840831000	1.8337691	1.1360054	0.15600276
59596851512000	2.0770795	0.44689178	1.8224056
59596860850000	1.9621122	-0.22654629	2.0420442
59596871928000	0.9522698	-0.91176414	0.78813714
59596880870000	-0.5996353	-1.5694885	-0.78388214
59596891520000	-1.5033792	-1.9836903	-1.7115649
59596900889000	-0.9082348	-1.6757822	-1.0661657
59596915446000	0.53134763	-1.1188717	0.1098907
59596920970000	1.4291589	-1.1434946	0.7090349
59596931651000	1.6423137	-1.7176323	0.01635784
59596940928000	0.8697412	-2.396347	-1.6082249
59596951579000	0.30517077	-3.0987358	-3.0837686
59596960948000	1.5657977	-5.323329	-2.6969957
59596971629000	2.627755	-7.3296986	-2.0201812
59596980967000	2.1988719	-6.8085375	-2.8673396
59596992015000	2.0050244	-6.1405287	-3.5653787
59597001017000	0.6527482	-5.2985773	-4.0226607
59597011638000	-1.4796717	-4.380412	-3.7198362
59597021037000	-2.5749402	-3.09476	-0.80476916
59597031688000	-3.326603	-2.283039	0.8068249
59597041056000	-4.654284	-2.8619099	1.9325404
59597052104000	-5.235154	-4.2086973	5.843603
59597061046000	-4.364646	-7.3141003	9.193566
59597071727000	-3.598448	-9.969998	8.425414
59597081096000	-2.2435663	-10.085127	4.634247
59597093333000	-0.15801644	-10.188022	0.38479424
59597101085000	1.3339639	-9.140371	-1.0704706
59597112101000	1.4561921	-7.007389	-2.1309614
59597121226000	-0.76772857	-7.3806934	-0.5111774
59597131999000	-2.9448044	-8.650674	0.7032943
59597141246000	-3.9626598	-8.857604	0.39858818
59597151957000	-3.4153762	-7.1943064	-0.23347837
59597161265000	-3.6126018	-5.163783	1.0397062
59597172282000	-4.4009123	-3.1418667	2.965165
59597181285000	-3.892642	-0.6435585	3.49952
59597191996000	-2.533112	1.7939281	2.8088036
59597201304000	-0.55517805	3.5777416	2.0667915
59597212046000	0.2986281	4.341027	2.2308216
59597221324000	0.6454445	4.8933625	2.5729673
59597232371000	0.09560698	5.1341376	2.7796197
59597241343000	-0.26904136	5.810583	3.2325509
59597252055000	-0.39106393	7.015774	4.2316227
59597261393000	-0.6242887	8.055683	4.7006454
59597273539000	-0.70294166	8.759673	5.153495
59597281443000	-0.4703054	9.458167	5.394318
59597292216000	-0.27663875	10.279757	5.646794
59597301432000	-0.4546929	10.885204	5.6430387
59597312144000	-0.38228464	11.137804	5.4040093
59597321452000	0.09422755	11.190267	5.2484055
59597332133000	0.42301556	10.9975605	5.2403283
59597341472000	0.22222355	10.673831	5.357172
59597352519000	-0.1569733	10.18249	4.7566156
59597361522000	-0.3769744	8.768227	3.3921983
59597372142000	0.42306834	6.524884	0.30731976
59597381541000	2.1463702	1.9280663	-10.152246
59597392161000	2.3066888	-0.1992178	-11.571835
59597401500000	4.9905157	-4.255519	-18.298943
59597412547000	5.1105905	-9.586235	-21.842806
59597421519000	1.34798	-10.261609	-21.987215
59597434092000	5.7354136	-10.276908	-18.85644
59597441508000	7.3434176	-9.954207	-13.556053
59597453776000	1.172477	-5.721098	-4.1397614
59597461528000	-0.7403091	-0.75015163	-2.339551
59597472239000	-0.6703686	2.4520464	-0.6208539
59597481547000	-0.41373163	5.382263	1.0681591
59597492411000	-2.9735377	4.967622	3.0189955
59597501750000	-3.749367	0.5276799	6.381384
59597512462000	-2.481157	-2.1817446	8.713881
59597522014000	-3.5907161	-3.1155252	3.3058603
59597532969000	-7.834924	-7.6969557	-4.6783915
59597542033000	-8.81693	-10.677915	-11.458854
59597552806000	-7.3786497	-10.6329775	-8.4253
59597562175000	-3.1	-9.174083	7.7277565
59597572856000	1.8826092	1.0727501	15.16455
59597582408000	2.17291	8.193531	15.398915
59597593455000	1.1275654	10.136799	11.6785145
59597602458000	0.7054895	8.436626	6.783662
59597613292000	2.606999	4.894379	4.0121584
59597622599000	5.6318345	1.3213415	5.4933605
59597634898000	7.293321	-2.1392956	7.076336
59597652568000	6.7833543	-5.520399	3.662279
59597661723000	6.1468925	-7.804183	-3.3408728
59597672496000	5.172587	-9.331473	-8.9563675
59597681743000	4.887812	-8.314388	-7.8069034
59597692546000	1.9045173	-4.3956146	-0.9397474
59597701793000	-0.5213155	-1.0130243	1.6064473
59597712779000	-1.937264	1.6456394	0.4271357
59597721812000	-3.0103984	3.0852098	-1.0513455
59597732524000	-3.2767043	3.70864	-2.0206487
59597741862000	-2.9055305	3.3549318	-1.2672313
59597752543000	-1.9850435	2.1064115	-0.60450256
59597761912000	-0.946063	0.6420107	-0.3242815
59597772868000	0.081205	-0.5603571	0.025179923
59597781932000	0.9993098	-1.1948481	0.32903606
59597792582000	1.5489781	-0.58806324	-0.44203782
59597801921000	1.4794114	0.83128834	-1.4146922
59597814158000	0.47408584	1.9453564	-1.2967533
59597821940000	-0.9559481	2.1835961	-0.44013172
59597832682000	-1.6147155	2.726665	0.43236178
59597841990000	-1.9309652	3.3822675	0.56682247
59597852610000	-2.1285267	3.3943248	-0.05382657
59597862010000	-2.239903	2.59763	-2.060675
59597872599000	-2.0219083	1.5772648	-4.5282607
59597881999000	-1.3908511	0.6061144	-3.7877417
59597892985000	-0.87811875	-0.0133600235	-1.2625054
59597902049000	0.61339027	0.14597607	0.38302374
59597912639000	2.9481916	0.036634445	1.3515774
59597922038000	5.390421	-0.8648281	2.9697719
59597932628000	6.5398273	-1.6957273	3.0927362
59597942057000	4.806197	-1.5032396	1.0074403
59597953135000	0.6153835	-1.7977896	-1.6155574
59597962077000	-2.1622238	-2.7281494	-1.7994887
59597974681000	-0.64720833	-3.837103	-0.5176555
59597982097000	3.3934512	-4.319439	1.7967496
59597994304000	6.079733	-4.4878607	2.1165552
59598002086000	5.373451	-4.826785	-0.017001837
59598012858000	2.92165	-5.507491	-2.4998674
59598022166000	1.6364255	-6.661254	-2.9677486
59598032817000	1.6571124	-7.0366993	-1.9390315
59598042186000	2.2129977	-6.1263704	-3.315854
59598052836000	2.0249732	-5.9112186	-3.697134
59598062144000	0.1468041	-5.7968607	-2.0867496
59598073222000	-1.6595258	-4.625206	-0.6557956
59598082164000	-3.455408	-2.9868498	-0.7232348
59598092875000	-5.8342905	-2.6652699	-0.72451365
59598102183000	-6.961738	-3.415244	-0.5492711
59598112895000	-6.18045	-4.757511	1.9286149
59598122203000	-4.9535475	-7.0684395	7.717798
59598133281000	-3.897955	-9.079229	8.935862
59598142253000	-3.0646396	-10.077916	5.951453
59598152934000	-1.3411562	-9.715917	2.542859
59598162272000	1.3035487	-7.572341	-1.9955939
59598174510000	0.98038673	-6.6524315	-1.4300988
59598182261000	-0.7242004	-6.911626	-0.31067574
59598193034000	-2.6790779	-7.781975	-0.02627045
59598202281000	-3.491835	-8.168042	0.33430856
59598212962000	-2.8230455	-6.952218	0.13419832
59598222300000	-3.4022157	-6.0060053	-0.42012596
59598232951000	-4.5293016	-5.78996	1.2614884
59598242320000	-4.524952	-3.90267	4.1529207
59598253367000	-1.9406335	-0.19830704	4.0013275
59598262370000	0.845785	3.1171465	3.1629303
59598273051000	1.9245917	4.23533	2.3163896
59598282359000	0.8501477	3.4281025	0.9964195
59598293010000	0.24109906	3.5998464	0.14132643
59598302379000	-0.22680646	4.6713476	0.79240036
59598313487000	-0.19034296	6.126328	2.3355598
59598322459000	-0.040103793	7.2846785	3.7302685
59598333079000	-0.35021174	8.444019	4.730954
59598342448000	-0.87661713	9.647419	5.0934715
59598354716000	-1.082756	10.628523	4.948181
59598362498000	-1.4020287	11.294445	4.5231757
59598373149000	-1.8381822	11.514154	4.1820245
59598382457000	-1.997004	11.252626	3.8407009
59598393168000	-1.6470336	10.664338	3.6664433
59598402507000	-1.1906965	9.760095	3.2881086
59598413127000	-1.1142088	9.199958	2.789444
59598422557000	-1.1432197	9.192754	2.1010199
59598433513000	-0.7754972	8.310028	0.56394035
59598442576000	0.46155444	5.957218	-2.003767
59598453166000	3.685932	1.7418756	-9.19766
59598462565000	3.202801	-1.5781021	-10.938424
59598473185000	5.1794767	-5.9271603	-16.938925
59598482554000	6.417192	-9.849002	-19.600704
59598495494000	6.983291	-10.041418	-19.688187
59598502604000	8.8719635	-10.042062	-15.724456
59598513102000	8.1147785	-7.928092	-10.107836
59598522502000	1.8045825	-3.878518	-2.3064475
59598534709000	-0.39950097	-0.2921772	-0.94196844
59598542521000	-1.105101	2.2941236	-0.17967415
59598553202000	-0.6472113	4.559537	-0.16363049
59598562510000	-0.9878924	5.494503	0.51172256
59598573161000	-3.4151886	2.0194483	2.748437
59598582530000	-3.1442173	-2.365859	5.6161027
59598593150000	-3.4420447	-4.29663	4.7499743
59598602610000	-4.5866365	-5.783331	-0.079205036
59598613566000	-6.357322	-8.392272	-3.8501964
59598622569000	-7.934999	-10.643055	-5.514938
59598633189000	-8.279636	-10.687412	-4.688915
59598642588000	-3.901668	-7.826782	3.783028
59598653300000	-1.1958983	-1.4168711	11.802635
59598662608000	0.22718835	4.499359	13.475643
59598673625000	1.2646711	7.6033974	11.261991
59598682628000	1.3247803	7.676198	7.1477613
59598693309000	2.560854	6.1687093	3.9562986
59598702617000	5.045047	3.3651462	3.274161
59598714915000	7.163499	0.21857452	6.3605394
59598722636000	6.7930846	-3.1152754	6.096239
59598733439000	5.556756	-4.7541647	0.84560156
59598742686000	3.6318893	-6.181341	-4.4934683
59598753306000	2.3165774	-6.403208	-5.475715
59598762706000	1.793471	-4.3382416	-2.6548257
59598773387000	0.43200696	-1.9376726	0.7703328
59598782725000	-0.73904073	0.85390663	1.7120719
59598793742000	-1.4566948	2.57582	0.31381297
59598802775000	-2.7136261	2.7036996	-0.77841216
59598813426000	-2.9296718	2.4832025	-0.90234005
59598822764000	-2.339952	1.5930262	-0.49444103
59598833445000	-1.4624159	0.19738197	-0.02793169
59598842784000	-0.68928456	-0.8267565	0.21487868
59598853831000	-0.19764236	-1.3006067	-0.38262397
59598862803000	0.45109454	-0.7976351	-0.5575274
59598873454000	1.1463776	0.6677551	-0.6522443
59598882823000	0.9580863	1.6769209	-0.7901883
59598895091000	0.4476561	2.3205032	0.04374981
59598902842000	0.023876842	2.7022138	0.84080863
59598913554000	-0.18210489	2.6358995	0.550478
59598922862000	-0.8429489	1.9438915	-1.0519367
59598933543000	-1.5322183	1.0391197	-3.1799517
59598942881000	-1.4949987	0.64883804	-3.002238
59598953563000	-0.933006	0.47868156	-1.7223475
59598962901000	0.27658114	0.39604282	-1.226124
59598973918000	2.2459145	0.8048706	-0.9300237
59598982890000	4.1160526	0.8114672	0.0086459555
59598993571000	5.313187	-0.07588577	1.8147955
59599002940000	4.9888067	-0.7784872	2.2439966
59599013621000	2.45609	-0.67675877	0.64601636
59599022960000	-1.5779314	-1.1981745	-1.163337
59599033976000	-4.0843415	-2.0804758	-1.9567084
59599042979000	-2.8141584	-1.8951988	-1.3723644
59599055644000	0.7613859	-1.6894989	0.24638736
59599064128000	3.6787295	-2.1760626	2.576404
59599075358000	4.8139024	-2.9307518	3.1784897
59599083079000	4.110671	-3.407423	1.4797962
59599093852000	2.2529898	-3.8602304	-1.2439592
59599103099000	1.4314682	-5.2038517	-2.4936135
59599113719000	1.5363636	-6.6394672	-2.020154
59599123118000	1.259196	-6.2215834	-2.5105093
59599133799000	0.89236224	-5.944873	-3.3461542
59599143138000	-0.42633164	-6.284586	-3.5198092
59599154185000	-2.193896	-6.2944317	-4.5025716
59599163188000	-3.688857	-5.057645	-2.8043287
59599173838000	-4.8410883	-3.0279264	0.6447441
59599183177000	-5.777753	-2.0568886	2.1999574
59599193827000	-6.486703	-2.3729582	1.9094899
59599203196000	-5.6643186	-4.0625467	4.2731347
59599214274000	-3.3070269	-6.0424776	6.9941144
59599223399000	-2.1763105	-8.030816	5.8727994
59599234080000	-1.2027795	-9.297334	2.6517887
59599243419000	0.5283932	-8.607572	-0.3781631
59599255839000	2.00659	-6.3673573	-2.2757816
59599263621000	1.7772684	-4.9492035	-1.6313958
59599274394000	0.054095164	-5.496749	-0.73712206
59599283824000	-1.1484756	-6.924508	-0.08741745
59599294474000	-2.1676986	-7.3822346	0.03526321
59599303843000	-3.1303086	-6.4336843	0.4317682
59599314677000	-4.230711	-5.319049	2.1772127
59599324046000	-4.5669117	-3.0991478	3.7015467
59599335032000	-3.7295108	-0.20573711	2.8949687
59599344218000	-1.7006179	1.9899478	2.0336604
59599354930000	0.57979083	3.8033834	2.2398262
59599364268000	1.8159447	4.9427214	1.9471637
59599383372000	1.3199983	4.4985933	1.2469792
59599394420000	0.56688863	4.4660544	1.3388215
59599403392000	0.43211162	5.2000375	2.493765
59599414103000	0.33799744	6.1443644	3.7785287
59599423411000	0.01220715	6.865057	4.3791857
59599435618000	-0.4085966	7.6506376	4.6791463
59599443431000	-0.71567893	8.500615	4.6619935
59599454387000	-0.7658658	9.13741	4.7087555
59599463511000	-0.86523384	9.674746	4.80083
59599474101000	-1.1141045	9.622994	4.7436543
59599483470000	-1.0025821	9.42189	4.7739797
59599495097000	-0.88541126	9.164076	4.704278
59599503672000	-0.88062286	9.195201	4.3104315
59599514476000	-0.80590683	9.175389	3.6251776
59599523478000	-1.1993512	8.776577	2.925439
59599534129000	-0.65424895	7.6349854	1.4412874
59599543498000	-0.11678499	5.5081286	-1.544776
59599554118000	2.459544	2.102457	-9.433333
59599563517000	2.9002066	-1.722909	-12.084698
59599574534000	4.737805	-7.6312456	-18.746815
59599583537000	2.4767036	-9.906555	-19.282822
59599596141000	2.6261995	-9.911052	-18.886066
59599603556000	8.654382	-9.918985	-14.29039
59599615794000	7.7738576	-7.5077934	-11.91163
59599623576000	1.2670046	-4.3445096	-5.451652
59599634318000	-0.80468833	-1.5568919	-1.668407
59599643596000	-1.9609764	1.1079617	3.0338442
59599654216000	-3.2013102	1.9146552	3.7942295
59599663615000	-2.2646937	0.51263523	5.401803
59599674296000	-1.8593438	0.5320511	5.9354258
59599683635000	-2.0081515	0.52887726	1.5989337
59599694651000	-2.634268	-2.4163513	-2.8615775
59599703654000	-2.9971397	-6.4691	-3.8146281
59599714274000	-2.686248	-9.347951	-3.0080633
59599723674000	-1.3741245	-10.064916	4.8275123
59599734355000	-1.2420695	-5.8827353	11.549025
59599743693000	-2.636403	1.058754	13.520586
59599754771000	-2.6569338	5.946314	11.328103
59599763713000	-2.5247576	7.4188385	6.162504
59599774394000	-2.3699183	6.6189575	0.841423
59599783732000	-0.0042448044	4.6881676	-0.94159037
59599796031000	4.7716804	2.2792401	4.134415
59599803752000	8.027961	-0.094031334	8.687769
59599814463000	8.426288	-2.837062	6.307955
59599823802000	6.5250425	-5.306362	0.26859307
59599834452000	3.8876784	-6.6082697	-3.8806386
