gyroscope_timestamp	gyroscope_x_data	gyroscope_y_data	gyroscope_z_data
59573302043000	-0.06261369	-0.06841691	-0.1386664
59573322245000	-0.39461896	-0.06841691	-1.0225884
59573328868000	-0.7275405	-0.35185838	-1.8936822
59573338176000	-0.18661933	-0.68294734	-1.2565498
59573348918000	-0.13103059	-0.055588737	-1.1545353
59573358378000	-0.12980886	0.0036651916	-1.1520919
59573369120000	-0.13164146	0.0030543262	-1.1551461
59573378337000	-0.16157386	0.004581489	-1.1786644
59573389537000	-0.22540927	-0.035430185	-1.2009611
59573398539000	-0.26847526	-0.14844026	-1.205848
59573418742000	-0.31245756	-0.45051312	-1.1658363
59573438762000	-0.19792034	-1.0867293	-0.9783007
59573458964000	0.38728857	-1.7537941	-0.4633413
59573478556000	1.3338243	-2.269059	-0.103847094
59573490367000	1.9294178	-2.028378	-0.05467244
59573498118000	2.5405886	-1.5589281	-0.031154128
59573518138000	3.0561588	-0.7504479	0.01160644
59573551432000	-0.7687739	0.376293	0.17073683
59573569804000	-1.7913623	-0.9801333	0.040317107
59573589549000	-1.2782356	-2.2495112	-1.2629639
59573609507000	-0.70646566	-2.5369234	-1.3790283
59573649638000	0.054367006	-0.6084218	-0.30726522
59573671244000	0.7666359	1.0769554	0.06780604
59573689738000	-0.7498371	0.6630942	0.42821655
59573719004000	0.3549127	0.79259765	0.37904188
59573739055000	1.5815301	0.7501425	0.16157386
59573759044000	2.5735753	1.6963727	0.12797627
59573789378000	3.3292155	4.142583	-0.18784106
59573798716000	2.9184086	3.5952475	-0.25717425
59573809794000	2.3881776	2.3726006	-0.14844026
59573818736000	1.9312505	1.0195341	0.07544186
59573829387000	1.743104	0.28710666	0.2406809
59573838755000	1.851838	0.35002577	0.38759398
59573851024000	2.0732768	0.679893	0.56321776
59573858744000	2.2547035	0.91996306	0.73456544
59573869517000	2.3310618	1.1924089	0.79443026
59573878764000	2.4394903	1.3384057	0.82833326
59573889506000	2.4645357	1.5635096	0.7846564
59573898814000	2.3936756	1.5357152	0.73761976
59573909495000	2.2553146	1.3759739	0.729984
59573918864000	2.1300871	1.4361442	0.77854776
59573929881000	2.0470095	1.6236799	0.8008443
59573938853000	1.9889772	1.7449366	0.7797695
59573949565000	1.9611828	1.7837266	0.81489426
59573958903000	1.956296	1.7198911	0.8961393
59573969554000	1.9593502	1.5851953	0.94989544
59573978892000	1.9443841	1.5601498	1.0219775
59573989909000	1.8145752	1.5906931	1.1322387
59573998881000	1.6368134	1.4453071	1.1945469
59574009623000	1.6468927	1.1090258	1.1713341
59574018962000	1.7229455	0.74097955	1.1328496
59574031199000	1.8246545	0.58184916	1.1129965
59574038951000	1.6679676	0.3277292	1.03786
59574049723000	1.3848315	0.23548855	0.91813046
59574058970000	1.1982121	0.49357912	0.7706065
59574071452000	1.0549643	1.1050552	0.5946773
59574080211000	0.87872964	1.5992452	0.49296826
59574093760000	0.698219	1.4990633	0.5338962
59574099009000	0.50243664	1.0152581	0.636827
59574112681000	0.30268374	0.49510628	0.7049385
59574119059000	0.22357668	0.089491755	0.67011917
59574132884000	0.2828306	0.0421497	0.50335294
59574139018000	0.33505958	0.44257188	0.21868975
59574153300000	0.25809056	1.0167851	-0.039095376
59574159098000	6.1086525E-4	1.2953397	-0.124005646
59574174418000	-0.3481932	1.029308	-0.13744467
59574178996000	-0.535118	0.5476407	-0.17562376
59574191844000	-0.9868528	0.40500367	-0.3210097
59574200053000	-1.5748106	0.35308012	-0.48166725
59574212077000	-2.235767	0.32467487	-0.5864306
59574219584000	-2.899472	0.24404067	-0.5861252
59574231364000	-3.4669657	0.23457226	-0.54183745
59574241038000	-3.7849212	0.33933565	-0.6420194
59574252360000	-3.6969564	0.57726765	-0.9465357
59574259196000	-3.316082	0.643852	-1.2800682
59574272258000	-3.0008755	0.28619036	-1.466382
59574279673000	-2.937651	-0.059864793	-1.5406022
59574293742000	-2.9969049	-0.050396383	-1.5873333
59574299144000	-3.015231	-0.017715093	-1.6603317
59574311686000	-3.0008755	-0.26847526	-1.7660115
59574320628000	-2.9749138	-0.7180721	-1.9089539
59574332377000	-2.9272664	-0.93767816	-1.994475
59574339244000	-2.7177396	-0.8393288	-2.112372
59574350352000	-2.408947	-0.31306845	-2.0680842
59574359294000	-2.164601	0.07574729	-1.9917262
59574369975000	-2.1096232	-0.3371976	-2.069917
59574379313000	-2.1856759	-1.4834863	-2.2421808
59574391551000	-2.293799	-2.6322184	-2.2348504
59574399333000	-2.2901337	-3.0137036	-2.0158553
59574410167000	-2.1325307	-2.7247643	-1.8041905
59574419322000	-1.9825631	-2.3600779	-1.6557503
59574429942000	-1.8793269	-1.915368	-1.5176947
59574439341000	-1.7073684	-1.3735305	-1.4074335
59574450114000	-1.5338826	-1.260215	-1.2348641
59574459422000	-1.4492778	-1.6985108	-1.0036516
59574470408000	-1.3793337	-2.2537873	-0.8035932
59574479411000	-1.3252722	-2.685058	-0.7147123
59574490153000	-1.1655309	-2.8301387	-0.5564982
59574499431000	-0.960891	-2.9385672	-0.42241332
59574510142000	-0.74128497	-2.8334985	-0.31215215
59574519481000	-0.48930305	-2.6294694	-0.22999077
59574530528000	-0.204029	-2.4382687	-0.19272798
59574539500000	0.110872045	-2.2840252	-0.18997909
59574549449000	0.4886922	-2.1945333	-0.23365596
59574558818000	0.9120218	-2.176513	-0.30909783
59574571086000	1.3762794	-2.16399	-0.3549127
59574578807000	1.8839084	-2.005776	-0.33505958
59574589549000	2.3536637	-1.5406022	-0.2669481
59574598887000	2.533869	-0.86559606	-0.1695151
59574609538000	2.035403	-0.27214047	0.0027488936
59574618907000	0.8304713	0.1328632	0.18997909
59574631816000	0.183565	0.27885997	0.27977628
59574638926000	-0.76083267	-0.16340645	0.30207285
59574649882000	-1.2449434	-0.5540548	0.28038713
59574658915000	-1.4184291	-1.3261884	-0.02565634
59574669597000	-1.319469	-1.9504927	-0.55833083
59574678965000	-1.0351112	-2.2650883	-0.9297369
59574689586000	-0.65301496	-2.4254405	-1.0580186
59574698985000	-0.29565877	-2.438574	-1.0338894
59574710063000	-0.13469578	-2.2204952	-1.0100657
59574718943000	-0.1685988	-2.0109684	-1.0256428
59574729686000	-0.118507855	-1.5693128	-0.7849618
59574739024000	0.30268374	-0.70280045	-0.30543262
59574751994000	0.8671232	0.38240165	0.023518313
59574759684000	0.8698721	1.4150693	0.13500121
59574770396000	-0.093767814	1.8521434	0.20677789
59574779643000	-0.74006325	1.4456125	0.38728857
59574790416000	-1.4422529	0.3417791	0.5009095
59574799723000	-1.0430524	-0.09010262	0.55924714
59574810496000	-0.1863139	0.09712757	0.31429017
59574819743000	0.8875872	0.8194757	0.023518313
59574830790000	1.9480493	0.86529064	-0.093767814
59574839763000	2.765998	1.1527027	0.058337633
59574850505000	3.3670893	2.4819455	0.28130344
59574859782000	3.6829066	4.0252967	0.41538838
59574870463000	3.626707	4.62425	0.47036624
59574879771000	3.234226	4.0457606	0.34300083
59574890879000	2.6978865	2.567161	0.22021692
59574899821000	2.2455406	0.6933321	0.34269542
59574910472000	1.9868392	-0.73792523	0.5009095
59574919810000	2.0094411	-0.9975429	0.6020077
59574932109000	2.2247713	-0.28069258	0.7510588
59574939860000	2.3231206	0.5552765	0.8573494
59574950633000	2.4254405	0.84696466	1.0958922
59574959880000	2.4620924	1.2284501	1.2235631
59574970561000	2.4828618	1.604743	1.1664472
59574979869000	2.4242187	1.956296	1.0784826
59574990611000	2.2849414	1.824349	1.039998
59574999949000	2.255009	1.1569787	1.0030408
59575011058000	2.3539693	0.61269784	0.9260717
59575020091000	2.4309382	0.77366084	0.84421575
59575030711000	2.3881776	1.3713925	0.79259765
59575040080000	2.2116377	1.8102992	0.8032878
59575050731000	2.0228803	1.865277	0.9068295
59575060283000	1.8894062	1.6105462	1.0149527
59575071299000	1.7446312	1.1985176	1.1099422
59575080302000	1.645671	0.7440339	1.1600331
59575091075000	1.7482964	0.4166101	1.1276573
59575100474000	1.8515326	0.38453966	1.0965031
59575112712000	2.008525	0.48258355	0.9947941
59575120646000	2.012801	0.8219192	0.86193085
59575131419000	1.8668042	1.178359	0.7715228
59575140666000	1.6136005	1.320996	0.7144069
59575151561000	1.3075571	1.3115277	0.66339964
59575160869000	0.9596693	1.3918564	0.61300325
59575173808000	0.6010914	1.4043792	0.64934975
59575181071000	0.28619036	1.0922271	0.75136423
59575192057000	0.09315695	0.6035349	0.7312057
59575201091000	0.07574729	0.25992316	0.5180137
59575211223000	0.12797627	0.24831672	0.20219639
59575220256000	0.06719518	0.5357288	-0.0729984
59575230876000	-0.1994475	0.9202685	-0.21991149
59575240306000	-0.4269948	1.0668762	-0.258396
59575251292000	-1.0021244	0.98440933	-0.29168814
59575260295000	-1.5460999	0.677755	-0.4728097
59575270945000	-2.0589213	0.5497787	-0.7284568
59575280314000	-2.7210991	0.6737844	-0.9086621
59575292552000	-3.4859025	0.75411314	-1.0009027
59575300334000	-3.9984186	0.52778757	-1.1273518
59575311046000	-4.0039163	0.09987647	-1.4272866
59575320353000	-3.6813793	-0.2950479	-1.7956384
59575330943000	-3.2720997	-0.80848014	-2.0082195
59575340403000	-2.9639182	-1.2696834	-2.0433443
59575350993000	-2.8927524	-1.2208142	-1.9657644
59575360423000	-2.9813278	-0.79809546	-1.9068159
59575371379000	-3.1499267	-0.50579643	-1.9749273
59575380412000	-3.295618	-0.57848936	-2.0977113
59575391063000	-3.218649	-0.81489426	-2.150551
59575400431000	-3.0833423	-0.8417723	-2.1190915
59575411082000	-2.754086	-0.7141015	-2.0124955
59575420451000	-2.5216517	-0.3436117	-2.1734586
59575431468000	-2.3976462	-0.25045475	-2.5848763
59575440471000	-2.3603833	-0.8576548	-2.8170052
59575451091000	-2.4788911	-1.9144517	-2.7534752
59575460460000	-2.5928175	-2.636189	-2.5289822
59575472728000	-2.503631	-2.7052166	-2.4037547
59575480510000	-2.388483	-2.4162774	-2.3866506
59575491252000	-2.3218987	-1.8469511	-2.295937
59575500499000	-2.1621575	-1.1386528	-2.1206186
59575511149000	-1.9807305	-1.0274754	-1.8640553
59575520518000	-1.8964312	-1.758681	-1.5567901
59575531169000	-1.840537	-2.7501154	-1.2788464
59575540538000	-1.7290541	-3.4266486	-1.054048
59575551524000	-1.6383406	-3.717726	-0.9584476
59575560557000	-1.3784174	-3.7574322	-0.782213
59575571238000	-1.0173961	-3.6957347	-0.6389651
59575580577000	-0.5934556	-3.542102	-0.569021
59575591258000	-0.1414153	-3.3423493	-0.5510005
59575600596000	0.30543262	-3.1282408	-0.52839845
59575611644000	0.71593404	-2.8958068	-0.4841107
59575620616000	1.0974194	-2.5934284	-0.38148534
59575631266000	1.4618006	-2.1655173	-0.22510384
59575640635000	1.8420641	-1.645671	-0.13347405
59575652842000	2.2165246	-1.1994339	-0.19058995
59575660655000	2.5103507	-0.99204516	-0.30665436
59575671397000	2.6355782	-0.90102625	-0.37598756
59575680674000	2.3918428	-0.659429	-0.34300083
59575691356000	1.5241088	-0.29779682	-0.28863382
59575700694000	0.850019	-0.12461651	-0.26236662
59575713572000	-0.7623598	-0.21074851	-0.109650314
59575720683000	-1.847562	-0.9114109	-0.109650314
59575731700000	-1.7611245	-2.0683897	-0.56016344
59575740733000	-1.3151928	-2.731484	-0.90285885
59575751353000	-1.0622946	-2.493552	-0.79901177
59575760753000	-0.90285885	-1.9700404	-0.49357912
59575771434000	-0.8542951	-1.4401149	-0.39675698
59575780772000	-1.1264355	-0.6814202	-0.44226643
59575791819000	-1.6471981	-0.05009095	-0.37659842
59575800792000	-2.0864103	0.026572637	-0.23396139
59575811442000	-2.2562308	-0.2443461	-0.077579886
59575820811000	-1.4611896	-0.08124508	0.12156218
59575833049000	0.062002823	0.7333437	0.23884831
59575840831000	1.4043792	1.65911	0.38545597
59575851603000	1.9834795	2.2886066	0.5647449
59575860850000	2.8918362	2.7491992	0.57971114
59575871531000	3.1398473	2.9110782	0.47800204
59575880870000	3.044247	3.196658	0.35033122
59575891520000	3.2947018	3.907094	0.24037547
59575900889000	3.662137	4.9803843	0.22327125
59575911906000	3.4568865	5.3032265	0.29138273
59575920909000	2.7397306	4.247346	0.30940324
59575931590000	2.0949624	2.2687535	0.30695978
59575940928000	1.8212948	0.6105598	0.48166725
59575951548000	1.8777997	0.12034045	0.8035932
59575960948000	2.1529946	0.5821546	1.0393872
59575971965000	2.5399778	1.3432927	1.0662653
59575980967000	2.900999	1.8784106	0.97219205
59575991618000	3.0674598	2.1087067	0.95356065
59576000987000	3.0607402	2.1303926	1.078788
59576013041000	2.9226847	1.9633209	1.1957687
59576020854000	2.6978865	1.856114	1.5308284
59576031627000	2.3689353	1.6633861	1.8576412
59576040873000	2.0073032	1.5128077	1.9520199
59576051524000	1.8041905	1.4172074	1.7513506
59576060893000	1.7953329	1.3020593	1.3014483
59576071574000	1.87444	0.95539325	0.86437434
59576080912000	1.9688187	0.45081854	0.6637051
59576091929000	2.0906863	0.21227567	0.627664
59576100932000	2.1991148	0.39950588	0.6365216
59576111613000	2.2269092	0.9239337	0.68569624
59576120952000	2.1386392	1.4633276	0.8213083
59576131602000	1.9007072	1.6468927	1.028697
59576140971000	1.6022996	1.4456125	1.2513574
59576152079000	1.5176947	0.979217	1.3939945
59576160991000	1.5931365	0.38453966	1.4196508
59576171611000	1.8246545	0.12889257	1.3900238
59576181010000	1.9010127	-0.1386664	1.2831224
59576195414000	1.7256943	-0.0067195175	1.119716
59576201030000	1.4208726	0.473726	0.9673051
59576211711000	1.1453724	1.0079277	0.84604836
59576221049000	0.93126404	1.3729197	0.64965516
59576231700000	0.7266242	1.5125023	0.46639562
59576241069000	0.47555858	1.2394456	0.50854534
59576251719000	0.22052236	0.64934975	0.6585127
59576261088000	0.09468412	0.08674286	0.64599
59576272105000	0.11636983	-0.14019357	0.38331795
59576281108000	0.09315695	0.18906279	0.032986723
59576291758000	-0.10048734	0.82772243	-0.2144137
59576301127000	-0.38331795	1.1731668	-0.32925636
59576311747000	-0.5140431	0.9746355	-0.37782016
59576321147000	-0.7626653	0.7519751	-0.5177083
59576332194000	-1.1539245	0.30085114	-0.6743952
59576341166000	-1.7837266	0.02107485	-0.8023715
59576351878000	-2.4697282	-0.038179077	-0.8943067
59576361186000	-2.9889636	-0.016493361	-0.9746355
59576373423000	-3.4144313	-0.14080444	-1.0781772
59576381205000	-3.7342193	-0.29565877	-1.2195925
59576392039000	-3.817297	-0.20280726	-1.4068227
59576401225000	-3.676187	-0.1881465	-1.5653422
59576411876000	-3.2943962	-0.64476824	-1.649947
59576421244000	-2.9391782	-0.87995136	-1.6917913
59576431956000	-2.8469374	-0.2938262	-1.7110336
59576441264000	-2.918714	0.4810564	-1.8185458
59576452281000	-3.057075	0.6301075	-2.053729
59576461284000	-3.1035008	0.07544186	-2.3075435
59576471995000	-3.0069842	-0.26297748	-2.3958135
59576481303000	-2.644741	-0.59773165	-2.4168882
59576492045000	-2.221106	-0.4071417	-2.322204
59576501323000	-1.951409	-0.2733622	-2.4367414
59576512431000	-1.9425515	-0.86498517	-2.6542094
59576521373000	-2.1386392	-2.1884248	-2.6401596
59576532054000	-2.3548856	-3.5020905	-2.44621
59576541392000	-2.4196372	-3.9290853	-2.201253
59576553630000	-2.384207	-3.4578028	-1.9575176
59576561381000	-2.3536637	-2.6667323	-1.7907515
59576572123000	-2.271197	-1.8658879	-1.6300939
59576581401000	-2.1468859	-1.287093	-1.3805555
59576592082000	-2.065641	-1.1960741	-1.1148291
59576601420000	-2.0054705	-1.4987578	-0.8927795
59576612101000	-1.8967366	-1.9080375	-0.73426
59576621440000	-1.8060231	-2.2058344	-0.6743952
59576632518000	-1.5296066	-2.3066273	-0.5503896
59576641459000	-1.1563679	-2.4523184	-0.41722095
59576652140000	-0.7678576	-2.5705209	-0.3231477
59576661509000	-0.40500367	-2.6734517	-0.29077184
59576672129000	-0.04520403	-2.7482827	-0.3036
59576681529000	0.32467487	-2.7388144	-0.3454443
59576692607000	0.7012733	-2.6041186	-0.38881573
59576701548000	1.1163563	-2.3484714	-0.4007276
59576712169000	1.5790867	-1.9553796	-0.37690386
59576721537000	2.0650299	-1.4043792	-0.3173445
59576733775000	2.4199426	-0.71837753	-0.22174409
59576741587000	2.3448062	-0.022602014	-0.11728613
59576754588000	1.5919148	0.57604593	-0.0711658
59576761638000	0.2012801	1.2449434	-0.09010262
59576772471000	-0.52106804	1.8234328	0.0018325958
59576781779000	-1.4031575	1.486846	0.08307768
59576792491000	-1.351234	0.82802784	0.058337633
59576802012000	-0.98624194	-0.96791595	-0.22876903
59576812968000	-0.76144356	-2.3845124	-0.43279803
59576822032000	-0.5739079	-3.028059	-0.48533243
59576832835000	-0.43035457	-2.9874365	-0.40439278
59576842204000	-0.42394048	-2.2653937	-0.19028452
59576852855000	-0.3213151	-1.1685852	-0.08002335
59576862437000	-0.0852157	0.047036625	-0.12095132
59576873393000	-0.047036625	0.88453287	-0.07269296
59576882457000	-0.31123585	1.056186	0.0852157
59576893290000	-0.73975784	0.743423	0.20830505
59576902629000	-0.86467975	0.3491095	0.2938262
59576914866000	-0.16676621	0.63407815	0.36071593
59576922221000	0.9263771	1.5888605	0.39095375
59576932536000	1.4153748	2.4208589	0.3885103
59576941752000	2.1820107	2.6413813	0.34788775
59576952494000	2.6340508	2.6108382	0.2489276
59576961772000	2.7015514	2.1817052	0.17379116
59576972483000	2.7461448	2.005165	0.15668693
59576981791000	3.1257975	2.5561657	0.07238753
59576992808000	3.444669	3.571118	0.069027774
59577002177000	3.2571335	4.0646973	0.17012598
59577012584000	2.7091873	3.4275649	0.23426682
59577021952000	2.214081	1.9672915	0.3155119
59577032603000	2.0292943	0.5723807	0.4642576
59577042003000	2.1111503	0.0018325958	0.6065892
59577052989000	2.3032675	0.21044308	0.72021013
59577061961000	2.4755313	0.73823065	0.87017757
59577072642000	2.52043	1.2449434	1.0387764
59577082011000	2.529593	1.570229	1.108415
59577094279000	2.5555549	1.6716328	1.2147056
59577102000000	2.5967882	1.8237382	1.29198
59577112803000	2.5079072	1.988061	1.3246613
59577122050000	2.309376	2.1688771	1.2928963
59577132731000	2.122146	2.270586	1.1753048
59577142100000	2.0244074	2.2879958	0.99204516
59577152751000	2.0060816	2.1636846	0.86437434
59577162059000	1.9868392	1.9404135	0.8020661
59577173045000	1.9251418	1.8102992	0.7806858
59577182078000	1.8551978	1.7901406	0.79412484
59577192759000	1.7626517	1.887879	0.8350528
59577202098000	1.5632042	1.9654589	0.8888089
59577212748000	1.3481796	1.781894	0.95630956
59577222178000	1.310306	1.294118	1.006095
59577233195000	1.4364496	0.7348709	1.0057896
59577242198000	1.6927075	0.5195409	0.94134337
59577252818000	1.815186	0.33078352	0.8210029
59577262156000	1.7098118	0.44104472	0.698219
59577274424000	1.493871	0.68508536	0.6398814
59577282206000	1.273654	0.88117313	0.6719518
59577294963000	1.0546589	1.01312	0.70096785
59577302226000	0.86376345	1.1603385	0.66248333
59577312846000	0.7107417	1.1890492	0.6637051
59577322245000	0.5002986	0.9816604	0.7806858
59577332927000	0.21838433	0.5708536	0.89980453
59577342234000	0.06261369	0.07696902	0.8872818
59577353282000	0.1414153	-0.17684549	0.68508536
59577362254000	0.2434298	0.089491755	0.33444872
59577372935000	0.1777618	0.7357872	0.002443461
59577382304000	0.065973446	1.3087788	-0.09407325
59577392955000	-0.29352075	1.3994923	-0.14446963
59577402324000	-0.711658	1.07665	-0.19761491
59577413371000	-1.1407908	0.516792	-0.39645153
59577422313000	-1.7131716	0.31795537	-0.6197228
59577432933000	-2.360994	0.43371433	-0.766025
59577442363000	-2.9529226	0.5177083	-0.84482664
59577454600000	-3.4422257	0.37965274	-0.8765916
59577462382000	-3.6969564	0.121256754	-0.95203346
59577473124000	-3.6456437	0.13683382	-1.1969905
59577482402000	-3.3209689	0.21502456	-1.5146403
59577493022000	-2.9495628	-0.09773844	-1.6942347
59577502482000	-2.8154778	-0.4352415	-1.7321084
59577512950000	-2.8548787	-0.258396	-1.7504344
59577522288000	-2.8683178	0.14263703	-1.8500054
59577533305000	-2.8603766	0.21563543	-1.920255
59577542308000	-2.8457158	0.07452556	-2.0561724
59577553019000	-2.7638597	-0.36254853	-2.19209
59577562358000	-2.5298984	-0.61636305	-2.2800546
59577573008000	-2.2046127	-0.5112942	-2.2467623
59577582377000	-1.9550742	-0.50518554	-2.189341
59577593394000	-1.9257526	-1.1661417	-2.2605069
59577602397000	-2.1386392	-2.4266622	-2.3240368
59577613047000	-2.3515258	-3.3774738	-2.1975877
59577622416000	-2.3353379	-3.2708778	-2.0027218
59577634623000	-2.1994202	-2.6514606	-1.8429805
59577642436000	-2.112372	-2.1468859	-1.707063
59577653148000	-2.0457878	-1.7073684	-1.606881
59577662455000	-1.9062049	-1.3738359	-1.4972308
59577673106000	-1.7592919	-1.4440855	-1.2935071
59577682505000	-1.7110336	-1.8887954	-1.0421361
59577693065000	-1.6352862	-2.1725423	-0.93554014
59577702525000	-1.5195273	-2.6755898	-0.766025
59577713420000	-1.3252722	-2.9596422	-0.6072
59577722514000	-1.0491611	-3.0369165	-0.4801401
59577733134000	-0.73731434	-2.9321532	-0.37782016
59577742503000	-0.42149702	-2.7339275	-0.31764993
59577753184000	-0.09896017	-2.5042422	-0.2959642
59577762523000	0.25289822	-2.3252585	-0.30268374
59577773539000	0.64660084	-2.2107213	-0.3387248
59577782573000	1.0742066	-2.0735822	-0.37904188
59577793223000	1.5244142	-1.8735237	-0.37843102
59577802562000	2.0189097	-1.5506815	-0.31764993
59577814769000	2.5124888	-1.1414018	-0.2938262
59577822551000	2.8173106	-0.79626286	-0.31245756
59577833293000	2.503631	-0.56230146	-0.21624629
59577842601000	1.9633209	-0.2846632	-0.10323623
59577855235000	0.38698313	-0.05467244	0.06047566
59577862590000	-0.93767816	0.5326745	0.15118915
59577873271000	-1.7669277	0.86926126	0.3848451
59577882609000	-2.0372355	0.38087448	0.043066
59577893657000	-1.7537941	-0.8695667	-0.6579019
59577902659000	-1.3112222	-2.1340578	-0.9990701
59577913310000	-0.88361657	-3.0158417	-1.0916162
59577922679000	-0.5158757	-3.169169	-1.0415252
59577933329000	-0.34055737	-2.4611762	-0.7147123
59577942698000	-0.2779437	-1.3753631	-0.23762658
59577953746000	-0.062308256	-0.47616947	-0.048258353
59577962687000	0.16035213	0.36468655	-0.080634214
59577973369000	0.021991149	0.9755518	0.014966198
59577982707000	-0.46975538	0.9993755	0.18325958
59577995036000	-0.7150178	0.6249151	0.23151793
59578003062000	-0.829555	0.43188173	0.22479841
59578013560000	-0.32589662	0.6377433	0.17104226
59578022868000	0.32345316	1.6673567	0.23273966
59578033549000	0.9795224	2.510656	0.34238997
59578042888000	1.7553213	2.7430904	0.32436943
59578053630000	2.3515258	2.254398	0.33658674
59578062907000	2.5167649	1.2696834	0.54092115
59578073954000	2.6777277	0.7852673	0.6969972
59578082927000	3.2088752	1.5683966	0.59681535
59578093638000	3.6905425	3.1181617	0.39370266
59578102977000	3.6092973	4.1676283	0.258396
59578113597000	3.0112603	3.7748418	0.17654006
59578122966000	2.2736404	2.1319196	0.1695151
59578134013000	1.8286251	0.45753807	0.25992316
59578142985000	1.7641789	-0.24312437	0.32253686
59578153636000	1.8484782	-0.21074851	0.46028697
59578163005000	2.0234911	0.23762658	0.6227771
59578175273000	2.154827	0.74220127	0.82802784
59578182994000	2.2418754	1.1621711	1.024421
59578193766000	2.3218987	1.4785993	1.0937542
59578203105000	2.3564126	1.7296649	1.0601566
59578213694000	2.2757785	1.9724839	1.0509937
59578223063000	2.0821342	2.078469	1.0705414
59578233714000	1.8839084	1.9113973	1.0464121
59578243083000	1.8102992	1.565953	0.9627236
59578254100000	1.858252	1.280679	0.8530733
59578263102000	1.8973475	1.2895365	0.766025
59578273723000	1.8753563	1.5323554	0.6954701
59578283122000	1.817935	1.8380935	0.6533204
59578293803000	1.7763962	2.079996	0.66248333
59578303141000	1.6374242	2.1557434	0.691194
59578314189000	1.4272866	2.0885482	0.8194757
59578323161000	1.3121386	1.7073684	1.0064005
59578333812000	1.4584408	1.0885619	1.1276573
59578343181000	1.7498235	0.49235737	1.1279627
59578355449000	1.8613064	0.23579398	1.0497719
59578363170000	1.6801848	0.3368922	0.9410379
59578373942000	1.4089607	0.59650993	0.8597928
59578383220000	1.2275337	0.8881981	0.83108217
59578395823000	1.0790935	1.2311989	0.74464476
59578403239000	0.8677341	1.4563028	0.62980205
59578413859000	0.6087272	1.2449434	0.68844515
59578423259000	0.3191771	0.66889745	0.86315256
59578434214000	0.090713486	0.19517145	0.947452
59578443278000	0.05100725	0.059253927	0.83291477
59578453959000	0.09590584	0.267559	0.700357
59578463481000	0.10842858	0.4877759	0.36926803
59578474101000	-0.050701816	0.99082345	0.08093964
59578483470000	-0.27122417	1.2501358	-0.13469578
59578494700000	-0.5360342	1.0775663	-0.31887165
59578503703000	-1.0143417	0.655153	-0.48808134
59578514293000	-1.6762142	0.20555615	-0.68477994
59578523845000	-2.2928827	-0.050701816	-0.85918194
59578536082000	-2.8093693	-0.106901415	-0.9630291
59578543834000	-3.264464	-0.20372356	-1.0118983
59578554728000	-3.542102	-0.30115658	-1.0821478
59578564036000	-3.5973854	-0.18570304	-1.2382239
59578574717000	-3.436117	-0.07544186	-1.3991868
59578584269000	-3.137404	-0.32498032	-1.5045611
59578594920000	-2.9165761	-0.50946164	-1.5690074
59578604258000	-2.8053987	-0.1853976	-1.5668694
59578614756000	-2.7714956	0.28588495	-1.5900823
59578623393000	-2.7391198	0.4120286	-1.6551393
59578634044000	-2.7650816	0.28038713	-1.8967366
59578643412000	-2.7705793	-0.20463985	-2.1813998
59578654124000	-2.5653286	-0.4636467	-2.3451116
59578663432000	-2.1691825	-0.20250183	-2.3170118
59578674479000	-1.8072448	0.15088372	-2.3200662
59578683452000	-1.6691893	0.050701816	-2.5250115
59578694133000	-1.7461584	-0.75869465	-2.6294694
59578703471000	-1.9315559	-2.132836	-2.4168882
59578715739000	-2.085494	-3.143207	-2.0882428
59578723491000	-2.0900755	-3.2464433	-1.8515326
59578734263000	-2.0641136	-2.8496864	-1.6569719
59578743510000	-2.037541	-2.0409007	-1.4862351
59578754191000	-1.9825631	-1.1133019	-1.4272866
59578763530000	-1.8063285	-0.79901177	-1.3005321
59578774211000	-1.6893479	-0.65179324	-1.104139
59578783580000	-1.6581937	-1.0436633	-0.88270026
59578794505000	-1.5842791	-1.6526959	-0.6979135
59578803569000	-1.4034629	-2.0909917	-0.5555819
59578814250000	-1.1511755	-2.2644775	-0.43371433
59578823588000	-0.8570439	-2.3469443	-0.32834008
59578834239000	-0.5161811	-2.4000895	-0.26358834
59578843608000	-0.14660765	-2.4120014	-0.2556471
59578854655000	0.2510656	-2.4205534	-0.28588495
59578863627000	0.65484756	-2.4077253	-0.3390302
59578874247000	1.0531317	-2.3286183	-0.36682457
59578883647000	1.4590516	-2.1487186	-0.36651915
59578895884000	1.9028453	-1.8457294	-0.344528
59578903666000	2.1398609	-1.4679092	-0.37720928
59578914378000	2.554333	-1.2889256	-0.41783184
59578923686000	2.6768115	-1.0012082	-0.45234573
59578934337000	2.1642957	-0.7516697	-0.33933565
59578943736000	0.7788532	-0.38423425	-0.21685717
59578956370000	-0.8206975	0.122478485	-0.12308934
59578963755000	-1.6612481	0.42088616	0.11026118
59578974772000	-1.7379116	0.022296581	-0.0693332
59578983775000	-1.5656476	-1.0173961	-0.5858198
59578994395000	-1.2996159	-2.1658227	-0.89949906
59579003764000	-0.80573124	-2.8597655	-0.9669997
59579014415000	-0.17195857	-2.8252518	-0.7800749
59579024272000	0.1563815	-2.1084013	-0.37323865
59579034282000	0.09407325	-1.287093	-0.16432275
59579043223000	-0.042760566	-0.514654	-0.26450464
59579053843000	-0.25442538	0.2556471	-0.24801129
59579063212000	-0.43066	0.6554584	-0.13836098
59579075511000	-0.8558222	0.691194	0.113926366
59579083232000	-1.2113458	0.4877759	0.20769419
59579094004000	-1.1621711	0.42394048	0.20341812
59579103251000	-0.33200526	1.1184943	0.28191432
59579113932000	0.79412484	2.0928242	0.4529566
59579123271000	1.5897768	2.7754662	0.61575216
59579133952000	2.159714	2.8735101	0.72082096
59579143321000	2.4987442	2.121535	0.74067414
59579154338000	2.5363126	0.93737274	0.6630942
59579163310000	2.8108964	0.51068336	0.40469822
59579173991000	3.4987307	1.7238617	0.027183503
59579183360000	3.8344011	3.5537086	-0.0842994
59579194041000	3.2940907	4.163047	0.03390302
59579203379000	2.3377812	3.220787	0.12797627
59579214396000	1.9446895	1.5635096	0.18875736
59579223369000	1.5677856	0.80756384	0.35705075
59579234019000	1.6630806	-0.004581489	0.51159966
59579244120000	1.9905044	0.09590584	0.65118235
59579256358000	2.2974641	0.5329799	0.82833326
59579264109000	2.4593434	0.979217	1.0543534
59579274852000	2.563496	1.3616186	1.2223413
59579284160000	2.67223	1.6722436	1.2336423
59579294810000	2.7061331	1.8967366	1.1426234
59579304149000	2.579073	2.0744984	1.070236
59579314799000	2.2708917	2.2406538	1.0680978
59579324168000	1.9257526	2.3084598	1.0558805
59579335185000	1.7293595	2.2009475	0.98929626
59579344188000	1.6728544	1.933083	0.9083566
59579354838000	1.7110336	1.6346754	0.88789266
59579364207000	1.7479908	1.4349225	0.8933904
59579374888000	1.7907515	1.430341	0.8918633
59579384227000	1.7534887	1.632232	0.88606006
59579395244000	1.6203201	1.8979583	0.91751957
59579404277000	1.4144585	1.9734001	0.96761054
59579414927000	1.2910637	1.7556267	1.001819
59579424266000	1.395827	1.3432927	1.0146471
59579436717000	1.6389514	0.95386606	0.9914343
59579444316000	1.756543	0.6994407	0.9147707
59579455241000	1.5986344	0.52687126	0.8054258
59579464488000	1.3011429	0.44348818	0.7257079
59579476115000	1.0769554	0.5500842	0.70402217
59579484568000	0.9202685	0.9288206	0.6273586
59579496928000	0.7510588	1.4162911	0.48899764
59579504344000	0.5354234	1.496009	0.5335908
59579515361000	0.40958515	0.9966267	0.7593055
59579524333000	0.1441642	0.32406402	0.8680395
59579534983000	-0.008246681	0.065973446	0.958753
59579544413000	0.064751714	-0.14935656	0.80848014
59579555064000	0.15088372	0.03176499	0.49021935
59579564402000	0.021991149	0.42638394	0.1704314
59579575419000	-0.26175576	0.75533485	-0.0983493
59579584422000	-0.6569856	0.8005389	-0.31215215
59579595042000	-1.208597	0.5757405	-0.49235737
59579604442000	-1.7837266	0.20372356	-0.72051555
59579616710000	-2.3301454	-0.20830505	-0.96486163
59579624461000	-2.9345965	-0.37140608	-1.1297953
59579635173000	-3.429703	-0.1563815	-1.2495248
59579644481000	-3.6144896	0.14202617	-1.3967434
59579655162000	-3.5851681	0.16279559	-1.5005904
59579664500000	-3.5301902	-0.24373524	-1.5491543
59579675181000	-3.335935	-0.6609562	-1.5790867
59579684520000	-3.1129694	-0.6114761	-1.6484199
59579695536000	-2.9846876	0.0061086523	-1.7088956
59579704539000	-2.973692	0.63316184	-1.8063285
59579715220000	-3.0647109	0.72173727	-1.9825631
59579724559000	-3.08884	0.3304781	-2.2033908
59579735240000	-2.866485	-0.087659165	-2.3313673
59579744578000	-2.5027149	-0.15302174	-2.2766948
59579755626000	-2.2220223	-0.030848695	-2.1685717
59579764628000	-2.1655173	-0.34269542	-2.2091942
59579775248000	-2.2812762	-1.2159272	-2.377182
59579784617000	-2.4281893	-2.300824	-2.3893993
59579796885000	-2.4584272	-2.8716774	-2.1911736
59579804637000	-2.323426	-2.6600127	-1.9816469
59579815410000	-2.2479842	-2.3881776	-1.781894
59579824656000	-2.2476788	-2.048842	-1.6859881
59579835337000	-2.180789	-1.7504344	-1.5402967
59579844676000	-1.9859229	-1.1563679	-1.3655893
59579855327000	-1.8393153	-1.099252	-1.1169671
59579864695000	-1.7446312	-1.5668694	-0.9101892
59579875651000	-1.616044	-2.0735822	-0.7644979
59579884715000	-1.4230106	-2.3423629	-0.6188065
59579895366000	-1.1511755	-2.4526238	-0.48349985
59579904734000	-0.82253003	-2.4944682	-0.38881573
59579915416000	-0.453262	-2.4874432	-0.3454443
59579924754000	-0.058337633	-2.453235	-0.34055737
59579935801000	0.35185838	-2.427273	-0.36560285
59579944774000	0.7770206	-2.3759604	-0.38545597
59579955455000	1.2299771	-2.2369885	-0.35827246
59579964793000	1.7498235	-1.9376645	-0.3155119
59579977000000	2.0372355	-1.4709635	-0.2959642
59579984813000	2.5995371	-1.1985176	-0.28405234
59579995524000	2.9394836	-0.66859204	-0.28130344
59580004832000	2.6710083	-0.30573806	-0.15302174
59580017314000	1.4581354	-0.09101892	0.027794369
59580024699000	-0.31520647	0.15363261	0.025961773
59580035350000	-1.5583172	0.3100141	0.17806722
59580044780000	-1.8032742	-0.017104227	0.2180789
59580055735000	-1.5601498	-0.91232723	-0.3726278
59580064708000	-1.3106114	-1.9657644	-0.9138544
59580075389000	-1.0118983	-2.6951375	-1.1133019
59580084727000	-0.5317582	-2.9126055	-1.0690142
59580095408000	-0.118507855	-2.4263568	-0.73273283
59580104777000	-0.053145275	-1.4401149	-0.34391713
59580115855000	-0.09040806	-0.36010507	-0.29810223
59580124797000	-0.105374254	0.7031059	-0.30573806
59580135447000	-0.28527406	1.1065824	-0.2003638
59580144816000	-0.82650065	1.2977833	0.1160644
59580157267000	-1.534799	0.6401868	0.3359759
59580164988000	-1.4544702	-0.15577064	0.46944994
59580175761000	-0.35216382	0.1020145	0.5384777
59580185222000	0.7892379	1.2559389	0.573297
59580195903000	1.6307048	2.0482311	0.6065892
59580205241000	2.1844542	2.0592268	0.5635232
59580216105000	2.317928	1.6081028	0.43401974
59580225413000	2.4007003	1.6420058	0.3378085
59580236491000	2.8506026	2.5332582	0.23335053
59580245616000	3.2562172	3.67466	0.17195857
59580256327000	3.1627548	4.1013494	0.13927728
59580265818000	2.7061331	3.4077117	0.021991149
59580276500000	2.261423	1.9459113	-0.10170906
59580285869000	2.0659463	0.514654	-0.07086037
59580296367000	2.057394	-0.0983493	0.10170906
59580304973000	2.1276436	-0.057726767	0.2134974
59580315593000	2.232407	0.41416663	0.46792278
59580324962000	2.360994	0.9954049	0.72021013
59580337291000	2.4987442	1.4419475	0.9117164
59580344981000	2.617863	1.6688838	1.0277808
59580355754000	2.6868908	1.8671097	1.0439687
59580365001000	2.6658158	2.0955732	0.9569204
59580375682000	2.5744915	2.3218987	0.79717916
59580385081000	2.4599543	2.5137105	0.68966687
59580405040000	2.2186625	2.5442538	0.8536842
59580416026000	2.0815234	2.5017986	0.9068295
59580425120000	1.9843957	2.4419339	0.9193522
59580435771000	1.9474384	2.310598	0.92149025
59580455790000	1.783421	2.0479257	1.0231993
59580465098000	1.5980235	1.8451185	1.1139128
59580476146000	1.3903292	1.566564	1.2000448
59580495799000	1.6658295	0.9260717	1.1481212
59580505320000	1.9019289	0.77488256	1.0699304
59580517466000	1.7996091	0.70005155	0.9651671
59580525218000	1.4773777	0.6032294	0.8503244
59580536052000	1.2434162	0.56107974	0.77182823
59580545237000	1.1432343	0.8353582	0.6817256
59580555949000	1.0100657	1.3246613	0.5815437
59580565257000	0.8060367	1.5238034	0.5589417
59580577891000	0.59315014	1.3435981	0.6407976
59580585307000	0.4813618	1.0360274	0.70463306
59580596293000	0.25167647	0.86101454	0.8231409
59580605296000	0.14110987	0.46853364	0.85918194
59580615916000	0.18997909	0.17867808	0.75319684
59580625316000	0.21288654	0.32711834	0.50426924
59580636027000	0.084910266	0.8597928	0.2144137
59580645335000	-0.13041973	1.2363913	-0.021991149
59580656352000	-0.32895094	1.1102476	-0.24740042
59580665355000	-0.66431594	0.7464773	-0.45937067
59580676036000	-1.2788464	0.48747048	-0.63499445
59580685374000	-1.9724839	0.33505958	-0.8035932
59580697581000	-2.554333	0.23823744	-0.9282097
59580705394000	-3.0653217	0.12308934	-0.9654725
59580716166000	-3.431841	-0.01740966	-1.0009027
59580725413000	-3.5277467	0.025961773	-1.1728612
59580736094000	-3.4681873	0.19364429	-1.4016303
59580745433000	-3.1856623	0.053145275	-1.4816537
59580756114000	-2.8927524	-0.16493362	-1.5479325
59580765483000	-2.8066204	-0.49418998	-1.536326
59580776439000	-2.8432722	-0.32070425	-1.534799
59580785502000	-2.8976393	-0.041233405	-1.6420058
59580796153000	-2.9385672	-0.18387043	-1.8777997
59580805491000	-2.905886	-0.66767573	-2.1691825
59580816172000	-2.7107146	-0.97341377	-2.3903158
59580825511000	-2.3377812	-0.9233228	-2.436436
59580836619000	-2.0247128	-1.0091494	-2.3109033
59580845530000	-2.058005	-1.6358972	-2.2421808
59580856212000	-2.3918428	-2.6297748	-2.2983804
59580865550000	-2.6716192	-3.3652565	-2.1355848
59580877818000	-2.6462681	-3.2785137	-1.7498235
59580885600000	-2.5659394	-2.6429086	-1.396438
59580896312000	-2.4193318	-1.9715676	-1.2837334
59580905619000	-2.324953	-1.6823229	-1.2583824
59580916240000	-2.2192733	-1.2449434	-1.3359623
59580925608000	-2.062892	-1.0201449	-1.2684617
59580936290000	-1.9031507	-1.1029172	-1.0852021
59580945659000	-1.7873917	-1.4944818	-0.8561276
59580956614000	-1.6643023	-1.9428569	-0.6579019
59580965678000	-1.4862351	-2.2204952	-0.49846604
59580976329000	-1.2599095	-2.3875668	-0.36071593
59580985667000	-0.9831876	-2.4397957	-0.2669481
59580996348000	-0.66767573	-2.3741279	-0.21777347
59581005717000	-0.33322698	-2.3011293	-0.20311269
59581016734000	0.029321533	-2.2922719	-0.20891592
59581025706000	0.44073927	-2.3335052	-0.24709499
59581036387000	0.8927795	-2.2736404	-0.27977628
59581045756000	1.1438452	-2.0143282	-0.27091873
59581057994000	1.707063	-1.7996091	-0.2180789
59581065776000	2.3060162	-1.2275337	-0.21777347
59581076487000	2.7855456	-0.61391956	-0.27122417
59581085795000	2.8765645	-0.08277224	-0.23365596
59581096476000	2.2708917	0.40408736	-0.049480084
59581105784000	0.9117164	0.8881981	0.05497787
59581118480000	-0.5375614	1.1462886	0.111177474
59581125895000	-1.3759739	0.82772243	0.23182335
59581136912000	-1.5537357	-0.2501493	-0.22571471
59581145915000	-1.50731	-1.6850718	-0.9025534
59581156535000	-1.4618006	-2.7614164	-1.1866057
59581165934000	-1.2654073	-3.3096678	-1.2211196
59581176616000	-0.88178396	-3.2797356	-1.1823297
59581185984000	-0.5531385	-2.6041186	-0.93523467
59581197032000	-0.42546764	-1.5610662	-0.7104363
59581205973000	-0.093462385	-1.024421	-0.30573806
59581216655000	0.32284227	0.023518313	-0.16554448
59581225993000	0.42424592	0.88239485	-0.06566802
59581238261000	-0.07544186	1.2412782	0.109650314
59581246043000	-0.6084218	1.3726143	0.29749137
59581256785000	-0.5687156	1.4040737	0.46303585
59581266032000	-0.26633725	1.4446963	0.5757405
59581276683000	0.18692477	1.5213599	0.6414085
59581286052000	1.0082331	1.3322971	0.5653558
59581296733000	1.8692477	0.87781334	0.41355577
59581306071000	2.3710735	0.6105598	0.364992
59581317088000	2.8270843	1.2006557	0.28619036
59581326091000	3.4565809	2.6251934	0.0852157
59581336772000	3.8432586	3.9565742	0.0015271631
59581346110000	3.8114936	4.5512514	-0.0021380284
59581356791000	3.3056972	4.474588	-0.01282817
59581366130000	2.5595255	3.3567045	0.01985312
59581377208000	2.051591	1.3994923	0.15668693
59581386149000	1.9260582	0.02107485	0.269697
59581396830000	2.0442605	-0.10445796	0.38026363
59581406169000	2.212554	0.42302418	0.56077427
59581418406000	2.3151793	0.9089675	0.79901177
59581426188000	2.3829854	1.3090842	1.0552697
59581437022000	2.5002716	1.702176	1.1768318
59581446208000	2.5919013	1.9639318	1.094976
59581456889000	2.5827382	2.1700988	0.926988
59581466258000	2.4651468	2.3722951	0.84391034
59581476909000	2.2693644	2.4361305	0.91629785
59581486277000	2.065641	2.4578164	0.9599747
59581497325000	1.9181169	2.5305092	0.90469146
59581506266000	1.8677205	2.5512786	0.88178396
59581516887000	1.7870862	2.516154	0.872621
59581526194000	1.7076738	2.3371704	0.8854492
59581536937000	1.609019	2.071444	0.89644474
59581546244000	1.4541647	1.8347337	0.93523467
59581557353000	1.2889256	1.5460999	0.9999864
59581566264000	1.3072516	1.1291844	1.0076222
59581576884000	1.5354098	0.7834347	0.96852684
59581586284000	1.6859881	0.6178902	0.9056077
59581598552000	1.6346754	0.6017023	0.8216137
59581606273000	1.5528195	0.59742624	0.7556403
59581617076000	1.5097535	0.61727935	0.73792523
59581626292000	1.3762794	0.72784597	0.73364913
59581637004000	1.1490375	0.8396343	0.72418076
59581646312000	0.9416488	0.77518797	0.73426
59581659007000	0.8558222	0.5751296	0.7476991
59581666331000	0.66248333	0.5186246	0.799928
59581677348000	0.3894266	0.49541172	0.88086766
59581686351000	0.14996742	0.35094208	0.9282097
59581697032000	0.09896017	0.09712757	0.8512407
59581706401000	0.19058995	0.09040806	0.6032294
59581717051000	0.21471913	0.5308419	0.26725355
59581726390000	0.013744468	1.1136073	0.018325957
59581737468000	-0.36682457	1.3457361	-0.10567969
59581746470000	-0.7538077	1.0958922	-0.26083946
59581757121000	-1.1542299	0.8014552	-0.48166725
59581766459000	-1.7314975	0.8249735	-0.6618725
59581778697000	-2.4758368	0.8561276	-0.79168135
59581786448000	-3.19116	0.7684685	-0.8741482
59581797221000	-3.610519	0.74464476	-0.915687
59581806498000	-3.6850445	0.74036866	-0.9822713
59581817149000	-3.648698	0.73426	-1.2843442
59581826487000	-3.4190128	0.6239988	-1.6319265
59581837169000	-3.0995302	0.2321288	-1.8048013
59581846507000	-2.9159653	-0.15485434	-1.8319849
59581857493000	-2.917187	-0.13041973	-1.8014416
59581866710000	-3.0057623	0.07269296	-1.8072448
59581877391000	-3.118467	-0.05222898	-1.8777997
59581886729000	-3.1294627	-0.5626069	-2.0060816
59581897593000	-2.964529	-1.0152581	-2.1456642
59581906962000	-2.6578746	-1.0030408	-2.1933117
59581918010000	-2.3655756	-0.8323039	-2.1001546
59581927104000	-2.2950208	-1.104139	-1.9126191
59581937754000	-2.43216	-1.7870862	-1.842675
59581947154000	-2.617863	-2.4306328	-1.9214766
59581959575000	-2.624277	-2.5240953	-1.915368
59581967357000	-2.3787093	-2.033876	-1.8967366
59581978129000	-2.2379048	-1.6560557	-1.9260582
59581987529000	-2.084883	-1.6352862	-1.8997909
59581998179000	-2.0433443	-1.5867225	-1.7776178
59582007640000	-1.9333885	-1.3603969	-1.6215417
59582017772000	-1.8069394	-1.4370605	-1.3933836
59582026744000	-1.7479908	-1.9272798	-1.1759156
59582037730000	-1.6890424	-2.4727826	-0.9828822
59582046763000	-1.5448782	-2.8093693	-0.8008443
59582057444000	-1.2990049	-2.8695395	-0.6591236
59582066813000	-0.96883225	-2.6914723	-0.56291234
59582077464000	-0.5934556	-2.4559836	-0.5140431
59582086802000	-0.17745635	-2.324953	-0.49571714
59582097850000	0.25778514	-2.317928	-0.4700608
59582106822000	0.6936375	-2.3582454	-0.39400807
59582117442000	0.915687	-2.3142629	-0.34116822
59582126841000	1.3778065	-2.1988094	-0.21624629
59582139109000	1.8512272	-1.7513506	-0.12492194
59582146891000	2.2950208	-1.2388347	-0.14996742
59582157603000	2.6230555	-0.84482664	-0.22388211
59582166880000	2.679255	-0.49357912	-0.27000242
59582177531000	2.2592852	-0.0852157	-0.1853976
59582186900000	1.1670581	0.3286455	-0.04795292
59582199473000	-0.28527406	0.6230826	-0.004276057
59582206920000	-1.6203201	0.40530908	0.032986723
59582217906000	-2.1465805	-1.0002918	-0.46395215
59582226939000	-1.7831156	-2.6966646	-1.2241739
59582237590000	-1.3072516	-3.3139439	-1.4874569
59582246959000	-1.0351112	-3.0983086	-1.2834278
59582257609000	-0.80848014	-2.4471262	-0.93737274
59582266978000	-0.68019843	-1.736079	-0.7874053
59582278025000	-0.3747658	-1.4147639	-0.47433686
59582287028000	0.065973446	-0.8686504	-0.17440203
59582297679000	0.56382865	-0.3912592	-0.12156218
59582307017000	0.84879726	0.27183503	-0.17867808
59582319224000	0.72204274	0.8268061	-0.060170226
59582327037000	0.19975294	1.1001683	0.069027774
59582337840000	-0.45845437	1.0888673	0.08032878
59582347056000	-0.5662721	1.146594	0.07147124
59582357737000	0.09407325	1.9321668	0.043982297
59582367076000	0.87995136	2.526844	0.031154128
59582377757000	1.5375478	2.3487768	0.07574729
59582387126000	2.117259	1.7684549	0.16187929
59582398112000	2.4535403	1.1374311	0.25595254
59582407115000	2.638327	1.0543534	0.28099802
59582417796000	2.787378	1.7217237	0.24007004
59582427134000	3.179248	2.264783	0.096516706
59582437816000	3.2846224	3.4477234	-0.011301007
59582447154000	2.8753426	3.983147	-0.0067195175
59582458232000	2.2385156	3.2769866	0.12767084
59582467173000	1.8102992	1.9355265	0.32406402
59582477794000	1.7669277	0.88178396	0.5021312
59582487193000	1.9346102	0.47311515	0.6560693
59582499492000	2.1557434	0.58062744	0.8054258
59582507151000	2.3246477	0.96883225	0.9560041
59582517924000	2.4120014	1.3603969	1.0955868
59582527171000	2.493552	1.6270396	1.1780536
59582537852000	2.5207355	1.8145752	1.1896601
59582547191000	2.3674083	1.9706513	1.1569787
59582557841000	2.0470095	2.1514673	1.1307116
59582567210000	1.8851302	2.221717	1.1111639
59582578166000	1.6963727	2.1981986	1.094976
59582587230000	1.709201	2.0497584	1.0341948
59582597941000	1.7437148	1.7192802	0.95142263
59582607249000	1.7400496	1.3793337	0.9120218
59582617930000	1.7229455	1.241889	0.9092729
59582627238000	1.6239853	1.3066407	0.9282097
59582638285000	1.4657712	1.4672983	0.96974856
59582647288000	1.409877	1.5800029	1.0106765
59582657969000	1.5723672	1.4618006	1.0387764
59582667308000	1.8203784	1.1099422	1.0555751
59582679545000	1.9025398	0.7858781	1.0173961
59582687327000	1.752267	0.64843345	0.91538155
59582698069000	1.5155567	0.64721173	0.8527679
59582707377000	1.3005321	0.75655663	0.8570439
59582718058000	1.0891727	0.9816604	0.8381071
59582727336000	0.9810496	1.212873	0.80878556
59582739970000	0.7840455	1.2522738	0.76052725
59582747325000	0.59437186	1.1221595	0.79901177
59582758311000	0.3277292	0.83260936	0.8888089
59582767344000	0.073303826	0.48563787	0.9300423
59582777995000	0.05222898	0.17012598	0.84116143
59582787364000	0.22204952	0.09315695	0.5885687
59582798076000	0.26053402	0.41813725	0.26389378
59582807383000	0.031154128	0.91874135	0.045814894
59582818431000	-0.31490102	1.0354166	-0.055588737
59582827403000	-0.6713409	0.6215554	-0.19700404
59582838084000	-1.2043208	0.19608775	-0.3915646
59582847422000	-1.9263636	0.10140363	-0.5739079
59582859691000	-2.6126707	0.13255776	-0.711658
59582867442000	-3.227201	-0.008857546	-0.82527894
59582878215000	-3.5075881	-0.28344148	-0.8848383
59582887462000	-3.8450913	-0.34025195	-1.0320568
59582898143000	-3.8142426	-0.113926366	-1.2589933
59582907481000	-3.595553	0.14874569	-1.5045611
59582918132000	-3.25469	-0.11301007	-1.6554449
59582927501000	-3.0002646	-0.4896085	-1.7033978
59582938517000	-2.9755247	-0.29046643	-1.72264
59582947520000	-3.0405817	0.20922135	-1.8286251
59582958201000	-3.1245756	0.33658674	-2.0124955
59582967540000	-3.1600058	-0.12950343	-2.2107213
59582978221000	-3.0305026	-0.73884153	-2.3558018
59582987559000	-2.7504208	-0.88178396	-2.3564126
59582998637000	-2.4755313	-0.58062744	-2.2296581
59583007701000	-2.3267858	-0.49480084	-2.1325307
59583018351000	-2.2910502	-1.0442741	-2.2412646
59583027690000	-2.3020456	-2.0851886	-2.3316727
59583039958000	-2.3704627	-2.5714374	-2.4013114
59583047709000	-2.3701572	-2.9614747	-2.3057108
59583058452000	-2.26631	-2.7516425	-2.1410828
59583067729000	-2.2266037	-2.3918428	-1.9636264
59583078379000	-2.1813998	-1.8854356	-1.8145752
59583087748000	-2.0265455	-1.4886786	-1.6536123
59583098430000	-1.8310685	-1.4376713	-1.4144585
59583107768000	-1.6551393	-1.6694947	-1.1734722
59583118754000	-1.5066991	-2.0457878	-0.98532563
59583127787000	-1.3350459	-2.3930645	-0.8151997
59583138469000	-1.0919216	-2.6258042	-0.63163465
59583147807000	-0.79809546	-2.7430904	-0.45234573
59583158488000	-0.48288897	-2.7724118	-0.2959642
59583167827000	-0.1704314	-2.7840183	-0.160963
59583178874000	-0.023823744	-2.7827966	-0.0571159
59583187846000	0.26389378	-2.6957483	-0.015882496
59583198527000	0.5842926	-2.605951	0.046731193
59583207866000	0.9718866	-2.3331997	0.09712757
59583220134000	1.4422529	-1.9624046	0.13439035
59583227855000	1.9498819	-1.5106697	0.14782938
59583238627000	2.3417518	-0.956615	0.1731803
59583247905000	2.2110267	-0.33505958	0.24740042
59583260447000	1.2290609	0.2874121	0.33322698
59583267924000	-0.13683382	0.88789266	0.30940324
59583278544000	-1.0305296	1.044885	0.36651915
59583287944000	-1.1795808	0.44532076	0.42455134
59583298961000	-0.872621	-0.57879484	0.0061086523
59583307933000	-0.57787853	-1.6878207	-0.55833083
59583318614000	-0.43371433	-2.3020456	-0.82833326
59583327983000	-0.36346483	-2.3356433	-0.86590147
59583338603000	-0.36163223	-2.1029036	-0.8539896
59583348002000	-0.45478916	-1.9269744	-0.82772243
59583359080000	-0.54153204	-1.4767667	-0.66950834
59583367991000	-0.23304509	-0.799928	-0.32436943
59583378703000	0.5186246	0.22876903	-0.043982297
59583388041000	1.0552697	1.4801265	0.13591751
59583400340000	0.7333437	2.087021	0.35185838
59583408061000	-0.2593123	1.8509218	0.59437186
59583418834000	-0.81061816	1.1606439	0.8723156
59583428080000	-0.33750305	0.3268129	0.9584476
59583438762000	0.6453791	0.40775254	0.6814202
59583448100000	1.566564	1.0656544	0.35124752
59583458812000	2.159714	1.6236799	0.18936823
59583468119000	2.5283713	2.1041253	0.2415972
59583479167000	2.8368583	2.6939158	0.33841935
59583488108000	3.0106494	3.5445457	0.31887165
59583498851000	3.382361	3.9852848	0.14477506
59583508036000	3.540575	4.5570545	-0.057421334
59583518718000	3.2974505	4.393648	-0.19639318
59583528239000	2.776077	3.3484578	-0.18173242
59583539317000	2.2339342	1.6639969	0.06719518
59583548289000	1.9058995	0.2171626	0.38056904
59583559123000	1.8597792	-0.16707164	0.63285637
59583568461000	1.9798143	0.29779682	0.89461213
59583580699000	2.1010711	0.73761976	1.1365148
59583588633000	2.205529	0.97005403	1.2800682
59583599437000	2.3203716	1.287704	1.2434162
59583608683000	2.413834	1.6475036	1.0393872
59583619548000	2.425746	1.9269744	0.8142834
59583628886000	2.3383923	2.1697934	0.6966918
59583639537000	2.2064452	2.4330764	0.75808376
59583649058000	2.0769417	2.705522	0.8891144
59583660106000	1.9385809	2.8151724	0.92271197
59583668681000	1.8545868	2.7305677	0.90377516
59583678874000	1.6933185	2.6734517	0.84299403
59583688212000	1.6105462	2.5152376	0.7583892
59583698893000	1.5839735	2.3044891	0.66523224
59583708262000	1.5296066	2.2540927	0.6218608
59583719279000	1.3979651	2.2321017	0.6453791
59583728251000	1.3002267	1.9098701	0.70616025
59583738932000	1.3918564	1.3154984	0.7535023
59583748271000	1.6013832	0.73426	0.7654142
59583760539000	1.7119498	0.4092797	0.75228053
59583768290000	1.6496416	0.38362336	0.70341134
59583779063000	1.5012014	0.49877146	0.64812803
59583788310000	1.4245378	0.6569856	0.6478226
59583799022000	1.2705997	0.89461213	0.6649268
59583808360000	1.0842859	1.033584	0.68661255
59583818980000	0.86376345	1.244638	0.6649268
59583828379000	0.6768387	1.20371	0.6160576
59583841380000	0.5879578	0.9211848	0.60048056
59583848369000	0.44929138	0.6658431	0.691194
59583859050000	0.19456059	0.43463063	0.8393288
59583868388000	0.053450707	0.07452556	0.890947
59583879069000	0.08552113	-0.09010262	0.7528914
59583888438000	0.03940081	0.26053402	0.46395215
59583899485000	-0.1853976	0.79717916	0.16462818
59583908458000	-0.4538729	0.9954049	-0.09132435
59583919108000	-0.7828238	0.8136725	-0.3286455
59583928447000	-1.378112	0.50610185	-0.54611355
59583940715000	-2.1432207	0.18142697	-0.7263188
59583948466000	-2.4862216	0.036651913	-0.79412484
59583959208000	-3.0335567	0.008857546	-0.8597928
59583968486000	-3.4852917	-0.1554652	-0.8933904
59583979167000	-3.7659843	-0.3304781	-1.0262536
59583988505000	-3.6807685	-0.28130344	-1.2864822
59583999186000	-3.1929927	-0.3662137	-1.5366315
59584008616000	-2.6685648	-0.73761976	-1.6362026
59584019664000	-2.5350907	-0.7770206	-1.632232
59584028666000	-2.6908615	-0.35918877	-1.6694947
59584039317000	-2.817616	-0.15882497	-1.8435913
59584048655000	-2.7913487	-0.5891795	-2.0754147
59584059337000	-2.6823094	-1.25319	-2.2910502
59584068675000	-2.495079	-1.561677	-2.430022
59584079722000	-2.1569653	-1.38025	-2.424524
59584088694000	-1.831374	-1.2617421	-2.3530529
59584099376000	-1.7629571	-1.8216002	-2.3732114
59584108714000	-1.8713857	-2.3420575	-2.5176811
59584120921000	-2.1832323	-3.4498615	-2.4492643
59584128733000	-2.4740043	-3.8664715	-2.0912971
59584139537000	-2.5857925	-3.2717943	-1.7189748
59584148753000	-2.5234842	-2.3704627	-1.484708
59584159465000	-2.356718	-1.6520851	-1.4587462
59584168773000	-2.1700988	-1.3432927	-1.53205
59584179484000	-2.0054705	-1.4724907	-1.525636
59584188823000	-1.8411479	-1.7968601	-1.3881912
59584199809000	-1.6991217	-2.1615467	-1.1823297
59584208812000	-1.5894713	-2.5195136	-0.9819659
59584219462000	-1.4602734	-2.751337	-0.8188649
59584228831000	-1.2534955	-2.8017335	-0.6579019
59584239543000	-0.97249746	-2.7467556	-0.52748215
59584248851000	-0.816116	-2.6138923	-0.48197266
59584259929000	-0.47861293	-2.5369234	-0.4129449
59584268870000	-0.1301143	-2.424524	-0.37568212
59584279521000	0.20525073	-2.3811526	-0.3436117
59584288920000	0.5360342	-2.3619106	-0.27672195
59584301188000	0.87109387	-2.2748623	-0.112704635
59584308909000	1.2651019	-2.0011945	0.042760566
59584319621000	1.7033978	-1.5085317	0.04062254
59584328959000	2.1126773	-1.0283916	-0.044593163
59584339579000	2.3796256	-0.7144069	-0.16982053
59584348948000	2.3958135	-0.50426924	-0.2406809
59584359599000	2.0702224	-0.30879238	-0.2443461
59584368968000	1.2495248	-0.086132	-0.2556471
59584381999000	-0.13927728	-0.064446285	-0.21655174
59584388987000	-1.3930782	-0.8237518	-0.30451632
59584399638000	-1.632232	-2.1704042	-0.78893244
59584409007000	-1.4990633	-2.7397306	-1.0461067
59584419658000	-1.3096951	-2.554333	-1.2626585
59584429057000	-1.2208142	-1.840537	-1.1181889
59584440135000	-0.95417154	-1.4459181	-0.7535023
59584449046000	-0.54367006	-1.2113458	-0.3210097
59584459758000	-0.21899518	-0.74097955	-0.16065755
59584469096000	-0.18997909	-0.12705997	-0.2657264
59584481364000	-0.62888575	0.20280726	-0.3454443
59584489085000	-1.3649784	0.28099802	-0.38973203
59584499919000	-1.5546521	0.70188415	-0.3680463
59584509013000	-0.7528914	1.491733	-0.20005837
59584519694000	0.1518	1.9572122	0.10873401
59584529033000	0.8026769	1.865277	0.49174652
59584539714000	1.461495	1.534188	0.79259765
59584549083000	1.8387043	0.9080512	0.97097033
59584560099000	1.9364429	0.29901853	0.9947941
59584569041000	2.453235	0.43676865	0.77732605
59584579753000	3.3454034	2.078469	0.29168814
59584589091000	3.7864482	4.2675047	0.12950343
59584599772000	3.4843755	5.139515	0.2941316
59584609111000	2.7947085	4.304462	0.28893927
59584620189000	2.2336287	2.3961189	0.22327125
59584629130000	2.0341814	0.6264423	0.28344148
59584639811000	2.0674734	-0.00580322	0.42943826
59584649150000	2.2107213	0.39064834	0.6206391
59584661387000	2.4040601	0.9660834	0.83077675
59584669139000	2.5045476	1.2043208	1.0488557
59584679942000	2.5256224	1.3548992	1.2336423
59584689189000	2.5579982	1.5858061	1.3090842
59584699839000	2.538756	1.7965547	1.2953397
59584709208000	2.4804184	1.949271	1.2837334
59584719920000	2.2516494	2.0134118	1.258077
59584729228000	2.0237966	2.087021	1.1924089
59584740245000	1.9868392	1.9920316	1.1001683
59584749217000	2.0503693	1.740966	1.0009027
59584759929000	2.0723603	1.5540411	0.91599244
59584769267000	2.0665572	1.5882497	0.88331115
59584779979000	2.058616	1.7708983	0.89675015
59584789286000	2.0186043	2.0073032	0.9602802
59584800364000	1.858863	2.1450534	1.0848967
59584809306000	1.5528195	1.9642372	1.2370021
59584820018000	1.361924	1.409877	1.3182472
59584829326000	1.491122	0.7611381	1.3170254
59584841624000	1.6847663	0.36835176	1.2834278
59584849345000	1.6142114	0.27152961	1.1838568
59584860148000	1.4892895	0.31306845	1.0274754
59584869365000	1.2431108	0.37110063	0.95722586
59584880107000	1.131017	0.64721173	0.82711154
59584889384000	1.0421361	1.1456778	0.6462954
59584902018000	0.85918194	1.42973	0.5271767
59584909373000	0.57726765	1.0516045	0.6417139
59584920421000	0.2648101	0.36774087	0.85062987
59584929423000	0.07971791	-0.05497787	0.93126404
59584940135000	0.1328632	-0.15882497	0.7654142
59584949443000	0.2284636	0.040927973	0.4120286
59584960124000	0.1160644	0.5271767	0.08093964
59584969462000	-0.13897185	0.9963212	-0.13164146
59584980540000	-0.3921755	0.99173975	-0.2932153
59584989482000	-0.7861836	0.5589417	-0.42638394
59585000193000	-1.4065173	0.16340645	-0.548557
59585009593000	-1.717753	-0.002443461	-0.7119634
59585022349000	-2.261423	-0.1459968	-0.79259765
59585029612000	-2.849381	-0.2321288	-0.91629785
59585039683000	-3.4504724	-0.27183503	-1.0363328
59585048930000	-3.7626245	-0.027183503	-1.2428054
59585059642000	-3.736968	0.25320363	-1.5021176
59585068980000	-3.5876117	0.1740966	-1.6740762
59585079631000	-3.3615913	-0.24617869	-1.7397442
59585089000000	-3.1309898	-0.28130344	-1.7553213
59585099986000	-3.036611	0.3051272	-1.7421877
59585108989000	-3.083037	0.8151997	-1.7892243
59585119700000	-3.2058208	0.675617	-1.9474384
59585129069000	-3.2507193	-0.054061573	-2.1346686
59585139689000	-3.0677652	-0.64599	-2.2278256
59585149058000	-2.737287	-0.5403103	-2.1523838
59585160136000	-2.447737	-0.07696902	-1.9847012
59585169047000	-2.3451116	-0.0076358155	-1.9260582
59585179728000	-2.2589796	-0.27488935	-1.9532416
59585189250000	-2.3316727	-1.2464706	-2.1077905
59585201548000	-2.3915374	-2.1563544	-2.1847596
59585209330000	-2.269059	-2.533869	-2.1731532
59585220225000	-2.126422	-2.5393667	-2.1288655
59585229472000	-2.1401663	-2.3359487	-2.0134118
59585240153000	-2.1368067	-1.8402315	-1.8274034
59585249675000	-2.005776	-1.3020593	-1.5778649
59585260356000	-1.8417587	-1.183246	-1.3191634
59585269694000	-1.7061466	-1.4813483	-1.138042
59585280833000	-1.5745052	-1.8668042	-0.9831876
59585289897000	-1.3787229	-2.1813998	-0.80664754
59585300608000	-1.0885619	-2.3976462	-0.6426302
59585310099000	-0.7330383	-2.484389	-0.50610185
59585320720000	-0.3707952	-2.454762	-0.39828414
59585330088000	-0.02565634	-2.4065037	-0.31764993
59585340953000	0.14263703	-2.3710735	-0.28069258
59585349955000	0.48288897	-2.3435845	-0.21746802
59585360606000	0.8527679	-2.2522602	-0.1777618
59585369944000	1.2669345	-2.0916026	-0.129198
59585382212000	1.6963727	-1.8548924	-0.051923547
59585389933000	2.0525072	-1.5442673	-0.01038471
59585400676000	2.1135938	-1.1527027	-0.0027488936
59585409983000	1.5125023	-0.6719518	0.03573562
59585422618000	0.1908954	-0.013439035	0.026572637
59585429973000	-1.1887437	0.7180721	0.09132435
59585440654000	-1.745242	0.79626286	0.41325033
59585450053000	-1.464244	-0.06536258	0.40530908
59585461070000	-1.0571023	-1.5097535	-0.106595986
59585470073000	-0.92057395	-2.903748	-0.36285394
59585480693000	-0.68752885	-3.3267722	-0.7058548
59585490092000	-0.44043383	-3.4929276	-0.8240572
59585500743000	-0.35124752	-2.8643472	-0.68416905
59585510142000	-0.40653083	-1.7403551	-0.49754974
59585521037000	-0.36987892	-0.49449542	-0.5384777
59585530040000	-0.36163223	0.7635816	-0.57726765
59585540629000	-0.5027421	1.5149459	-0.33444872
59585550059000	-0.8206975	1.3304645	-0.0018325958
59585562297000	-1.210124	0.47433686	0.27763826
59585570048000	-0.8723156	-0.08674286	0.54244834
59585580821000	0.32895094	0.45845437	0.7156286
59585590098000	1.4285084	1.5063937	0.8381071
59585600749000	2.0552561	2.1285598	0.87995136
59585610087000	2.3124304	2.1734586	0.73884153
59585620768000	2.3399193	1.8368717	0.5314528
59585630137000	2.4761422	2.0042489	0.43249258
59585641154000	3.0274482	2.503631	0.21594086
59585650126000	3.568064	3.9834523	0.041233405
59585660777000	3.5143077	4.9507575	-0.024740042
59585670176000	2.9480357	4.5616364	-0.06352998
59585680827000	2.3032675	2.9895744	-0.06536258
59585690165000	1.9788979	0.8885035	0.019242255
59585701182000	1.9969184	-0.66523224	0.1853976
59585710185000	2.16399	-0.96944314	0.39614612
59585720836000	2.363743	-0.39614612	0.5815437
59585730204000	2.5363126	0.41386122	0.7556403
59585742473000	2.6422975	1.0464121	0.9059132
59585750224000	2.6603181	1.4294246	0.9954049
59585760997000	2.6499333	1.625207	1.0393872
59585770274000	2.6160305	1.7085901	1.065349
59585780894000	2.5720482	1.7650951	1.0720685
59585790294000	2.4269676	1.7608191	1.0913107
59585800914000	2.2036965	1.7006488	1.1136073
59585810283000	2.003638	1.6991217	1.073901
59585821299000	1.954158	1.7327193	0.9297369
59585830302000	1.9883664	1.6771306	0.75319684
59585840953000	2.0011945	1.5873333	0.7076874
59585850322000	1.9651535	1.57084	0.77274454
59585860972000	1.8723019	1.6798794	0.85154617
59585870341000	1.7800614	1.8891008	0.9401216
59585881419000	1.6893479	2.1019874	1.0360274
59585890361000	1.4532484	2.1398609	1.1236867
59585901042000	1.2144	1.8115209	1.1731668
59585910380000	1.3497068	1.3066407	1.169807
59585922648000	1.7843374	0.9117164	1.112691
59585930369000	1.9654589	0.54825157	1.0635164
59585941142000	1.9892827	0.33841935	0.9285152
59585950419000	1.6236799	-0.050396383	0.7993172
59585961100000	1.2922854	-0.13439035	0.7370089
59585970439000	1.1404854	0.31123585	0.6600399
59585983104000	0.9456194	1.0699304	0.539394
59585990428000	0.64965516	1.5323554	0.5549711
59586001475000	0.3549127	1.2519683	0.77763146
59586010478000	0.1001819	0.5369505	0.9776898
59586021098000	-0.021380283	-0.049480084	0.9428705
59586030497000	0.058643065	-0.24037547	0.67347896
59586041148000	0.12583824	0.11148291	0.2941316
59586050517000	6.1086525E-4	0.75716746	-0.06688975
59586061503000	-0.24740042	1.1725558	-0.34422258
59586070536000	-0.5174029	1.0360274	-0.552833
59586081187000	-0.70005155	0.5748242	-0.7089091
59586090556000	-1.2534955	0.3436117	-0.7800749
59586102763000	-1.9199494	0.015271631	-0.9245446
59586110576000	-2.4507914	-0.060170226	-1.0207558
59586121318000	-2.8927524	-0.11575896	-1.0412198
59586130595000	-3.2733214	-0.36774087	-1.0409144
59586141246000	-3.4556646	-0.43035457	-1.1099422
59586150615000	-3.442531	-0.18112154	-1.246776
59586161265000	-3.2510247	-0.17989981	-1.3439035
59586170634000	-2.9950724	-0.5332854	-1.3900238
59586181651000	-2.8725939	-0.5693264	-1.4196508
59586190654000	-2.8646526	-0.10720685	-1.4746287
59586201304000	-2.8921416	0.24770586	-1.6181821
59586210673000	-2.9003882	0.092240654	-1.8484782
59586221324000	-2.8249464	-0.35827246	-2.0934353
59586230693000	-2.7375927	-0.5705481	-2.2308798
59586241740000	-2.4691174	-0.33169982	-2.228131
59586250682000	-2.166739	-0.14874569	-2.1368067
59586261363000	-1.9822577	-0.07422013	-2.1099286
59586270701000	-2.0066924	-0.70005155	-2.2434027
59586282969000	-2.2043073	-1.8985692	-2.325564
59586290721000	-2.4211645	-2.846632	-2.1810944
59586301524000	-2.4465153	-2.8759537	-1.924531
59586310771000	-2.3545802	-2.6542094	-1.6737708
59586321360000	-2.2653937	-2.360994	-1.4837917
59586330790000	-2.159714	-1.6722436	-1.4110987
59586341441000	-2.05098	-1.0867293	-1.2956452
59586350810000	-1.9999728	-1.1090258	-1.069625
59586361766000	-1.96271	-1.5818355	-0.84635377
59586370799000	-1.8729129	-2.1056526	-0.6789767
59586381419000	-1.6865989	-2.4416285	-0.5540548
59586390849000	-1.5534303	-2.567161	-0.5039638
59586401500000	-1.2351695	-2.5744915	-0.42913285
59586410869000	-0.88117313	-2.5237896	-0.3857614
59586422160000	-0.49449542	-2.44621	-0.39522982
59586430949000	-0.07452556	-2.3860397	-0.44868052
59586441661000	0.37812558	-2.3658812	-0.4886922
59586450999000	0.84879726	-2.3197608	-0.49693888
59586463267000	1.3304645	-2.150551	-0.453262
59586470988000	1.8451185	-1.7910569	-0.36285394
59586481730000	2.391232	-1.2235631	-0.32253686
59586491008000	2.8506026	-0.6432411	-0.35246924
59586501719000	3.0112603	-0.25045475	-0.3378085
59586511058000	2.6331346	-0.057421334	-0.17623462
59586523661000	1.4700472	0.056505036	0.01160644
59586531047000	-0.080634214	0.15027285	0.031154128
59586542125000	-0.7290677	0.1441642	0.080634214
59586550975000	-1.4504995	-0.04337143	0.15393804
59586561625000	-1.4676038	-1.0009027	-0.3277292
59586570994000	-1.2571607	-2.0677788	-0.9288206
59586581675000	-1.0494665	-2.5277603	-1.176221
59586591014000	-0.74281216	-2.6230555	-1.1068878
59586602092000	-0.42760566	-2.362216	-0.7266242
59586611033000	-0.310625	-1.7620409	-0.33414328
59586621745000	-0.23671028	-0.9828822	-0.3203988
59586631053000	-0.17806722	-0.065973446	-0.44318274
59586643290000	-0.3827071	0.5635232	-0.34025195
59586651072000	-0.79412484	0.6542367	-0.12675454
59586661876000	-1.212262	0.35155296	0.061086524
59586671092000	-1.2098186	0.2657264	0.26816985
59586681712000	-0.45937067	0.8399397	0.462425
59586691111000	0.044898596	1.5076154	0.56046885
59586701854000	0.91507614	1.7259997	0.7837401
59586711131000	1.6227635	1.9281962	0.9034697
59586722178000	2.2314909	1.643533	0.8008443
59586731150000	2.5714374	1.001819	0.6084218
59586741832000	2.9119947	1.0259482	0.42210788
59586751170000	3.4293976	2.2079725	0.20769419
59586761882000	3.6474764	3.6975672	0.129198
59586771190000	3.2409456	4.1587706	0.160963
59586782267000	2.4923303	3.2720997	0.15271631
59586791209000	1.9049833	1.6777414	0.19456059
59586801890000	1.6969837	0.30818152	0.3930918
59586811229000	1.7739527	-0.17745635	0.6722572
59586823497000	2.0173824	0.19608775	0.88178396
59586831218000	2.273335	0.77640975	0.9923506
59586842051000	2.3393085	1.0537425	1.0815369
59586851268000	2.3765712	1.2669345	1.1102476
59586861979000	2.4379632	1.4205672	1.104139
59586871287000	2.4825563	1.7901406	1.0586295
59586881999000	2.3710735	2.0943515	1.0430524
59586891307000	2.1065688	2.205529	1.0366384
59586902354000	1.8570304	2.1138992	0.97402465
59586911326000	1.7611245	1.8787161	0.8362745
59586922038000	1.7889189	1.5928311	0.72692966
59586931346000	1.8286251	1.3723087	0.71593404
59586942027000	1.822211	1.2742649	0.7189884
59586951365000	1.808772	1.2831224	0.6985244
59586962626000	1.7922786	1.4315627	0.7058548
59586971568000	1.7098118	1.6493362	0.7461719
59586982188000	1.4972308	1.7626517	0.838718
59586991771000	1.287093	1.5748106	0.9593639
59587004039000	1.3365731	1.0341948	1.042747
59587012034000	1.4657712	0.38453966	1.0537425
59587022807000	1.7464638	0.13500121	1.0118983
59587032115000	1.7977765	-0.09254608	0.92179567
59587042765000	1.575116	0.005497787	0.83291477
59587052287000	1.2770138	0.3036	0.7883216
59587064952000	1.0415252	0.7119634	0.7657196
59587072276000	0.8359691	1.146594	0.6606508
59587083476000	0.6197228	1.3420709	0.5644395
59587092540000	0.37384954	1.0454959	0.63529986
59587102641000	0.09315695	0.47067168	0.7690793
59587111644000	-0.09407325	0.048258353	0.763887
59587122264000	-0.06841691	-0.01038471	0.53786683
59587131633000	-0.016493361	0.3454443	0.20647246
59587142741000	-0.15057829	0.8891144	-0.053145275
59587151652000	-0.27550024	1.1991285	-0.14202617
59587162303000	-0.569021	1.1945469	-0.27122417
59587171672000	-0.96974856	0.9111055	-0.37048978
59587183909000	-1.5210545	0.48502702	-0.49296826
59587191691000	-2.0873265	0.1001819	-0.65484756
59587202464000	-2.5668557	-0.21930063	-0.8353582
59587211711000	-2.9336803	-0.41447207	-1.0140363
59587222453000	-3.238502	-0.48197266	-1.1673635
59587231730000	-3.5078936	-0.4447099	-1.3078625
59587242381000	-3.5848627	-0.26389378	-1.4520267
59587251750000	-3.3484578	-0.1432479	-1.5745052
59587262767000	-3.0155363	-0.19608775	-1.6438384
59587271769000	-2.8625145	-0.06658431	-1.6633861
59587282481000	-2.8325822	0.29779682	-1.6334536
59587291789000	-2.795014	0.5717699	-1.647809
59587302531000	-2.7580566	0.52931476	-1.8121318
59587311808000	-2.6520715	0.3933972	-1.9401081
59587322886000	-2.4874432	0.13683382	-2.2000313
59587331828000	-2.2204952	0.16279559	-2.3380868
59587342509000	-1.9031507	0.3203988	-2.3090706
59587351848000	-1.6291776	0.28099802	-2.243097
59587364116000	-1.5531249	-0.31337386	-2.2934935
59587371928000	-1.7928895	-1.5491543	-2.3405302
59587382640000	-2.0720549	-2.5885415	-2.2049181
59587391948000	-2.111761	-2.7684412	-2.02624
59587402598000	-2.0274618	-2.7186558	-1.8396207
59587411937000	-1.9327776	-2.5842655	-1.6099354
59587422648000	-1.8188512	-1.9398025	-1.4382823
59587431956000	-1.668273	-1.2269229	-1.2950343
59587442942000	-1.5714508	-1.162782	-1.0845913
59587452006000	-1.5500705	-1.6081028	-0.86559606
59587462626000	-1.5128077	-2.0436497	-0.77213365
59587472026000	-1.41904	-2.1716259	-0.6059783
59587482646000	-1.2284501	-2.2427917	-0.45753807
59587492045000	-0.97249746	-2.1804836	-0.33322698
59587503032000	-0.66828656	-2.0931299	-0.25045475
59587512065000	-0.3378085	-2.021964	-0.24740042
59587522654000	9.162979E-4	-1.9914207	-0.29626966
59587531962000	0.355829	-2.022575	-0.3662137
59587544169000	0.7452556	-2.0790799	-0.44318274
59587551982000	1.151481	-2.058005	-0.4914411
59587562693000	1.5613716	-1.9211712	-0.4905248
59587572001000	1.9847012	-1.6468927	-0.4596761
59587582621000	2.3832908	-1.2672399	-0.42485678
59587591990000	2.634662	-0.8237518	-0.36743546
59587602641000	2.443461	-0.34422258	-0.2415972
59587612010000	2.0442605	0.10873401	-0.17989981
59587624949000	0.6252206	0.30176744	-0.17959438
59587632029000	-0.91751957	0.5687156	-0.19517145
59587642650000	-1.6777414	0.47525316	0.09010262
59587652049000	-1.5234979	-0.054061573	0.160963
59587662669000	-1.1417072	-1.0091494	-0.21166481
59587672099000	-0.9850202	-2.1734586	-0.49968776
59587683055000	-0.8588765	-3.0552425	-0.5839872
59587692088000	-0.61300325	-3.38175	-0.6017023
59587702739000	-0.4465425	-2.9043589	-0.48288897
59587712077000	-0.35002577	-1.8774943	-0.27550024
59587724345000	-0.030848695	-0.7870999	-0.25534168
59587732127000	0.2687807	0.3213151	-0.26145032
59587742808000	0.105374254	1.1090258	-0.052534413
59587752116000	-0.5360342	1.2932017	0.23701571
59587762828000	-0.91965765	1.0381655	0.3640757
59587772136000	-1.3109168	0.82436264	0.52778757
59587782786000	-0.81214535	0.56107974	0.539394
59587792186000	0.11636983	0.62125	0.52626044
59587803202000	1.0903945	0.92087936	0.5012149
59587812205000	2.0971005	1.5919148	0.4016439
59587822886000	2.7885997	2.0204368	0.33933565
59587832225000	3.0320296	1.8869628	0.3032946
59587842906000	3.2531629	2.012801	0.23060162
59587852244000	3.5530977	3.0112603	0.22296582
59587863322000	3.542713	4.1700716	0.2959642
59587872264000	3.0390546	4.347528	0.2968805
59587882945000	2.3432791	3.1920764	0.22999077
59587892253000	1.8839084	1.2577715	0.20769419
59587904490000	1.7623463	-0.057726767	0.26633725
59587912303000	1.7968601	-0.07452556	0.34055737
59587923045000	1.960572	0.23854288	0.5720753
59587932353000	2.1734586	1.0644327	0.8219192
59587942973000	2.366492	1.7299703	1.02717
59587952372000	2.5228734	2.0662518	1.1374311
59587962962000	2.6331346	2.295937	1.1820242
59587972392000	2.624888	2.5689938	1.2476922
59587983348000	2.4645357	2.924212	1.3396275
59587992411000	2.137723	3.1841352	1.3933836
59588003062000	1.7977765	3.0983086	1.3445144
59588012919000	1.6071864	2.7058277	1.1887437
59588023173000	1.5809193	2.3698518	1.0546589
59588032542000	1.6325374	2.158187	1.0064005
59588043528000	1.668273	2.0158553	0.95814216
59588052562000	1.6969837	1.9999728	0.88239485
59588063212000	1.7030923	2.05434	0.8378017
59588072581000	1.6087136	1.9617938	0.8426886
59588084819000	1.4040737	1.7931949	0.89858276
59588092601000	1.3665055	1.1972959	0.9828822
59588103312000	1.6038266	0.52870387	1.0626001
59588112620000	1.8753563	0.16890424	1.0937542
59588123271000	1.9226984	0.25900686	1.040609
59588132640000	1.715615	0.6291912	0.9193522
59588143290000	1.4013249	0.9639453	0.80481493
59588152629000	1.1108584	1.1316279	0.75777835
59588165538000	0.86376345	1.294118	0.729984
59588172618000	0.627664	1.3939945	0.74036866
59588183268000	0.38056904	1.1505647	0.8848383
59588192668000	0.12858713	0.64873886	1.078788
59588203318000	-0.0580322	0.21380283	1.1643091
59588212718000	-0.044898596	-0.051618114	1.0183123
59588223765000	0.021991149	-0.07452556	0.8582657
59588232707000	0.10934488	0.046120327	0.46395215
59588243327000	0.048563786	0.43860126	0.08460484
59588252726000	-0.07391469	0.6963864	-0.23762658
59588264933000	-0.3042109	0.55741453	-0.46883908
59588272715000	-0.77213365	0.082161374	-0.6429357
59588283458000	-1.3842206	-0.3622431	-0.84788096
59588292765000	-1.9639318	-0.45753807	-1.0384709
59588303416000	-2.4666739	-0.36926803	-1.1511755
59588312754000	-2.9865203	-0.36377025	-1.2098186
59588323466000	-3.422678	-0.39614612	-1.2406673
59588332774000	-3.602883	-0.23671028	-1.289842
59588343821000	-3.5992181	0.07849618	-1.3765849
59588352794000	-3.460246	0.105374254	-1.4450017
59588363505000	-3.2284229	-0.1994475	-1.5088371
59588372813000	-3.1270192	-0.38240165	-1.5406022
59588383494000	-3.0234776	-0.3491095	-1.6081028
59588392863000	-3.0051515	-0.11728613	-1.7547104
59588403941000	-3.0274482	0.053145275	-2.0549507
59588412852000	-2.996294	-0.03756821	-2.4019222
59588423533000	-2.755613	-0.16646078	-2.5537221
59588432872000	-2.3261747	-0.06383542	-2.450486
59588445170000	-1.8777997	0.032986723	-2.3576343
59588452891000	-1.6398678	-0.57879484	-2.5647178
59588463664000	-1.8063285	-2.1389446	-2.8255572
59588472911000	-2.2143865	-3.628845	-2.7229319
59588483561000	-2.4743097	-3.9800925	-2.4037547
59588492930000	-2.5491407	-3.6355646	-2.0665572
59588503703000	-2.4953845	-2.7437012	-1.8506162
59588512950000	-2.3273966	-1.5726726	-1.7348573
59588523936000	-2.235767	-0.9440922	-1.5986344
59588532969000	-2.1135938	-0.93462384	-1.5222762
59588543559000	-2.0696115	-1.382999	-1.3515394
59588552958000	-2.0042489	-2.076331	-1.1691961
59588563609000	-1.8487836	-2.5830436	-1.0091494
59588572978000	-1.5757269	-2.74981	-0.8765916
59588583995000	-1.2125676	-2.7119362	-0.77640975
59588592997000	-0.8032878	-2.6258042	-0.7119634
59588603679000	-0.3933972	-2.5250115	-0.6444628
59588613017000	-0.017104227	-2.4538457	-0.5742133
59588625254000	0.32925636	-2.4248295	-0.52748215
59588633067000	0.655153	-2.3851233	-0.4914411
59588643748000	0.9560041	-2.3130412	-0.44990227
59588653056000	1.2638801	-2.1352794	-0.37904188
59588663676000	1.6300939	-1.7568485	-0.3023783
59588673076000	1.8338175	-1.1838568	-0.26816985
59588683879000	2.1994202	-0.67347896	-0.26816985
59588693278000	2.35794	-0.51343226	-0.2565634
59588704264000	2.1835377	-0.33750305	-0.19883664
59588713450000	1.5931365	-0.12186762	-0.16035213
59588726085000	0.61575216	0.364992	-0.14966199
59588733500000	-0.57757306	0.9184359	0.07819075
59588744334000	-1.3814718	0.58368176	0.22021692
59588753703000	-1.3680327	-1.0268645	-0.23426682
59588764720000	-1.17897	-2.6087	-0.7510588
59588773906000	-1.1792754	-3.2513304	-0.93645644
59588784526000	-1.0913107	-3.345098	-0.9416488
59588793925000	-0.7883216	-3.0283644	-0.8179486
59588806315000	-0.37018433	-2.2531765	-0.5335908
59588814097000	0.16493362	-1.3857478	-0.20830505
59588824839000	0.7498371	-0.6056729	-0.07727446
59588833690000	1.1102476	0.2098322	-0.093767814
59588843852000	1.1279627	0.79534656	-0.06169739
59588853251000	0.8081747	0.9611965	0.109650314
59588863902000	0.15241088	1.1459832	0.23426682
59588873271000	-0.4447099	1.1969905	0.25809056
59588884318000	-0.410196	1.4587462	0.2507602
59588893290000	0.23945917	1.9761491	0.25870144
59588903972000	0.95172805	2.090381	0.22876903
59588913310000	1.5732834	1.8942931	0.18387043
59588923991000	2.0943515	1.5296066	0.23671028
59588933329000	2.3722951	1.1096367	0.30268374
59588944377000	2.5879307	1.2046263	0.28802297
59588953349000	2.9965994	1.9816469	0.20525073
59588964000000	3.2562172	3.0674598	0.13683382
59588973369000	2.9996538	3.7702603	0.14080444
59588985637000	2.7073548	3.4697146	0.18692477
59588993388000	2.058005	2.941927	0.36865717
59589004161000	1.6905695	1.5836681	0.55955255
59589013408000	1.7198911	0.5870415	0.68294734
59589024089000	1.960572	0.40591997	0.76052725
59589033458000	2.1774292	0.69027776	0.82802784
59589044200000	2.250122	0.9728029	0.9447031
59589053538000	2.3020456	1.2006557	1.0925325
59589064555000	2.4242187	1.3579534	1.1936307
59589073558000	2.468201	1.4379768	1.2449434
59589084239000	2.2907448	1.5418239	1.2965615
59589093577000	1.9706513	1.6957619	1.2974777
59589104197000	1.7605137	1.7858646	1.2266175
59589113597000	1.717753	1.6178766	1.1218541
59589124675000	1.7528778	1.2773192	1.0076222
59589133616000	1.7831156	1.0189233	0.9682214
59589144236000	1.8530598	0.98563105	0.92485
59589153636000	1.8866574	1.1362094	0.90285885
59589165904000	1.8310685	1.4361442	0.9275989
59589173655000	1.6969837	1.68385	1.0390818
59589184367000	1.5705346	1.6844609	1.1792754
59589193675000	1.6227635	1.3744467	1.2684617
59589204356000	1.8585575	0.98471475	1.2944235
59589213694000	2.005165	0.7693848	1.2562444
59589224376000	1.806634	0.70707655	1.1643091
59589233714000	1.3817772	0.6462954	1.069625
59589244670000	1.0903945	0.69027776	1.0051788
59589253733000	0.93279123	1.110553	0.8900307
59589266368000	0.7473936	1.6539177	0.745561
59589273753000	0.5739079	1.6374242	0.7489208
59589284404000	0.4783075	1.031446	0.9129381
59589293773000	0.25870144	0.40286562	0.98654735
59589304820000	0.18020524	0.19486602	0.9560041
59589313792000	0.3100141	0.07422013	0.659429
59589324473000	0.34666604	0.3857614	0.28680122
59589333812000	0.116980694	0.8512407	0.004581489
59589346049000	-0.21471913	0.9947941	-0.20005837
59589353831000	-0.57451874	0.6942484	-0.39461896
59589364573000	-1.1007792	0.22540927	-0.5983425
59589373851000	-1.7675385	-0.086132	-0.80573124
59589384501000	-2.3612995	-0.1704314	-0.9975429
59589393870000	-2.8212812	-0.24251351	-1.187522
59589404521000	-3.2458324	-0.39950588	-1.3732251
59589413890000	-3.5311065	-0.44318274	-1.5176947
59589424907000	-3.5753944	-0.25259277	-1.6215417
59589433909000	-3.470631	-0.17928895	-1.6734654
59589444712000	-3.3680055	-0.5161811	-1.6896533
59589453959000	-3.100141	-0.6618725	-1.7214183
59589464610000	-2.905275	-0.47403142	-1.740966
59589473948000	-2.8365529	0.1301143	-1.7843374
59589485881000	-2.8515189	0.5338962	-1.9642372
59589494120000	-2.9006937	0.4373795	-2.273335
59589504741000	-2.830444	0.054367006	-2.5033257
59589514537000	-2.5873199	-0.1142318	-2.482251
59589526103000	-2.264172	6.1086525E-4	-2.2870796
59589533854000	-1.9746219	0.03268129	-2.2724187
59589544566000	-1.8915442	-0.42760566	-2.5344799
59589553874000	-2.0931299	-1.5118915	-2.6780334
59589564525000	-2.3701572	-2.6978865	-2.5329528
59589573893000	-2.44621	-3.1144965	-2.2666154
59589584575000	-2.3698518	-2.7763824	-2.0308216
59589593913000	-2.3338106	-2.1190915	-1.928807
59589604899000	-2.2751677	-1.7104226	-1.7458528
59589613902000	-2.1746802	-0.8897252	-1.5225816
59589624614000	-2.0619757	-0.4914411	-1.2226468
59589633983000	-1.9889772	-0.6918049	-0.97219205
59589644572000	-1.9339994	-1.2638801	-0.7806858
59589653972000	-1.8365663	-1.8982637	-0.5873469
59589665019000	-1.6691893	-2.3964243	-0.40286562
59589673991000	-1.4107933	-2.717434	-0.27366763
59589684642000	-1.072374	-2.823419	-0.20189096
59589694011000	-0.70280045	-2.7852402	-0.17867808
59589706248000	-0.31215215	-2.694832	-0.22418754
59589714000000	0.09590584	-2.5772405	-0.32070425
59589724772000	0.52473325	-2.4288	-0.40286562
59589734050000	0.979217	-2.2116377	-0.41416663
59589744670000	1.2189816	-1.8735237	-0.36193767
59589754069000	1.711339	-1.629483	-0.3145956
59589764720000	2.1297817	-1.0005972	-0.16523905
59589774089000	2.2314909	-0.29810223	0.05375614
59589785045000	1.781894	0.310625	0.20005837
59589794108000	0.9059132	0.79320854	0.16340645
59589806712000	-0.07971791	1.2428054	0.13500121
59589814128000	-0.79381937	1.2562444	0.24862215
59589824748000	-0.9315695	0.37751472	0.2761111
59589834147000	-0.7706065	-1.0296134	0.087659165
59589845134000	-0.6618725	-2.1218405	-0.11942416
59589854167000	-0.5421429	-2.6832256	-0.25686884
59589864817000	-0.3359759	-2.795014	-0.31031954
59589874186000	-0.15943582	-2.2971587	-0.18692477
59589886454000	0.035124753	-1.3692545	-0.011301007
59589894206000	0.19425514	-0.3631594	0.022296581
59589904948000	0.5131268	0.675617	-0.004276057
59589914195000	0.49480084	1.0790935	-0.03390302
59589924876000	0.07422013	1.3903292	0.093767814
59589934245000	-0.5158757	1.2052372	0.31795537
59589944896000	-1.2153164	0.5684101	0.43493605
59589954264000	-1.4792101	-0.04734206	0.3643811
59589965281000	-0.54367006	0.2742785	0.28252518
59589974284000	0.9486737	1.2889256	0.15424347
59589984965000	2.084883	2.2314909	0.032375857
59589994273000	2.7327056	2.5259278	0.038179077
59590005107000	2.8341093	2.204002	0.057421334
59590014415000	2.6083946	1.9917262	0.106595986
59590025431000	2.7046058	2.370768	0.15577064
59590034434000	3.0857859	3.3154712	0.17898351
59590045115000	3.1343496	3.957185	0.18845193
59590054454000	2.9636128	3.476434	0.18142697
59590066722000	2.4416285	2.837469	0.19608775
59590074473000	2.0555615	1.269378	0.312763
59590085185000	2.005776	0.10170906	0.49510628
59590094493000	2.17804	-0.1459968	0.6374379
59590105174000	2.4147503	0.39828414	0.7174612
59590114512000	2.558609	1.1227703	0.8671232
59590125193000	2.5415049	1.6438384	1.1010846
59590134532000	2.4862216	1.8310685	1.3142766
59590145488000	2.468201	1.756543	1.4477507
59590154551000	2.4083362	1.6194037	1.4813483
59590165171000	2.270586	1.4990633	1.4553864
59590174571000	2.1270328	1.4785993	1.3906348
59590185252000	2.0463986	1.5421293	1.2443326
59590194590000	2.0060816	1.5607607	1.0595458
59590205668000	1.9969184	1.4159856	0.98471475
59590214610000	1.9920316	1.2724323	0.8854492
59590225261000	1.9819523	1.0650436	0.8164214
59590234629000	1.9608774	1.2479976	0.7742717
59590246867000	1.9144517	1.6581937	0.7703011
59590254649000	1.81091	1.9819523	0.8020661
59590265330000	1.6279559	2.0983222	0.87872964
59590274638000	1.4651603	1.9578232	0.98929626
59590285350000	1.5005904	1.5482379	1.0800097
59590294688000	1.7424932	0.9984592	1.0977248
59590305369000	1.9385809	0.5488624	1.0323622
59590314738000	1.7962493	0.33353242	0.9315695
59590325755000	1.4046847	0.3115413	0.874759
59590334727000	1.1099422	0.42943826	0.88056225
59590347392000	0.9505063	0.78038037	0.82253003
59590354747000	0.84971356	1.2776246	0.7602218
59590365428000	0.58276546	1.4126259	0.698219
59590374766000	0.3539964	1.1972959	0.7855727
59590385783000	0.20158553	0.5858198	0.8680395
59590394938000	0.14813483	0.14080444	0.7648033
59590405650000	0.17623462	0.13194689	0.44532076
59590414958000	0.124005646	0.5140431	0.06352998
59590427348000	-0.118507855	0.95478237	-0.2312125
59590435191000	-0.43249258	1.0940597	-0.47067168
59590445903000	-0.7828238	0.91354895	-0.68966687
59590455394000	-1.352761	0.6252206	-0.87872964
59590466014000	-2.0647244	0.33933565	-1.040609
59590475383000	-2.663678	0.25381452	-1.133155
59590486247000	-3.1297681	0.22235495	-1.1386528
59590495585000	-3.4746015	-0.084910266	-1.1609493
59590506511000	-3.6425896	-0.24831672	-1.2599095
59590515696000	-3.6096027	-0.1142318	-1.348485
59590526347000	-3.3441818	-0.3643811	-1.3671165
59590535716000	-3.1853569	-0.89552844	-1.3625349
59590545848000	-3.0008755	-0.9837985	-1.3399329
59590554850000	-2.9843822	-0.63194007	-1.3414601
59590565867000	-3.007595	-0.06505715	-1.488984
59590574870000	-3.0347786	0.12034045	-1.7919732
59590585551000	-2.990491	-0.13744467	-2.1270328
59590594859000	-2.792876	-0.4092797	-2.3625214
59590607127000	-2.4602597	-0.31764993	-2.3945918
59590614879000	-2.1200078	-0.07086037	-2.3322835
59590625651000	-1.9346102	-0.18784106	-2.445599
59590634929000	-1.9672915	-0.9419542	-2.6865854
59590645579000	-2.1594086	-2.223244	-2.6816983
59590654948000	-2.322204	-3.098614	-2.420248
59590665629000	-2.3338106	-3.0793717	-2.2736404
59590674968000	-2.2843306	-2.9544497	-2.0048597
59590685923000	-2.2559254	-2.6224444	-1.7739527
59590694987000	-2.165212	-1.9593502	-1.6084082
59590705638000	-1.9795089	-1.2873985	-1.430341
59590715007000	-1.8466456	-1.1582005	-1.183246
59590725688000	-1.7922786	-1.5454891	-0.91751957
59590735026000	-1.7192802	-2.0861049	-0.6814202
59590746043000	-1.5775595	-2.4361305	-0.49327368
59590755046000	-1.35551	-2.514016	-0.33750305
59590765727000	-1.0635164	-2.46759	-0.22235495
59590775065000	-0.72692966	-2.3588562	-0.16187929
59590787303000	-0.37598756	-2.2757785	-0.15088372
59590795054000	-0.011301007	-2.2779164	-0.1853976
59590805827000	0.37507126	-2.2791383	-0.26206118
59590815104000	0.5739079	-2.2079725	-0.3005457
59590825724000	0.9932669	-2.132836	-0.33200526
59590835124000	1.4795157	-1.863139	-0.30940324
59590845775000	2.0344868	-1.4184291	-0.2828306
59590855143000	2.52043	-0.86926126	-0.2874121
59590866099000	2.688418	-0.32742378	-0.25534168
59590875163000	2.291661	0.18845193	-0.12186762
59590887767000	1.2409728	0.8029824	-0.04062254
59590895152000	-0.19425514	1.5366315	-0.0076358155
59590905833000	-1.2253957	1.9233092	0.18692477
59590915202000	-1.3784174	1.1169671	-6.1086525E-4
59590926249000	-1.2049317	-0.7812967	-0.55771995
59590935222000	-1.1129965	-2.499355	-0.8579602
59590945872000	-0.90285885	-3.3383787	-0.8958339
59590955241000	-0.51893	-3.2766812	-0.689056
59590967509000	-0.36041048	-2.5216517	-0.30726522
59590975230000	-0.21197024	-2.0405953	-0.18081611
59590986003000	-0.12003502	-0.97433007	-0.19822577
59590995280000	-0.043676864	0.05497787	-0.27977628
59591005992000	-0.18600847	0.5534439	-0.16371189
59591015361000	-0.5342017	0.6032294	0.018325957
59591027079000	-0.99387777	0.37323865	0.058948494
59591034709000	-1.2373075	0.27152961	-0.027488936
59591045726000	-0.58459806	0.8888089	-0.021991149
59591054728000	0.6377433	1.8032742	0.10720685
59591065440000	1.6829338	2.5002716	0.30787608
59591074809000	2.445599	2.576935	0.5128214
59591085399000	2.7641652	1.7913623	0.6206391
59591094767000	2.5906794	0.79229224	0.65301496
59591105845000	2.6691756	0.75655663	0.5012149
59591114848000	2.9648345	2.3118196	0.19700404
59591125499000	3.595553	4.1529675	0.11026118
59591134868000	3.4620788	4.520403	0.14446963
59591147075000	2.6120598	3.828598	0.24648413
59591154857000	1.847562	2.1584923	0.33536503
59591165599000	1.6520851	0.72784597	0.4896085
59591174907000	1.8805487	0.12339478	0.66339964
59591185527000	2.2455406	0.29260445	0.8072584
59591194865000	2.510656	0.8258898	0.9728029
59591205577000	2.5848763	1.3179418	1.16492
59591214885000	2.5961773	1.5668694	1.3176364
59591225932000	2.6288586	1.6603317	1.3997977
59591236155000	2.5680776	1.8191566	1.4104879
59591246257000	2.339614	2.0271564	1.3417655
59591255595000	2.0821342	2.164601	1.1701124
59591266276000	1.9165897	2.149024	0.93554014
59591275615000	1.8854356	1.9193386	0.84604836
59591286692000	1.9147571	1.7186694	0.7626653
59591295634000	1.9501873	1.3466524	0.7244862
59591306315000	1.9459113	1.2968669	0.7284568
59591315654000	1.92392	1.3939945	0.7489208
59591327952000	1.8741345	1.4969252	0.7626653
59591335673000	1.7305813	1.6496416	0.8368854
59591346446000	1.488984	1.642922	0.99265605
59591355693000	1.3912456	1.2516629	1.1606439
59591366374000	1.5937474	0.6582073	1.2492194
59591375743000	1.8478674	0.27275133	1.2324207
59591386424000	1.8545868	0.28130344	1.1468995
59591395732000	1.6178766	0.52442783	1.0204504
59591406779000	1.325883	0.7593055	0.9242391
59591415751000	1.1044444	0.9104946	0.89736104
59591428416000	1.0140363	1.0592403	0.87598073
59591435771000	0.84207773	1.1026118	0.79320854
59591446421000	0.6780604	1.0009027	0.7861836
59591455790000	0.49357912	0.64873886	0.8866709
59591466838000	0.2929099	0.24740042	0.93309665
59591475810000	0.24098633	0.028405234	0.81245077
59591486491000	0.32986724	0.09285152	0.5403103
59591495829000	0.2938262	0.49021935	0.26816985
59591508006000	0.0033597588	0.95264435	0.10293079
59591515757000	-0.36071593	1.0302242	-0.02565634
59591526530000	-0.6753115	0.73364913	-0.24587326
59591535777000	-1.142318	0.49754974	-0.5299256
59591546428000	-1.8041905	0.40591997	-0.7809912
59591555796000	-2.453235	0.34330627	-0.9593639
59591566478000	-3.02531	0.22174409	-1.0974194
59591575816000	-3.2971451	-0.0021380284	-1.2278391
59591586833000	-3.710701	-0.053450707	-1.2983941
59591595836000	-3.78767	0.13897185	-1.4694363
59591606486000	-3.6102135	0.3885103	-1.6331482
59591615855000	-3.3200526	0.12950343	-1.7220291
59591626536000	-3.0320296	-0.35521814	-1.7369953
59591635875000	-2.8927524	-0.3231477	-1.6765196
59591646922000	-2.917187	0.14508049	-1.6563611
59591655864000	-3.0610456	0.38759398	-1.7956384
59591666575000	-3.1902437	0.064751714	-2.055867
59591675914000	-3.095865	-0.43768495	-2.2763894
59591688151000	-2.771801	-0.56169057	-2.293799
59591695903000	-2.3952026	-0.30909783	-2.1572707
59591706675000	-2.1337523	-0.20158553	-2.1633792
59591715953000	-2.0470095	-0.61117065	-2.468201
59591726603000	-2.1636846	-1.6716328	-2.641992
59591735972000	-2.2748623	-2.7537806	-2.5558603
59591746653000	-2.3716843	-2.9391782	-2.2021692
59591755992000	-2.2574525	-2.7101038	-1.9419407
59591767039000	-2.1664336	-2.2602015	-1.8112154
59591776011000	-2.082745	-1.5473217	-1.7296649
59591786692000	-1.9507982	-0.95264435	-1.5858061
59591796031000	-1.815797	-0.9398162	-1.3573426
59591806651000	-1.7037032	-1.2883148	-1.1539245
59591816050000	-1.5836681	-1.7263051	-0.9963212
59591827067000	-1.4193454	-2.1044307	-0.8436049
59591836070000	-1.2076806	-2.3383923	-0.70952
59591846751000	-0.947452	-2.403144	-0.5751296
59591856089000	-0.6432411	-2.3701572	-0.45265114
59591868327000	-0.30390546	-2.2922719	-0.37782016
59591876109000	0.061086524	-2.221717	-0.34513888
59591886851000	0.25534168	-2.1774292	-0.33567044
59591896129000	0.66553766	-2.1416936	-0.312763
59591906749000	1.0974194	-1.9981402	-0.2959642
59591916148000	1.5442673	-1.7427986	-0.26206118
59591926829000	2.0124955	-1.3790283	-0.18570304
59591936168000	2.4740043	-0.9477574	-0.13713925
59591947154000	2.817616	-0.5366451	-0.12034045
59591956187000	2.765387	-0.27152961	-0.043066
59591968760000	1.9385809	-0.14294247	0.115453534
59591976207000	0.41355577	0.019242255	0.15424347
59591986857000	-1.0586295	0.3494149	0.21899518
59591996287000	-1.8197676	0.35338554	0.24220806
59592007426000	-1.8383989	-0.47342056	-0.3200934
59592016398000	-1.5885551	-1.6169603	-0.9092729
59592027018000	-1.2950343	-2.5231788	-1.135904
59592036387000	-1.1172725	-3.0338624	-1.1585059
59592048655000	-0.65240407	-3.0714304	-1.0680978
59592056437000	-0.21624629	-2.6279423	-0.69974613
59592067180000	-0.009468411	-1.7626517	-0.23060162
59592076457000	0.09315695	-0.9104946	-0.081855945
59592087077000	0.16310102	-0.102319926	-0.08032878
59592096415000	0.026572637	0.4896085	0.09987647
59592107097000	-0.39400807	0.51251596	0.31612277
59592116465000	-0.94806284	-0.039095376	0.32742378
59592127452000	-1.2336423	-0.44043383	0.22113322
59592136454000	-0.5742133	0.33658674	0.12858713
59592147319000	0.7339546	1.8787161	0.069027774
59592156657000	1.7107282	2.8066204	0.059253927
59592167369000	2.2809708	2.5879307	0.09407325
59592217082000	3.087313	2.9025261	0.38362336
59592248027000	1.9349157	1.6319265	0.3472769
59592288188000	2.2321017	0.97585726	0.7858781
59592297099000	2.3808472	1.4065173	0.9007208
59592307719000	2.449875	1.676825	1.0320568
59592316661000	2.528066	1.8347337	1.131017
59592336650000	2.4996605	1.9306396	1.1963795
59592367686000	1.7611245	1.9724839	1.1120802
59592387400000	1.6786577	1.5008959	0.92271197
59592408976000	1.7876972	1.070236	0.840856
59592427501000	1.6829338	1.3616186	0.89827734
59592436747000	1.5054774	1.5143349	0.9682214
59592447368000	1.3729197	1.4932601	1.0479393
59592456767000	1.452943	1.2538009	1.1078042
59592467448000	1.7146988	0.9098838	1.1261301
59592476786000	1.9107865	0.64812803	1.0708468
59592487803000	1.8264871	0.57879484	0.9486737
59592496806000	1.6881261	0.61941737	0.88117313
59592507396000	1.3713925	0.6444628	0.79168135
59592516734000	1.1615603	0.7357872	0.7788532
59592529704000	0.98654735	0.98715824	0.72784597
59592536754000	0.7305948	1.2959507	0.6545421
59592547740000	0.4636467	1.3109168	0.71776664
59592556773000	0.23609942	0.91996306	0.88208944
59592567424000	0.087659165	0.4071417	0.9783007
59592576793000	0.11484267	0.06780604	0.8717047
59592589061000	0.2406809	0.10048734	0.5653558
59592596782000	0.22540927	0.505491	0.22571471
59592607524000	0.013133603	0.9633345	-0.011911872
59592616801000	-0.25717425	1.0464121	-0.2012801
59592627482000	-0.5870415	0.70249504	-0.39706242
59592636851000	-1.1242975	0.2761111	-0.59956425
59592647502000	-1.4630222	0.017715093	-0.7021896
59592656871000	-2.1398609	-0.02107485	-0.8784242
59592667857000	-2.6942213	0.022296581	-0.9868528
59592676890000	-3.1257975	-0.0021380284	-1.0647382
59592687541000	-3.4193182	-0.18661933	-1.1646146
59592696910000	-3.5078936	-0.2959642	-1.2773192
59592707591000	-3.4333682	-0.28252518	-1.3683381
59592716929000	-3.1807754	-0.46822822	-1.4294246
59592727977000	-2.8707612	-0.7333437	-1.496009
59592736949000	-2.747061	-0.43951756	-1.5402967
59592747599000	-2.7479773	0.18448131	-1.6126842
59592756968000	-2.7595837	0.48288897	-1.7919732
59592769236000	-2.767525	0.2415972	-2.0576997
59592776988000	-2.68628	-0.2275473	-2.2944098
59592787761000	-2.4443772	-0.39767328	-2.3811526
59592797007000	-2.2812762	-0.19517145	-2.3124304
59592807689000	-1.9633209	-0.09407325	-2.2739458
59592817027000	-1.7724255	-0.2519819	-2.3603833
59592827678000	-1.8176296	-1.151481	-2.62275
59592837046000	-2.0818288	-2.5189028	-2.6267207
59592848063000	-2.2977695	-3.2565227	-2.3118196
59592857066000	-2.309376	-3.0448577	-2.0189097
59592867717000	-2.2632558	-2.6755898	-1.8127426
59592877086000	-2.1661282	-2.0363193	-1.6832392
59592887767000	-1.9950858	-1.1749994	-1.5726726
59592897075000	-1.8594738	-0.8872818	-1.3753631
59592908152000	-1.813048	-1.2800682	-1.135293
59592917125000	-1.7751744	-1.9058995	-0.9071349
59592927745000	-1.6624697	-2.4126122	-0.7153232
59592937144000	-1.4697418	-2.6810875	-0.58093286
59592949351000	-1.2140946	-2.7473664	-0.473726
59592957164000	-1.071763	-2.6618452	-0.41263947
59592967906000	-0.7657196	-2.5851817	-0.31703907
59592977183000	-0.42821655	-2.4000895	-0.29565877
59592987834000	-0.05100725	-2.2119431	-0.2837469
59592997203000	0.3567453	-2.0796907	-0.28344148
59593007914000	0.784351	-1.9504927	-0.3032946
59593017314000	1.2159272	-1.7687603	-0.29749137
59593028300000	1.6594155	-1.4865406	-0.25442538
59593037333000	2.121535	-1.0809261	-0.21166481
59593047953000	2.5262332	-0.623388	-0.21594086
59593057353000	2.679255	-0.22602014	-0.21746802
59593067973000	2.1896465	0.048258353	-0.099265605
59593077372000	0.8564331	0.25137106	-0.01038471
59593090678000	-0.6805039	0.47067168	-0.010079277
59593097392000	-1.6484199	0.42577308	0.17654006
59593108012000	-1.8093829	-0.31490102	0.15607607
59593117411000	-1.7055358	-0.8793405	-0.35277468
59593129619000	-1.491733	-1.9978348	-0.88789266
59593137431000	-1.2660183	-2.7519479	-1.0867293
59593148143000	-0.8564331	-3.052799	-1.102001
59593157451000	-0.28496864	-2.7433958	-0.98349303
59593168132000	0.13591751	-1.8099937	-0.61483586
59593177470000	0.3998113	-0.7324274	-0.2302962
59593188151000	0.65668017	0.11789699	-0.089186326
59593197490000	0.7470882	0.85062987	0.048563786
59593208476000	0.45081854	1.1093313	0.34208453
59593217509000	-0.18570304	0.8399397	0.5720753
59593228190000	-0.91690874	0.5296202	0.59406644
59593237498000	-1.1133019	0.625526	0.49205196
59593248179000	-0.33292156	1.3158038	0.37751472
59593257518000	0.2443461	2.0512855	0.30940324
59593268626000	1.3246613	2.3200662	0.16432275
59593277568000	2.1716259	2.4761422	0.13103059
59593288279000	2.640465	1.9428569	0.19883664
59593297557000	2.728735	1.4025466	0.26725355
59593309825000	2.898861	1.6514742	0.28405234
59593317576000	3.286455	2.727208	0.26908615
59593328379000	3.3893857	3.9214494	0.28252518
59593337596000	2.9480357	4.1303654	0.26725355
59593348307000	2.2721133	3.0879238	0.28680122
59593357615000	1.8203784	1.5121969	0.39950588
59593368266000	1.7256943	0.32406402	0.55741453
59593377635000	1.8704693	0.08002335	0.7031059
59593388652000	2.1065688	0.5161811	0.82711154
59593397654000	2.2724187	1.0122037	0.9981538
59593408336000	2.3115141	1.3365731	1.185384
59593417674000	2.378404	1.5564847	1.2428054
59593428355000	2.4672847	1.6401732	1.2712106
59593437693000	2.438574	1.7739527	1.2880094
59593448741000	2.2379048	1.9278907	1.317331
59593457713000	1.981036	2.0546453	1.258077
59593468425000	1.8145752	2.0916026	1.1044444
59593477733000	1.774869	1.9404135	0.97005403
59593489970000	1.8090774	1.5793921	0.86376345
59593497752000	1.8799378	1.3072516	0.7834347
59593508433000	1.9569068	1.3912456	0.7602218
59593517711000	1.9489655	1.7030923	0.7974846
59593528331000	1.7681495	1.8994855	0.9016371
59593537700000	1.5018122	1.7962493	1.0577132
59593548381000	1.4123205	1.4104879	1.1887437
59593557719000	1.4853189	0.8362745	1.2394456
59593568736000	1.7614299	0.3200934	1.2366967
59593577739000	1.9058995	0.18387043	1.1829406
59593588389000	1.740966	0.18967366	1.0662653
59593597758000	1.4474452	0.42638394	0.956615
59593608439000	1.2272283	0.6948592	0.93309665
59593617778000	1.0952814	0.9593639	0.9117164
59593631083000	0.9450085	1.212873	0.8151997
59593637767000	0.7266242	1.1881329	0.7855727
59593648448000	0.4810564	0.7819075	0.8915578
59593657817000	0.25137106	0.38026363	0.9783007
59593670054000	0.13439035	0.19761491	0.89461213
59593677836000	0.1591304	0.1731803	0.60231316
59593688609000	0.1386664	0.4364632	0.23151793
59593697856000	-0.08735373	0.8848383	-0.0693332
59593708476000	-0.3717115	1.0647382	-0.32620203
59593717875000	-0.4822781	0.8738427	-0.4615087
59593728495000	-0.73914695	0.72692966	-0.7360926
59593737895000	-1.2363913	0.4297437	-0.9761627
59593748912000	-1.8994855	0.20799962	-1.1508701
59593757914000	-2.4733934	0.10903945	-1.237613
59593768596000	-2.9394836	-0.08124508	-1.2458596
59593777934000	-3.368311	-0.34483343	-1.2513574
59593788615000	-3.5729508	-0.34422258	-1.3038919
59593797953000	-3.5353825	-0.13255776	-1.3649784
59593809001000	-3.3670893	-0.30268374	-1.3573426
59593817973000	-3.104417	-0.87872964	-1.3185526
59593828654000	-2.9083295	-1.0277808	-1.282817
59593837993000	-2.8542678	-0.54550266	-1.3289373
59593850261000	-2.90161	-0.064751714	-1.5549575
59593858012000	-2.9852984	-0.07086037	-1.9547688
59593868785000	-2.9929342	-0.39767328	-2.1642957
59593878032000	-2.85946	-0.5216789	-2.4526238
59593888713000	-2.5164595	-0.49510628	-2.473088
59593898051000	-2.068695	-0.26389378	-2.3402247
59593908732000	-1.7394388	-0.28619036	-2.418721
59593918223000	-1.7486018	-0.9651671	-2.7394252
59593929240000	-2.0857995	-2.2727242	-2.7711902
59593938273000	-2.422997	-3.2510247	-2.4422393
59593949138000	-2.5302038	-3.2479706	-2.0653355
59593958476000	-2.4770586	-2.6801713	-1.8185458
59593969127000	-2.3218987	-1.7418822	-1.7324139
59593978495000	-2.126422	-0.8927795	-1.6337591
59593989726000	-2.0137172	-0.7089091	-1.4450017
59593998668000	-1.9859229	-1.1704178	-1.1866057
59594009410000	-1.9376645	-1.8335121	-0.91629785
59594018962000	-1.8240436	-2.2644775	-0.72265357
59594031230000	-1.627345	-2.3811526	-0.58123827
59594038981000	-1.4941764	-2.371379	-0.44318274
59594049937000	-1.1777482	-2.3356433	-0.3830125
59594059214000	-0.829555	-2.3170118	-0.28893927
59594069865000	-0.46914452	-2.2922719	-0.2312125
59594078776000	-0.12003502	-2.2983804	-0.21838433
59594088969000	0.23518312	-2.3228152	-0.24007004
59594098307000	0.61575216	-2.295937	-0.25228736
59594109324000	1.010982	-2.1655173	-0.22571471
59594118327000	1.4388931	-1.9254472	-0.16279559
59594128978000	1.9025398	-1.5656476	-0.102319926
59594138377000	2.320677	-1.1129965	-0.11209377
59594148997000	2.5292876	-0.6230826	-0.13805555
59594158366000	2.2727242	-0.029932396	-0.122478485
59594172129000	1.294118	0.6704246	-0.14385876
59594178416000	0.56382865	1.269378	-0.14905111
59594189067000	-0.9279043	1.3677273	0.0067195175
59594198436000	-1.6007724	0.8026769	0.09040806
59594210704000	-1.3326025	-0.559858	-0.30085114
59594218455000	-0.93554014	-1.7644843	-0.7281514
59594229167000	-0.7058548	-2.2440135	-0.8854492
59594238475000	-0.46486846	-2.1853704	-0.86834496
59594249156000	-0.16249016	-1.8298469	-0.7620544
59594258494000	0.07666359	-1.3753631	-0.47555858
59594269175000	0.3368922	-0.91354895	-0.057726767
59594278514000	0.8032878	-0.3032946	0.22418754
59594289561000	1.1533136	0.6575964	0.3436117
59594298533000	0.9492846	1.455081	0.48441613
59594309184000	0.21930063	1.7467692	0.61727935
59594318553000	-0.6563747	1.6884315	0.5335908
59594329264000	-0.9550878	1.246776	0.4266894
59594338572000	-0.84207773	1.0919216	0.19822577
59594349650000	0.103847094	1.3371841	0.040927973
59594358592000	1.1181889	1.9413297	-0.04642576
59594369273000	1.8484782	2.2638667	-0.04642576
59594378611000	2.284636	1.885741	0.13255776
59594390910000	2.406809	1.1887437	0.32650748
59594398631000	2.584571	1.0613784	0.37995818
59594409373000	3.1224377	1.8530598	0.2855795
59594418650000	3.535077	3.2104023	0.17745635
59594429362000	3.2888985	4.0818014	0.11728613
59594438670000	2.525317	3.6010506	0.226631
59594449382000	1.815797	2.0983222	0.47311515
59594458690000	1.5195273	0.8604037	0.64904433
59594469676000	1.5888605	0.6160576	0.7648033
59594478709000	1.6911805	0.8784242	0.81061816
59594489329000	1.88849	0.9691377	0.8979719
59594498729000	2.0512855	1.0900891	1.03786
59594509440000	2.2446244	1.3616186	1.1563679
59594518748000	2.4541512	1.6636915	1.1814134
59594529765000	2.543643	1.8848248	1.1878275
59594538768000	2.4147503	2.1636846	1.2412782
59594549449000	2.1099286	2.5127943	1.3246613
59594558787000	1.7821994	2.651766	1.3185526
59594571055000	1.5879441	2.4740043	1.2027937
59594578807000	1.6001616	2.0983222	1.0940597
59594589518000	1.6850718	1.709201	1.0112875
59594598796000	1.6994271	1.5580118	0.93523467
59594609507000	1.643533	1.6264287	0.87109387
59594618846000	1.5399913	1.7159204	0.8533788
59594629496000	1.4792101	1.6279559	0.8854492
59594638865000	1.4135422	1.1835514	0.90041536
59594649882000	1.4923438	0.88606006	0.92179567
59594658885000	1.6447546	0.42302418	0.95111716
59594669535000	1.6872098	0.2660318	0.9627236
59594678904000	1.5503759	0.36254853	0.9239337
59594689555000	1.3466524	0.6020077	0.8762862
59594698924000	1.1844677	0.81000733	0.8399397
59594710063000	1.0345002	0.9978484	0.74372846
59594718943000	0.8573494	1.1890492	0.61575216
59594732310000	0.6768387	1.1016954	0.63713247
59594738963000	0.48899764	0.6737844	0.8051204
59594751201000	0.30298916	0.29565877	0.91721416
59594758983000	0.23579398	0.16676621	0.8585711
59594769755000	0.32925636	0.23151793	0.6270532
59594779002000	0.37904188	0.5421429	0.36102137
59594789622000	0.32620203	0.9560041	0.27366763
59594799022000	0.06841691	1.071763	0.19394971
59594809672000	-0.17440203	0.9786061	0.083383106
59594819011000	-0.410196	0.6389651	-0.13530666
59594830088000	-0.9016371	0.410196	-0.36835176
59594839061000	-1.5897768	0.29565877	-0.6010914
59594849742000	-2.200642	0.2134974	-0.82986045
59594859080000	-2.7669141	0.204029	-1.0051788
59594869792000	-3.345098	0.09987647	-1.1285735
59594879100000	-3.6929858	0.013439035	-1.246776
59594890208000	-3.714977	0.16462818	-1.4043792
59594899119000	-3.524998	0.2501493	-1.5271631
59594909800000	-3.2220087	0.052534413	-1.5619824
59594919139000	-3.0127873	-0.10293079	-1.5112807
59594931407000	-2.9996538	0.11881329	-1.4059063
59594939128000	-3.0445523	0.3359759	-1.3720033
59594949931000	-3.1774156	0.2434298	-1.452943
59594959178000	-3.25469	-0.3304781	-1.7373008
59594969859000	-3.150843	-0.8536842	-2.05098
59594979167000	-2.90161	-0.8677341	-2.2284365
59594989848000	-2.5977044	-0.5748242	-2.269059
59594999217000	-2.3698518	-0.59437186	-2.2525656
59595010295000	-2.3695462	-1.2492194	-2.244319
59595019236000	-2.4776695	-2.1181753	-2.262034
59595029918000	-2.4898868	-2.7097983	-2.1398609
59595039256000	-2.403144	-2.8081474	-1.844813
59595049968000	-2.3047945	-2.3811526	-1.5653422
59595059275000	-2.2354615	-1.7266107	-1.428203
59595070353000	-2.1658227	-1.1542299	-1.389413
59595079295000	-2.0518963	-0.7632761	-1.3356569
59595090037000	-1.9822577	-0.7501425	-1.2770138
59595099315000	-1.8460348	-0.9077458	-1.1081096
59595111552000	-1.7345519	-1.3836098	-0.93034774
59595119334000	-1.6212363	-1.8164078	-0.8026769
59595130107000	-1.4300356	-2.0882428	-0.7086037
59595139354000	-1.1475104	-2.2892175	-0.62888575
59595150096000	-0.8042041	-2.415972	-0.5888741
59595159373000	-0.4184427	-2.4584272	-0.589485
59595170115000	-0.0036651916	-2.497828	-0.61391956
59595179393000	0.43768495	-2.4975226	-0.61941737
59595190410000	0.8885035	-2.372906	-0.57360244
59595199412000	1.3469579	-2.072971	-0.47647488
59595210124000	1.8377881	-1.5696182	-0.3735441
59595219432000	2.324953	-0.9263771	-0.3491095
59595230113000	2.67223	-0.3924809	-0.37843102
59595239451000	2.7488935	-0.0870483	-0.35155296
59595250499000	2.5940392	0.020158553	-0.30787608
59595259471000	1.8261817	0.22235495	-0.25717425
59595272807000	0.37415496	0.4550946	-0.2874121
59595279460000	-1.097114	0.49693888	-0.17379116
59595291758000	-1.5451837	-0.35796702	-0.2452624
59595299510000	-1.2556335	-1.7638733	-0.6805039
59595310283000	-1.0329732	-2.4969118	-0.9761627
59595319529000	-0.9104946	-2.5411994	-0.9859365
59595330211000	-0.6658431	-2.4642303	-0.89949906
59595339579000	-0.35643986	-2.2327125	-0.8570439
59595350291000	-0.06658431	-1.8463402	-0.7644979
59595359568000	0.3155119	-1.4135422	-0.39522982
59595370585000	0.9242391	-0.8399397	0.12156218
59595379588000	1.5066991	0.10445796	0.42577308
59595390269000	1.5494597	1.138042	0.4999932
59595399638000	1.3130548	1.5656476	0.5213735
59595410350000	0.49510628	1.6111571	0.56688297
59595419658000	-0.31031954	1.6114625	0.5500842
59595430705000	-0.49602258	1.3393221	0.44135013
59595439647000	-0.07727446	1.0965031	0.3109304
59595450358000	0.47983465	1.1117748	0.24862215
59595459697000	1.0464121	1.1557571	0.28008172
59595471995000	1.6288722	1.1557571	0.34972036
59595479686000	2.0402899	1.0659598	0.40286562
59595490458000	2.3157902	1.2186762	0.34483343
59595499705000	2.7418687	1.8793269	0.15577064
59595510508000	3.0955596	2.7638597	-0.014966198
59595519755000	2.9361238	3.3579264	-0.13775012
59595530528000	2.327702	3.1676416	-0.12980886
59595539805000	1.7110336	2.1786509	0.0888809
59595550822000	1.5183055	1.0390818	0.21105394
59595559825000	1.4080443	0.66156703	0.40103304
59595570506000	1.5247196	0.4251622	0.5983425
59595579844000	1.7223345	0.5928447	0.8222246
59595590525000	1.9138408	0.9025534	1.0079277
59595599864000	2.02624	1.2247849	1.1230757
59595610881000	2.1267273	1.4388931	1.169807
59595619883000	2.180789	1.559539	1.1896601
59595630595000	2.0891593	1.7150042	1.1921035
59595639903000	1.9254472	1.9098701	1.1316279
59595652171000	1.7892243	2.0619757	0.9288206
59595659953000	1.750129	2.080607	0.67164636
59595670695000	1.8164078	1.9291124	0.5742133
59595679942000	1.8729129	1.788308	0.63346726
59595690593000	1.8206838	1.7348573	0.7770206
59595699962000	1.7623463	1.6969837	0.8576548
59595710643000	1.6438384	1.6716328	0.9990701
59595719981000	1.5384641	1.5748106	1.1160508
59595740031000	1.2724323	1.1374311	1.2131784
59595750804000	1.323745	0.9315695	1.1756102
59595770884000	1.7327193	0.8026769	1.0995574
59595780406000	1.6581937	0.5571091	1.0363328
59595791453000	1.421178	0.3203988	0.9914343
59595811259000	1.0772609	0.7067711	0.8567385
59595820598000	0.926988	1.102001	0.8008443
59595835673000	0.6957755	1.0503827	0.9300423
59595851481000	0.33292156	0.1160644	1.0861185
59595860850000	0.2660318	-0.0143553335	0.9129381
59595871653000	0.2593123	0.11636983	0.6239988
59595881022000	0.25961772	0.42302418	0.46089783
59595891673000	0.17867808	0.61819565	0.20311269
59595900615000	-0.112704635	0.9089675	0.10354166
59595911174000	-0.5308419	0.78984874	0.004276057
59595920207000	-0.97097033	0.44318274	-0.22113322
59595930858000	-1.50731	0.27397305	-0.49266282
59595940226000	-2.107485	0.1414153	-0.74281216
59595950847000	-2.6535985	-0.02565634	-0.9111055
59595960215000	-3.1441233	-0.15332718	-1.0238101
59595971263000	-3.5057557	-0.26083946	-1.1713341
59595980265000	-3.5796704	-0.24190263	-1.3759739
59595990916000	-3.3735032	-0.2510656	-1.5662584
59596000285000	-3.2265902	-0.45662177	-1.6924021
59596012431000	-3.0158417	-0.593761	-1.7324139
59596020152000	-2.9880474	-0.5342017	-1.7730364
59596030864000	-3.0014863	-0.22082779	-1.8008307
59596040171000	-2.9761355	0.060170226	-1.9086485
59596050181000	-2.9339857	0.03145956	-2.1352794
59596059550000	-2.8490756	-0.21197024	-2.4000895
59596070231000	-2.6273315	-0.2932153	-2.5470026
59596079570000	-2.3270912	-0.14385876	-2.5537221
59596090587000	-2.0928242	-0.17348573	-2.6355782
59596099589000	-2.0393736	-0.72418076	-2.8887818
59596110209000	-2.2299635	-1.7910569	-3.0338624
59596119609000	-2.495079	-3.011871	-2.8166997
59596130259000	-2.586098	-3.6651914	-2.3726006
59596139628000	-2.5060747	-3.4125986	-1.9920316
59596150706000	-2.3857343	-2.5980098	-1.7989981
59596159648000	-2.3289237	-1.6071864	-1.7324139
59596170298000	-2.209805	-1.1921035	-1.5436565
59596179667000	-2.1371121	-0.95264435	-1.2843442
59596191935000	-2.118786	-1.5845845	-1.0613784
59596199687000	-2.0173824	-2.3231206	-0.89461213
59596210429000	-1.7779233	-2.6251934	-0.76174897
59596219706000	-1.4431691	-2.698192	-0.6563747
59596230357000	-1.0925325	-2.7482827	-0.58184916
59596239695000	-0.7672467	-2.8002062	-0.52473325
59596251017000	-0.45448375	-2.8808405	-0.48899764
59596260386000	-0.12736541	-2.9407053	-0.50426924
59596271373000	0.24740042	-2.8845057	-0.5448918
59596280375000	0.65209866	-2.6035078	-0.54702985
59596291056000	1.0644327	-2.022575	-0.47494772
59596300395000	1.5063937	-1.2061534	-0.35796702
59596311046000	1.7400496	-0.36713	-0.3145956
59596320414000	2.1743748	-0.027183503	-0.30634892
59596331431000	2.4410176	0.41080686	-0.3387248
59596340434000	2.4523184	0.71593404	-0.31948254
59596351115000	2.1493294	1.1621711	-0.23487769
59596360453000	1.3994923	1.4859297	-0.09865474
59596374949000	0.09101892	0.8854492	0.014049901
59596380504000	-0.98471475	-0.86193085	-0.21074851
59596391215000	-1.2647965	-2.493552	-0.729984
59596400493000	-1.287704	-2.761111	-1.0433578
59596411113000	-1.287704	-2.1398609	-0.9972375
59596420512000	-1.0839803	-1.7027869	-0.8038987
59596431132000	-0.6988298	-1.5198327	-0.6585127
59596440501000	-0.18295415	-1.3863586	-0.535118
59596451548000	0.52198434	-1.2205088	-0.30573806
59596460521000	0.9114109	-0.7489208	-0.13408493
59596471202000	1.5152513	-0.27672195	-0.14813483
59596480540000	1.566564	0.93737274	-0.30176744
59596491191000	1.0580186	1.8832976	-0.3640757
59596500590000	0.37812558	2.5372288	-0.26083946
59596511638000	-0.12705997	2.765998	-0.23426682
59596520579000	-0.2773328	2.1844542	-0.28588495
59596531260000	-0.016493361	1.280679	-0.23793201
59596540599000	0.56596667	0.85062987	-0.13347405
59596552867000	1.3582588	1.0256428	0.012217305
59596560588000	2.0500638	1.2507466	0.2302962
59596571421000	2.4330764	1.3038919	0.4098906
59596580638000	2.792876	1.4920384	0.44806966
59596591319000	3.174972	2.2235496	0.42210788
59596600657000	3.2143729	3.288593	0.43218717
59596611308000	2.7885997	3.943746	0.5161811
59596620677000	2.4990497	3.5381315	0.5821546
59596631724000	2.0625865	2.9965994	0.69058317
59596640696000	1.9474384	1.8219056	0.6942484
59596651317000	2.026851	1.1707232	0.68233645
59596660716000	2.1615467	1.1261301	0.7165449
59596671397000	2.2693644	1.2815952	0.77579886
59596680735000	2.3246477	1.4810427	0.8546005
59596691874000	2.346639	1.6728544	0.91324353
59596700724000	2.3747387	1.8261817	0.93492925
59596711406000	2.3533583	2.057394	0.9859365
59596720744000	2.2574525	2.4440718	1.0882565
59596733012000	2.1203132	2.8173106	1.1475104
59596740764000	1.9590448	2.9837713	1.0980303
59596751536000	1.7999145	2.9113839	0.96486163
59596760783000	1.7128662	2.5729644	0.88270026
59596771464000	1.7009543	2.0766363	0.895223
59596780803000	1.6975945	1.8692477	0.9810496
59596791484000	1.6569719	1.5928311	1.063211
59596800822000	1.5329664	1.294118	1.1325442
59596811900000	1.4187346	0.8454375	1.1902709
59596820842000	1.4425583	0.4596761	1.1866057
59596831523000	1.5677856	0.36346483	1.1340714
59596840861000	1.59558	0.46883908	1.1071932
59596851542000	1.4391985	0.6105598	1.1282681
59596860881000	1.2315043	0.81245077	1.1646146
59596871959000	1.1068878	1.0781772	1.181108
59596880900000	1.0454959	1.2947289	1.1392636
59596891551000	1.0106765	1.2565498	1.0442741
59596900920000	0.9098838	0.9486737	0.94225967
59596915477000	0.679893	0.64843345	0.87598073
59596921000000	0.55680364	0.516792	0.8029824
59596931681000	0.39675698	0.49938235	0.74464476
59596940959000	0.32986724	0.5296202	0.5684101
59596951609000	0.27458394	0.7309003	0.31764993
59596960978000	0.12736541	1.1273518	0.07696902
59596971660000	-0.19364429	1.5149459	-0.032070424
59596980998000	-0.57818395	1.5586227	-0.12095132
59596992045000	-0.91751957	1.3191634	-0.34880406
59597001017000	-1.3466524	1.1768318	-0.59131753
59597011668000	-1.930945	1.0754282	-0.7809912
59597021067000	-2.6068676	0.7724391	-0.9324858
59597031718000	-3.2684345	0.44959682	-0.9981538
59597041087000	-3.6297612	0.35613444	-1.0910053
59597052104000	-3.5915823	0.46883908	-1.3429873
59597061076000	-3.3429601	0.42852196	-1.6032158
59597071757000	-3.2030718	0.023518313	-1.709201
59597081126000	-2.9993484	-0.3567453	-1.7098118
59597093364000	-2.9541442	-0.4016439	-1.6548339
59597101115000	-2.9898798	-0.21319197	-1.63437
59597112132000	-3.042109	0.027183503	-1.7880026
59597121257000	-3.1074715	-0.04550946	-2.085494
59597132029000	-3.0812044	-0.321926	-2.3432791
59597141276000	-2.8756483	-0.4859433	-2.4199426
59597152018000	-2.58396	-0.4810564	-2.3032675
59597161296000	-2.389705	-0.5589417	-2.1282544
59597172313000	-2.3554964	-1.0775663	-2.1285598
59597181315000	-2.4153612	-2.08977	-2.283109
59597192027000	-2.495079	-3.0491338	-2.269059
59597201335000	-2.4510968	-3.1994066	-1.9969184
59597212077000	-2.277611	-2.5894578	-1.6652187
59597221354000	-2.134974	-1.8915442	-1.4453071
59597232402000	-2.1022928	-1.4413365	-1.3741413
59597241374000	-2.0818288	-1.2794572	-1.2541064
59597252086000	-2.01555	-0.9944886	-1.1157454
59597261424000	-1.9031507	-0.9111055	-0.93767816
59597273600000	-1.7953329	-1.1722504	-0.77854776
59597281504000	-1.700038	-1.53205	-0.6545421
59597292247000	-1.5763378	-1.7947221	-0.50488013
59597301494000	-1.3799446	-2.0091357	-0.35430184
59597312205000	-1.1102476	-2.1777346	-0.2733622
59597321513000	-0.78893244	-2.2883012	-0.24281894
59597332164000	-0.441961	-2.3732114	-0.2049453
59597341533000	-0.079107046	-2.4801128	-0.1685988
59597352549000	0.31306845	-2.591596	-0.13133603
59597361552000	0.79290307	-2.5757134	-0.046120327
59597372203000	1.3949108	-2.2351558	0.10934488
59597381602000	1.7238617	-1.5332718	0.20158553
59597392192000	2.3386977	-1.1261301	0.34513888
59597401530000	2.6875017	-0.4596761	0.40775254
59597412577000	2.540894	-0.13988814	0.45662177
59597421550000	1.7278323	0.06505715	0.40591997
59597434123000	0.31306845	0.4098906	0.22510384
59597441539000	-0.9728029	0.6209445	0.20341812
59597453807000	-1.3362677	0.029932396	0.09865474
59597461558000	-1.0870347	-1.3924674	-0.37873647
59597472270000	-0.9450085	-2.5149322	-0.79534656
59597481578000	-0.9089675	-2.8292224	-0.96883225
59597492442000	-0.77579886	-2.826168	-1.033584
59597501780000	-0.5723807	-2.5949554	-1.0329732
59597512492000	-0.34147367	-2.0299053	-0.8042041
59597522044000	0.03756821	-1.073901	-0.31887165
59597533000000	0.6942484	0.15210545	0.015271631
59597542064000	1.0048733	1.3833044	0.05681047
59597552836000	1.0668762	1.790446	0.06383542
59597562205000	0.03176499	1.9740111	0.1695151
59597572886000	-1.2287555	1.6508633	0.37110063
59597582438000	-1.3497068	0.6780604	0.56505036
59597593486000	-0.54428095	-0.19853121	0.5348125
59597602488000	0.41813725	0.05467244	0.3820962
59597613322000	1.3148874	0.7706065	0.31520647
59597622630000	1.9892827	1.3182472	0.34147367
59597634929000	2.3903158	1.7669277	0.35979962
59597642222000	2.7424796	2.4972172	0.27152961
59597652598000	3.164893	3.4596353	0.07971791
59597661754000	3.3350189	4.237878	-0.07880162
59597672526000	3.0234776	4.254982	-0.18203785
59597681773000	2.7290404	3.1685581	-0.17959438
59597692576000	2.1212296	2.3041837	-0.10781772
59597701823000	1.7974709	0.5656612	0.102319926
59597712809000	1.8164078	-0.31948254	0.3408628
59597721843000	2.0332649	0.0	0.63713247
59597732554000	2.264172	0.7693848	0.9642508
59597741893000	2.357329	1.1319333	1.2516629
59597752604000	2.405282	1.1349876	1.4104879
59597761943000	2.581211	1.0067059	1.4049901
59597772899000	2.7479773	0.8533788	1.2434162
59597781962000	2.6920831	0.8258898	1.0262536
59597792613000	2.4663684	1.0943651	0.88117313
59597801982000	2.2635612	1.5885551	0.82802784
59597814189000	2.1502457	1.9981402	0.7852673
59597821971000	2.121535	2.0216584	0.72387534
59597832713000	2.1545217	1.7296649	0.7516697
59597842021000	2.1691825	1.4590516	0.8026769
59597852641000	2.1679606	1.4355333	0.9016371
59597862040000	2.1041253	1.6194037	0.98929626
59597872630000	1.9547688	1.8454239	1.1160508
59597882029000	1.6856827	1.767844	1.241889
59597893016000	1.4859297	1.289842	1.2812898
59597902079000	1.6300939	0.75136423	1.2822062
59597912669000	1.8793269	0.5671884	1.3191634
59597922068000	1.7925841	0.70402217	1.3319917
59597932689000	1.4349225	0.89461213	1.2681563
59597942088000	1.1661417	1.135904	1.0900891
59597953166000	1.0546589	1.5262468	0.81183994
59597962138000	0.88789266	1.7977765	0.61636305
59597974711000	0.6001751	1.5705346	0.7287622
59597982158000	0.32559118	0.8891144	1.0152581
59597994334000	0.2434298	0.122478485	1.0977248
59598002116000	0.25473082	-0.14660765	0.96974856
59598012919000	0.3555236	-0.14538592	0.5381723
59598022197000	0.23151793	0.53786683	0.1151481
59598032847000	-0.16798794	1.2140946	-0.0888809
59598042247000	-0.5742133	1.1951579	-0.19303341
59598052897000	-0.9114109	0.66248333	-0.3539964
59598062205000	-1.4382823	0.20769419	-0.56230146
59598073253000	-2.176513	-0.14080444	-0.78038037
59598082194000	-2.8460212	-0.26328292	-0.97035944
59598092906000	-3.2720997	-0.070249505	-1.1655309
59598102214000	-3.4907894	0.095294975	-1.4016303
59598112925000	-3.5182784	0.074830994	-1.6450601
59598122233000	-3.3646457	-0.07269296	-1.8493946
59598133311000	-3.0735686	-0.28893927	-1.956296
59598142283000	-2.9437597	-0.23915374	-1.9734001
59598152964000	-2.8683178	-0.026267206	-1.9804251
59598162303000	-2.989269	0.48533243	-2.01555
59598174540000	-3.1025846	0.5366451	-2.1499403
59598182292000	-3.1047225	-0.00580322	-2.3793201
59598193065000	-2.9495628	-0.6759224	-2.5644124
59598202311000	-2.6871963	-0.8671232	-2.5244007
59598213023000	-2.40742	-0.46609017	-2.2592852
59598222331000	-2.1068742	-0.03726278	-2.1896465
59598232982000	-1.8591684	-0.20677789	-2.6526823
59598242350000	-1.8765781	-1.3741413	-3.1554244
59598253398000	-2.2638667	-3.1801646	-3.1108313
59598262400000	-2.610227	-4.0408735	-2.6771169
59598273082000	-2.651766	-3.4645221	-2.3069327
59598282389000	-2.5488353	-2.5033257	-2.115121
59598293071000	-2.4627032	-1.6313156	-1.949271
59598302409000	-2.2675319	-1.187522	-1.8219056
59598313517000	-2.1468859	-1.212873	-1.5060883
59598322490000	-2.1627684	-1.7354681	-1.1942415
59598333110000	-2.2440135	-2.6022859	-0.9285152
59598342479000	-2.2418754	-3.3029485	-0.7174612
59598354747000	-2.0839667	-3.5860844	-0.5543602
59598362529000	-1.783421	-3.5030067	-0.41722095
59598373179000	-1.4202617	-3.1945198	-0.2919936
59598382487000	-1.042747	-2.7980683	-0.1853976
59598393199000	-0.6579019	-2.4281893	-0.113926366
59598402537000	-0.23884831	-2.1563544	-0.09040806
59598413157000	0.22785273	-2.005165	-0.13469578
59598422587000	0.7131852	-1.9226984	-0.20769419
59598433543000	1.1881329	-1.7980819	-0.2321288
59598442607000	1.613906	-1.4923438	-0.21594086
59598453196000	1.7922786	-0.99204516	-0.2144137
59598462596000	2.0412061	-0.7125743	-0.25411993
59598473216000	2.062892	-0.14966199	-0.24587326
59598482615000	1.8029687	0.44868052	-0.102319926
59598495524000	1.2162327	0.9550878	-0.009468411
59598502635000	0.25228736	0.86590147	-0.003970624
59598513133000	-0.70371675	-0.1591304	-0.07849618
59598522532000	-1.1569787	-1.6905695	-0.36926803
59598534739000	-1.2351695	-2.802039	-0.69027776
59598542552000	-1.1459832	-3.0091221	-0.8188649
59598553233000	-0.8588765	-2.7510316	-0.82558435
59598562541000	-0.4202753	-2.4086416	-0.8258898
59598573192000	-0.0070249503	-2.025629	-0.8332202
59598582560000	0.34300083	-1.629483	-0.7809912
59598593181000	0.77396625	-1.0913107	-0.52290064
59598602610000	1.0458013	-0.36713	-0.3463606
59598613597000	1.5305228	0.08460484	-0.08399397
59598622599000	1.5546521	1.0488557	-9.162979E-4
59598633220000	0.95417154	1.6453656	0.043982297
59598642619000	0.042760566	1.8368717	0.16462818
59598653300000	-0.68203104	1.6945401	0.35216382
59598662639000	-0.70249504	1.215011	0.4578435
59598673655000	0.012217305	0.9288206	0.41722095
59598682658000	0.9669997	1.0320568	0.2947425
59598693339000	1.8530598	1.3649784	0.1518
59598702647000	2.5228734	1.7580702	0.10476339
59598714946000	2.8732047	2.01555	0.06658431
59598722667000	3.1264083	2.4828618	-0.09712757
59598733439000	3.4611626	3.378085	-0.2275473
59598742717000	3.5277467	4.30996	-0.16157386
59598753306000	3.3701437	4.526206	-0.033292156
59598762736000	2.780353	4.1853433	0.055588737
59598773417000	2.144137	2.7214046	0.3417791
59598782756000	1.8270979	0.9654725	0.6078109
59598793773000	1.9339994	-0.13225232	0.75961095
59598802775000	2.293799	-0.13744467	0.8552113
59598813426000	2.5970936	0.5012149	0.89827734
59598822764000	2.6236663	0.9459248	0.98899084
59598833476000	2.5665503	1.1151345	1.1368202
59598842814000	2.638327	1.2211196	1.201572
59598853862000	2.68628	1.2629639	1.1267409
59598862834000	2.5298984	1.4291192	0.98654735
59598873484000	2.2534819	1.7996091	0.93523467
59598882853000	2.080607	2.1227567	0.9642508
59598895121000	2.0570886	2.255009	0.9370673
59598902842000	2.0650299	2.1337523	0.9111055
59598913585000	2.0525072	1.8072448	0.92057395
59598922892000	1.992337	1.6777414	0.96791595
59598933574000	1.9083431	1.6358972	1.0421361
59598942912000	1.7391334	1.7632625	1.1294898
59598953593000	1.4990633	1.7736472	1.2043208
59598962931000	1.4230106	1.4504995	1.207986
59598973948000	1.6087136	1.0012082	1.1588113
59598982921000	1.7919732	0.73792523	1.1279627
59598993602000	1.7394388	0.65148777	1.0525209
59599002971000	1.5381587	0.66950834	0.9098838
59599013652000	1.3839152	0.7687739	0.7855727
59599022990000	1.2253957	1.0311406	0.6918049
59599034007000	1.0088439	1.4141531	0.57910025
59599043010000	0.8014552	1.5213599	0.55680364
59599055644000	0.58093286	1.2003502	0.7293731
59599064158000	0.4550946	0.7247916	0.83658
59599075419000	0.23243423	0.5180137	0.9569204
59599083140000	0.16554448	0.23854288	0.88300574
59599093882000	0.25503623	0.22937989	0.63529986
59599103160000	0.30390546	0.5879578	0.31490102
59599113780000	0.15454891	1.1001683	0.064446285
59599123149000	-0.13194689	1.303281	-0.06047566
59599133830000	-0.3943135	0.9761627	-0.20891592
59599143168000	-0.77946407	0.5131268	-0.43096542
59599154216000	-1.4227052	0.35888332	-0.68203104
59599163218000	-2.0522017	0.3549127	-0.91904676
59599173900000	-2.5964828	0.18784106	-1.0793989
59599183207000	-3.1676416	-0.08399397	-1.1685852
59599193858000	-3.5286632	0.030848695	-1.2559389
59599203257000	-3.5014796	0.54611355	-1.4062119
59599214335000	-3.390913	0.782213	-1.4908166
59599223430000	-3.1499267	0.6444628	-1.5931365
59599234111000	-3.0106494	0.027488936	-1.604743
59599243449000	-2.9697213	-0.32070425	-1.6077974
59599255870000	-2.935513	-0.11942416	-1.6505579
