accelerometer_timestamp	accelerometer_x_data	accelerometer_y_data	accelerometer_z_data
59573301982000	-3.9600096	-8.704719	3.7421372
59573322184000	-1.7495629	-5.6545057	3.4356794
59573328776000	0.08619126	-4.9643774	2.6204538
59573338115000	0.6727707	-5.324106	1.9381063
59573348796000	0.1340753	-5.1648917	1.834557
59573358287000	-0.21906945	-4.040814	2.2541409
59573369059000	-0.55006784	-3.0508115	2.7694929
59573378276000	-0.6428431	-2.4426842	3.2752678
59573389476000	-0.4985925	-1.8956091	3.453636
59573398478000	-0.39683893	-1.0229226	3.5924997
59573418681000	-0.7230489	-0.22325931	3.6104562
59573438701000	-1.6837224	0.23582886	3.9875429
59573458903000	-2.19668	0.62728083	3.365649
59573490306000	-1.4173675	-1.8902222	1.0773908
59573498057000	-0.45789108	-4.322731	-1.7711107
59573518046000	-0.2220622	-11.382035	-14.302961
59573551371000	0.7032967	-19.608511	-19.343952
59573569743000	4.140772	-15.078682	-9.592968
59573589457000	-0.45669398	-5.283405	-6.4607534
59573609446000	-0.47225627	-2.184709	-4.0898952
59573649546000	-1.9183542	-11.420342	-2.8269536
59573671153000	-4.8309007	-18.713081	-11.844714
59573689677000	-4.994903	-17.252018	7.6093717
59573718943000	-4.421492	-4.875193	5.7095723
59573738994000	2.1374235	-6.2464724	7.0126166
59573758983000	7.1544733	-10.159795	9.780912
59573789348000	6.449381	-15.227123	-2.706645
59573798686000	5.0134583	-15.898098	-3.13401
59573809764000	4.1862617	-14.004284	-0.7044938
59573818705000	2.540248	-11.370064	1.1791444
59573829356000	0.5315128	-9.086594	1.1031284
59573838725000	-1.3850456	-7.703344	0.52253455
59573850993000	-2.5420437	-7.123947	0.3513491
59573858714000	-2.9017725	-7.4866686	0.029927522
59573869487000	-2.5899277	-8.642469	-0.45968673
59573878733000	-1.8848352	-9.585187	-0.6823475
59573889476000	-1.0414777	-9.7007065	0.14844051
59573898784000	0.033518825	-9.458893	0.7823054
59573909465000	1.2485762	-9.332599	0.74399817
59573918834000	1.6573862	-9.362526	0.53929394
59573929850000	0.79846627	-9.196728	0.50158525
59573938823000	-0.3429694	-8.750209	0.6039374
59573949534000	-0.95468795	-7.8248496	1.5987282
59573958873000	-1.5346833	-7.5207863	2.5905263
59573969523000	-2.2415714	-7.9625163	1.4508862
59573978862000	-2.819771	-8.59698	-1.6861166
59573989879000	-2.6330233	-8.850765	-3.3716345
59573998881000	-2.1170728	-9.094376	-2.6737247
59574009593000	-0.79607207	-9.377489	-1.83336
59574018931000	1.389834	-9.123704	-1.3940239
59574031169000	3.8247373	-9.2625675	-0.04189853
59574038920000	5.7017913	-9.884461	2.2146366
59574049693000	5.4498014	-9.907207	2.700061
59574058940000	2.823961	-10.354323	0.89603
59574071421000	-0.516549	-11.4598465	-0.31902736
59574080180000	-1.5532384	-12.029068	-0.9624691
59574093730000	0.3184288	-11.812991	-1.0402806
59574098979000	3.0986955	-11.621455	0.81402856
59574112651000	5.151125	-11.670536	2.8269536
59574119029000	5.769428	-11.674128	3.0029275
59574132853000	4.590882	-11.842918	0.9600749
59574139018000	2.1284454	-12.817359	-2.0518308
59574153270000	0.78170687	-15.148713	-3.4542346
59574159068000	1.2132617	-16.960526	-3.004723
59574174388000	1.8860323	-16.330252	-3.004723
59574178965000	2.4229321	-15.118187	-3.9618053
59574191813000	1.4772224	-14.508264	-5.1984105
59574200023000	-0.29029694	-14.781202	-5.6904187
59574212077000	-1.5496471	-14.471153	-4.5256395
59574219554000	-1.9626468	-12.734758	-1.7130513
59574231334000	-2.1667526	-11.743559	0.5590461
59574241008000	-2.3882163	-12.079945	2.3241713
59574252330000	-2.8886044	-13.133393	4.3329067
59574259166000	-2.409764	-14.725537	5.981314
59574272227000	-2.0901382	-16.878523	4.5902834
59574279643000	-1.6478093	-18.656218	2.0817583
59574293742000	-0.7026982	-19.009363	-0.36870706
59574299113000	0.29628247	-17.696144	-1.2671312
59574311656000	0.65242	-15.941194	-0.41299978
59574320598000	-0.3489549	-15.796943	0.7116765
59574332347000	-1.6274586	-16.457743	0.5770026
59574339213000	-2.1853075	-16.673819	-1.1019313
59574350291000	-3.4159272	-16.13632	-1.4664485
59574359263000	-4.244321	-14.929644	0.05267244
59574369944000	-4.933253	-13.61403	2.1254525
59574379283000	-4.285621	-11.485584	2.906561
59574391520000	-2.6473885	-9.113529	2.5151088
59574399302000	-1.0600328	-6.9288197	2.1853075
59574410136000	0.1328782	-5.2421045	2.0817583
59574419322000	1.0001777	-4.711789	1.5107412
59574429911000	0.17058687	-5.157709	1.2623428
59574439311000	-0.3878607	-4.657321	1.7351977
59574450084000	-0.6434417	-3.3022027	2.6611552
59574459391000	-1.1085154	-2.3199813	3.309984
59574470378000	-1.2318168	-1.5263035	3.8935704
59574479380000	-1.1905168	-0.65062433	3.9085343
59574490123000	-1.2078748	-0.011971008	3.727772
59574499400000	-1.2515689	0.3238158	3.426701
59574510112000	-1.4490906	0.2908955	3.2154129
59574519450000	-1.602918	0.088585466	2.8628666
59574530497000	-1.311424	-0.062249243	2.4911668
59574539470000	-0.89782566	-0.36870706	1.8962077
59574549418000	-0.6721721	-0.6895301	1.2940661
59574558787000	-0.90261406	-1.0187328	0.7320272
59574571086000	-1.3210008	-1.7812861	-0.54887074
59574578776000	-1.4149733	-3.6212301	-3.705027
59574589549000	-1.5729905	-6.8623805	-9.655815
59574598857000	-0.53450555	-10.981605	-16.208746
59574609507000	1.8046296	-16.984467	-19.5307
59574618876000	1.8267759	-19.608511	-17.727867
59574631785000	2.3397336	-19.608511	-15.553332
59574638896000	5.85921	-19.608511	-12.435484
59574649852000	4.663905	-15.632341	-8.928576
59574658915000	2.6126726	-8.828619	-8.487445
59574669566000	0.46686932	-5.825093	-6.9767036
59574678935000	-0.093972415	-4.860828	-6.7564373
59574689555000	-0.074818805	-3.9803603	-6.1076083
59574698954000	-0.53689975	-2.9149406	-4.312556
59574710032000	-4.231153	-5.3923407	-1.2826935
59574718913000	-4.829105	-10.103531	1.9632454
59574729655000	-4.164714	-12.838308	1.7597382
59574738994000	-5.502474	-14.387955	-3.46022
59574751963000	-7.839813	-17.77994	-10.173561
59574759654000	-8.998607	-19.608511	-14.172477
59574770396000	-8.271967	-19.608511	-4.2479124
59574779612000	-2.7401638	-15.444397	8.438962
59574790385000	0.31304187	-6.6588736	9.983223
59574799693000	1.1091139	-2.3690627	9.558251
59574810466000	1.7040731	-1.9297266	9.2547865
59574819712000	3.1896753	-3.8863878	10.956466
59574830760000	6.1740475	-6.755839	12.301409
59574839732000	7.4465656	-10.284892	10.965444
59574850474000	7.2071457	-12.720992	6.799533
59574859752000	6.8719573	-14.389153	0.8475474
59574870433000	5.504868	-17.184383	-3.7666779
59574879741000	3.684078	-18.107347	-3.095703
59574890849000	2.991555	-15.687408	0.94211835
59574899791000	1.3251907	-12.372037	3.731962
59574910441000	-0.6135142	-9.715072	3.0292637
59574919810000	-2.7234044	-8.2833395	1.0354922
59574932078000	-4.1461587	-7.8146744	-0.24301147
59574939830000	-4.8877625	-7.6482773	-0.260968
59574950602000	-4.900931	-8.787319	-0.8062474
59574959849000	-3.9366663	-10.102933	-1.6651673
59574970530000	-2.2200236	-10.047866	-1.1528081
59574979869000	-0.33997664	-9.142858	0.7194576
59574990580000	1.0241197	-8.499416	1.8561049
59574999919000	1.7034745	-8.385093	1.62686
59575011027000	1.6825253	-8.33242	0.86251116
59575019999000	0.95109665	-7.8517847	0.52373165
59575030681000	0.077811554	-7.1580644	1.1162965
59575040019000	-1.0875661	-7.1125746	1.115698
59575050700000	-2.4450784	-7.7506294	-0.83497787
59575060222000	-2.420538	-8.364742	-1.7788919
59575071269000	-1.6759412	-9.007586	-0.38726214
59575080272000	-0.7811083	-9.772532	0.74399817
59575091014000	-0.02633622	-9.865308	1.1378443
59575100444000	0.34596214	-9.075222	0.18614918
59575112681000	1.0049661	-9.35235	-1.7633295
59575120616000	1.8076223	-11.343129	-2.396596
59575131389000	2.0979192	-12.345102	-1.6873137
59575140635000	1.2802993	-12.129624	-0.7739257
59575151500000	0.46926352	-11.947066	-0.5141548
59575160838000	1.6460136	-11.934497	-0.89543146
59575173777000	4.280234	-12.2080345	-0.5470751
59575181041000	6.1740475	-12.558785	0.074818805
59575192027000	5.9663506	-12.814366	-0.23702596
59575201060000	4.1718965	-13.184869	-1.4772224
59575220225000	2.3870192	-13.703214	-3.5913026
59575230845000	2.291251	-15.051149	-4.6202106
59575240245000	3.7912183	-16.606781	-3.3369186
59575251262000	4.0258503	-15.419856	-2.4774003
59575260264000	2.7688942	-13.826515	-3.3680432
59575270915000	1.1857284	-12.888586	-4.729147
59575280284000	0.032920275	-12.162544	-5.0212393
59575292521000	0.14724341	-12.221203	-3.256713
59575300303000	0.011971008	-13.445238	-1.3198037
59575311015000	-1.614889	-15.179238	2.3732524
59575320323000	-2.3870192	-16.308105	7.489063
59575330912000	-2.9358897	-18.294096	8.361151
59575340342000	-3.5075054	-19.608511	5.8238955
59575350962000	-2.5396495	-19.608511	1.6771383
59575360392000	-1.0869676	-19.375078	-1.9542671
59575371348000	-0.4866215	-17.885284	-2.5755625
59575380381000	-1.2611457	-17.51598	-0.705691
59575391032000	-2.831742	-18.131887	0.3561375
59575400401000	-3.300407	-17.793707	-0.110133275
59575411052000	-3.472191	-17.178995	-0.82121116
59575420421000	-3.857059	-17.35856	-0.54767364
59575431437000	-4.1282024	-16.566679	1.0899603
59575440440000	-4.245518	-14.635157	2.9011738
59575451060000	-2.4301147	-11.876437	3.7960067
59575460429000	0.008379706	-8.6813755	3.678691
59575472667000	1.4215573	-7.0784574	3.342904
59575480479000	1.7280151	-6.8683662	2.7647045
59575491221000	1.1109096	-7.3310456	1.6053122
59575500468000	0.41060558	-6.9988503	1.1115081
59575511119000	-0.004189853	-5.5341973	2.3116016
59575520488000	-0.5979519	-3.8307228	3.7301662
59575531108000	-0.80325466	-2.2589293	4.4394484
59575540507000	-1.1653777	-1.0779893	4.927267
59575551494000	-1.283292	0.08020575	5.044583
59575560527000	-1.2629414	0.9295488	4.911106
59575571208000	-1.1324574	1.3688848	4.6166196
59575580546000	-1.2126632	1.4568717	4.3664255
59575591227000	-1.0965444	1.2749124	4.051588
59575600566000	-1.7914615	1.0690111	3.590704
59575611613000	-2.949058	1.2665327	2.815581
59575620585000	-3.390788	1.4802152	2.195483
59575631236000	-1.7908629	0.14604631	0.83737206
59575640605000	-0.44592008	-2.6539726	-1.1504139
59575652812000	0.2825158	-5.243302	-3.2489316
59575660624000	-0.0796072	-8.286931	-5.471948
59575671367000	0.20051439	-12.580333	-10.892421
59575680644000	2.3529017	-18.37909	-17.70213
59575691325000	0.22984336	-19.608511	-19.608511
59575700663000	0.6326678	-19.608511	-19.483416
59575713542000	4.52145	-19.608511	-13.45721
59575720652000	3.3022027	-16.924013	-7.477092
59575731669000	1.1384429	-13.210607	-5.929839
59575740702000	-0.54647654	-13.624205	-5.2846017
59575751323000	-1.0905589	-12.707824	-5.263054
59575760722000	-2.132635	-12.795213	-9.3260145
59575771403000	-2.3050177	-16.38472	-13.561955
59575780742000	-1.3054385	-19.466057	-13.897143
59575791789000	-2.1110873	-18.746	-10.933122
59575800761000	-3.0699651	-12.914324	3.2130187
59575811412000	-5.389348	-3.0178912	18.831593
59575820781000	-7.671621	2.3391352	18.153437
59575833018000	-8.010401	2.131438	15.15829
59575840770000	-5.3875523	1.1001357	12.454638
59575851573000	-2.5001452	-1.7890673	3.8367083
59575860820000	-0.60812724	-8.157643	0.5650316
59575871501000	1.6585833	-14.181456	5.6126075
59575880839000	2.5001452	-18.252197	7.8709383
59575891490000	2.7030537	-19.608511	2.5486276
59575900859000	4.4262805	-19.608511	-4.485537
59575911876000	5.7706246	-17.984047	-5.1762643
59575920878000	4.180875	-13.032837	-2.741361
59575931559000	2.1649568	-8.362348	-0.51834464
59575940898000	1.3102269	-5.342661	0.35075054
59575951518000	1.0953473	-3.6529531	0.038905777
59575960887000	0.9888053	-3.2752678	-0.08499416
59575971934000	0.5141548	-4.437653	0.16400282
59575980906000	0.7224504	-6.311714	0.037708677
59575991587000	1.1552023	-9.086594	0.3854665
59576000956000	1.7794905	-11.749545	0.6739678
59576013011000	3.098097	-12.879608	0.74758947
59576020854000	4.2622776	-12.092514	0.7990648
59576031596000	4.1958385	-9.881469	0.61650693
59576040843000	3.3039982	-8.255806	-0.362123
59576051494000	1.8608932	-8.083424	-0.74758947
59576060862000	0.439336	-8.289924	-0.029927522
59576071544000	-0.6811504	-8.345589	0.6488287
59576080882000	-1.1953052	-8.559271	1.074398
59576091899000	-1.6543933	-8.652645	0.6757634
59576100901000	-2.3828292	-8.310274	-0.44532153
59576111583000	-3.3213563	-7.663241	-1.5155296
59576120921000	-4.300585	-7.6608467	-2.356493
59576131572000	-4.2515035	-8.0445175	-1.8968062
59576140941000	-3.4009635	-8.445546	0.2220622
59576152049000	-1.5209166	-9.202713	1.4700398
59576160960000	1.0283096	-9.753978	1.5388732
59576171580000	3.436278	-9.552865	1.7423803
59576180980000	4.630386	-9.966463	1.9381063
59576195414000	4.382586	-11.427525	1.6639702
59576200999000	2.9466639	-12.272678	0.6428431
59576211711000	0.1364695	-12.865841	-1.4209588
59576221019000	-2.3834279	-13.329718	-1.9081788
59576231700000	-1.7561469	-13.405135	-0.23822308
59576241038000	1.9656396	-13.874997	2.123657
59576251689000	5.6748567	-14.224551	3.0723593
59576261058000	6.839037	-14.032416	1.5526398
59576272075000	5.9023056	-13.607446	-1.0480618
59576281077000	4.5286326	-13.997701	-2.28347
59576291758000	3.9133227	-14.879964	-2.0614076
59576301097000	3.482965	-15.0822735	-2.1733365
59576311717000	3.1010897	-15.227721	-3.1160536
59576321116000	2.0913353	-15.638327	-3.6601357
59576332164000	0.8146271	-15.031996	-3.067571
59576341136000	-0.039504327	-13.511079	-3.0897174
59576351848000	-1.4921862	-12.673707	-4.38917
59576361155000	-3.3638535	-12.377424	-3.5619736
59576373393000	-4.374805	-12.645575	-2.7269957
59576381175000	-4.895544	-13.526641	-0.7469909
59576392009000	-4.091092	-14.84405	6.703765
59576401194000	-3.0334535	-16.74744	10.845135
59576411845000	-3.3500867	-18.35814	8.111555
59576421214000	-2.8640637	-18.485033	2.4959552
59576431926000	-1.3868413	-17.34659	-2.9083564
59576441233000	-0.18794483	-15.8304615	-4.471172
59576452250000	-0.34237084	-15.401899	-2.2373815
59576461253000	-1.910573	-16.39669	-0.23283611
59576471965000	-2.8000188	-16.870144	0.02873042
59576481273000	-3.4859576	-16.548124	-0.6865373
59576492015000	-4.514866	-16.358383	-0.56084174
59576501292000	-4.413112	-14.782998	1.168969
59576512400000	-2.9406781	-12.00752	2.730587
59576521342000	-1.8171991	-8.7538	3.0454245
59576532023000	0.30406362	-6.154894	2.3235726
59576541362000	1.4520833	-4.8003745	2.570774
59576553630000	0.66139823	-4.596867	2.5127146
59576561351000	-0.3333926	-4.5196543	2.1811178
59576572093000	-0.6787562	-3.915717	2.1643584
59576581370000	-1.0384849	-3.2136173	2.7509377
59576592051000	-1.1869255	-2.1667526	3.389591
59576601420000	-1.2719196	-1.2569559	3.8067808
59576612071000	-1.436521	-0.34476504	4.009091
59576621409000	-1.6418238	0.5303157	3.9402575
59576632487000	-1.7375919	1.1534066	3.679888
59576641459000	-1.7286136	1.1067197	3.5691562
59576652140000	-1.5658079	0.7428011	3.3740287
59576661479000	-1.2509704	0.16819267	2.9586349
59576672099000	-1.021127	-0.31603462	2.4193408
59576681498000	-0.9151836	-0.7835025	1.8986019
59576692576000	-1.0947487	-1.7256209	1.3144168
59576701518000	-1.2725182	-3.4261026	0.38367084
59576712138000	-1.09834	-6.5098343	-2.5151088
59576721537000	0.108936176	-9.809045	-7.7877398
59576733775000	1.7884687	-12.908937	-13.807362
59576741557000	3.2028434	-17.202938	-19.387049
59576754557000	0.4225766	-19.608511	-19.608511
59576761607000	-1.163582	-19.608511	-18.933945
59576772441000	2.8658595	-19.577986	-14.498687
59576781749000	2.8215668	-15.648502	-11.36767
59576792460000	0.08020575	-10.787076	-8.942942
59576801982000	-1.7848774	-8.573038	-6.2644286
59576812938000	-2.3157916	-9.482236	-4.661511
59576822032000	-0.98581254	-10.811018	-3.115455
59576832835000	-0.7787141	-9.755774	-2.2744915
59576842173000	-2.0308816	-10.159795	-5.5443726
59576852855000	-3.7750576	-13.997102	-9.381081
59576862407000	-4.961983	-16.86356	-11.156382
59576873362000	-5.120599	-16.287754	-9.631873
59576882426000	-3.6343982	-14.104841	0.7128736
59576893260000	-2.918532	-9.288305	13.450625
59576902598000	-3.8271315	-4.26946	15.942989
59576914836000	-3.8893807	-2.1122844	11.740566
59576932505000	-2.9646204	-2.0991163	6.657078
59576941752000	-1.5981296	-3.5793316	1.2503718
59576952464000	-0.587178	-7.548918	-1.0995371
59576961741000	2.9346926	-11.033679	4.056975
59576972453000	5.8544216	-14.050373	8.769362
59576981761000	6.3242836	-15.737686	6.5122285
59576992778000	5.961562	-15.953164	1.2419921
59577002147000	5.3259015	-15.220539	-2.5420437
59577012553000	4.0132804	-13.371616	-2.100912
59577021922000	2.3983915	-10.796054	-0.29209262
59577032573000	0.8379706	-8.616134	0.6793547
59577041942000	-0.41958386	-7.401076	0.90859956
59577052958000	-1.0899603	-6.923433	0.79726917
59577061931000	-1.376666	-7.1939774	0.20350714
59577072612000	-1.4095862	-8.176199	0.3489549
59577081950000	-1.103727	-9.252991	0.6865373
59577094218000	-0.49081135	-9.89344	0.79128367
59577101970000	0.20171149	-9.85214	0.61291564
59577112773000	0.7625532	-9.80665	0.60214174
59577122020000	1.4065934	-9.214086	0.55605334
59577132701000	1.5275006	-8.658031	0.08559271
59577142070000	1.3239936	-8.325238	0.26874915
59577152690000	0.97025025	-7.976283	0.45968673
59577162028000	0.6667852	-7.6943655	1.0019734
59577173014000	0.32202014	-7.6129627	1.543063
59577182048000	-0.19393034	-7.921815	0.9163807
59577192729000	-1.2569559	-8.704719	-1.0049661
59577202067000	-2.27928	-9.309255	-2.4498668
59577212687000	-2.0602105	-9.38168	-2.3139958
59577222148000	-0.9959879	-9.478046	-0.98102415
59577233165000	0.47285482	-9.667787	0.020949265
59577242167000	1.946486	-9.260772	0.7727286
59577252787000	3.056797	-8.827422	0.9271546
59577262126000	3.7954082	-9.609129	0.55126494
59577274394000	3.9228995	-10.530297	0.45310268
59577282145000	2.5803509	-10.937312	0.6159084
59577294932000	-0.3764882	-11.654974	0.60094464
59577302165000	-2.6809072	-12.370241	-0.1436521
59577312816000	-1.7585411	-12.432491	-0.8750807
59577322215000	1.3634979	-12.552799	0.094570965
59577332896000	4.324527	-12.643181	2.416348
59577342204000	5.9052987	-12.341511	3.05141
59577353251000	5.559935	-12.081141	1.6561891
59577362223000	3.4638114	-12.134413	-0.89423436
59577372905000	1.6220716	-12.922105	-3.5511997
59577382274000	1.8746599	-15.308526	-3.940856
59577392924000	2.630629	-16.604387	-3.3303347
59577402293000	2.48159	-15.771205	-3.763685
59577413340000	1.7866731	-14.956578	-4.292804
59577422282000	0.4818331	-13.606847	-5.083489
59577432902000	-0.8379706	-12.735956	-6.541558
59577442332000	-1.7238252	-11.965622	-4.0318356
59577454570000	-1.5813702	-11.406575	-0.39983168
59577462352000	-1.541866	-11.91295	2.4109612
59577473094000	-2.48578	-13.300389	6.0770826
59577482341000	-2.6880898	-15.190611	8.901043
59577492991000	-3.044826	-17.32205	7.08145
59577502452000	-2.8778305	-18.968063	3.1022868
59577512919000	-1.5149311	-19.372683	-1.2312182
59577522258000	0.08559271	-18.045097	-3.4614172
59577533275000	1.1755531	-16.080656	-2.5438392
59577542277000	0.6895301	-15.634137	-0.37828386
59577552989000	-0.6266823	-16.746841	0.25019407
59577562327000	-1.1911154	-17.405846	-0.338181
59577572978000	-1.9093759	-16.661848	-0.81881696
59577582347000	-3.17531	-15.685014	0.4261679
59577593364000	-3.8043866	-14.041993	3.317765
59577602366000	-3.345897	-11.256938	4.080917
59577613017000	-2.5671828	-8.444948	2.896984
59577622386000	-1.4173675	-6.7624226	2.1362264
59577634593000	-0.28311434	-5.607819	2.0093338
59577642405000	0.40402153	-5.321712	1.8016368
59577653117000	-0.05626374	-5.525219	1.8555063
59577662425000	-0.39743748	-5.131373	2.034473
59577673076000	-0.3585317	-3.9953241	2.9364884
59577682475000	-0.6464345	-2.7928362	3.8301241
59577693034000	-1.0283096	-1.8836381	4.1317935
59577702494000	-1.3174095	-0.86011696	4.349666
59577713389000	-1.5215151	-0.036511578	4.1383777
59577722483000	-1.4407109	0.5009867	4.0719385
59577733104000	-1.5921441	0.44711718	3.6822822
59577742473000	-1.6208745	0.39205053	3.4823663
59577753154000	-1.7483658	0.16938977	3.402759
59577762492000	-1.7543513	-0.061650693	2.9652188
59577773509000	-2.0099323	-0.08619126	2.2415714
59577782542000	-2.4474726	-0.4297592	1.6921021
59577793193000	-1.4012065	-1.9686323	0.6434417
59577802531000	-0.18375498	-4.2239704	-1.34195
59577814738000	0.15682021	-7.116166	-5.9280434
59577822520000	-0.28790274	-12.05301	-14.141951
59577833262000	2.7222073	-18.5401	-19.548058
59577842570000	3.2992098	-19.608511	-19.375675
59577855204000	0.9044097	-19.608511	-19.608511
59577862559000	6.367978	-19.608511	-17.079039
59577873240000	3.9504328	-14.528614	-12.580333
59577882579000	1.1234791	-7.306505	-10.196306
59577893626000	0.6901286	-5.2558713	-6.4008985
59577902629000	0.2172738	-5.0942626	-2.022502
59577913279000	-2.6120741	-6.054936	0.42317516
59577922648000	-2.4061728	-8.451532	0.86490536
59577933299000	-0.80205756	-9.340978	1.0845734
59577942668000	-1.6621746	-9.954493	-2.12246
59577953715000	-3.2680852	-12.914923	-8.508394
59577962657000	-2.7497406	-16.633118	-13.116634
59577973338000	-2.492364	-18.80885	-13.345879
59577982676000	-2.7431567	-18.41201	-3.2130187
59577995005000	-3.2914288	-14.77402	8.850765
59578003032000	-5.751471	-9.607931	12.272678
59578013530000	-6.2823853	-4.663905	12.217611
59578022837000	-5.131373	-1.3126211	9.426571
59578033519000	-5.9920883	-1.0259154	2.8173769
59578042857000	-5.474941	-3.5571852	-2.2613235
59578053599000	-0.38845924	-7.1227503	2.0536265
59578062846000	5.7790046	-10.019135	9.552865
59578073924000	9.159617	-12.277467	11.638813
59578082866000	9.109938	-14.592061	6.3967085
59578093577000	7.795521	-16.356588	-0.56563014
59578102946000	6.223727	-16.867151	-3.815759
59578113566000	4.9559975	-14.935629	-1.8914193
59578122935000	3.3824084	-11.799823	0.5093664
59578133983000	1.4862007	-9.149442	1.0905589
59578142955000	-0.28550854	-7.397485	0.694917
59578153605000	-1.934515	-6.619968	0.22325931
59578162974000	-2.7778726	-6.7001734	-0.21188685
59578175242000	-3.0663738	-7.314286	-0.34117374
59578182963000	-3.110068	-8.147469	-0.45310268
59578193736000	-2.7748797	-9.045893	-0.6907272
59578203044000	-1.7417817	-9.624691	-0.74639237
59578213664000	-0.2208651	-10.079589	-0.3369839
59578223033000	1.3245921	-9.838373	0.13706805
59578233683000	1.982399	-9.111135	0.7422025
59578243052000	1.899799	-8.455123	0.74998367
59578254069000	1.6705543	-7.8733325	0.97025025
59578263041000	1.1438298	-7.3986816	1.1025299
59578273692000	0.33638534	-7.1580644	1.3910311
59578283061000	-0.8583213	-7.6027875	0.3573346
59578293773000	-2.6192567	-8.555081	-1.7010803
59578303111000	-3.2992098	-9.23264	-3.084929
59578314128000	-2.724003	-9.3499565	-1.6609775
59578323130000	-1.4520833	-9.504382	0.3489549
59578333781000	0.599149	-9.272144	1.2126632
59578343150000	2.8473043	-8.774749	1.1593921
59578355418000	4.548983	-9.435549	0.8948329
59578363139000	5.3157263	-11.078569	0.85772276
59578373912000	4.4927197	-11.702259	0.19991584
59578383159000	1.0450691	-12.19307	-0.9498995
59578395793000	-2.3942018	-12.797606	-1.3192052
59578403209000	-2.5779567	-12.883798	-0.7553706
59578413829000	0.56084174	-13.047801	0.2681506
59578423228000	4.201824	-13.216592	1.7070658
59578434184000	6.157887	-13.181277	1.8866309
59578443217000	6.1195793	-13.207614	0.7781156
59578453929000	5.277419	-14.3418665	-0.44711718
59578463450000	4.3424835	-15.629349	-1.1216835
59578474070000	3.3566709	-15.573684	-2.3451207
59578483439000	3.198055	-15.658079	-3.6864722
59578494670000	1.9782091	-16.089634	-3.8127663
59578503672000	0.4973954	-16.077065	-4.3861775
59578514262000	-0.88046765	-15.744869	-6.0148335
59578523814000	-2.4127567	-14.342465	-5.504868
59578536052000	-3.4530375	-12.370241	-3.040636
59578543803000	-4.221576	-11.312603	-1.3186066
59578554698000	-4.518457	-11.011532	1.9776106
59578564006000	-3.429694	-12.316372	7.6811976
59578574687000	-2.6384103	-14.760254	9.141661
59578584239000	-2.954445	-17.40405	6.307524
59578594889000	-2.1763294	-18.97764	1.7932571
59578604228000	-0.23942018	-18.408419	-2.4552538
59578623362000	1.2419921	-16.101006	-3.9630024
59578634013000	1.0073603	-14.326903	-2.15957
59578643382000	-0.62847793	-14.711172	0.025139118
59578654094000	-1.7992426	-16.016611	0.4997896
59578663401000	-2.6964695	-16.266207	0.090381116
59578674449000	-4.408922	-16.089634	-0.7751228
59578683421000	-5.4049106	-15.5515375	-0.025139118
59578694102000	-4.8799815	-13.327922	2.0733786
59578703441000	-3.0172927	-10.123882	2.5312698
59578715709000	-0.9139865	-7.1987658	2.5037365
59578723460000	0.40102878	-5.2863975	2.5181017
59578734233000	1.6777369	-4.0001125	2.1458032
59578743480000	1.3275849	-4.1024647	1.7274165
59578754161000	0.10235212	-4.317344	1.1605892
59578763499000	-0.62608373	-3.9133227	1.4119805
59578774180000	-0.9187749	-3.1992521	2.5701754
59578783549000	-1.1821371	-2.0931308	3.5727475
59578794474000	-1.5783775	-1.1127052	3.8905778
59578803538000	-1.6711528	-0.5093664	3.9025488
59578814219000	-1.5592239	0.23163901	4.0904937
59578823558000	-1.2449849	0.5638345	3.9474401
59578834239000	-1.0462662	0.45848963	3.8540661
59578843577000	-1.0007763	0.2088941	3.7283707
59578854625000	-1.4413095	0.033518825	3.3572693
59578863597000	-1.4383167	-0.039504327	2.5923219
59578874217000	-1.5765818	-0.4381389	1.7818847
59578883616000	-1.1139023	-1.407192	0.98222125
59578895854000	0.14664486	-3.2866404	-0.5141548
59578903636000	0.8972271	-5.9501896	-3.477578
59578914348000	1.1432313	-9.800066	-8.01878
59578923655000	2.2840683	-15.699978	-16.358982
59578934306000	4.9422307	-19.608511	-19.608511
59578943705000	2.4426842	-19.608511	-19.523518
59578956340000	5.0254292	-19.608511	-16.238075
59578963725000	5.6616883	-18.19234	-13.738528
59578974742000	2.8149827	-10.45907	-10.9582615
59578983744000	1.4323312	-6.3787518	-7.7129207
59578994365000	-0.14784196	-6.459556	-3.3141737
59579003733000	-2.9652188	-9.566033	-1.0324994
59579014384000	-3.1824925	-12.151771	-1.5717934
59579024211000	-2.4480712	-11.77229	-1.4856021
59579034251000	-3.0352492	-12.518084	-4.1258082
59579043193000	-4.0863037	-16.084846	-8.653842
59579053813000	-4.0372224	-19.011158	-12.196063
59579063182000	-3.9001546	-17.472883	-11.23958
59579075480000	-2.5192988	-14.528016	-3.354875
59579083201000	-1.9955671	-10.311228	9.415796
59579093974000	-4.481347	-5.213374	16.515203
59579103221000	-6.25964	-1.6621746	13.619416
59579113902000	-5.7598505	-0.18076223	8.620323
59579123240000	-5.065532	-0.6410475	3.2279825
59579133921000	-3.8744168	-2.979584	-3.306991
59579143290000	0.40162733	-7.1484876	-0.5506664
59579154307000	7.32925	-11.101913	9.173384
59579163279000	10.159795	-15.346833	11.927913
59579173961000	8.5700445	-18.392258	5.7825956
59579183329000	7.16405	-18.297686	-1.1246762
59579194011000	5.273828	-16.3925	-3.9815574
59579203349000	3.05141	-12.988544	-1.9710265
59579214366000	0.7685388	-9.664195	0.1921347
59579223338000	-0.919972	-7.5926123	0.6512229
59579233958000	-2.1416135	-6.2979474	0.676362
59579244059000	-2.7700913	-6.025607	0.30047232
59579256327000	-2.670732	-6.371569	0.52253455
59579264079000	-2.047641	-7.575853	0.80804306
59579274821000	-1.1839328	-9.396045	0.91578215
59579284129000	-0.5955577	-10.933721	1.0576386
59579294780000	0.17058687	-11.358691	0.76315176
59579304118000	1.2910733	-11.166556	0.4429273
59579314769000	1.9267339	-10.01734	0.108936176
59579324138000	1.6328455	-8.520366	-0.025139118
59579335154000	0.6781576	-7.7147164	-0.020949265
59579344157000	0.17357962	-7.5285673	0.6512229
59579354808000	0.032920275	-7.3633676	1.1827357
59579364177000	-0.18555063	-7.4681134	1.2551602
59579374858000	-0.6290765	-8.222287	0.736217
59579384196000	-1.2892777	-9.162011	-1.0426749
59579395213000	-1.7950528	-9.387066	-2.4492683
59579404246000	-1.7052702	-9.320028	-2.4666264
59579414866000	-0.9995792	-9.69951	-1.2246342
59579424235000	0.43394905	-9.77792	-0.64583594
59579436686000	2.3241713	-9.126099	-0.42317516
59579444285000	4.2461166	-8.94773	0.01616086
59579455180000	5.4982843	-10.142437	1.1935096
59579464457000	5.415684	-10.979211	1.87047
59579476054000	3.1717186	-11.101913	0.59136784
59579484538000	-0.736217	-11.35929	-1.4478935
59579496898000	-2.6755204	-11.582549	-2.1122844
59579504283000	-1.0552444	-12.185888	-1.1498153
59579515330000	2.1613655	-12.794614	1.115698
59579524302000	4.823119	-13.149554	2.5779567
59579534953000	6.0519433	-13.30398	1.5987282
59579544383000	5.931036	-13.566744	-0.23283611
59579555034000	5.365406	-14.582484	-1.4227544
59579564372000	4.3436804	-15.179238	-2.404377
59579575389000	3.851672	-15.05893	-2.939481
59579584391000	3.733159	-15.364191	-3.2632968
59579595012000	2.0745757	-15.454572	-3.9713821
59579604411000	-0.5554548	-15.659276	-4.5256395
59579616679000	-2.944868	-14.633361	-2.896984
59579624431000	-4.827309	-13.31655	-1.0115502
59579635142000	-6.579266	-13.240534	-0.5093664
59579644450000	-6.7588315	-13.857041	1.5502456
59579655131000	-4.701015	-14.766837	7.591415
59579664470000	-3.4596214	-16.45056	7.717709
59579675120000	-3.352481	-18.2917	3.417723
59579684489000	-2.2942438	-18.838776	-1.6873137
59579695506000	-0.50397944	-17.593792	-4.6034513
59579704509000	0.42317516	-15.9256315	-3.8588545
59579715190000	-0.44232875	-15.67005	-0.83737206
59579724528000	-1.9991584	-16.854582	0.7206547
59579735209000	-2.6180596	-17.325043	0.090979666
59579744548000	-3.5248635	-16.106993	-0.3298013
59579755595000	-4.1533413	-14.671069	0.2220622
59579764567000	-4.469376	-13.22138	1.9482816
59579775218000	-4.276643	-10.74398	3.41892
59579784587000	-2.380435	-8.325836	2.8616695
59579796855000	-0.931943	-6.5744777	2.3750482
59579804606000	0.97982705	-4.923077	2.5767596
59579815379000	1.3371617	-4.4741645	2.5127146
59579824626000	0.095169514	-4.7560816	1.8004397
59579835307000	-0.60693014	-4.357447	1.780089
59579844645000	-0.7649474	-3.1872811	2.8532898
59579855296000	-0.9816227	-2.2319946	3.6499605
59579864665000	-1.1917139	-1.4305356	3.9989154
59579875621000	-1.3808558	-0.46387658	4.1539397
59579884684000	-1.3461399	0.33518824	4.313753
59579895335000	-1.1893197	0.87089086	4.293402
59579904704000	-1.1833342	1.0366893	4.0156746
59579915385000	-1.0708067	0.98461545	3.9091327
59579924723000	-1.0420763	0.6799533	3.6601357
59579935771000	-1.2749124	0.39863458	3.2734723
59579944743000	-1.1725603	-0.01616086	2.6078842
59579955424000	-0.9660604	-1.0576386	1.7040731
59579964763000	-0.5177461	-2.843713	-0.39025488
59579976970000	-0.41718966	-5.6527104	-4.490924
59579984782000	-0.5955577	-9.623494	-10.92594
59579995494000	1.4305356	-15.706562	-18.574816
59580004771000	4.3897686	-19.608511	-19.608511
59580017283000	0.86011696	-19.608511	-19.560627
59580024669000	5.74369	-19.608511	-16.275784
59580035319000	6.2985463	-18.29589	-12.7257805
59580044749000	2.8652608	-10.765528	-10.341156
59580055705000	0.9840169	-6.5840545	-7.732673
59580064708000	-0.5919664	-5.6000376	-4.322731
59580075358000	-3.6739025	-8.297106	-2.3026235
59580084727000	-3.3399115	-10.829573	-0.81163436
59580095378000	-2.569577	-10.510546	0.62608373
59580104747000	-4.091092	-11.662156	-3.165733
59580115825000	-6.0423665	-16.262615	-9.985617
59580124766000	-5.5725045	-18.657415	-15.4845
59580135417000	-4.8524485	-17.392677	-11.158775
59580144786000	-3.1184478	-12.586318	8.465299
59580157237000	-3.2064347	-6.14412	16.28536
59580164958000	-4.31495	-2.3361423	14.188638
59580175731000	-4.417302	-1.0588357	9.894637
59580185191000	-2.9945478	-1.6927006	4.466982
59580195872000	-1.1791444	-5.5748987	0.39324763
59580205211000	1.7884687	-10.390237	3.8618474
59580216075000	4.8225207	-13.837887	9.020754
59580225383000	5.37199	-15.948376	7.8571715
59580236461000	5.407305	-16.284163	2.7383683
59580245585000	5.403115	-15.660473	-2.0326772
59580256297000	4.7261543	-14.131776	-2.8712463
59580265788000	3.3608606	-11.894993	-0.65421563
59580276469000	1.7926586	-9.710283	1.0181342
59580285838000	0.56922144	-8.547898	1.2060791
59580304942000	-0.40102878	-8.066664	0.9983821
59580315562000	-0.5722142	-7.777564	0.43993455
59580324962000	-0.88944596	-8.421006	0.45370123
59580337260000	-1.1055226	-9.053674	0.84216046
59580344981000	-0.8331822	-9.575011	0.7685388
59580355754000	-0.54168814	-9.6767645	0.7188591
59580364970000	-0.38187516	-9.512163	0.7032967
59580375651000	-0.4997896	-9.528923	0.4997896
59580385051000	-0.31663316	-9.603742	0.47046062
59580405040000	0.80205756	-8.582615	0.30166942
59580415995000	0.7799112	-8.228272	0.32441434
59580425090000	0.47225627	-7.541735	0.7290344
59580435740000	-0.038905777	-6.889914	1.4646529
59580455760000	-1.2850877	-7.852383	-0.4878186
59580465098000	-1.448492	-8.6095495	-2.167351
59580476115000	-1.0193313	-8.866327	-1.2120646
59580495799000	0.6937199	-9.467272	-0.52612585
59580505290000	2.5474305	-8.944139	-1.9572599
59580517436000	4.365228	-9.46009	-1.4443022
59580525187000	5.6407394	-10.428544	1.2491747
59580536021000	5.3049526	-10.515334	2.384625
59580545207000	2.6342204	-10.472239	1.4993688
59580555919000	-0.6799533	-11.125855	0.1352724
59580565226000	-2.472612	-11.979987	-1.2868834
59580577861000	-1.5610195	-11.8022175	-1.8590976
59580585276000	1.0606314	-11.68131	-0.58777654
59580596263000	3.5356374	-11.754931	2.1452048
59580605265000	5.149329	-11.720815	3.5637693
59580615886000	5.554548	-11.695675	2.3971944
59580625285000	4.991312	-12.893973	0.0017956513
59580635997000	4.2658687	-15.608399	-1.3628993
59580645305000	3.2615013	-16.474503	-2.2960393
59580656321000	2.6856956	-15.750256	-3.716998
59580665324000	2.5198972	-15.513828	-4.0623617
59580676005000	1.2635399	-15.3605995	-4.1024647
59580685374000	-0.18854338	-15.079281	-5.9861026
59580697551000	-1.3305776	-14.194025	-5.279215
59580705363000	-1.9285295	-12.377424	-1.7842789
59580716136000	-2.694674	-11.703457	1.0468647
59580725383000	-3.5930982	-12.188282	2.9418752
59580736064000	-3.638588	-13.866618	6.475717
59580745402000	-2.7964275	-16.152481	8.302493
59580756083000	-2.5611973	-18.045696	5.905897
59580765452000	-1.4796166	-19.228432	1.4347254
59580776408000	0.43035775	-19.152416	-2.19668
59580785472000	1.8662802	-17.651253	-3.0358477
59580796122000	1.7699136	-16.232687	-1.3431472
59580805461000	0.52073884	-16.658257	0.36631286
59580816142000	-1.146224	-17.881695	0.7254431
59580825480000	-2.5623944	-17.922396	-0.20231004
59580836589000	-3.6206315	-16.718111	-0.05746084
59580845500000	-4.5657425	-15.519216	2.2463598
59580856181000	-5.0547585	-12.970588	4.260482
59580865519000	-4.4681787	-9.106346	3.726575
59580877787000	-3.245939	-6.033388	2.8281507
59580885569000	-0.79248077	-4.3406878	2.1733365
59580896281000	0.04309563	-4.5621514	2.4115596
59580905589000	-0.06464344	-5.1026425	2.2146366
59580916240000	-0.39624038	-5.1864395	2.0757728
59580925578000	-0.5410896	-4.4837413	2.3391352
59580936259000	-0.7158663	-3.1830912	3.1399956
59580945628000	-1.1186907	-2.2361844	3.354875
59580956584000	-1.3491327	-1.22224	3.7193923
59580965648000	-1.3150153	-0.26396075	4.019266
59580976298000	-1.1881226	0.25617957	3.9653966
59580985637000	-1.0408791	0.581791	3.7547069
59580996318000	-1.1857284	0.6859388	3.5817258
59581005687000	-1.3000516	0.7589619	3.6092591
59581016703000	-1.3263878	0.7368156	3.1890767
59581025676000	-1.4514848	0.49799395	2.486977
59581036357000	-1.3958195	0.05686229	1.8249803
59581045726000	-0.29807812	-1.5598224	0.57161564
59581057963000	0.4794389	-3.8815994	-1.7226281
59581065745000	0.46387658	-6.6546836	-5.569512
59581076457000	0.05865794	-10.7673235	-11.13603
59581085765000	1.7369933	-16.894684	-18.718468
59581096446000	3.0819361	-19.608511	-19.608511
59581105754000	0.43035775	-19.608511	-19.597738
59581118449000	7.012018	-19.608511	-17.214909
59581125865000	6.6630635	-17.281347	-12.58572
59581136882000	3.3806129	-10.489596	-9.791088
59581145884000	1.9949685	-7.623737	-6.4541693
59581156504000	1.775899	-5.8544216	-2.882619
59581165904000	-0.05805939	-4.333505	-1.5149311
59581176585000	-2.1691468	-6.3709707	-0.59495914
59581185923000	-1.1324574	-8.500014	1.4347254
59581197001000	-0.98820674	-9.51336	-0.6799533
59581205943000	-3.1190462	-12.956821	-5.517438
59581216594000	-4.1000705	-17.029358	-8.937555
59581225962000	-5.727529	-19.247585	-7.1233487
59581238231000	-8.439561	-18.344374	0.22146365
59581245982000	-8.943541	-14.378378	4.3754034
59581256755000	-7.3687544	-9.355942	6.7881603
59581266002000	-4.5280337	-4.258686	9.190742
59581276652000	-2.8083985	-1.7860745	7.480085
59581286021000	-1.6567876	-3.2315738	4.350863
59581296702000	2.0518308	-6.2464724	6.9006877
59581306041000	6.5631056	-9.229049	10.9187565
59581317057000	7.217321	-12.69705	11.790845
59581326060000	6.459556	-14.797962	7.778163
59581336741000	5.4683566	-15.741278	-0.29328972
59581346080000	4.334702	-16.489466	-4.987122
59581356761000	3.851672	-15.333066	-2.6084828
59581366099000	3.2052376	-12.863447	0.7068881
59581377147000	1.6316484	-10.576984	1.7459716
59581386119000	-0.19033903	-8.598177	1.1312603
59581396800000	-2.0266917	-7.2430587	0.6823475
59581406138000	-3.3207579	-6.6307416	0.350152
59581418376000	-3.4530375	-6.873753	0.26635495
59581426158000	-3.1675289	-8.122928	0.3776853
59581436992000	-2.5611973	-9.43076	0.6039374
59581446177000	-1.6382325	-10.180145	0.36631286
59581456858000	-0.54527944	-10.3770685	0.7392098
59581466227000	1.4143747	-10.120291	1.3670892
59581476878000	2.6473885	-9.551667	1.2617443
59581486216000	2.3948002	-8.74542	0.9331401
59581497294000	1.8082209	-7.65127	0.7870938
59581506205000	1.2132617	-7.008427	1.1546037
59581516856000	0.50278234	-7.2783732	1.364695
59581526164000	-0.78410107	-8.494628	-0.56084174
59581536876000	-1.6525977	-9.432556	-2.791639
59581546214000	-1.3192052	-9.399037	-2.6390088
59581557292000	-0.28191724	-8.902241	-1.1605892
59581566233000	1.0067618	-8.549694	-0.31483752
59581576854000	2.292448	-8.715493	-0.13587095
59581586253000	3.365649	-9.177573	0.47524905
59581598521000	4.4364557	-9.524135	0.8972271
59581606242000	4.985925	-9.667787	0.41000703
59581617045000	3.913921	-9.968858	-0.11192893
59581626262000	1.4951789	-11.154586	0.019752163
59581636973000	-0.83737206	-12.384607	0.24839842
59581646281000	-1.9566613	-12.4785795	-0.59495914
59581658946000	-1.2587515	-11.621455	-0.9283517
59581666301000	0.7661445	-11.223419	0.2741361
59581677317000	2.731784	-11.225813	2.171541
59581686320000	3.7175968	-11.226412	2.6048915
59581697001000	3.357868	-11.341333	0.97982705
59581706340000	2.0452468	-11.717223	-1.5029601
59581717021000	1.845331	-13.361441	-2.7162218
59581726359000	2.4319103	-15.981297	-2.0608091
59581737437000	2.3391352	-16.056114	-2.1386206
59581746409000	1.9434932	-15.7508545	-4.2760444
59581757090000	0.6757634	-14.954184	-5.795165
59581766429000	-1.0109516	-14.097658	-5.803545
59581778636000	-1.4454993	-13.470377	-3.0280666
59581786418000	-0.8122329	-12.340314	-0.34476504
59581797191000	-1.1749545	-12.54023	1.3108255
59581806437000	-2.8113914	-13.843274	4.3023806
59581817119000	-3.38181	-15.294161	7.351396
59581826457000	-3.5739446	-17.0533	5.969343
59581837138000	-3.0322564	-18.815434	2.1930888
59581846476000	-1.2282255	-19.608511	-1.9309237
59581857463000	0.5835867	-19.112314	-3.4051533
59581866679000	1.407192	-17.366941	-2.100912
59581877360000	0.492607	-16.647484	0.18315643
59581886699000	-0.60453594	-17.246632	0.7493851
59581897563000	-1.751957	-17.713501	0.10474633
59581906901000	-2.5791538	-17.149666	-0.46028528
59581917979000	-2.8473043	-15.780184	0.6374562
59581927073000	-3.359065	-14.471153	2.7802668
59581937724000	-4.2862196	-12.668919	4.311359
59581947123000	-3.1741128	-9.718064	3.3566709
59581959544000	-2.2691047	-8.039131	2.284667
59581967296000	-1.2779051	-7.141305	2.5270798
59581978068000	0.17657238	-6.4404025	2.597709
59581987498000	-0.047884032	-6.4002995	2.4768016
59581998149000	-0.12808979	-5.4432178	2.653374
59582007579000	-0.46267948	-3.8444893	3.7337575
59582026713000	-1.0618285	-2.3750482	4.545392
59582037669000	-1.2725182	-0.95947635	5.0517654
59582046733000	-1.1444284	0.17417817	5.0703206
59582057414000	-0.7302315	1.0989386	4.545392
59582066783000	-0.60214174	1.7890673	3.9977183
59582077433000	-0.83856916	2.030283	3.669114
59582086772000	-1.2575544	1.929128	3.513491
59582097819000	-1.9315223	1.8746599	3.4111388
59582106791000	-2.6384103	1.8632874	3.5637693
59582117411000	-2.5486276	0.9020155	2.722806
59582126811000	-1.1575965	-1.3383588	1.4281414
59582139048000	-0.21188685	-3.8642416	-0.29688102
59582146861000	-0.09995792	-6.0345855	-2.380435
59582157573000	-0.34117374	-9.217676	-5.2726307
59582166850000	-1.0570401	-14.223952	-11.498154
59582177501000	1.0103531	-19.28769	-18.466478
59582186869000	0.2220622	-19.608511	-19.608511
59582199412000	2.846706	-19.608511	-19.608511
59582206889000	8.003218	-19.476233	-15.107412
59582217875000	5.6964045	-13.259089	-10.005967
59582226909000	4.824915	-7.617751	-7.3083005
59582237559000	4.088698	-6.1620765	-5.3504424
59582246928000	3.0178912	-4.8901567	-3.567959
59582257548000	-0.11492168	-4.6034513	-1.3676877
59582266948000	-1.9967642	-7.8368206	1.2659341
59582277995000	-0.81522566	-9.323022	2.9454668
59582286967000	-1.7621324	-9.890448	0.3441665
59582297648000	-4.96737	-13.103466	-4.453215
59582306987000	-6.399701	-17.152061	-8.106169
59582319194000	-5.875371	-19.498379	-11.750742
59582327006000	-5.2995653	-19.608511	-5.1660886
59582337779000	-3.2573113	-16.814478	6.2123547
59582347026000	-4.264672	-10.086772	11.088745
59582357707000	-5.1104236	-4.2131963	10.677541
59582367045000	-5.221155	-1.4107834	7.81647
59582377726000	-5.2127757	-1.3796587	4.518457
59582387065000	-3.2453403	-3.481768	2.0350714
59582398082000	1.2174516	-6.8246717	3.6529531
59582407084000	5.8544216	-10.451289	9.035717
59582417765000	7.827842	-13.180679	8.97646
59582427104000	6.909666	-15.168465	3.1561563
59582437785000	5.075109	-16.052525	-1.6340426
59582447123000	4.3077674	-15.089457	-2.4941597
59582458201000	3.555988	-12.8688345	-1.0007763
59582467143000	2.272696	-10.551247	0.3764882
59582477763000	0.9283517	-8.573038	1.252766
59582487132000	0.033518825	-6.968324	1.1785458
59582499431000	-0.79607207	-6.622362	0.6727707
59582507121000	-1.079785	-7.369353	0.79128367
59582517894000	-0.96187055	-8.630499	0.79607207
59582527140000	-0.43394905	-9.894637	1.0576386
59582537822000	-0.037110128	-10.259753	0.66498953
59582547160000	0.58538234	-10.059837	0.46387658
59582557811000	1.0845734	-9.637859	0.60932434
59582567180000	1.3269863	-9.208698	0.019153614
59582578135000	1.2378023	-8.462905	-0.11133038
59582587199000	0.7870938	-7.99005	0.3681085
59582597911000	0.45669398	-7.845799	0.91578215
59582607219000	-0.0700304	-8.000824	0.65421563
59582617900000	-1.1444284	-8.370728	-0.08559271
59582627208000	-2.1763294	-8.750807	-1.0672154
59582638255000	-2.3666685	-8.838794	-1.2336124
59582647258000	-1.8106151	-9.21229	-0.5482722
59582657939000	-0.29388827	-9.694122	-0.2693477
59582667277000	1.7034745	-9.228451	-0.30705637
59582679515000	3.2872388	-8.8364	-0.15801731
59582687297000	4.349067	-9.230247	0.47165772
59582698008000	4.742315	-10.019135	1.0013748
59582707347000	3.3961751	-10.526707	1.050456
59582718028000	0.66618663	-11.122264	0.6290765
59582727305000	-1.1797429	-11.869853	-0.21787235
59582739940000	-0.46567222	-12.136807	-1.0720038
59582747294000	2.0697873	-12.48217	-0.374094
59582758281000	4.5358152	-12.876616	1.9997569
59582767314000	5.744887	-12.892178	3.5972881
59582777964000	5.568913	-12.858659	2.243367
59582787333000	4.3035774	-13.150153	-0.9211691
59582798045000	3.602675	-13.872603	-2.9346926
59582807353000	3.8534677	-15.025412	-2.689287
59582818431000	3.6475663	-15.512631	-2.7820623
59582827372000	2.8455088	-15.267824	-3.3883939
59582838054000	1.210269	-15.524004	-4.31076
59582847392000	-0.59017074	-14.824298	-5.5778913
59582859660000	-1.8471266	-13.608044	-6.39611
59582867411000	-3.1860838	-12.195465	-3.1232362
59582878184000	-3.8474822	-11.742961	-0.99179804
59582887431000	-4.5537715	-12.191275	0.36990416
59582898112000	-4.489128	-13.464991	5.5748987
59582907451000	-3.2022448	-15.804724	9.030331
59582918132000	-2.9466639	-18.330008	6.911462
59582927470000	-2.3570917	-19.503765	2.4462755
59582938487000	-0.8523358	-19.466057	-2.079364
59582947490000	0.5781997	-17.988235	-3.4644098
59582958171000	0.5847838	-16.800114	-1.5143325
59582967509000	-1.0546459	-17.12752	0.54049104
59582978190000	-2.148796	-17.728464	0.48482585
59582987529000	-3.0747535	-17.541718	-0.3597288
59582998607000	-3.8283286	-16.226702	-0.0664391
59583007640000	-4.5005007	-14.984112	1.4981717
59583018321000	-4.6004586	-12.718598	3.2908301
59583027659000	-3.7684734	-10.4249525	3.1711202
59583039927000	-2.3642743	-8.200739	2.6078842
59583047679000	-1.0067618	-6.476914	2.123657
59583058421000	0.17776948	-5.4378304	2.1146786
59583067698000	-0.090979666	-5.3678	1.9680338
59583078349000	-0.9044097	-4.7165775	1.7441759
59583087687000	-1.472434	-3.2004492	2.0470424
59583098369000	-1.8956091	-2.010531	2.7323828
59583107737000	-2.0272903	-1.210269	3.3411086
59583118724000	-2.0272903	-0.38067806	3.828927
59583127757000	-1.9309237	0.56802434	4.276643
59583138438000	-1.6579847	0.92057055	4.410718
59583147776000	-1.2587515	1.0348936	4.3556514
59583158458000	-1.1701661	1.1827357	4.3305125
59583167796000	-1.1528081	1.186327	4.1814733
59583178843000	-1.1677719	1.0995371	3.7822402
59583187816000	-1.5586253	0.50757074	3.0490158
59583198466000	-1.6256629	-0.30226797	2.1811178
59583207805000	-1.6597804	-1.6316484	0.82599956
59583220103000	-1.697489	-3.810372	-2.0123265
59583227824000	-1.536479	-7.120356	-8.616134
59583238597000	-0.23163901	-11.956643	-16.365566
59583247874000	2.3840263	-18.125303	-19.608511
59583260417000	0.61171854	-19.608511	-19.608511
59583267863000	0.22984336	-19.608511	-18.098969
59583278514000	5.4617724	-19.608511	-13.297995
59583287913000	4.0156746	-15.319898	-10.025121
59583298930000	0.61530983	-9.409811	-8.109161
59583307902000	-0.6123171	-6.89171	-7.0006456
59583318553000	-0.8403648	-5.3486466	-5.787384
59583327952000	-1.3916297	-3.4614172	-4.3101616
59583338542000	-4.3167458	-5.083489	-2.088941
59583347972000	-3.650559	-8.742428	2.381632
59583359019000	-3.1848867	-10.603321	2.834735
59583367961000	-5.0439844	-11.892	-4.235343
59583378672000	-9.022549	-16.120758	-10.379463
59583387980000	-9.816227	-19.546862	-13.738528
59583400309000	-10.236409	-19.608511	-5.8723783
59583408000000	-5.3845596	-16.463728	7.3244615
59583418803000	-1.0923545	-7.726089	12.224793
59583428050000	-0.4369418	-3.1561563	11.248558
59583438731000	-0.038905777	-3.2866404	7.9732904
59583448039000	1.0480618	-6.4709287	6.353613
59583458781000	3.5913026	-9.721656	6.8647747
59583468058000	6.8121023	-11.240178	9.187749
59583479136000	8.005612	-11.737574	9.142858
59583488078000	7.0688806	-11.908161	5.5150437
59583498820000	5.827487	-12.634202	0.23403321
59583508006000	4.2742486	-14.146141	-3.1693244
59583518687000	3.37762	-14.103045	-1.8483237
59583528239000	2.4690206	-12.452842	1.1677719
59583539286000	0.5374983	-10.959458	1.7423803
59583548259000	-1.3479356	-9.3733	0.76195467
59583559092000	-2.8167782	-8.030152	0.5722142
59583568431000	-3.7535098	-6.839037	0.3309984
59583580668000	-3.7774518	-6.4631476	0.37110126
59583588633000	-3.5452142	-7.5920134	0.3357868
59583599406000	-3.145981	-8.626907	0.3477578
59583608653000	-2.5629928	-9.081207	0.7284359
59583619517000	-1.4119805	-9.776723	1.0324994
59583628856000	0.31483752	-10.454282	0.82360536
59583639506000	2.2601264	-10.454881	0.7170634
59583649058000	3.1872811	-9.974244	0.4961983
59583660075000	3.3854012	-8.328231	0.0077811554
59583678874000	3.0256724	-6.911462	0.6751649
59583688182000	2.409764	-6.613982	1.6400281
59583698863000	1.3162124	-7.2909427	1.127669
59583708232000	0.0688333	-8.146272	-0.8475474
59583719279000	-0.59495914	-8.692149	-2.1559787
59583728221000	-0.11192893	-9.097966	-2.0452468
59583738902000	0.82001406	-9.457097	-1.395221
59583748240000	1.780089	-9.23683	-1.122282
59583760508000	2.5743654	-8.857947	-1.0115502
59583768260000	3.2112231	-8.693945	0.0688333
59583779033000	3.466804	-9.161413	1.3892355
59583788310000	3.2800562	-9.995792	1.6166847
59583798991000	2.319383	-10.903793	1.01574
59583808329000	0.6799533	-11.885416	-0.11671733
59583818950000	-1.1162965	-12.64737	-0.7140707
59583828349000	-2.2529438	-12.8927765	-1.536479
59583841349000	-1.7375919	-13.001713	-2.034473
59583848338000	0.14425065	-13.138781	-0.17717093
59583859019000	2.2613235	-13.07294	2.079364
59583868358000	4.095282	-12.795811	1.6603789
59583879039000	5.1277814	-13.095086	-0.3549404
59583888408000	5.2582655	-14.638149	-1.4915876
59583899455000	4.6686935	-15.66586	-1.541866
59583908427000	3.8618474	-15.446791	-3.2160115
59583919078000	2.9999347	-15.405491	-4.944625
59583928447000	1.316811	-14.8512335	-4.7261543
59583940684000	0.020949265	-14.137162	-4.148553
59583948436000	-0.6925228	-13.328521	-4.5220485
59583959178000	-1.3210008	-12.551003	-3.5697548
59583968455000	-1.7250223	-12.741343	-1.5676036
59583979136000	-1.5251064	-13.492524	2.0745757
59583988475000	-1.6214731	-14.620193	7.949947
59583999156000	-1.3425486	-16.101604	9.961675
59584008586000	-1.441908	-17.153856	7.076063
59584019633000	-0.22625206	-17.239449	2.92751
59584028636000	1.5316905	-17.3418	0.3465607
59584039286000	2.3301568	-16.746841	-0.0077811554
59584048625000	2.0440497	-15.955559	0.7338228
59584059306000	0.9151836	-16.594212	1.8387469
59584068644000	-0.31064767	-17.778145	1.4095862
59584079692000	-1.3724761	-17.614141	0.12629414
59584088664000	-2.1296425	-16.435596	-0.39683893
59584099345000	-3.8025908	-16.017807	1.7908629
59584108683000	-4.4753613	-14.265252	4.280833
59584120890000	-4.156334	-11.267712	4.2371383
59584128703000	-3.5643678	-8.171411	3.4506433
59584139506000	-2.1499932	-6.619968	2.6880898
59584148723000	-1.0271125	-6.8043213	2.4438813
59584159434000	-0.40581718	-7.2298903	2.6030958
59584168742000	-0.22146365	-6.9599442	2.8892028
59584179454000	-0.050876785	-5.805341	2.8389246
59584188762000	-0.46507367	-4.6980224	3.0238767
59584199778000	-1.0049661	-3.2255883	3.4219127
59584208781000	-1.3275849	-2.2403743	3.6092591
59584219432000	-1.3221979	-1.5879543	3.5284548
59584228801000	-1.0073603	-0.66020113	3.6020765
59584239512000	-1.1827357	-0.18375498	3.1663318
59584248820000	-1.1575965	-0.10354923	2.8886044
59584259868000	-1.584363	-0.17178397	2.5480292
59584268840000	-2.079364	-0.09756372	2.2254105
59584279490000	-3.3572693	-0.11791443	1.7615339
59584288890000	-4.004901	0.093972415	2.1416135
59584301158000	-2.0470424	-1.1444284	1.5035586
59584308879000	-0.3298013	-3.2968156	0.2753332
59584319590000	0.60214174	-4.654927	-1.395221
59584328929000	0.7763199	-6.667852	-3.9857473
59584339549000	1.0372878	-9.810242	-7.5531077
59584348918000	2.5480292	-14.292187	-13.178285
59584359568000	2.822764	-19.228432	-18.969858
59584368937000	2.7724855	-19.608511	-19.608511
59584381968000	7.3897038	-19.608511	-17.797298
59584388957000	7.753622	-18.640057	-10.143036
59584399608000	6.782175	-11.592725	-6.3751607
59584408976000	5.805939	-7.6572556	-5.747281
59584419627000	2.433706	-8.41921	-4.07553
59584429026000	-0.3752911	-10.445902	-2.2936451
59584440104000	-1.3802572	-10.864887	-1.7723078
59584449015000	-2.4528596	-12.106879	-4.693234
59584459727000	-3.7792473	-15.898098	-8.671799
59584469035000	-3.0496144	-19.107525	-8.670003
59584481334000	-2.4157495	-19.181746	-2.6090813
59584489055000	-4.349666	-13.897143	9.0842
59584499858000	-8.732851	-6.5696893	11.418547
59584508983000	-9.718064	-3.2998085	9.152434
59584519694000	-8.16363	-1.7902644	7.865551
59584529002000	-8.22528	-1.7926586	1.9213469
59584539683000	-5.878962	-3.7002387	-1.8363527
59584549052000	2.146402	-6.6983776	8.470686
59584560099000	8.07265	-10.041282	14.513651
59584569011000	6.9767036	-15.499463	11.232996
59584579722000	4.9176903	-18.467075	3.614646
59584589061000	4.772841	-18.235437	-3.9558198
59584599742000	4.553173	-17.150265	-4.9494133
59584609080000	4.2024226	-14.281413	-1.4556746
59584620158000	2.9281087	-11.173739	1.6400281
59584629100000	1.6154876	-8.743026	2.12246
59584639781000	0.22924481	-7.6147585	1.2372037
59584649119000	-1.0779893	-7.3579803	0.96187055
59584661357000	-1.9315223	-7.33763	1.0061632
59584669108000	-1.7788919	-8.064868	0.9367314
59584679942000	-1.4867992	-9.119514	0.62728083
59584689158000	-1.3844471	-9.906608	0.36391866
59584699809000	-0.8870517	-9.810242	0.061650693
59584709178000	0.05626374	-9.768942	0.002992752
59584719889000	0.866701	-9.801862	0.28431144
59584729197000	1.525705	-9.502586	0.47884035
59584740245000	1.3599066	-9.201516	0.55844754
59584749217000	0.6278794	-8.565256	0.7248446
59584759898000	-0.20171149	-7.587824	1.0594343
59584769236000	-0.87807345	-6.9623384	1.0384849
59584779948000	-1.8770541	-7.0862384	0.11671733
59584789256000	-3.083732	-7.741651	-2.5157075
59584800334000	-2.8688521	-8.180987	-3.9294837
59584809275000	-1.8507179	-8.602965	-2.373851
59584819987000	-0.14305355	-9.148843	-0.89423436
59584829295000	2.3409307	-8.76996	-0.41479546
59584841594000	4.83928	-8.41921	0.13467385
59584849315000	6.5481415	-9.605537	2.2948422
59584860118000	6.8438253	-10.870275	3.433884
59584869334000	4.7626657	-11.039065	1.3497312
59584880076000	0.43993455	-11.358093	-1.6304513
59584889354000	-2.9706059	-11.975797	-2.0925324
59584901988000	-2.284667	-12.343905	-0.8122329
59584909343000	1.0462662	-12.74254	1.3066356
59584920390000	4.2197804	-12.987347	3.0113072
59584929393000	5.400122	-12.958616	2.582745
59584940104000	4.5262384	-13.019071	0.55605334
59584949412000	3.34051	-14.170083	-1.7262194
59584960093000	2.5594015	-15.503654	-2.8137856
59584969432000	2.3235726	-15.444995	-3.537433
59584980510000	2.754529	-14.911088	-3.0184898
59584989451000	2.8963854	-15.437214	-2.4007857
59585000163000	1.2904748	-15.549742	-3.447052
59585009562000	-0.80924016	-15.124771	-4.52145
59585022319000	-2.6030958	-13.932458	-3.2770636
59585029582000	-4.5220485	-13.004705	-1.5131354
59585039622000	-6.537368	-13.092692	-1.4490906
59585048900000	-7.191583	-13.781025	0.8146271
59585059611000	-5.5647235	-14.918869	7.095815
59585068950000	-4.4316673	-16.82226	8.095993
59585079600000	-3.9546227	-18.406622	4.5160627
59585088969000	-2.3181858	-18.54788	-0.79726917
59585099955000	-0.21068975	-17.316662	-4.3676224
59585108958000	0.7290344	-15.981297	-3.964798
59585119670000	-0.29209262	-15.740081	-1.2180501
59585129039000	-2.0033484	-16.524181	-0.109534726
59585139659000	-2.8574798	-16.757616	-0.23403321
59585149028000	-3.3273418	-16.22371	-0.5859809
59585160075000	-4.036624	-14.953586	0.59136784
59585169017000	-4.605247	-13.505094	2.3906105
59585179698000	-3.7487214	-11.420342	3.567959
59585189219000	-2.5803509	-9.273342	3.1310172
59585201518000	-1.508347	-7.701548	2.510919
59585209269000	-0.2633622	-6.38773	2.421735
59585220195000	0.32920274	-5.2241483	2.3750482
59585229442000	-0.25977087	-4.6782703	1.9458874
59585240123000	-0.47165772	-3.7978024	1.9249382
59585249644000	-0.7541735	-2.5115175	2.5486276
59585260325000	-1.0456676	-1.5879543	3.072958
59585269664000	-1.0408791	-0.82599956	3.5230677
59585280803000	-1.0923545	0.2801216	3.9923313
59585289866000	-1.1019313	1.1965023	4.198831
59585300547000	-0.9127894	1.7489643	3.9390604
59585310038000	-0.88405895	1.9901801	3.6721067
59585320689000	-0.8643068	1.8992004	3.454833
59585330058000	-0.7763199	1.6065093	3.064578
59585349925000	-0.75956047	1.0313023	2.6204538
59585360576000	-1.049259	0.05267244	1.8794483
59585369914000	-1.1043255	-1.1534066	0.6835446
59585382182000	-0.8355764	-3.044826	-1.6358383
59585389903000	-0.75716627	-6.0088477	-6.4260373
59585400645000	-0.008978256	-9.986814	-13.474567
59585409953000	1.8602947	-16.191986	-19.049465
59585422587000	0.51475334	-19.608511	-19.608511
59585429942000	-1.0163386	-19.608511	-18.924368
59585440593000	4.939238	-19.608511	-14.982316
59585449992000	6.0986304	-17.91641	-11.490373
59585461009000	3.1196449	-11.33894	-8.5862055
59585470042000	1.0498575	-7.9583263	-6.799533
59585480662000	-1.4239515	-8.086416	-5.481525
59585490062000	-2.8455088	-10.590752	-4.032434
59585500712000	-2.966416	-11.140819	-1.1701661
59585510112000	-4.1437645	-11.097125	-2.8395233
59585521006000	-6.8528037	-14.551359	-7.593809
59585529979000	-8.869919	-17.64826	-11.852495
59585540599000	-9.208698	-16.635511	-15.1139965
59585549998000	-7.687782	-14.07192	-6.59004
59585562266000	-5.361216	-8.492832	11.589133
59585569987000	-4.959589	-2.7311857	15.503055
59585580790000	-5.5844755	-0.70509243	10.888829
59585590068000	-3.779846	-0.96306765	5.6868277
59585600749000	0.04129998	-2.6258407	1.4514848
59585610057000	2.9484594	-6.6666546	1.0301052
59585620738000	6.607398	-11.027095	8.541913
59585630107000	8.668806	-13.949218	12.877812
59585641124000	7.8302364	-15.443199	8.333617
59585650096000	6.0806737	-16.126146	0.60812724
59585660777000	4.4526167	-16.445173	-5.9609637
59585670146000	3.6314054	-15.528193	-5.7825956
59585680796000	3.1160536	-13.005902	-0.9283517
59585690165000	1.6771383	-10.583569	2.119467
59585701152000	0.47884035	-8.454525	2.7862523
59585710154000	-0.57520694	-7.1353197	2.1589713
59585720805000	-1.395221	-6.55293	1.1677719
59585730204000	-2.2224178	-6.6307416	0.3477578
59585742442000	-2.5372553	-7.289147	-0.038905777
59585750193000	-2.6024973	-8.598776	0.37828386
59585760966000	-2.0697873	-9.588778	0.24001873
59585770274000	-1.1701661	-10.195109	-0.034117375
59585780894000	-0.29209262	-10.928932	-0.01616086
59585790263000	0.7781156	-11.2689085	-0.050278235
59585800883000	1.7052702	-10.670957	-0.41180268
59585810283000	1.7543513	-9.23683	-0.919972
59585821269000	0.6901286	-8.185776	-1.0271125
59585830302000	-0.20111294	-7.6524673	-0.4961983
59585840922000	-0.55964464	-7.353192	0.12509704
59585850291000	-0.61890113	-7.1143703	0.93972415
59585860942000	-0.46926352	-7.255628	2.1410148
59585870311000	-0.4381389	-7.804499	1.4377182
59585881389000	-0.6063316	-8.441357	-1.1336545
59585890330000	-0.59855044	-9.119514	-1.5957354
59585901011000	-0.4961983	-9.67856	-0.43155485
59585910350000	0.06344634	-10.049662	0.1376666
59585922618000	1.5197195	-9.630077	-0.8499416
59585930339000	3.402759	-9.180567	-1.4802152
59585941142000	5.097255	-9.958083	0.25498247
59585950389000	5.7029886	-10.879252	2.2984335
59585961070000	3.4835634	-11.009138	1.8770541
59585970408000	-1.1677719	-11.435306	-0.350152
59585983073000	-4.734534	-11.890204	-1.7136499
59585990397000	-3.815759	-12.325949	-1.6502035
59586001445000	0.93852705	-12.780249	-0.3878607
59586010447000	5.0517654	-13.0759325	2.391209
59586021067000	6.943185	-12.902951	3.2860417
59586030467000	6.7223196	-12.454638	2.0231004
59586041148000	5.373187	-13.402143	-0.17118542
59586050486000	3.7738605	-15.444995	-1.4239515
59586061473000	2.6491842	-15.4845	-2.630629
59586070506000	2.5342624	-15.282788	-3.8127663
59586081157000	2.0177135	-15.196597	-3.6290112
59586090525000	0.7026982	-14.812926	-3.58412
59586102733000	-0.43634325	-15.123573	-5.5587378
59586110545000	-1.9788077	-14.374787	-4.164714
59586121287000	-3.2770636	-13.089101	-0.6440403
59586130565000	-4.146757	-12.795213	1.0247183
59586141215000	-4.9308586	-13.364434	2.9233203
59586150584000	-4.5142674	-14.959571	7.65127
59586161235000	-3.7702692	-16.336237	8.926183
59586170604000	-3.6260185	-17.20593	5.796961
59586181620000	-2.670732	-17.381905	0.90381116
59586190623000	-0.8295909	-16.690578	-2.712032
59586201274000	0.65660983	-15.335461	-3.1471782
59586210643000	0.7104794	-14.502877	-1.5023615
59586221324000	-0.4997896	-15.139734	-0.0047884034
59586230662000	-1.0845734	-16.14051	0.04189853
59586241710000	-1.6986861	-16.278776	-0.44651863
59586250682000	-2.7874494	-15.525201	-0.439336
59586261363000	-4.060566	-14.248493	1.3341689
59586270701000	-4.4418426	-11.629835	3.3195608
59586282939000	-3.0142999	-9.173983	2.9179332
59586290690000	-1.4161704	-7.380127	2.5701754
59586301494000	0.45429978	-5.8622026	2.8766334
59586310740000	1.8549078	-5.269638	2.5474305
59586321330000	0.9355343	-5.7885814	1.7645266
59586330760000	-0.029927522	-5.6359506	1.5478514
59586341441000	-0.24241292	-5.0463786	2.1769278
59586350779000	-0.45908818	-4.3478703	3.1944637
59586361735000	-0.7254431	-3.3752258	3.843891
59586370768000	-1.2084733	-2.2517467	4.162918
59586381419000	-1.5280992	-1.4610616	4.2880154
59586390818000	-1.5245079	-0.84814596	4.1156325
59586401469000	-1.3802572	-0.3333926	4.0144777
59586410838000	-1.3006501	-0.15023616	3.8337154
59586422129000	-1.2653356	-0.12868834	3.6996403
59586430919000	-1.1599907	-0.18734628	3.305794
59586441630000	-1.3389573	-0.22625206	2.779668
59586450938000	-1.6047137	-0.4866215	2.3092074
59586463206000	-0.85054016	-1.6196774	1.2276269
59586470958000	-0.16101007	-3.506907	-0.64583594
59586481700000	-0.108936176	-5.808932	-3.7960067
59586490977000	-0.56323594	-8.74123	-7.8368206
59586501689000	-0.4261679	-13.456611	-15.894506
59586511027000	3.517681	-18.932749	-19.608511
59586523631000	1.79206	-19.608511	-19.608511
59586531016000	4.4358573	-19.608511	-18.77533
59586542094000	7.243657	-19.009363	-13.06456
59586550944000	4.32333	-12.724584	-9.570223
59586561625000	2.0398598	-8.810063	-7.3968863
59586570994000	-0.22685061	-8.683171	-4.1760864
59586581645000	-2.802413	-11.11149	-2.3882163
59586591014000	-2.356493	-11.742961	-1.5245079
59586602061000	-1.6621746	-10.205883	-0.37828386
59586611033000	-1.9979613	-10.53329	-3.0382419
59586621714000	-3.3267434	-13.994109	-7.5584946
59586631022000	-3.2172086	-16.643892	-11.131841
59586643260000	-4.560954	-16.385319	-10.54167
59586651042000	-4.5220485	-14.5759	-2.1140802
59586661845000	-5.1038394	-9.978435	9.370906
59586671061000	-7.1885905	-5.5365915	12.7335615
59586681681000	-7.1502833	-2.8341362	10.878654
59586691111000	-4.8003745	-1.2234371	8.425196
59586701823000	-3.120842	-1.4748282	4.3520603
59586711100000	-1.2976574	-4.950012	1.5927427
59586722178000	3.1489737	-9.583989	6.869563
59586731120000	6.583456	-13.327324	11.015722
59586741801000	6.420052	-16.755821	7.669825
59586751139000	5.400122	-18.432959	1.3126211
59586761851000	5.2145715	-17.972673	-3.4009635
59586771190000	4.1186256	-15.653291	-2.8203697
59586782237000	2.0727801	-12.319963	-0.39504328
59586791179000	0.0664391	-9.190742	1.763928
59586801860000	-0.7104794	-6.8085113	1.6053122
59586811198000	-1.3790601	-5.9825115	0.46447513
59586823466000	-2.2756886	-6.2129536	-0.019752163
59586831218000	-2.1386206	-6.7318964	0.30885202
59586842021000	-1.8836381	-7.7290816	0.7092823
59586851237000	-1.3383588	-8.881291	0.23582886
59586861949000	-0.5422867	-9.607333	-0.32142156
59586871257000	0.48482585	-9.999982	-0.48482585
59586881968000	1.6932992	-9.944317	-0.2801216
59586891276000	2.5252843	-9.487623	-0.22625206
59586902324000	2.3570917	-9.041702	-0.20829555
59586911296000	1.934515	-8.527548	-0.33758244
59586922007000	1.5191209	-7.9331875	-0.22984336
59586931315000	0.9223662	-7.5309615	0.18974048
59586941996000	0.521936	-7.6129627	0.33518824
59586951335000	-0.2753332	-8.248624	-0.16639702
59586962596000	-1.5508442	-8.980651	-2.1021092
59586971537000	-2.3983915	-9.244013	-3.9312792
59586982158000	-2.1254525	-9.407417	-3.4913447
59586991740000	-1.2132617	-9.693524	-1.4802152
59587004008000	0.29448682	-9.847352	-0.05207389
59587011973000	2.168548	-9.030331	0.9792285
59587022776000	3.957017	-8.39467	1.7304093
59587032084000	4.9182887	-9.11712	2.2212207
59587042735000	4.624999	-9.911995	1.7764976
59587052256000	2.445677	-10.286089	0.0712275
59587064891000	-0.86131406	-11.48319	-1.3563153
59587072245000	-2.4953568	-12.51569	-1.1013328
59587083415000	-0.87567925	-13.18008	0.016759412
59587092509000	2.397793	-13.616424	1.769315
59587111613000	4.9643774	-13.566744	2.3983915
59587122233000	5.677251	-13.28782	0.94211835
59587131602000	4.9494133	-13.35785	-1.0217255
59587142711000	4.0503907	-14.3179245	-2.0691888
59587151622000	3.1585505	-14.875175	-2.6617537
59587162272000	2.8820202	-14.563929	-2.7551277
59587171641000	2.89459	-15.006258	-2.6042929
59587183879000	1.7142484	-15.919047	-3.0753522
59587191630000	0.055066638	-17.083227	-4.2024226
59587202433000	-1.87047	-16.591818	-4.8165355
59587211680000	-3.8031895	-14.689026	-3.9217024
59587222422000	-5.1146135	-12.747329	-1.5586253
59587231700000	-5.543774	-11.504139	0.6733692
59587242350000	-5.449203	-12.220604	4.597466
59587251719000	-4.537012	-14.0952635	7.7757688
59587262736000	-4.4699745	-15.980698	6.9892735
59587271739000	-4.514866	-17.360357	3.8780081
59587282451000	-3.0753522	-17.262194	-0.17956513
59587291758000	-0.676362	-15.877149	-2.8568811
59587302470000	0.931943	-14.1664915	-3.2932243
59587311778000	1.0600328	-13.694834	-2.4654293
59587322856000	0.5363012	-14.611813	-1.5173253
59587331797000	-0.10055647	-15.691598	-0.92655605
59587342479000	-1.6771383	-15.673641	-0.9187749
59587351786000	-3.520075	-14.677653	-0.4950012
59587364055000	-4.724957	-12.751518	2.0093338
59587371898000	-3.8786068	-9.759365	2.8072014
59587382609000	-2.271499	-7.53575	1.9428947
59587391917000	-0.85173726	-6.330868	2.107496
59587402568000	0.3453636	-5.3324857	2.1625626
59587411906000	0.82779527	-4.9536033	1.1749545
59587422618000	-0.06464344	-5.2385135	0.32561144
59587431926000	-0.4417302	-5.084686	0.7398083
59587442912000	-0.3250129	-4.6136265	1.8357542
59587451976000	-0.12509704	-3.9324763	2.7623103
59587462596000	-0.40880993	-2.949058	3.1304188
59587471995000	-0.8900445	-1.9973627	3.3620577
59587482615000	-1.1210849	-1.3365631	3.5452142
59587492015000	-1.0755951	-0.7314286	3.6727054
59587502971000	-1.2563573	-0.6476316	3.6355953
59587512034000	-1.3395559	-0.7930793	3.3800142
59587522624000	-1.2210429	-0.89662856	3.240552
59587531932000	-1.2785037	-1.0450691	2.741361
59587544139000	-1.2988545	-1.0648212	1.9608512
59587551951000	-1.1965023	-1.3994108	1.0169371
59587562663000	-1.0067618	-2.2278047	0.05267244
59587572001000	-0.9247604	-3.566762	-1.2072762
59587582591000	-1.0534488	-5.8280854	-3.5942953
59587591960000	-0.3489549	-8.731653	-9.424176
59587602610000	2.1086931	-13.205219	-18.013973
59587611979000	3.8540661	-18.853142	-19.608511
59587624919000	0.99299514	-19.608511	-19.482817
59587631999000	3.2549171	-19.608511	-15.852608
59587642650000	5.8562174	-18.853142	-13.245921
59587652018000	3.572149	-12.507908	-11.084556
59587662639000	1.2988545	-8.877101	-8.565855
59587672068000	0.39564183	-7.037756	-4.3436804
59587683055000	-1.4550761	-6.2345014	-1.4119805
59587692057000	-2.0278888	-8.045116	-0.12928689
59587702739000	-0.30107087	-8.616732	2.2894554
59587712077000	-1.5346833	-9.094376	0.33159694
59587724315000	-4.2155905	-12.683882	-6.4152637
59587732097000	-5.771822	-17.891272	-11.915942
59587742778000	-6.2704144	-19.608511	-14.997279
59587752086000	-6.2805896	-19.608511	-9.048286
59587762797000	-4.9518075	-16.680403	3.8893807
59587772105000	-4.410718	-9.01417	10.732009
59587782756000	-2.8431146	-3.086126	14.746487
59587792155000	-1.3084313	0.31064767	14.847043
59587803202000	-1.9841946	0.49919105	8.180987
59587812175000	-1.6717514	-2.3942018	1.9428947
59587822856000	1.5939398	-7.2670007	5.085284
59587832194000	4.425083	-11.852495	9.947908
59587842875000	4.9757495	-15.308526	9.266159
59587852214000	4.6686935	-17.328035	3.6721067
59587863292000	4.702811	-18.400038	-3.2716765
59587872233000	4.4753613	-17.442358	-3.4530375
59587882914000	3.4201171	-14.083892	-0.2148796
59587892222000	1.0965444	-10.577583	1.5795746
59587904460000	-0.8690952	-7.9966335	1.5783775
59587912272000	-1.8608932	-6.30932	0.6380547
59587923014000	-2.6024973	-6.211756	-0.047884032
59587932322000	-2.6102784	-6.6486983	0.13227965
59587942973000	-2.3630772	-8.08881	0.6997054
59587952342000	-1.6466122	-9.503185	1.0642227
59587962931000	-0.6362591	-10.632051	1.0235212
59587972361000	0.86011696	-11.07438	0.19812019
59587983348000	2.2092497	-10.887632	-0.29807812
59587992381000	3.1232362	-9.916783	0.33997664
59588003032000	2.9759927	-8.883087	0.7529764
59588012889000	2.593519	-7.8865004	0.94690675
59588023143000	2.441487	-7.2065473	1.5777789
59588032512000	2.4420857	-6.7743936	2.4893713
59588043498000	2.043451	-6.7731967	2.2625206
59588052531000	0.7062895	-7.2765775	-0.30346507
59588063182000	-0.97025025	-7.892486	-3.4805708
59588072551000	-1.9877859	-8.629301	-3.669114
59588084788000	-1.8189948	-9.7240505	-1.8381484
59588092570000	-0.87927055	-10.787076	-0.05566519
59588103282000	0.57400984	-10.794258	0.741604
59588112590000	2.2840683	-9.925163	0.45609543
59588123240000	3.6804867	-9.855731	-0.22924481
59588132609000	4.152743	-11.048044	-0.47225627
59588143260000	3.1992521	-11.874043	-0.66498953
59588152568000	0.5566519	-12.129025	-1.1611878
59588165507000	-2.1272483	-12.039842	-1.0881647
59588172587000	-1.9422961	-11.894394	-0.41599256
59588183238000	1.0911574	-12.241553	0.33399114
59588192607000	4.9099092	-12.673707	2.0266917
59588203288000	7.181408	-12.384008	3.3321302
59588212687000	7.225102	-12.3876	3.1136594
59588223704000	5.990891	-13.339294	2.28347
59588232676000	4.016872	-14.2460985	0.9032126
59588243296000	2.2655134	-14.596251	-1.0217255
59588252665000	1.8387469	-15.327081	-2.1493945
59588264903000	1.5580268	-15.83944	-1.9919758
59588272685000	0.60573304	-16.394297	-2.1338322
59588283427000	-0.6500258	-15.9818945	-3.3464954
59588292735000	-2.3391352	-14.483724	-5.6880245
59588303386000	-4.4113164	-13.196839	-5.065532
59588312724000	-5.245097	-12.087726	-2.2463598
59588323436000	-5.2235494	-11.833342	-0.9056068
59588332744000	-4.7123876	-13.088502	2.1284454
59588343791000	-3.008913	-15.206174	6.799533
59588352763000	-2.260725	-17.294516	8.2276745
59588363475000	-2.1290438	-18.623896	5.8574142
59588372783000	-1.0875661	-18.268358	1.134253
59588383464000	0.45789108	-16.599	-2.8568811
59588392802000	0.9343372	-15.042769	-3.2237926
59588403910000	-0.39743748	-15.052944	-1.0534488
59588412822000	-1.596334	-16.569073	0.3573346
59588423503000	-1.8076223	-17.338808	0.059855044
59588432841000	-1.9913772	-16.381128	-0.85891986
59588445109000	-3.2561142	-15.872959	0.3669114
59588452861000	-3.4249055	-13.995905	2.480393
59588463633000	-1.4664485	-10.985794	2.9245174
59588472880000	0.30166942	-7.6410947	3.9665937
59588483531000	2.393603	-5.346851	3.66253
59588492900000	2.178125	-5.554548	2.6138697
59588503672000	0.9343372	-5.8622026	1.5981296
59588512919000	-0.033518825	-5.4803276	1.340753
59588523906000	-0.7164649	-4.8219223	2.2661119
59588532939000	-0.97144735	-3.7235823	3.470994
59588543528000	-1.1504139	-2.7018566	3.9707835
59588552928000	-1.553837	-1.7645266	3.9306808
59588563578000	-1.9859903	-0.7703344	3.727772
59588572947000	-2.3259668	0.094570965	3.6445735
59588583964000	-2.585738	0.11372458	3.204639
59588592967000	-2.404377	-0.08619126	3.0609868
59588603648000	-2.2499511	-0.38726214	2.9059622
59588612986000	-2.0266917	-0.4950012	2.5773582
59588625224000	-1.9201498	-0.6859388	1.8842367
59588633036000	-1.7304093	-0.789488	1.4155718
59588643718000	-1.460463	-1.264737	1.13964
59588653025000	-0.6266823	-2.6635494	0.05267244
59588663646000	0.38606504	-4.5819035	-2.1649568
59588673045000	1.1671734	-6.7229185	-4.996699
59588683848000	2.3654714	-9.334992	-8.245032
59588693248000	4.237737	-13.715783	-12.827534
59588704234000	3.4476504	-19.17995	-17.781137
59588713420000	-0.6536171	-19.608511	-19.608511
59588726054000	3.6727054	-19.608511	-18.68016
59588733470000	6.4242415	-19.369091	-12.743138
59588744304000	4.953005	-14.043789	-9.475652
59588753672000	3.429694	-8.930372	-7.181408
59588764689000	2.7329812	-6.1165867	-3.7822402
59588773875000	1.4598645	-3.7606924	-1.4520833
59588784495000	-0.84694886	-4.311359	-0.46028528
59588793895000	-1.4077905	-6.88333	1.323395
59588806285000	-1.091756	-8.04751	-0.08738836
59588814067000	-1.6693572	-10.26514	-4.0587707
59588824809000	-3.53863	-14.090475	-7.833828
59588843821000	-4.2622776	-17.447145	-9.653421
59588853221000	-4.875193	-19.325397	-9.913791
59588863871000	-4.4448357	-19.218855	-2.2810757
59588873240000	-3.7235823	-15.656882	7.5734587
59588884288000	-4.3742065	-9.318831	11.297041
59588893260000	-3.6774938	-4.07134	10.434529
59588903941000	-4.0497923	-2.742558	6.797737
59588913279000	-4.337695	-3.0657754	2.980781
59588923961000	-2.2768857	-4.5741224	0.55844754
59588933299000	1.8435353	-7.6829934	3.738546
59588944346000	5.817312	-10.402806	8.811859
59588953318000	7.2502413	-12.565369	8.239645
59588963969000	6.4122705	-13.73733	2.8748376
59588973338000	4.6806645	-14.32391	-2.030283
59588985606000	3.8899791	-13.536218	-2.6198552
59588993358000	2.878429	-12.144588	-0.7380127
59589004130000	1.4508862	-10.641029	0.8499416
59589013377000	0.44232875	-9.04709	0.8936358
59589024058000	-0.65062433	-8.063073	0.7769185
59589033427000	-1.3682863	-7.8954787	0.4177882
59589044139000	-1.3916297	-8.226477	0.57760113
59589053508000	-1.0408791	-9.016563	0.75118077
59589064525000	-0.82899237	-9.725247	0.664391
59589073527000	-0.3489549	-9.8677025	0.5279215
59589084208000	0.4782418	-9.648034	0.32142156
59589093547000	0.9451111	-9.418191	0.037110128
59589104167000	1.240795	-8.770559	-0.06823475
59589113566000	1.0235212	-8.349778	0.38606504
59589124644000	0.48243165	-8.257602	1.3174095
59589133586000	-0.23762453	-7.9541364	1.5879543
59589144206000	-1.0636241	-7.8793178	1.441908
59589153605000	-2.295441	-8.333019	0.748188
59589165873000	-3.5212722	-8.836999	-0.85652566
59589173625000	-4.06296	-9.299678	-1.6938977
59589184337000	-3.5410242	-9.673772	-1.0289081
59589193644000	-2.0428526	-9.793482	-0.45429978
59589204326000	0.46686932	-8.9842415	-1.0450691
59589213664000	3.0556	-8.291121	-1.7525556
59589224345000	5.28939	-9.658808	-0.29688102
59589233683000	6.546346	-11.058818	2.598906
59589244639000	5.3324857	-10.803835	2.6701334
59589253703000	2.0560207	-10.893618	0.8331822
59589266337000	-0.39923313	-12.063784	-0.85772276
59589273723000	0.2873042	-13.264476	-1.2090719
59589284373000	3.6577415	-13.492524	0.5422867
59589293742000	6.353014	-13.272257	2.5252843
59589304789000	6.4565635	-13.335704	2.1667526
59589313762000	5.173271	-13.73733	0.1945289
59589324443000	4.2999864	-14.25807	-1.3976152
59589333781000	3.8714242	-14.096461	-2.284667
59589346019000	3.821146	-13.622409	-3.0681696
59589353801000	3.6290112	-13.950415	-3.3225534
59589364543000	2.3840263	-14.793174	-3.0945058
59589373820000	0.8888474	-14.757859	-3.1884782
59589384471000	-1.0145429	-13.781025	-4.257489
59589393840000	-3.6248214	-12.945449	-4.471172
59589404490000	-5.6922145	-12.728175	-3.0885203
59589413859000	-6.9360023	-12.919711	-1.8596961
59589424846000	-6.435614	-14.106038	2.698864
59589433879000	-5.3037553	-16.273987	8.500014
59589444682000	-4.9661727	-18.253992	8.359954
59589453898000	-4.279037	-19.099745	4.404134
59589464579000	-2.1829133	-18.084602	-1.0444705
59589473918000	0.12330139	-16.294937	-4.4921207
59589485850000	0.42197806	-14.983513	-3.9881415
59589494090000	-1.5047557	-15.269021	-2.3211784
59589504710000	-3.306991	-16.667234	-0.81522566
59589514506000	-3.8851907	-17.062878	-0.31663316
59589526072000	-4.5076833	-16.121956	-0.54527944
59589533824000	-5.2061915	-15.316307	-0.44711718
59589544535000	-4.784812	-13.693637	1.5442601
59589553843000	-3.5930982	-11.2210245	2.6803088
59589564494000	-1.5646108	-8.569447	2.6641479
59589573863000	0.18315643	-6.7318964	2.629432
59589584544000	1.0163386	-5.7400985	2.6048915
59589593882000	-0.09636662	-5.6784477	1.99437
59589604869000	-1.3485341	-5.3384714	1.6430209
59589613871000	-1.4850036	-4.489128	1.8537107
59589624583000	-1.2611457	-3.8935704	2.4893713
59589633952000	-0.95827925	-3.333926	2.9532478
59589644542000	-0.81642276	-2.4929626	3.1226375
59589653941000	-0.8583213	-1.1420342	3.5338416
59589664988000	-1.228824	0.030526072	3.4123359
59589673961000	-1.311424	0.7433996	3.2620997
59589684611000	-1.2024878	0.8182184	3.064578
59589693980000	-0.65660983	0.4770447	2.9706059
59589706218000	-0.2908955	-0.1412579	2.7281928
59589713969000	-0.20171149	-0.6584055	2.2062569
59589724742000	-0.3866636	-0.9259575	1.7657237
59589734019000	-0.97862995	-1.8561049	0.6691794
59589744639000	-1.5939398	-3.4153287	-1.4389153
59589754039000	-2.143409	-6.2662244	-6.2434793
59589764689000	-0.22445641	-9.411607	-12.106281
59589774058000	3.071761	-12.511499	-15.592238
59589785045000	3.376423	-16.995241	-19.245192
59589794078000	0.95708215	-19.608511	-19.467255
59589806681000	1.9746178	-19.608511	-15.856199
59589814067000	3.6565444	-18.890251	-11.779472
59589824717000	1.4095862	-14.109031	-10.506954
59589834117000	-0.43754035	-10.434529	-9.098565
59589845103000	-0.90859956	-7.891887	-6.3823433
59589854136000	-1.9662381	-7.878121	-4.708796
59589864787000	-1.3563153	-10.213664	-3.1866825
59589874156000	-1.5394717	-10.664372	-1.2425907
59589886424000	-2.6408045	-10.157999	-3.6481647
59589894175000	-4.341286	-12.438477	-8.693945
59589904918000	-6.6726403	-17.653048	-11.45027
59589914164000	-7.3627687	-19.608511	-13.384785
59589924846000	-5.005079	-18.783709	-12.340913
59589934214000	0.64942724	-14.130578	0.17597382
59589944865000	1.2886791	-7.7147164	16.35599
59589954234000	0.17956513	-0.3657143	19.500772
59589965251000	-1.7381904	1.6956934	13.681665
59589974254000	-2.8772318	0.4357447	6.7426705
59589984935000	-1.685518	-2.042254	0.20410569
59589994243000	-0.25617957	-6.688801	-2.7329812
59590005076000	2.4797945	-11.072584	3.2028434
59590014384000	4.685453	-14.332889	8.375516
59590025401000	5.4282537	-16.104597	5.7478795
59590034404000	5.2223525	-16.823458	-0.108337626
59590045085000	4.1413703	-16.492458	-3.0909145
59590054423000	3.157952	-14.279019	-1.9446903
59590066691000	1.7687165	-11.425131	0.39624038
59590074412000	0.6398504	-8.768764	1.9165585
59590085154000	-0.11372458	-7.265804	1.9117701
59590094432000	-1.2401965	-6.9904704	1.091756
59590105143000	-1.7178397	-7.1245456	-0.005985504
59590114482000	-1.8016368	-8.088212	-0.14604631
59590125163000	-1.4454993	-9.120112	0.12808979
59590134501000	-0.81522566	-9.6288805	0.047884032
59590145457000	-0.17417817	-9.915586	0.19153613
59590154521000	0.6913257	-10.133459	0.23702596
59590165141000	1.5460558	-9.94312	0.23882163
59590174540000	1.8375498	-9.375694	-0.22445641
59590185222000	1.6352397	-8.866926	-0.6063316
59590194529000	1.1629834	-8.351574	0.439336
59590205638000	0.66858083	-7.913435	1.4826094
59590214579000	0.27832595	-7.647679	1.4999673
59590225230000	-0.0712275	-7.7320743	1.328782
59590234599000	-0.6697779	-8.189367	0.842759
59590246837000	-1.6448165	-8.962095	-0.7787141
59590254619000	-2.5258827	-9.5013895	-1.9895816
59590265300000	-2.5462334	-9.784504	-1.8393455
59590274608000	-1.8549078	-10.122087	-0.45250413
59590285319000	-0.21068975	-9.945514	0.2172738
59590294627000	1.8261774	-9.299678	-0.2741361
59590305339000	3.66253	-9.727043	-0.45310268
59590314708000	4.88477	-11.118074	0.7206547
59590325724000	4.9296613	-11.288062	1.3676877
59590334697000	2.5300727	-10.810419	-0.050278235
59590347361000	-0.9020155	-10.863091	-1.0600328
59590354716000	-1.7166426	-11.592725	-0.92416185
59590365367000	0.694917	-12.843097	-0.22565351
59590374736000	3.9097314	-13.400946	0.95109665
59590385753000	5.6898203	-13.227964	1.2635399
59590394908000	5.639542	-13.330317	0.28550854
59590405619000	4.980538	-15.007455	-0.87328506
59590414927000	3.9851487	-16.16505	-1.4981717
59590427317000	3.1435869	-15.689802	-3.1621418
59590435130000	3.1064768	-15.840637	-4.860828
59590445872000	2.147599	-15.28997	-4.1102457
59590455363000	0.8798691	-14.49749	-4.0186677
59590465983000	-0.43514615	-14.172477	-4.787206
59590475352000	-2.236783	-13.132795	-2.8491
59590486216000	-4.0078936	-12.89517	-1.3042414
59590495524000	-5.427655	-13.309966	-0.320823
59590506480000	-5.346851	-14.604032	4.5741224
59590515666000	-3.6804867	-16.66484	9.391256
59590526317000	-3.157952	-18.1271	8.619724
59590535685000	-2.5713725	-18.246809	4.674679
59590554820000	-0.94211835	-17.233463	-0.04129998
59590565837000	0.49799395	-15.751453	-2.542642
59590574839000	0.78170687	-14.60463	-2.1230583
59590585521000	-0.31603462	-15.044565	-0.5303157
59590594828000	-1.7417817	-16.649279	0.12090719
59590607097000	-2.3056161	-17.454329	-0.011971008
59590614848000	-3.3123782	-16.783953	-0.25139117
59590625621000	-4.6046486	-16.010027	0.035913024
59590634898000	-5.233725	-14.447211	2.3870192
59590645549000	-4.259285	-11.0247	2.983774
59590654918000	-2.179322	-7.8344264	2.2876596
59590665599000	-0.44831428	-5.875371	2.4468741
59590674937000	1.0109516	-4.8506527	2.5594015
59590685893000	0.7020996	-4.8422728	2.0440497
59590694957000	-0.415394	-4.830302	1.4065934
59590705607000	-1.0097545	-4.228759	1.6795325
59590714976000	-1.1330559	-3.5853171	2.633622
59590725657000	-1.0887632	-2.5899277	3.66253
59590734996000	-1.2593501	-1.6729485	4.0587707
59590746013000	-1.3371617	-0.62967503	4.2161894
59590754985000	-1.412579	0.5518635	4.3424835
59590765696000	-1.2593501	0.8882488	4.0138793
59590775035000	-1.1067197	0.87687635	3.7828386
59590787272000	-1.1252748	0.7433996	3.7906199
59590795024000	-0.97743285	0.4997896	3.591901
59590805796000	-1.4000094	0.13587095	3.0238767
59590815074000	-1.6071079	-0.14425065	2.3774424
59590825694000	-1.6262615	-1.0169371	1.6017209
59590835093000	-1.3054385	-2.5049336	0.09636662
59590845744000	-0.99778354	-4.887164	-2.943671
59590855113000	-0.4189853	-8.334815	-7.4735007
59590866099000	1.6130934	-13.213599	-13.020866
59590875132000	4.3538556	-18.865711	-19.147629
59590887736000	1.3670892	-19.608511	-19.608511
59590895121000	1.7776948	-19.608511	-19.37448
59590905803000	6.420052	-19.49718	-15.831658
59590915171000	4.068946	-13.693038	-11.607688
59590926219000	1.7196354	-8.222886	-7.9062524
59590935191000	-0.19393034	-7.0862384	-3.1824925
59590945842000	-1.9554642	-8.878897	-0.8439561
59590955211000	-1.5269021	-10.119094	-1.1480197
59590967479000	-0.664391	-9.304466	-2.5037365
59590975200000	-1.0456676	-10.959458	-6.823475
59590985972000	-1.4395138	-14.794371	-11.414955
59590995250000	-1.8387469	-18.85015	-14.088081
59591005961000	-2.6378117	-19.260155	-13.304579
59591015330000	-1.9542671	-16.840815	-6.0501475
59591027049000	-1.4850036	-11.990162	8.855554
59591034678000	-4.6022544	-4.155137	18.92018
59591045695000	-7.1526775	0.8571242	17.496227
59591054698000	-7.389105	1.6095021	10.641029
59591065410000	-6.606201	0.80564886	3.6631286
59591074778000	-5.3247046	-1.6699557	-4.0898952
59591085368000	-1.1767502	-6.8689647	-2.2828712
59591094706000	5.7802014	-11.659762	9.211691
59591105815000	8.812458	-16.46732	12.978968
59591114787000	7.133524	-19.511547	5.7843914
59591125468000	6.0291986	-19.536087	-1.8417397
59591134806000	4.8823757	-17.245436	-3.9653966
59591147044000	2.8419175	-13.068151	-2.1416135
59591154826000	0.8002619	-9.179968	0.010175358
59591165568000	-0.2184709	-6.7444663	1.2671312
59591174876000	-0.99060094	-5.8909335	1.323395
59591185496000	-1.2934675	-6.2129536	0.42197806
59591194835000	-0.9864111	-7.356185	0.2837129
59591205516000	-0.5470751	-8.95611	1.06123
59591214854000	0.22385786	-9.977237	1.2934675
59591225901000	0.96067345	-10.286089	0.9151836
59591236125000	1.6627731	-9.87668	0.50517654
59591246226000	2.0518308	-9.120711	0.0676362
59591255565000	1.9572599	-8.590994	-0.53570265
59591266246000	1.6352397	-8.534132	-0.32441434
59591275584000	1.4401124	-8.397662	0.770933
59591286662000	0.9516952	-8.664018	0.8439561
59591295604000	0.51954174	-8.475474	1.0241197
59591306285000	-0.013766659	-8.129512	1.1605892
59591315623000	-1.1797429	-8.081029	0.12928689
59591327922000	-2.8790276	-8.39467	-2.356493
59591335643000	-4.100669	-8.809465	-3.301604
59591346385000	-3.8073792	-9.167398	-1.6537948
59591355662000	-2.3732524	-9.822811	0.5303157
59591366343000	-0.25917232	-10.181941	1.5221137
59591375712000	2.0566192	-9.384073	1.5011644
59591386393000	3.8379054	-8.985439	0.40102878
59591395701000	4.800973	-10.007763	-0.16699557
59591406749000	4.4873323	-10.675147	-0.15502456
59591415721000	2.2720973	-10.839149	0.3441665
59591428386000	-0.3776853	-11.5616	0.6913257
59591435740000	-0.70509243	-11.832145	0.5566519
59591446391000	1.3096284	-12.253524	0.7428011
59591455760000	3.882198	-12.908937	1.8387469
59591466807000	4.7506948	-13.262082	2.4049757
59591475779000	3.6337996	-13.512276	1.0324994
59591486461000	2.3636756	-13.928867	-1.2551602
59591495799000	2.5677812	-15.0302	-1.7286136
59591507975000	3.3943794	-15.6550865	-1.2276269
59591515757000	3.7732618	-15.282788	-2.5785553
59591526500000	3.13401	-15.76103	-3.7672763
59591535746000	1.3784616	-15.967529	-4.1491513
59591546428000	0.11731588	-14.7399025	-4.8069587
59591555766000	-1.122282	-12.946646	-4.8704047
59591566447000	-2.7515364	-11.794436	-2.1535845
59591575785000	-4.0037036	-11.584944	-0.24899697
59591586802000	-5.379173	-12.372037	0.42197806
59591595805000	-5.49589	-14.237121	4.621408
59591606456000	-4.417302	-16.498444	8.509591
59591615825000	-4.19524	-18.794483	6.8665705
59591626506000	-3.1902738	-19.486408	2.3463178
59591635844000	-1.0636241	-18.67178	-2.497751
59591646891000	0.63087213	-16.67741	-4.068946
59591655864000	0.4818331	-15.330073	-2.2343888
59591666545000	-1.3467385	-15.848418	-0.31064767
59591675883000	-2.6713305	-16.825851	0.15981296
59591688151000	-3.3716345	-16.726492	0.094570965
59591695903000	-3.606865	-15.418659	-0.15442601
59591706675000	-4.261679	-14.657902	0.5823896
59591715922000	-4.739322	-13.080122	3.1423898
59591726603000	-2.885013	-9.621698	3.5529952
59591735942000	-0.3878607	-6.6965823	3.117849
59591746653000	1.2671312	-5.051167	3.1142578
59591755961000	1.6298528	-4.9176903	2.3253684
59591767009000	0.32202014	-5.1660886	1.6304513
59591775981000	-0.54647654	-4.6040497	1.6567876
59591786662000	-1.1067197	-3.4410665	2.094328
59591796000000	-1.5987282	-2.4905684	2.693477
59591806620000	-1.8626889	-1.8567034	3.2620997
59591816020000	-1.7782934	-1.216853	3.591901
59591827037000	-1.9129672	-0.53570265	3.7271736
59591836039000	-1.7316064	-0.04189853	3.7475243
59591846721000	-1.4580688	0.2208651	3.5613751
59591856059000	-1.2665327	0.15861586	3.354875
59591868296000	-1.252766	0.051475335	3.3267434
59591876078000	-1.4514848	-0.092775315	3.2040405
59591886821000	-1.3700819	-0.26994625	2.8125885
59591896098000	-1.54845	-0.8343793	2.12246
59591906718000	-1.4718355	-1.4706384	1.4305356
59591916118000	-0.91219085	-2.873042	0.29807812
59591926799000	-0.01436521	-5.2558713	-2.4552538
59591936137000	0.52073884	-8.661623	-6.9844847
59591947123000	1.7052702	-13.888165	-15.316307
59591956157000	5.2085857	-19.283499	-19.608511
59591968730000	4.2078094	-19.608511	-19.608511
59591976176000	6.2045736	-19.608511	-18.868704
59591986827000	8.6257105	-19.46127	-15.076288
59591996257000	4.3915644	-13.55178	-11.922526
59592007365000	2.0739772	-8.298303	-9.657611
59592016368000	0.9672575	-6.4230447	-5.482722
59592026988000	-1.1007342	-6.331466	-1.4921862
59592036357000	-3.743933	-8.936956	0.24480712
59592048625000	-2.3570917	-9.892841	0.44113165
59592056407000	-1.8860323	-10.192716	0.15562311
59592067149000	-3.139397	-12.3989725	-3.8744168
59592076426000	-3.1112652	-16.084846	-9.752781
59592087046000	-2.3122003	-18.132486	-14.291589
59592096385000	-2.315193	-16.455349	-11.63163
59592107066000	-0.9660604	-13.909115	-0.35314476
59592116435000	-0.7248446	-9.698911	14.822503
59592127421000	-3.7343562	-4.7016134	17.338808
59592136424000	-5.207389	-1.9147629	10.380061
59592147288000	-4.8440685	-1.4598645	6.2243257
59592156627000	-4.19524	-2.6276364	2.416348
59592167338000	-2.6635494	-6.017826	0.109534726
59592217051000	4.2437224	-15.756242	-1.2330139
59592247966000	0.6847417	-9.063251	0.97982705
59592288157000	-1.738789	-7.9828672	0.49440265
59592307689000	-1.3198037	-8.899846	0.8146271
59592316600000	-0.46088383	-9.755774	0.80804306
59592336619000	1.2856863	-10.293272	0.623091
59592367656000	2.0691888	-8.287529	-0.45729253
59592387339000	0.7703344	-7.680599	0.7954735
59592408946000	-0.13227965	-7.8888946	1.2844892
59592427470000	-1.7178397	-8.774749	-1.049259
59592436717000	-2.5288756	-9.208698	-1.8471266
59592447337000	-2.645593	-9.578603	-1.3820529
59592456736000	-1.9937714	-9.901819	0.015562311
59592467418000	-0.59017074	-9.918579	0.64463884
59592476756000	1.292869	-9.113529	0.19752164
59592487773000	2.9293058	-8.845977	-0.60214174
59592496775000	3.8325183	-10.229825	-0.47764325
59592507365000	3.7840357	-11.495161	0.32142156
59592516703000	2.0045455	-11.684303	0.5410896
59592529673000	-0.9044097	-11.516708	0.094570965
59592536723000	-1.9494787	-11.704654	-0.12808979
59592547709000	0.005985504	-12.418724	-0.1316811
59592556743000	3.1196449	-13.126211	1.1653777
59592567393000	5.436035	-13.293805	2.5372553
59592576762000	6.0160303	-12.986749	2.348712
59592589030000	5.1571107	-12.920309	0.8846575
59592596751000	4.505289	-13.78701	-0.6410475
59592607493000	4.0156746	-14.774619	-1.5472529
59592616771000	3.8031895	-14.665084	-2.678513
59592627452000	3.6888664	-14.752472	-3.5739446
59592636821000	2.2906525	-15.0900545	-3.6361938
59592647471000	0.59495914	-15.01344	-3.6415808
59592656840000	-0.7152678	-14.578294	-4.583699
59592667857000	-2.2535424	-13.2273655	-4.2538977
59592676860000	-3.8839936	-12.318168	-2.2661119
59592687510000	-5.1247888	-12.217012	-1.0821792
59592696879000	-5.3594203	-12.539033	1.9758149
59592707560000	-4.0294414	-14.000094	8.244433
59592716899000	-3.566762	-16.3512	8.963891
59592727946000	-3.702633	-18.066048	5.3504424
59592736918000	-2.4366987	-18.186954	0.7846996
59592747569000	-0.36631286	-16.859968	-2.6503813
59592756938000	0.7230489	-14.932037	-3.193865
59592769206000	0.062249243	-14.021044	-1.5777789
59592776957000	-1.323395	-15.092449	-0.219668
59592787730000	-1.8644845	-16.814478	0.19273324
59592796977000	-2.2481554	-16.842611	-0.15203181
59592807658000	-2.961029	-15.443798	-0.5243302
59592816996000	-4.510676	-14.624981	1.2886791
59592827647000	-4.8105497	-12.449849	3.518878
59592837016000	-2.6138697	-9.628283	2.8113914
59592848033000	-0.6901286	-7.4471645	2.5396495
59592857035000	0.9451111	-5.5647235	2.806603
59592867686000	1.2204443	-5.1601033	1.8549078
59592877055000	0.1945289	-5.645528	1.0265139
59592887736000	-0.46267948	-5.391742	1.1204864
59592897075000	-0.7697359	-4.8536453	2.1284454
59592908122000	-0.9696517	-4.0880995	3.2357635
59592917094000	-1.1611878	-3.1453824	3.5194764
59592927714000	-1.4969746	-1.8668787	3.900753
59592937114000	-2.0135236	-1.1629834	3.9953241
59592949321000	-1.8459295	-0.5710171	4.0138793
59592957133000	-1.7034745	-0.18794483	3.9324763
59592967875000	-1.8818425	-0.16699557	3.550601
59592977153000	-1.7465701	-0.12569559	3.3500867
59592987803000	-1.5107412	-0.2873042	2.9712043
59592997172000	-1.3904326	-0.48482585	2.2110453
59593007884000	-1.4760253	-0.7074866	1.389834
59593017283000	-1.4203602	-1.3455414	0.6314707
59593028239000	-0.92655605	-2.7353754	-0.4297592
59593037303000	-0.4429273	-4.9003325	-3.0663738
59593047923000	-0.439336	-8.267777	-7.9278
59593057322000	0.7302315	-13.545197	-16.757616
59593067942000	5.039196	-19.057247	-19.608511
59593077342000	2.8473043	-19.608511	-19.608511
59593090648000	6.0986304	-19.608511	-17.946337
59593097361000	8.857947	-19.309237	-14.155119
59593107982000	5.237316	-13.176489	-10.694899
59593117381000	2.8233624	-8.033744	-8.08881
59593129588000	1.6801311	-5.8502316	-4.575918
59593137400000	0.20410569	-3.911527	-1.6813282
59593148112000	-3.0005333	-5.240309	-0.2645593
59593157420000	-2.697667	-8.30369	0.6991069
59593168101000	-2.2541409	-9.92636	0.87089086
59593177409000	-4.052785	-11.888409	-3.2279825
59593188121000	-5.8963203	-15.5671	-8.6257105
59593197459000	-6.1866174	-19.13027	-11.196485
59593208445000	-5.583278	-19.608511	-11.142016
59593217479000	-3.763685	-18.713081	-3.4859576
59593228160000	-2.1308396	-13.810952	9.588778
59593237468000	-2.6725276	-6.211756	16.267403
59593248149000	-3.1040826	-1.1372458	13.838486
59593257487000	-4.0066967	0.19812019	8.318055
59593268596000	-4.317344	-0.84096336	2.8993783
59593277507000	-2.1613655	-3.8385038	0.1921347
59593288249000	1.8435353	-8.1402855	4.1653123
59593297526000	5.3396683	-12.0170965	9.56304
59593309794000	6.602011	-14.983513	7.5291657
59593317546000	6.184223	-16.812084	1.5568297
59593328349000	5.345654	-17.355568	-2.7210102
59593337565000	4.5603557	-15.690999	-2.681506
59593348277000	3.0083144	-12.728175	-0.4225766
59593357585000	1.1959038	-9.592968	1.22224
59593368235000	-0.090381116	-7.3579803	1.2641385
59593377604000	-1.2264298	-6.518214	0.6919243
59593388621000	-1.8100165	-6.6163764	0.17118542
59593397624000	-1.4149733	-7.117363	0.54408234
59593408305000	-0.8559271	-8.39048	0.75956047
59593417643000	-0.48362875	-9.688137	0.61112
59593428325000	0.4357447	-10.280702	0.5291186
59593437663000	1.3790601	-10.452486	0.5674258
59593448710000	2.098518	-10.238205	0.1604115
59593457682000	2.2319946	-9.697714	-0.20171149
59593468394000	1.9309237	-8.705916	0.33279404
59593477702000	1.5406688	-7.8368206	1.3634979
59593489940000	0.93972415	-7.550115	1.9183542
59593497722000	0.12868834	-7.5112095	1.5795746
59593508403000	-1.1641805	-7.968502	0.45370123
59593517680000	-2.8963854	-8.80767	-1.2976574
59593528300000	-3.7163997	-9.251794	-2.372654
59593537669000	-3.2974143	-9.300875	-1.5346833
59593548350000	-2.0733786	-9.800665	-0.17178397
59593557719000	-0.05327099	-9.812037	0.18854338
59593568705000	2.2655134	-8.91062	0.16460137
59593577708000	4.0827127	-8.848969	0.15682021
59593588359000	5.0427876	-10.324995	0.57161564
59593597728000	4.8668137	-11.151593	0.8170213
59593608409000	2.6431987	-11.31799	0.19512744
59593617747000	-0.6787562	-11.872847	-0.5835867
59593631053000	-2.2900538	-12.744335	-0.65182143
59593637736000	-0.50757074	-12.823344	-0.45908818
59593648448000	3.2064347	-12.644977	0.6889315
59593657786000	5.7424927	-12.369643	2.1440077
59593669993000	6.0609217	-12.11107	1.7280151
59593677806000	5.5347958	-12.71381	-0.049679685
59593688578000	5.1158104	-14.633361	-0.50038815
59593697825000	4.235343	-15.055938	-0.4141969
59593708445000	3.4063504	-14.873978	-2.2104468
59593717845000	2.273893	-15.807118	-3.8552632
59593728465000	0.736217	-16.092028	-4.2515035
59593737864000	-0.3441665	-15.740081	-3.9246953
59593748881000	-1.4586674	-14.670471	-4.3688197
59593757884000	-3.117849	-13.558963	-3.353678
59593768565000	-4.608838	-12.723387	-1.5652094
59593777903000	-5.975329	-12.546814	-0.80684596
59593788585000	-5.8161144	-13.402741	3.366846
59593797923000	-4.0563765	-15.3845415	9.060856
59593808970000	-3.0310593	-17.266983	9.072228
59593817942000	-2.0883424	-18.013374	4.8255134
59593828624000	0.047285482	-17.567455	-0.5710171
59593837962000	2.0667946	-16.308704	-3.7367504
59593850261000	2.0428526	-14.958972	-3.1956608
59593857982000	-0.005985504	-15.118785	-1.1887212
59593868754000	-1.7812861	-16.586432	0.64942724
59593878001000	-2.4432828	-17.7548	1.1767502
59593888682000	-3.3542767	-17.0952	0.60573304
59593898021000	-4.6160207	-16.714521	0.09756372
59593908702000	-5.3019595	-15.495872	2.355296
59593918223000	-3.852869	-11.777677	3.2261868
59593929240000	-1.7992426	-7.7201033	3.2626984
59593938243000	0.56563014	-5.140351	3.1543608
59593949107000	1.0324994	-4.876989	2.473809
59593958445000	0.28550854	-5.4091	1.3814543
59593969096000	-0.6607997	-5.1104236	0.99898064
59593978465000	-1.1522095	-4.3777976	1.7890673
59593989695000	-1.299453	-3.4302924	2.9825768
59593998637000	-1.4036007	-2.4366987	3.602675
59594009379000	-1.520318	-1.7932571	3.6870706
59594018931000	-1.578976	-0.8972271	3.751714
59594031199000	-1.5867572	-0.09935937	3.5458126
59594038951000	-1.4041992	0.25737667	3.359065
59594049907000	-1.4143747	0.13347675	3.1435869
59594059184000	-1.5029601	-0.077213004	3.1519666
59594069835000	-1.8004397	-0.16460137	3.2028434
59594088939000	-2.0805612	-0.45310268	2.746748
59594098277000	-1.9746178	-0.48123455	2.0811598
59594109294000	-1.6334441	-0.76075757	1.423353
59594118296000	-0.37588966	-1.9590555	0.42796355
59594128947000	1.1569979	-4.23235	-1.4568717
59594138347000	1.7465701	-7.171831	-4.128801
59594148967000	2.754529	-11.027693	-9.129091
59594158336000	4.419098	-16.607979	-16.493656
59594172099000	2.6276364	-19.608511	-19.608511
59594178386000	0.4878186	-19.608511	-19.605518
59594189036000	4.8374844	-19.608511	-16.118963
59594198405000	5.171476	-16.86296	-11.394006
59594210673000	3.3997664	-9.836577	-9.221268
59594218425000	1.4454993	-6.237494	-6.884527
59594229136000	-0.02813187	-4.5765166	-4.4167037
59594238444000	-1.7591397	-3.1603463	-2.5510218
59594249125000	-3.5751417	-5.740697	-1.2000936
59594258464000	-2.4678235	-9.38168	1.447295
59594269145000	-2.6605566	-10.93791	1.2300211
59594278483000	-3.6230257	-12.20983	-3.5865142
59594289500000	-5.683835	-15.818491	-7.9583263
59594298503000	-5.251083	-19.41937	-11.25215
59594309153000	-3.9073372	-19.608511	-12.341511
59594318522000	-0.9151836	-19.191322	-1.6053122
59594329203000	0.30346507	-13.057378	11.707047
59594338542000	-0.97264445	-4.2239704	15.643714
59594349620000	-2.6330233	0.3705027	11.092337
59594358561000	-5.1140146	0.015562311	5.063138
59594369243000	-5.5880666	-2.4756045	0.6194997
59594378581000	-2.5474305	-5.7389016	-0.11552023
59594390879000	2.5258827	-9.002198	6.4840965
59594398600000	6.3009405	-11.945869	11.427525
59594409343000	7.5549035	-14.714165	8.276156
59594418620000	6.365584	-16.79772	0.8714894
59594429332000	4.494515	-17.568651	-2.7216089
59594438639000	3.6733038	-15.515624	-1.3036429
59594449351000	1.9596541	-12.5504055	0.5422867
59594458659000	0.092775315	-9.6288805	0.65421563
59594469645000	-1.2395979	-7.487866	0.599149
59594478679000	-2.6437972	-6.3967085	1.127669
59594489299000	-2.9352913	-5.925649	0.9959879
59594498698000	-2.247557	-6.654085	0.9672575
59594509410000	-1.3868413	-8.104373	0.9840169
59594518718000	-0.47285482	-9.704298	1.3796587
59594529734000	0.65242	-11.3640785	0.943914
59594538737000	2.1697452	-11.452065	0.29029694
59594549418000	3.177704	-9.841965	-0.025139118
59594558757000	3.139397	-8.350377	0.1436521
59594571025000	2.6671407	-7.5968018	0.9756372
59594578776000	2.211644	-7.5070195	1.5215151
59594589488000	1.7615339	-7.48607	1.5693992
59594598765000	0.9923966	-7.771579	1.1091139
59594609477000	-0.2837129	-8.463503	-0.82719666
59594618815000	-1.4030021	-9.083003	-2.7030537
59594629435000	-1.9297266	-9.229648	-2.6449943
59594638835000	-1.5699978	-9.244013	-1.7208325
59594649821000	-0.42916065	-9.374496	-0.7278373
59594658854000	1.1575965	-9.072827	-0.012569559
59594669505000	2.878429	-8.766968	0.25079262
59594678874000	4.3538556	-9.408614	0.7799112
59594689525000	4.659715	-9.980229	1.1366472
59594698893000	2.8353333	-10.506355	0.5793968
59594709971000	-0.54168814	-11.380837	-0.48602295
59594718913000	-2.790442	-11.816583	-0.88286185
59594732280000	-1.9680338	-11.735778	-0.22984336
59594738932000	0.9056068	-11.669938	0.97503865
59594751170000	3.2507274	-11.777079	2.866458
59594758952000	3.8744168	-12.179304	3.157952
59594769725000	3.0202854	-12.980165	1.1168951
59594778972000	2.367267	-14.055161	-0.78290397
59594789592000	2.9939492	-15.454572	-1.127669
59594798991000	3.4955344	-15.800534	-1.2216414
59594809642000	3.8283286	-15.738883	-2.7395654
59594818980000	3.5984852	-16.241665	-3.7361517
59594830058000	1.8596961	-16.761806	-3.9312792
59594839030000	-0.3369839	-16.303316	-5.575497
59594849711000	-2.2188265	-14.742895	-6.51582
59594859050000	-3.9151182	-12.870031	-3.5182793
59594869761000	-4.7022123	-11.836933	-0.6500258
59594879069000	-5.535993	-11.959636	1.1755531
59594890178000	-5.607819	-13.231556	5.189432
59594899089000	-4.18686	-15.0661125	8.949526
59594909770000	-3.453636	-17.3011	6.9168487
59594919078000	-1.963844	-18.904018	1.146224
59594931376000	0.9415198	-18.950705	-3.9773676
59594939097000	3.25791	-17.00362	-4.7668557
59594949900000	3.2243912	-14.813524	-2.3864205
59594959147000	0.9403227	-14.514249	-0.3705027
59594969828000	-0.86729956	-15.679626	0.49081135
59594979136000	-2.6090813	-16.680403	0.39205053
59594989817000	-4.1180267	-15.965136	0.6979098
59594999156000	-4.867412	-14.176667	1.8968062
59595010264000	-4.8997335	-12.382812	3.3943794
59595019206000	-4.2012253	-9.821614	3.8792052
59595029887000	-2.712032	-7.0126166	3.4919431
59595039225000	-0.75716627	-5.395932	2.618658
59595049937000	0.56323594	-5.1277814	2.4887726
59595059245000	0.7038953	-5.3139305	2.0452468
59595070323000	0.11372458	-5.2474914	1.7040731
59595079264000	-0.5530606	-4.5082817	1.8309658
59595089976000	-1.2084733	-3.3273418	2.5007436
59595099284000	-1.4209588	-2.4235306	3.1507695
59595111522000	-1.3838485	-1.910573	3.3812113
59595119304000	-1.1204864	-0.9660604	3.8307228
59595130076000	-1.1827357	-0.21428105	3.9426517
59595139323000	-1.1611878	0.060453594	3.7834373
59595150035000	-1.1174936	0.2172738	3.7906199
59595159343000	-1.2240356	0.17597382	3.9097314
59595170085000	-1.3371617	0.04189853	3.6248214
59595179362000	-1.6089035	-0.18674773	2.9508536
59595190379000	-1.6639702	-0.50996494	2.496554
59595199382000	-0.3633201	-2.0536265	1.3042414
59595210093000	0.93373865	-4.091092	-1.0989386
59595219401000	1.3503298	-6.435614	-3.7301662
59595230082000	1.62686	-9.913192	-8.010999
59595239421000	3.5613751	-14.963162	-14.673464
59595250468000	4.742315	-19.482218	-19.557634
59595259440000	3.7966053	-19.608511	-19.608511
59595272776000	7.901464	-19.608511	-17.641676
59595279429000	6.6750345	-18.63048	-11.188704
59595291728000	4.1293993	-12.13561	-8.515577
59595299479000	1.8674773	-8.2115135	-6.4625487
59595310252000	0.66379243	-6.1716533	-4.188656
59595319499000	-0.08200141	-3.2094274	-3.098097
59595330180000	-0.95349085	-1.5819688	-1.7220296
59595339549000	-3.4003649	-4.9344497	1.3425486
59595350261000	-3.4153287	-9.725247	4.594473
59595359538000	-2.9682117	-11.581352	4.074931
59595370555000	-3.4781766	-12.522872	-2.079364
59595379557000	-5.100847	-15.00506	-6.679224
59595390239000	-5.5312047	-18.562246	-9.145252
59595399608000	-5.695207	-19.608511	-9.534908
59595410289000	-4.2042184	-19.157206	-1.316811
59595419597000	-2.9203274	-14.179061	5.7790046
59595430674000	-2.6150668	-7.369353	8.866327
59595439616000	-2.6030958	-3.4488475	8.766968
59595450328000	-3.1381998	-2.8592753	6.4206505
59595459636000	-2.5635915	-3.9719806	3.289633
59595471965000	0.8810662	-5.632958	3.8426938
59595479655000	4.919486	-7.89907	7.9307933
59595490428000	7.0581064	-10.64881	9.050082
59595499675000	7.128137	-13.550583	5.1116204
59595510478000	4.9853263	-16.101604	-0.42078096
59595519725000	3.177704	-16.700754	-3.3087866
59595530497000	2.2230163	-14.2622595	-1.9237411
59595539775000	0.66498953	-12.079945	0.05746084
59595550792000	-1.2054806	-9.837775	0.83497787
59595559764000	-2.2391772	-7.7572136	1.2593501
59595570475000	-2.6611552	-6.6864066	0.6278794
59595579814000	-2.4211364	-6.59423	0.17357962
59595590495000	-1.4550761	-7.767389	0.7386112
59595599833000	-0.20530279	-9.685743	1.1324574
59595610850000	1.2563573	-11.380837	1.0271125
59595619853000	2.336741	-12.1044855	0.5758055
59595630534000	3.044826	-10.541072	-0.28072014
59595639872000	2.4690206	-8.450933	-0.943914
59595652110000	0.96905315	-7.4908586	-0.58777654
59595659922000	-0.31423897	-7.2484455	-0.46746787
59595670634000	-1.2174516	-7.247847	-0.41359833
59595679911000	-1.2282255	-7.129334	-0.19273324
59595690562000	-0.9720459	-7.1724296	0.28072014
59595699931000	-0.8218097	-7.539341	-0.021547815
59595710612000	-0.7577648	-8.063671	-1.1294646
59595719951000	-0.415394	-8.271368	-1.4377182
59595739970000	0.18255788	-8.658031	-0.2088941
59595750773000	1.0007763	-9.283517	-0.50038815
59595770823000	4.143166	-9.710882	-0.57041854
59595780345000	4.7536874	-10.199898	0.705691
59595791423000	2.6922798	-10.404003	0.82779527
59595811198000	-3.1794999	-11.556811	-1.0815806
59595820567000	-1.6406267	-11.362283	-0.31124622
59595835643000	1.7699136	-11.799823	0.50278234
59595851451000	5.368997	-12.593501	1.5556326
59595860789000	4.661511	-12.855666	0.81283146
59595871623000	2.9891608	-13.149554	-1.6166847
59595880961000	2.730587	-14.329896	-3.5416229
59595891642000	3.839701	-16.267403	-3.1399956
59595911143000	4.6860514	-16.092627	-2.834735
59595920176000	4.941034	-15.430032	-3.3171666
59595930796000	3.115455	-15.296555	-3.4506433
59595940165000	1.0241197	-15.354015	-4.3568487
59595950785000	-1.0420763	-15.152903	-3.9234982
59595960185000	-3.104681	-13.682264	-1.7375919
59595971232000	-4.6621094	-12.630611	-0.362123
59595980235000	-5.571307	-12.425308	1.4670471
59595990855000	-4.8147397	-13.837289	5.792771
59596000254000	-3.554791	-16.816874	7.49445
59596012400000	-3.2794578	-19.384056	5.449203
59596020121000	-2.5366566	-19.608511	1.0552444
59596030833000	-0.50397944	-18.6227	-2.7635074
59596040141000	1.4532804	-15.952566	-3.767875
59596050151000	1.578976	-14.914081	-2.2290018
59596059520000	0.25139117	-16.218323	-0.75956047
59596070231000	-0.4369418	-17.51598	-0.25857377
59596079539000	-1.2264298	-17.4663	0.15322891
59596090556000	-2.9442697	-16.415245	0.338181
59596099559000	-4.7309427	-15.500062	1.34195
59596110179000	-4.957195	-13.445837	3.2603042
59596119578000	-3.8833952	-10.134057	4.010288
59596130229000	-1.0875661	-6.799533	3.7074213
59596139598000	0.87208796	-5.554548	3.0460231
59596150676000	0.40402153	-6.1848216	2.0512323
59596159617000	-0.91937345	-6.622362	0.6290765
59596170268000	-1.3066356	-6.0884547	1.3694834
59596179637000	-1.2976574	-5.075109	2.9759927
59596191905000	-1.4197617	-4.1096473	3.5727475
59596199656000	-1.6418238	-2.9897594	3.7762547
59596210399000	-1.9554642	-1.6220716	3.9055414
59596219676000	-2.1499932	-0.6997054	3.891775
59596230327000	-2.066196	-0.23104046	3.9498343
59596239665000	-1.6891093	-0.17776948	4.0156746
59596250987000	-1.1282675	-0.08319851	4.185663
59596260356000	-0.6889315	-0.19093758	4.0096893
59596271342000	-0.7182605	-0.09756372	3.128623
59596280345000	-1.1761516	0.19752164	2.0739772
59596291026000	-1.5119383	-0.11552023	1.1767502
59596300364000	-0.36631286	-1.6514006	-0.3824737
59596311015000	0.9648633	-4.086902	-2.7060466
59596320384000	1.5215151	-6.63553	-5.121796
59596331401000	1.0402806	-10.289082	-9.563639
59596340403000	0.7080852	-15.79395	-15.727511
59596351085000	-0.28909984	-19.582775	-19.608511
59596360423000	3.364452	-19.608511	-19.608511
59596374919000	8.121132	-19.608511	-14.924855
59596380473000	7.8984714	-18.0445	-7.524976
59596391185000	5.831078	-11.798027	-5.9118824
59596400462000	3.008913	-7.1472907	-4.502895
59596411082000	1.3443443	-3.3183637	-3.4811692
59596420482000	0.09636662	-1.009156	-2.9783869
59596431102000	-1.9135658	-3.1872811	-1.0594343
59596440471000	-1.79206	-7.104195	1.7417817
59596451518000	-0.1412579	-8.977658	2.3373394
59596460490000	0.25677812	-11.544841	-1.4191631
59596471171000	-1.7345991	-16.509817	-3.7565024
59596480510000	-3.879804	-19.608511	-5.1265845
59596491160000	-4.759074	-19.608511	-7.0491285
59596500560000	-4.7339354	-19.434933	-4.619014
59596511607000	-4.128801	-14.539389	1.9895816
59596520549000	-3.6421793	-7.5950065	8.213907
59596531230000	-4.039018	-2.956839	9.802461
59596540568000	-5.871181	-2.2780828	7.3059063
59596552836000	-5.9412117	-2.919729	1.780089
59596560588000	-2.385822	-4.7638626	3.071761
59596571391000	2.1140802	-7.6093717	7.3687544
59596580607000	4.855441	-10.511743	8.661623
59596591288000	5.3282957	-13.6409645	4.815338
59596600627000	4.1958385	-15.992669	-0.62728083
59596611277000	4.020463	-16.6409	-2.585738
59596620646000	4.293402	-15.429433	-1.1390414
59596631694000	3.196858	-13.319543	0.37948096
59596640666000	2.202067	-10.610503	1.0462662
59596651286000	0.9295488	-8.426991	1.0977415
59596660685000	-0.073621705	-7.4908586	0.8750807
59596671367000	-0.53091425	-7.2071457	0.6781576
59596680705000	-0.46028528	-7.744644	0.97503865
59596691844000	-0.1933318	-8.719084	1.3096284
59596700694000	0.29867667	-9.877279	1.3036429
59596711375000	1.1097125	-10.42615	1.0815806
59596720713000	1.5610195	-10.168175	1.0307038
59596732982000	1.9560628	-9.436148	0.7469909
59596740733000	1.8471266	-8.360553	0.3824737
59596751506000	0.8882488	-7.392098	0.78529817
59596760753000	0.17118542	-7.0904284	0.91338795
59596771434000	-0.22924481	-7.3106947	0.26156655
59596780803000	-0.7625532	-8.025364	-0.96187055
59596791453000	-1.1659763	-8.744822	-1.567005
59596800792000	-0.7386112	-8.886678	-1.168969
59596811869000	0.30645782	-8.24204	-0.89423436
59596820811000	1.2024878	-7.766192	-1.2282255
59596831492000	1.8680758	-8.12233	-1.0043676
59596840831000	2.5600002	-8.643068	0.26874915
59596851512000	3.031658	-9.306262	2.190096
59596860850000	3.1465795	-9.94312	2.6384103
59596871928000	2.1918917	-10.613496	1.5023615
59596880870000	0.5638345	-11.288661	-0.18854338
59596891520000	-0.55844754	-11.735778	-1.2940661
59596900889000	-0.06823475	-11.442489	-0.79008657
59596915446000	1.3628993	-10.885238	0.4213795
59596920970000	2.4827871	-10.88823	1.0259154
59596931651000	2.8030117	-11.449671	0.3489549
59596940928000	2.110489	-12.12304	-1.4586674
59596951579000	1.5514427	-12.824541	-3.244742
59596960948000	2.9221232	-15.026608	-3.117849
59596971629000	4.1413703	-17.000628	-2.6138697
59596980967000	3.8187518	-16.443975	-3.7068229
59596992015000	3.7349546	-15.725716	-4.706402
59597001017000	2.3732524	-14.843452	-5.4737434
59597011638000	0.09935937	-13.891158	-5.5150437
59597021037000	-1.2330139	-12.624027	-2.6922798
59597031688000	-2.2535424	-11.83813	-1.1216835
59597041056000	-3.9815574	-12.485164	0.16879122
59597052104000	-4.953005	-13.920487	4.5124717
59597061046000	-3.9402575	-16.976686	7.5734587
59597071727000	-3.0011318	-19.562424	6.4763155
59597081096000	-1.5029601	-19.608511	2.4145525
59597093333000	0.7589619	-19.608511	-2.1811178
59597101085000	2.3630772	-18.486828	-3.8552632
59597112101000	1.6418238	-16.794727	-2.717419
59597121226000	-0.62728083	-17.169418	-1.0869676
59597131999000	-2.5635915	-18.408419	-0.19752164
59597141246000	-3.371036	-18.57721	-0.76315176
59597151957000	-3.7421372	-16.978481	-0.8110358
59597161265000	-4.188656	-14.942811	0.5823896
59597172282000	-5.199009	-12.911331	2.6635494
59597181285000	-4.95899	-10.392033	3.4763808
59597191996000	-3.7337575	-7.937976	2.9460652
59597201304000	-1.8722657	-6.1345434	2.3942018
59597212046000	-0.8415619	-5.3983264	2.3546975
59597221324000	-0.36631286	-4.860828	2.52289
59597232371000	-0.7739257	-4.630386	2.5181017
59597241343000	-1.0354922	-3.9564183	2.7982233
59597252055000	-1.0498575	-2.747945	3.5942953
59597261393000	-1.2066777	-1.7004818	3.8953662
59597273539000	-1.2096704	-0.9816227	4.143166
59597281443000	-0.94211835	-0.27114335	4.259285
59597292216000	-0.7224504	0.5686229	4.35625
59597301432000	-0.89662856	1.1899183	4.2371383
59597312144000	-0.8331822	1.4586674	3.8935704
59597321452000	-0.3705027	1.5215151	3.6768951
59597332133000	-0.06404489	1.335366	3.6355953
59597341472000	-0.2896984	1.0121487	3.757101
59597352519000	-0.7032967	0.51475334	3.2052376
59597361522000	-0.95708215	-0.9103952	1.9231426
59597372142000	-0.20470424	-3.1735144	-1.0031705
59597381541000	0.077811554	-6.377555	-5.3660045
59597392161000	0.64942724	-9.710283	-9.850345
59597401500000	3.3022027	-13.713388	-16.332047
59597412547000	3.3746274	-18.975843	-19.608511
59597421519000	-0.4261679	-19.608511	-19.608511
59597434092000	3.9187095	-19.608511	-16.44996
59597441508000	5.499481	-19.29966	-11.225215
59597453776000	2.0015526	-13.815741	-9.613318
59597461528000	-0.019752163	-8.810063	-7.8793178
59597472239000	-0.05626374	-5.4940944	-6.3350577
59597481547000	0.11791443	-2.5103204	-4.7279496
59597492411000	-2.5354595	-2.870648	-2.8580782
59597501750000	-3.7882257	-7.61416	0.9151836
59597512462000	-2.777274	-10.825383	4.091092
59597522014000	-4.27365	-11.978789	-0.83497787
59597532969000	-8.515577	-16.591219	-8.752603
59597542033000	-9.454104	-19.608511	-15.459959
59597552806000	-7.9487495	-19.608511	-12.334928
59597562175000	-3.614646	-18.149845	3.8109705
59597572856000	-0.15203181	-8.05589	12.215217
59597582408000	0.05327099	-1.2150574	13.622409
59597593455000	-1.1593921	0.6206968	11.058818
59597602458000	-1.7100586	-1.0648212	7.0245876
59597613292000	0.3537433	-4.6100354	4.883573
59597622599000	4.0438066	-8.2115135	7.1586633
59597634898000	6.599617	-11.5616	9.704897
59597652568000	6.877943	-14.868591	6.6241574
59597661723000	6.1249666	-17.05749	-0.093373865
59597672496000	5.009867	-18.474258	-5.41329
59597681743000	4.630386	-17.365145	-4.0402155
59597692546000	3.3141737	-14.049175	0.05626374
59597701793000	0.82240826	-10.669162	2.666542
59597712779000	-0.7733272	-8.02297	1.5819688
59597721812000	-2.1296425	-6.6205664	0.04070143
59597732524000	-2.759916	-6.0321913	-1.0109516
59597741862000	-2.707842	-6.408081	-0.3645172
59597752543000	-2.054225	-7.6572556	0.31004912
59597761912000	-1.1145009	-9.122507	0.56802434
59597772868000	-0.09995792	-10.316016	1.0073603
59597781932000	0.96187055	-10.952275	1.3096284
59597792582000	1.6645688	-10.3453455	0.533907
59597801921000	1.7669208	-8.938153	-0.61112
59597814158000	0.78769237	-7.827244	-0.54288524
59597821940000	-0.7032967	-7.599196	0.19512744
59597832682000	-1.584363	-7.047931	1.2240356
59597841990000	-2.1362264	-6.3829417	1.4437037
59597852610000	-2.6473885	-6.3524156	0.89603
59597862010000	-3.0705638	-7.1490865	-1.3664906
59597872599000	-3.1627405	-8.161834	-4.390966
59597881999000	-2.718616	-9.102755	-4.168904
59597892985000	-2.3529017	-9.694721	-1.7788919
59597902049000	-0.7835025	-9.549872	-0.074818805
59597912639000	1.8674773	-9.70789	1.1354501
59597922038000	4.969166	-10.66138	3.1130607
59597932628000	6.8683662	-11.48319	3.6104562
59597942057000	5.6946087	-11.250953	1.6101006
59597953135000	1.5526398	-11.549629	-1.1755531
59597962077000	-1.4574703	-12.50731	-1.5951369
59597974681000	-0.08738836	-13.626599	-0.3669114
59597982097000	4.2730513	-14.082694	2.071583
59597994304000	7.425018	-14.1904335	2.5863364
59598002086000	7.187992	-14.454394	0.415394
59598012858000	4.905121	-15.109208	-2.2918496
59598022166000	3.6828809	-16.25184	-3.0232782
59598032817000	3.7367504	-16.617556	-2.168548
59598042186000	4.371214	-15.67843	-3.8361096
59598052836000	4.252701	-15.424644	-4.5352163
59598062144000	2.3002293	-15.309723	-3.105878
59598073222000	0.3321955	-14.156316	-1.822586
59598082164000	-1.7603368	-12.565968	-1.9632454
59598092875000	-4.574721	-12.289437	-2.1242554
59598102183000	-6.2608376	-13.09329	-1.9686323
59598112895000	-5.9280434	-14.472949	0.6183026
59598122203000	-4.5382094	-16.732477	6.1040173
59598133281000	-3.283049	-18.67178	6.9928646
59598142253000	-2.2876596	-19.603724	3.7547069
59598152934000	-0.36750996	-19.151817	0.05566519
59598162272000	1.1186907	-17.376518	-2.1152773
59598174510000	0.96905315	-16.452953	-1.7764976
59598182261000	-0.83617496	-16.714521	-0.557849
59598193034000	-2.8473043	-17.581223	-0.3681085
59598202281000	-3.4380736	-17.957111	-0.25019407
59598212962000	-3.3249476	-16.741455	-0.16460137
59598222300000	-4.1174283	-15.7825775	-0.6985083
59598232951000	-5.406706	-15.555128	1.0564415
59598242320000	-5.6305637	-13.646351	4.2461166
59598253367000	-3.0909145	-9.932345	4.31076
59598262370000	-0.34835634	-6.600814	3.715801
59598273051000	0.86251116	-5.489306	3.004723
59598282359000	-0.21906945	-6.2865753	1.804031
59598293010000	-0.82360536	-6.1159883	0.94092125
59598302379000	-1.1210849	-5.0757074	1.3970166
59598313487000	-0.91817635	-3.6457705	2.718616
59598322459000	-0.66139823	-2.5001452	3.934272
59598333079000	-0.87567925	-1.3485341	4.7177744
59598342448000	-1.3425486	-0.14604631	4.8901567
59598354716000	-1.4999673	0.8403648	4.5142674
59598362498000	-1.8034325	1.5119383	3.964798
59598373149000	-2.2337902	1.7399861	3.489549
59598382457000	-2.397793	1.4850036	3.0639796
59598393168000	-2.0602105	0.9020155	2.831742
59598402507000	-1.6154876	-5.985504E-4	2.44029
59598413127000	-1.5460558	-0.56323594	1.9746178
59598422557000	-1.5729905	-0.57640404	1.3599066
59598433513000	-1.1971009	-1.4688427	-0.04129998
59598442576000	0.049081136	-3.8301241	-2.4600422
59598453166000	0.65062433	-7.187992	-6.51163
59598462565000	1.0271125	-11.133038	-11.312603
59598473185000	3.0250738	-15.492879	-17.099987
59598482554000	4.26946	-19.417574	-19.608511
59598495494000	4.8320975	-19.608511	-19.572
59598502604000	6.71813	-19.608511	-15.60421
59598513102000	5.965752	-17.496227	-10.05445
59598522502000	3.068768	-11.908161	-7.792528
59598534709000	0.7469909	-8.258799	-6.5445504
59598542521000	-0.0023942017	-5.6377463	-5.8400564
59598553202000	0.40342298	-3.210026	-6.0543375
59598562510000	-0.012569559	-2.244564	-5.431845
59598573161000	-2.7060466	-5.725135	-3.2255883
59598582530000	-2.730587	-10.524312	0.19033903
59598593150000	-3.3919852	-12.852674	-0.04189853
59598602610000	-4.987122	-14.481928	-4.5896845
59598613566000	-6.7486563	-17.165827	-8.213907
59598622569000	-8.288128	-19.476831	-9.758766
59598633189000	-8.566454	-19.563622	-8.848371
59598642588000	-5.847239	-16.61157	-0.11731588
59598653300000	-3.3117795	-10.472239	8.689157
59598662608000	-2.0572178	-4.799177	11.356895
59598673625000	-1.1294646	-1.8387469	10.128671
59598682628000	-1.1348516	-1.8100165	6.7839704
59598693309000	0.08678981	-3.3183637	3.7445314
59598702617000	3.176507	-6.2422824	3.887585
59598714915000	6.133945	-9.407417	7.926005
59598722636000	6.6103907	-12.678495	8.259995
59598733439000	5.9639564	-14.2700405	3.180697
59598742686000	4.38917	-15.79814	-2.7287915
59598753306000	3.2513258	-16.08784	-4.2491093
59598762706000	2.8670566	-14.046782	-1.7818847
59598773387000	1.4939818	-11.643601	1.685518
59598782725000	0.24899697	-8.848969	2.735974
59598793742000	-0.61171854	-7.1287355	1.4443022
59598802775000	-2.1254525	-7.023989	0.31543607
59598813426000	-2.6767175	-7.255628	0.2208651
59598822764000	-2.3511062	-8.154053	0.5847838
59598833445000	-1.6837224	-9.540894	1.1067197
59598842784000	-0.98940384	-10.561422	1.3623008
59598853831000	-0.5470751	-11.030685	0.789488
59598862803000	0.17896658	-10.542868	0.50397944
59598873454000	0.9684546	-9.082404	0.38367084
59598882823000	0.88405895	-8.084022	0.15263036
59598895091000	0.37588966	-7.429208	1.0965444
59598902842000	5.985504E-4	-7.041946	1.9458874
59598913554000	-0.27473465	-7.08564	1.8363527
59598922862000	-1.0366893	-7.7907324	0.11851298
59598933543000	-1.9494787	-8.723274	-2.3481133
59598942881000	-2.1003134	-9.129091	-2.5594015
59598953563000	-1.6921021	-9.295488	-1.477821
59598962901000	-0.44711718	-9.383475	-1.1384429
59598973918000	1.7597382	-8.989629	-0.88765025
59598982890000	4.143166	-8.995016	0.05925649
59598993571000	5.953781	-9.85633	2.135628
59599002940000	6.2195373	-10.491392	2.8054059
59599013621000	3.9432502	-10.34774	1.3024458
59599022960000	-0.2753332	-10.90499	-0.6619968
59599033976000	-3.268684	-11.848905	-1.6687586
59599042979000	-2.3122003	-11.688493	-1.2731167
59599055644000	1.2814964	-11.481394	0.38307226
59599064128000	4.5819035	-11.933898	2.9496565
59599075358000	6.120178	-12.626421	3.8552632
59599083079000	5.7975593	-13.036428	2.2589293
59599093852000	4.076727	-13.4739685	-0.5955577
59599103099000	3.3279405	-14.817116	-2.0949266
59599113719000	3.470994	-16.251242	-1.8166006
59599123118000	3.2094274	-15.832257	-2.554613
59599133799000	2.837129	-15.55034	-3.697246
59599143138000	1.4059949	-15.895703	-4.1826706
59599154185000	-0.5823896	-15.907076	-5.5844755
59599163188000	-2.408567	-14.6920185	-4.1120415
59599173838000	-3.9264908	-12.698247	-0.7038953
59599183177000	-5.336077	-11.779472	0.997185
59599193827000	-6.5403605	-12.1128645	0.7685388
59599203196000	-6.155493	-13.827712	3.517681
59599214274000	-3.9857473	-15.822082	6.731298
59599223399000	-2.7138276	-17.807474	5.3265004
59599234080000	-1.5759833	-19.059042	1.7914615
59599243419000	0.29568392	-18.346169	-1.5077485
59599255839000	1.6184803	-16.164454	-2.4672248
59599263621000	1.4814123	-14.749479	-1.8249803
59599274394000	-0.12808979	-15.295358	-1.0899603
59599283824000	-1.3790601	-16.7229	-0.41718966
59599294474000	-2.4678235	-17.1778	-0.32142156
59599303843000	-3.6391866	-16.22311	0.15143326
59599314677000	-4.9625816	-15.097238	2.0296845
59599324046000	-5.599439	-12.850279	3.8420951
59599335032000	-4.935048	-9.933543	3.1896753
59599344218000	-3.068768	-7.709928	2.4929626
59599354930000	-0.75118077	-5.893926	2.8407204
59599364268000	0.670975	-4.7884035	2.3529017
59599383372000	0.48722005	-5.2726307	1.2545617
59599394420000	-0.10594343	-5.315128	1.1240777
59599403392000	-0.12509704	-4.583101	2.106299
59599414103000	-0.110133275	-3.6343982	3.1908724
59599423411000	-0.3669114	-2.9047651	3.6194344
59599435618000	-0.7278373	-2.1021092	3.7032316
59599443431000	-1.0133458	-1.2395979	3.5619736
59599454387000	-1.049259	-0.58538234	3.4608185
59599463511000	-1.1450269	-0.035314474	3.4566288
59599474101000	-1.3940239	-0.076015905	3.321955
59599483470000	-1.282095	-0.2717419	3.3159695
59599495097000	-1.1486182	-0.53450555	3.276465
59599503672000	-1.1438298	-0.5033809	2.882619
59599514476000	-1.050456	-0.5327099	2.2601264
59599523478000	-1.42455	-0.94451255	1.6525977
59599534129000	-0.86011696	-2.106299	0.3298013
59599543498000	-0.30705637	-4.253299	-2.4660277
59599554118000	0.29807812	-7.123947	-6.9090676
59599563517000	1.5095441	-11.407773	-12.747927
59599574534000	3.353678	-17.33043	-19.17157
59599583537000	1.0851719	-19.608511	-19.608511
59599596141000	1.2126632	-19.608511	-19.248783
59599603556000	7.2107368	-19.608511	-14.73691
59599615794000	6.2859764	-17.18498	-12.467207
59599623576000	2.2655134	-12.273875	-11.134833
59599634318000	0.06344634	-9.452907	-7.4190326
59599643596000	-1.246182	-6.879739	-2.6102784
59599654216000	-2.777274	-6.1770406	-1.7298107
