accelerometer_timestamp	accelerometer_x_data	accelerometer_y_data	accelerometer_z_data
924312945848402	0.9904022	5.696289	8.426147
924312954240736	1.0210724	5.6823883	8.617645
924312962633070	0.86672974	5.670349	8.578476
924312971025404	0.6813202	5.633255	8.295212
924312979417738	0.4745636	5.5934753	7.8180847
924312987810072	0.36434937	5.598572	7.2236786
924312996202406	0.29833984	5.5917816	6.575241
924313004594740	0.32803345	5.6250305	5.953949
924313012987074	0.44818115	5.7137146	5.4140625
924313021379408	0.56925964	5.8131866	4.986435
924313029771742	0.5074463	5.8371124	4.813965
924313038164076	0.58158875	5.7758026	5.14946
924313046556410	0.7410736	5.618088	5.7308655
924313054948744	0.9861603	5.457779	6.5252075
924313063341078	1.3236847	5.3823853	7.464279
924313071733412	1.7366486	5.4310303	8.400055
924313080125746	1.9953003	5.560837	8.99762
924313088518080	2.0879364	5.6705933	9.171417
924313096910414	2.0787354	5.743973	8.93277
924313105302748	1.9263153	5.822052	8.510696
924313113695082	1.6380615	5.9135437	8.018234
924313122087416	1.3053131	5.9765015	7.4157104
924313130479750	1.095581	5.953644	6.984314
924313138872084	0.9282837	5.92984	6.7254944
924313147264418	0.93896484	5.9140472	6.562744
924313155656752	1.0649109	5.9202423	6.522583
924313164049086	1.221878	5.9370117	6.5939026
924313172441420	1.3548584	5.9306335	6.7099457
924313180833754	1.3837738	5.9316254	6.873459
924313189226088	1.4039459	5.8892517	7.2395325
924313197618422	1.429596	5.837677	7.7565155
924313206010756	1.4317322	5.795166	8.291016
924313214403090	1.4469604	5.7589874	8.754791
924313222795424	1.5763702	5.7099915	9.126999
924313231187758	1.6661072	5.6850586	9.094116
924313239580091	1.6300049	5.712677	8.921936
924313247972425	1.5168304	5.751831	8.647873
924313256364759	1.3463898	5.748352	8.303162
924313264757093	1.1532135	5.6764374	7.9094696
924313273149427	0.9949341	5.560974	7.48703
924313281541761	0.90701294	5.545166	7.2696686
924313289934095	0.93110657	5.6033173	7.232025
924313298326429	0.99154663	5.599228	7.2858887
924313306718763	1.0549622	5.5373993	7.421631
924313315111097	1.1021729	5.4579163	7.657608
924313323503431	1.1298676	5.3888397	8.018188
924313331895765	1.2636414	5.299652	8.333328
924313340288099	1.4162292	5.2781525	8.640045
924313348680433	1.591095	5.2998047	8.862839
924313357072767	1.7863007	5.3264465	8.985489
924313365465101	1.9848785	5.351822	9.0121765
924313373857435	2.1535034	5.421921	8.944382
924313382249769	2.2776031	5.5125427	8.675476
924313390642103	2.3120575	5.543991	8.283966
924313399034437	2.296814	5.5462494	7.8784027
924313407426771	2.258255	5.5465546	7.5
924313415819105	2.211319	5.5496826	7.1553345
924313424211439	2.154419	5.5299377	6.8336334
924313432603773	1.9689789	5.5369263	6.7548676
924313440996107	1.9517517	5.510391	6.8386536
924313449388441	1.9335632	5.455307	6.973068
924313457780775	1.915802	5.3953094	7.1498566
924313466173109	1.9176178	5.3518677	7.377121
924313474565443	1.9028931	5.33313	7.6313477
924313482957777	1.8706818	5.296036	7.88031
924313491350111	1.8705292	5.273834	8.077652
924313499742445	1.870697	5.247772	8.237564
924313508134779	1.8890381	5.228897	8.403107
924313516527113	1.930603	5.222763	8.58493
924313524919447	1.9513245	5.21402	8.727173
924313533311781	1.8625946	5.3157196	8.792969
924313541704115	1.7389832	5.331543	8.753265
924313550096449	1.6568756	5.3293457	8.491623
924313558488783	1.610199	5.337082	8.042664
924313566881117	1.5505676	5.3623962	7.545883
924313575273451	1.4269409	5.3936157	7.175705
924313583665785	1.303299	5.401581	7.062042
924313592058119	1.2587738	5.3884125	7.2112885
924313600450453	1.2902527	5.3710175	7.5249176
924313608842787	1.3769073	5.3627625	7.8830566
924313617235121	1.5627441	5.324402	8.321182
924313625627455	2.024643	5.1431274	9.1805725
924313634019789	2.523529	5.2641907	10.232056
924313642412123	1.7649078	5.7667847	9.611618
924313650804457	1.4932709	5.7760925	8.729385
924313659196791	1.828598	5.401703	8.212173
924313667589125	2.0854645	5.1751556	8.040909
924313675981459	1.8581543	5.334381	7.881958
924313684373793	1.5639343	5.4735413	7.761673
924313692766127	1.4554138	5.495117	7.703415
924313701158461	1.4642944	5.4108887	7.6371
924313709550795	1.4588928	5.308075	7.647873
924313717943129	1.3443451	5.2658234	7.797638
924313726335463	1.1885071	5.2447357	7.9597015
924313734727797	1.0948029	5.1669617	8.135178
924313743120131	1.0928192	5.139969	8.031189
924313751512465	1.1717529	5.16687	7.9413147
924313759904799	1.3008118	5.182373	8.0338745
924313768297133	1.4108429	5.137924	8.312698
924313776689466	1.3958893	5.140915	8.511093
924313785081800	1.5325775	5.100189	8.613647
924313793474134	1.6578522	5.066971	8.693283
924313801866468	1.618576	5.095886	8.584381
924313810258802	1.4606628	5.1392517	8.306122
924313818651136	1.3027802	5.131485	8.02742
924313827043470	1.1143341	5.1384735	7.9775543
924313835435804	0.84077454	5.1423798	7.9076996
924313843828138	0.7680969	5.070801	7.782852
924313852220472	0.7522278	5.0273285	7.6540527
924313860612806	0.74472046	5.048523	7.648758
924313869005140	0.7949066	5.099182	7.802826
924313877397474	1.0036469	5.1131134	7.851532
924313885789808	1.2046051	5.1173096	7.81662
924313894182142	1.2597046	5.1885223	7.814377
924313902574476	1.3118134	5.2327423	7.3708954
924313910966810	1.4220123	5.2883606	6.9091187
924313919359144	1.5903931	5.3968353	7.1817627
924313927751478	1.8047485	5.3051147	7.7789917
924313936143812	1.7530823	5.219452	8.108078
924313944536146	1.5781555	5.1890717	8.233734
924313952928480	1.4588165	5.133255	8.32608
924313961320814	1.4360504	5.0510254	8.5195465
924313969713148	1.4516144	4.98468	8.853531
924313978105482	1.4635468	4.9071503	9.113968
924313986497816	1.4799194	4.9460907	9.165497
924313994890150	1.4635315	5.0114746	9.124161
924314003282484	1.4614105	5.1200104	9.021637
924314011674818	1.5249634	5.2638855	8.682266
924314020067152	1.6560669	5.392853	7.8797455
924314028459486	1.7148895	5.3659363	6.639435
924314036851820	1.3063202	5.3345337	6.7700043
924314045244154	1.1614227	5.3067627	7.610855
924314053636488	1.2568665	5.24057	8.494675
924314062028822	1.416565	5.154007	8.941391
924314070421156	1.4194183	5.109207	8.815674
924314078813490	1.2230225	5.130142	8.326141
924314087205824	1.0393372	5.168808	7.902603
924314095598158	1.030365	5.1698456	7.6861115
924314103990492	1.055542	5.156021	7.683487
924314112382826	1.0372925	5.1438293	7.835724
924314120775160	0.97872925	5.133713	7.9653015
924314129167494	0.90893555	5.0968323	7.6472626
924314137559828	1.0177155	5.2451324	5.9502716
924314145952162	1.3888397	5.320221	6.5253906
924314154344496	1.7926483	5.237274	8.263535
924314162736830	2.0144958	5.073929	9.814636
924314171129164	1.9557648	5.023346	10.332428
924314179521498	1.7623596	5.0981293	9.487976
924314187913832	1.5569763	5.1200256	8.9244995
924314196306166	1.5424042	5.15654	8.889648
924314204698500	1.6592865	5.248047	9.025192
924314213090834	1.7857513	5.3552856	8.921234
924314221483168	1.7918854	5.383194	8.326553
924314229875502	1.5904846	5.3991547	7.4472046
924314238267836	1.2207336	5.637146	6.9481964
924314246660170	1.3620911	5.672653	6.607727
924314255052504	1.6302185	5.586441	6.422638
924314263444838	1.7491302	5.5178223	6.458847
924314271837172	1.6960449	5.5618286	6.785553
924314280229506	1.4455414	5.650284	7.3203125
924314288621840	1.0936737	5.610428	7.775635
924314297014174	1.2348175	5.3798676	8.29686
924314305406508	1.4400635	5.1861725	8.724121
924314313798841	1.4199066	5.176544	8.915054
924314322191175	1.2530518	5.3154755	8.838303
924314330583509	1.1949768	5.3307495	8.61116
924314338975843	1.1078644	5.331482	8.234543
924314347368177	1.0152283	5.357025	8.084732
924314355760511	0.91192627	5.3694916	8.109665
924314364152845	0.8632965	5.340622	8.183258
924314372545179	0.9938965	5.2886353	8.203522
924314380937513	1.033493	5.355652	7.8806
924314389329847	1.2468872	5.30394	7.598877
924314397722181	1.3839111	5.301834	7.3029327
924314406114515	1.4624786	5.2719727	7.163269
924314414506849	1.4170685	5.2185974	7.242157
924314422899183	1.0781708	5.299103	7.3877563
924314431291517	0.78804016	5.427719	7.755661
924314439683851	0.8401489	5.384384	8.372589
924314448076185	1.0785675	5.200699	8.856583
924314456468519	1.2897186	4.999817	9.05983
924314464860853	1.3018646	4.9147644	8.9605255
924314473253187	1.0924835	5.015274	8.699112
924314481645521	0.9095764	5.1534424	8.327347
924314490037855	0.88072205	5.199234	8.086075
924314498430189	0.9396515	5.198059	7.934555
924314506822523	1.0323944	5.1790314	7.8622894
924314515214857	1.1093445	5.173889	7.8227997
924314523607191	1.1422577	5.2096405	7.7297516
924314531999525	1.09729	5.2770844	7.60408
924314540391859	1.0069122	5.282654	7.5231323
924314548784193	0.916626	5.2757263	7.485611
924314557176527	0.81411743	5.2574005	7.5009003
924314565568861	0.69563293	5.2300873	7.576172
924314573961195	0.59124756	5.2136383	7.7102356
924314582353529	0.5638275	5.2014465	7.875763
924314590745863	0.5274811	5.1919556	8.080505
924314599138197	0.50572205	5.1855774	8.238922
924314607530531	0.5227051	5.1634674	8.339386
924314615922865	0.56762695	5.1289825	8.411285
924314624315199	0.5770569	5.1260986	8.504883
924314632707533	0.47634888	5.17395	8.5407715
924314641099867	0.42851257	5.1690826	8.540665
924314649492201	0.45462036	5.1200104	8.528656
924314657884535	0.53889465	5.0931854	8.46022
924314666276869	0.6365051	5.1250916	8.3276825
924314674669203	0.6842041	5.170456	8.214584
924314683061537	0.7054596	5.2453613	8.056656
924314691453871	0.66859436	5.3036346	7.942032
924314699846205	0.6060791	5.2914734	7.887207
924314708238539	0.5129242	5.2223206	7.881836
924314716630873	0.3762207	5.11969	7.902237
924314725023207	0.19464111	4.983017	7.9207764
924314733415541	-0.06047058	4.8443146	7.8833313
924314741807875	-0.28631592	4.7734222	7.821869
924314750200209	-0.48620605	4.726288	7.801285
924314758592543	-0.575531	4.7084656	7.820816
924314766984877	-0.4905243	4.7246094	7.8767242
924314775377211	-0.2775421	4.7414856	8.007889
924314783769545	-0.13098145	4.756439	8.315979
924314792161879	0.016830444	4.725418	8.7417755
924314800554213	0.2602539	4.6587677	9.222519
924314808946547	0.4726715	4.603653	9.6953125
924314817338881	0.5051727	4.597458	10.096039
924314825731215	0.36117554	4.6252594	10.359863
924314834123549	0.09877014	4.6172943	10.249542
924314842515883	-0.12812805	4.5927124	9.827896
924314850908216	-0.33963013	4.59346	9.216064
924314859300550	-0.51698303	4.5742188	8.635864
924314867692884	-0.66355896	4.496582	8.280746
924314876085218	-0.87031555	4.430969	8.174393
924314884477552	-1.0544434	4.4597473	8.175201
924314892869886	-1.1416626	4.50296	8.176407
924314901262220	-1.1220703	4.570694	8.203583
924314909654554	-1.0610504	4.6106415	8.2170105
924314918046888	-1.027771	4.5962524	8.151367
924314926439222	-1.0062256	4.647171	7.965317
924314934831556	-1.0500641	4.728897	7.7265778
924314943223890	-1.0371246	4.84816	7.56839
924314951616224	-1.0520935	4.9706573	7.3627625
924314960008558	-1.0819244	5.0488586	7.1284027
924314968400892	-1.0880737	5.043228	6.944412
924314976793226	-1.1239624	4.94751	6.817795
924314985185560	-1.2842407	4.868469	6.6384735
924314993577894	-1.0102997	4.886917	6.600189
924315001970228	-0.5984497	4.847687	7.0740204
924315010362562	-0.50257874	4.869156	7.635559
924315018754896	-0.907135	5.1404877	7.4179993
924315027147230	-1.0527191	5.569214	5.5954437
924315035539564	-1.1921082	5.6480255	5.291626
924315043931898	-1.0337982	5.5773773	6.6562195
924315052324232	-0.5704193	5.2854004	7.8700867
924315060716566	-0.15992737	4.929779	8.571136
924315069108900	-0.41059875	4.814163	9.31012
924315077501234	-2.1016846	5.251877	10.205109
924315085893568	-3.3302002	5.6309204	8.970001
924315094285902	-3.366623	5.328537	7.707443
924315102678236	-3.4009552	4.9599457	7.148178
924315111070570	-3.8153076	4.851074	7.284256
924315119462904	-4.245575	5.002945	7.6517944
924315127855238	-4.009308	5.2470245	7.7025604
924315136247572	-3.5345154	5.7224426	7.360031
924315144639906	-2.2731018	5.5158844	6.647583
924315153032240	-1.2568359	5.273697	5.4727783
924315161424574	-1.2743683	5.36998	5.015381
924315169816908	-2.278595	5.7992706	6.5351257
924315178209242	-2.9296722	6.6673737	7.5033417
924315186601576	-5.7211914	6.0720825	9.498825
924315194993910	-6.245926	5.7259216	8.534119
924315203386244	-5.737488	5.36821	6.842758
924315211778578	-5.145996	5.0727844	6.042938
924315220170912	-4.423462	5.246994	5.9651794
924315228563246	-3.6875458	5.514694	5.8434906
924315236955580	-3.4012604	5.8283234	5.6415863
924315245347914	-3.5280762	6.1599426	5.5119324
924315253740248	-4.038681	6.617447	5.5222473
924315262132582	-4.641327	7.1537476	5.653946
924315270524916	-4.8954773	7.56868	5.781769
924315278917250	-4.406845	7.591202	5.464508
924315287309584	-3.5901031	7.41156	4.8569183
924315295701918	-2.7503052	7.2699585	4.1239624
924315304094252	-2.0212555	7.157715	3.707489
924315312486586	-1.4056091	6.953293	3.7069244
924315320878920	-0.9230652	6.498184	3.8811798
924315329271254	-1.2657776	5.9811554	3.8194885
924315337663588	-2.110199	5.5327606	3.7710266
924315346055922	-3.2363892	5.1484222	3.8534393
924315354448256	-4.25206	4.371277	3.9172974
924315362840590	-5.1233215	3.845108	3.930008
924315371232924	-6.1078033	4.7792664	4.083435
924315379625258	-6.7023773	4.7148285	4.931839
924315388017591	-6.486496	4.7499237	5.4904175
924315396409925	-6.3660126	5.02977	5.524643
924315404802259	-6.0655365	5.3303986	5.3857574
924315413194593	-5.36821	5.5112305	5.1608124
924315421586927	-4.355194	5.5744934	4.6122894
924315429979261	-2.892685	5.30307	4.0020905
924315438371595	-1.9441681	5.1202393	3.5932007
924315446763929	-1.7041321	4.791397	3.2971954
924315455156263	-2.5283966	4.6781006	2.9114685
924315463548597	-4.260376	4.8991547	2.6355438
924315471940931	-6.1809387	5.198288	2.9760895
924315480333265	-7.742523	5.7111816	3.0595856
924315488725599	-8.999435	6.170273	2.9658813
924315497117933	-9.76207	6.715332	3.0032806
924315505510267	-9.870956	7.210449	2.9694824
924315513902601	-9.416153	7.492386	2.7186737
924315522294935	-8.653793	7.4411774	2.372116
924315530687269	-8.083496	7.050354	2.4129944
924315539079603	-7.8804016	6.655731	2.6375275
924315547471937	-7.9380035	6.3203583	2.7997742
924315555864271	-8.132324	6.2790833	2.9280396
924315564256605	-8.244293	6.651062	2.965973
924315572653906	-8.037338	7.2169952	2.6816406
924315581046240	-7.7401276	7.5509796	2.474884
924315589438574	-7.657791	7.7484436	1.9839935
924315597830908	-7.606888	7.7844086	1.4660034
924315606223242	-7.681671	7.7039948	1.1894684
924315614615576	-7.9938507	7.575287	1.2069092
924315623007910	-8.553314	7.4232025	1.279953
924315631400244	-9.202408	7.236313	1.7391815
924315639792578	-9.958511	7.0827026	2.3901367
924315648184912	-10.756119	6.9981537	2.8414612
924315656577246	-11.39682	7.0079346	3.093277
924315664969580	-11.649872	7.0554047	3.2509003
924315673361914	-11.245865	6.959137	3.3566132
924315681754248	-10.644669	6.7487793	3.3745575
924315690146582	-9.948654	6.538925	3.27771
924315698538916	-9.242523	6.437134	2.8721924
924315706931250	-8.586777	6.5334473	2.2919006
924315715323584	-8.08992	6.868744	1.7339478
924315723715918	-7.979233	7.408142	1.2065277
924315732108252	-7.896988	7.8823547	0.9628296
924315740500586	-7.75354	8.198044	0.7281952
924315748892920	-7.460434	8.322662	0.631073
924315757285254	-7.217911	8.272156	0.8258667
924315765677588	-7.261429	8.120178	1.2170105
924315774069922	-7.5302734	7.978485	1.2102203
924315782462256	-7.8092804	7.786804	1.2690582
924315790854590	-8.094803	7.629196	1.2405243
924315799246924	-8.299683	7.550064	1.2374573
924315807639258	-8.294128	7.5503693	1.247879
924315816031592	-8.026123	7.6071167	1.2207184
924315824423926	-7.592819	7.7151794	1.1729431
924315832816260	-7.2667236	7.927719	1.1515961
924315841208594	-6.846222	8.098511	0.8379364
924315849600928	-6.3077545	8.244171	0.4015808
924315857993262	-5.802246	8.302277	-0.05795288
924315866385596	-5.4680786	8.243423	-0.52645874
924315874777930	-5.2826843	8.201645	-1.0449371
924315883170264	-5.47847	8.205215	-1.2361755
924315891562598	-5.806244	8.12796	-1.1517792
924315899954932	-6.0376434	8.072327	-0.8770294
924315908347266	-6.113266	8.080856	-0.5643158
924315916739600	-6.0864716	8.123062	-0.32841492
924315925131933	-5.993988	8.093857	-0.07142639
924315933524267	-5.959427	7.890976	-0.0066986084
924315941916601	-6.0344696	7.879715	-0.093307495
924315950308935	-5.9855347	7.899292	-0.188797
924315958701269	-5.851761	7.9023743	-0.27555847
924315967093603	-5.83078	7.925995	-0.41697693
924315975485937	-6.021408	8.015991	-0.6898651
924315983878271	-6.0788727	8.089371	-0.8924103
924315992270605	-6.081482	7.9667206	-0.8822174
924316000662939	-6.218277	7.8775177	-0.95962524
924316009055273	-6.3202972	7.886734	-1.2292633
924316017447607	-6.1202087	7.942978	-1.5696869
924316025839941	-5.689972	8.0529785	-1.6533966
924316034232275	-5.3320313	8.176285	-1.8706818
924316042624609	-5.0373993	8.3358	-1.8915863
924316051016943	-4.8440247	8.452286	-1.761795
924316059409277	-4.8278503	8.49498	-1.4944458
924316067801611	-5.0024567	8.491882	-1.0934296
924316076193945	-5.142624	8.480942	-0.67396545
924316084586279	-5.0879517	8.332779	-0.48721313
924316092978613	-5.015152	8.23259	-0.4653778
924316101370947	-4.9074707	8.21759	-0.55293274
924316109763281	-4.6934357	8.245529	-0.72598267
924316118155615	-4.2843323	8.241745	-0.98065186
924316126547949	-3.673996	8.239807	-1.2600098
924316134940283	-3.2850342	8.2986145	-1.6155396
924316143332617	-2.9885864	8.412125	-2.0031738
924316151724951	-2.7957	8.51712	-2.3587036
924316160117285	-2.669815	8.568649	-2.682541
924316168509619	-2.540985	8.554367	-2.9795837
924316176901953	-2.4543457	8.445358	-2.9786224
924316185294287	-2.5285645	8.383392	-2.589203
924316193686621	-2.7432098	8.3063965	-1.9464722
924316202078955	-3.103653	8.217743	-1.4110565
924316210471289	-3.5975342	8.129349	-1.08461
924316218863623	-4.1942444	8.067871	-0.8517761
924316227255957	-4.7836914	8.195114	-0.8567505
924316235648291	-5.098236	8.487686	-1.2960815
924316244040625	-4.9462433	8.730743	-1.6695862
924316252432959	-4.604294	8.858078	-1.8623352
924316260825293	-4.292282	8.890289	-1.9299164
924316269217627	-4.0407715	8.903275	-2.0178223
924316277609961	-3.671875	8.88533	-2.086609
924316286002295	-3.3260498	8.830551	-2.0829468
924316294394629	-3.073288	8.721344	-2.0950928
924316302786963	-2.9064636	8.599762	-2.072113
924316311179297	-2.802063	8.464325	-1.9183044
924316319571631	-2.7465973	8.261505	-1.5695343
924316327963965	-2.7735138	8.049133	-1.3123016
924316336356299	-2.9355774	8.056381	-1.3258972
924316344748633	-3.0688019	8.143707	-1.3522491
924316353140967	-3.2520142	8.269241	-1.4150543
924316361533301	-3.5150757	8.397354	-1.5426788
924316369925635	-3.772049	8.50766	-1.6876831
924316378317969	-3.9243622	8.6540985	-1.6398468
924316386710303	-3.9732513	8.775955	-1.6146698
924316395102637	-3.9345398	8.831741	-1.6307068
924316403494971	-3.8188324	8.861145	-1.6436157
924316411887305	-3.6629486	8.891098	-1.6448822
924316420279639	-3.5328522	8.908432	-1.6841583
924316428671973	-3.524704	8.908432	-1.7962036
924316437064307	-3.4970093	8.902374	-1.7946014
924316445456641	-3.344757	8.869965	-1.8265686
924316453848975	-3.1219635	8.840942	-1.858841
924316462241308	-2.9350128	8.846436	-1.9207001
924316470633642	-2.8826904	8.898285	-2.1497498
924316479025976	-2.8846436	8.995926	-2.3186493
924316487418310	-2.984314	8.996521	-2.311798
924316495810644	-3.184723	8.996796	-2.2497864
924316504202978	-3.4602966	8.984436	-2.105072
924316512595312	-3.7254028	8.913727	-1.8739471
924316520987646	-3.858551	8.765488	-1.6453552
924316529379980	-3.9239502	8.722534	-1.4842682
924316537772314	-3.9888458	8.780579	-1.4195404
924316546164648	-3.958847	8.841843	-1.5045624
924316554556982	-3.8100128	8.848938	-1.615036
924316562949316	-3.6228333	8.807556	-1.6722717
924316571341650	-3.5568695	8.796112	-1.7427826
924316579733984	-3.394806	8.837112	-1.706665
924316588126318	-3.2402496	8.838837	-1.5843658
924316596518652	-3.0972443	8.783813	-1.4898682
924316604910986	-2.9782867	8.673645	-1.4489594
924316613303320	-2.8984985	8.546967	-1.417923
924316621695654	-2.8630981	8.474731	-1.3084717
924316630087988	-2.8511658	8.357437	-1.2200165
924316638480322	-2.940796	8.282455	-1.1747437
924316646872656	-3.0220795	8.184418	-1.1698456
924316655264990	-3.1368103	8.141144	-1.2651367
924316663657324	-3.3179016	8.236542	-1.4923248
924316672049658	-3.4647827	8.447632	-1.8070221
924316680441992	-3.236023	8.306488	-2.4329224
924316688834326	-3.0033264	7.2803955	-2.491516
924316697226660	-3.2285461	6.6717834	-1.4603119
924316705618994	-3.3148956	7.0452576	-0.78034973
924316714011328	-2.8061066	8.131683	-1.4163666
924316722403662	-2.3862915	8.780197	-1.839035
924316730795996	-2.3609924	8.938858	-2.154419
924316739188330	-2.2838898	9.015991	-1.9239197
924316747580664	-2.137146	8.821167	-0.74053955
924316755972998	-2.2771301	8.5312805	0.25535583
924316764365332	-2.702713	8.538284	0.430542
924316772757666	-2.6267853	9.242065	1.1119232
924316781150000	-2.9258118	9.68544	0.26535034
924316789542334	-3.0883331	9.891235	-0.11480713
924316797934668	-3.29924	10.05072	-0.3222351
924316806327002	-3.431015	10.143234	-0.70051575
924316814719336	-3.3125305	10.174072	-1.4304199
924316823111670	-2.9984283	10.3967285	-2.206726
924316831504004	-2.7580566	10.472885	-2.5976563
924316839896338	-2.7982788	10.691711	-2.772232
924316848288672	-3.1655426	10.752197	-2.3131409
924316856681006	-3.5719452	10.629196	-1.538269
924316865073340	-3.6473236	10.447052	-1.0222778
924316873465674	-3.2421112	10.314667	-1.0018768
924316881858008	-3.0025482	10.047287	-0.97802734
924316890250342	-3.1296997	9.794708	-0.62890625
924316898642676	-3.2607727	9.439682	-0.21420288
924316907035010	-3.4257507	9.158173	0.16471863
924316915427344	-3.659195	9.08989	0.4011383
924316923819678	-3.5225983	8.866562	0.23861694
924316932212012	-1.9603119	8.415863	0.21818542
924316940604346	-1.1809235	8.329468	0.24261475
924316948996680	-1.5094452	8.549759	0.13453674
924316957389014	-2.2386627	8.803589	0.036621094
924316965781348	-2.4919434	8.820251	0.16534424
924316974173682	-2.501709	8.613266	0.44848633
924316982566016	-2.4414063	8.685989	-0.0099487305
924316990958350	-2.3988495	8.629684	-0.31080627
924316999350683	-2.4146118	8.53566	-0.42344666
924317007743017	-2.3196564	8.427368	-0.50105286
924317016135351	-1.9964447	8.274124	-0.6044769
924317024527685	-1.9304352	8.020264	-0.12008667
924317032920019	-2.0044403	8.0233	-0.3205719
924317041312353	-2.0571747	8.10553	-0.4165802
924317049704687	-2.1320953	8.122299	-0.3501587
924317058097021	-2.275406	8.071426	-0.17727661
924317066489355	-2.4780426	8.034622	-0.033584595
924317074881689	-2.5513916	8.015274	-0.120162964
924317083274023	-2.1808472	8.047623	-0.3375702
924317091666357	-2.0598907	8.228729	-0.48809814
924317100058691	-2.1223755	8.2912445	-0.39886475
924317108451025	-2.2703552	8.146576	-0.046585083
924317116843359	-2.3976593	8.013199	0.3164978
924317125235693	-2.4541016	8.625458	-0.033935547
924317133628027	-3.6942291	8.581696	-0.31869507
924317142020361	-3.8425903	9.017792	0.48132324
924317150412695	-2.8878174	8.981934	1.3845215
924317158805029	-1.814148	8.279831	1.4754639
924317167197363	-1.9242096	7.6176147	0.69177246
924317175589697	-3.607193	8.474045	1.7047424
924317183982031	-2.0806732	8.040466	2.146164
924317192374365	-1.5489349	7.912094	1.8465118
924317200766699	-1.3500977	7.67717	1.2323456
924317209159033	-1.2353821	7.4367523	0.87898254
924317217551367	-1.4904938	7.6643066	1.0508881
924317225943701	-1.0636902	7.6347656	0.27877808
924317234336035	-0.5135498	7.6559753	-0.62057495
924317242728369	-0.56933594	7.6331177	-0.877655
924317251120703	-0.80392456	7.491043	-0.6482544
924317259513037	-0.77867126	7.1977234	-0.30267334
924317267905371	-0.3295288	6.877884	-0.14390564
924317276297705	0.08605957	7.347473	0.23197937
924317284690039	0.21820068	7.4147186	0.6708069
924317293082373	0.14796448	7.2562103	0.99850464
924317301474707	0.043029785	7.3954773	1.3029327
924317309867041	-0.026748657	7.7069244	1.6032867
924317318259375	-0.08180237	7.496399	1.8394623
924317326651709	0.030471802	6.854965	2.0747528
924317335044043	0.25932312	6.5625	2.0933685
924317343436377	0.36276245	6.3593903	1.9842987
924317351828711	0.57321167	6.3552246	1.8916321
924317360221045	0.9206543	6.6179047	1.9085999
924317368613379	1.1857605	7.093445	2.0218964
924317377005713	1.4280243	7.6328278	1.9760284
924317385398047	1.2295227	8.196442	2.1764832
924317393790381	0.5187988	8.677185	2.5432434
924317402182715	-0.1322174	8.951111	2.9006042
924317410575049	-0.39582825	9.003082	3.1616516
924317418967383	-0.40997314	8.940338	3.3736877
924317427359717	-0.6008606	8.878387	3.6367035
924317435752051	-1.0299683	8.884918	3.8922882
924317444144385	-1.4875183	8.967697	4.0502014
924317452536719	-1.7895508	8.9878235	3.9906464
924317460929053	-1.866684	9.11235	3.843628
924317469321387	-1.838623	9.754181	3.9881897
924317477713721	-2.2411957	9.884399	4.399719
924317486106055	-2.991043	10.709152	4.4622345
924317494498389	-3.4471588	10.927872	4.0097656
924317502890723	-3.7076416	10.909775	3.2462006
924317511283057	-3.9028778	11.110458	2.5248108
924317519675391	-3.9993591	11.522766	2.2346802
924317528067725	-4.3383484	11.690262	2.8797302
924317536460058	-4.789398	11.667679	3.3995667
924317544852392	-5.1901703	11.753082	3.7610931
924317553244726	-5.7058716	11.91391	3.7261353
924317561637060	-6.1138763	12.092682	3.3020477
924317570029394	-5.7218933	12.252853	2.9476013
924317578421728	-5.8749695	12.034164	3.041031
924317586814062	-6.4635773	11.911896	3.423935
924317595206396	-6.795105	12.020264	3.368164
924317603598730	-6.5851135	12.061523	2.8526306
924317611991064	-5.9794464	11.901352	2.1119995
924317620383398	-5.648819	11.756943	1.5436554
924317628775732	-5.4539948	11.425934	0.81604004
924317637168066	-5.1858215	11.218842	0.8998108
924317645560400	-5.1549835	11.007324	1.0457458
924317653952734	-4.7719574	10.691635	1.2310333
924317662345068	-3.6134033	10.302292	1.2648163
924317670737402	-2.0214844	10.018524	0.5941162
924317679129736	-0.9058533	9.521027	-0.5265045
924317687522070	-0.31336975	8.797256	-0.9902344
924317695914404	-0.46340942	8.245239	-0.62057495
924317704306738	-1.2128143	7.4762726	0.23071289
924317712699072	-2.3955688	6.291565	0.91430664
924317721091406	-3.9538574	5.2390137	0.70892334
924317729483740	-4.9528503	6.555084	-0.04852295
924317737876074	-4.913925	7.7315063	-0.87768555
924317746268408	-4.3540497	8.586884	-1.1638031
924317754660742	-4.163391	8.774139	-1.1998138
924317763053076	-4.764801	8.507553	-1.1762543
924317771445410	-5.638397	8.772232	-0.74583435
924317779837744	-5.422394	8.382202	-0.41181946
924317788230078	-5.573181	7.962433	0.1484375
924317796622412	-5.5201874	7.1720123	0.49282837
924317805014746	-5.2239075	6.658798	0.52893066
924317813407080	-4.8480377	6.656723	0.42814636
924317821799414	-4.5786285	6.2667236	0.5506439
924317830191748	-4.2734833	5.7538147	0.4333496
924317838584082	-4.369278	5.8166046	0.3256836
924317846976416	-4.4423676	6.058899	0.11526489
924317855368750	-4.617096	6.4113464	-0.24699402
924317863761084	-4.966934	6.845108	-0.7451019
924317872153418	-5.1698	7.2187653	-1.2983246
924317880545752	-5.153	7.32901	-1.5467987
924317888938086	-5.114609	7.3254395	-1.534317
924317897330420	-4.889969	7.0325317	-1.3713074
924317905722754	-4.6951447	6.5864563	-1.1830902
924317914115088	-4.764908	6.177017	-1.0016937
924317922507422	-5.079193	5.848007	-0.6766052
924317930899756	-5.1549835	6.245224	-0.19934082
924317939292090	-5.1761627	6.6942596	-0.3018036
924317947684424	-5.087677	7.2594757	-0.8370819
924317956076758	-4.763321	7.6461487	-1.5405426
924317964469092	-4.2510834	7.7786713	-2.1292114
924317972861426	-3.973297	8.285004	-2.4069977
924317981253760	-4.069153	8.333633	-2.4829407
924317989646094	-4.211899	8.174271	-2.4815369
924317998038428	-4.6351624	7.872879	-2.082428
924318006430762	-4.817932	7.719589	-1.9507904
924318014823096	-4.4560547	7.876343	-2.3925323
924318023215430	-4.4213715	8.022018	-2.0288239
924318031607764	-5.2053833	8.551224	-1.6866455
924318040000098	-5.9765778	9.087814	-1.5196381
924318048392432	-6.24086	8.980637	-1.933136
924318056784766	-6.039566	8.911087	-2.4441376
924318065177100	-5.7440643	9.485672	-2.4834747
924318073569433	-5.84375	9.634216	-2.2950287
924318081961767	-5.947098	8.827698	-1.6450806
924318090354101	-6.52919	8.708771	-0.8663025
924318098746435	-6.606491	8.609924	-0.4573059
924318107138769	-6.0429688	8.471848	-0.3202057
924318115531103	-5.357025	8.537247	-0.16041565
924318123923437	-5.5101013	8.92392	6.2561035E-4
924318132315771	-5.481262	9.2278595	-0.89016724
924318140708105	-4.851303	9.284042	-2.038971
924318149100439	-4.0938416	9.188187	-2.8202515
924318157492773	-3.1809235	8.992813	-3.220871
924318165885107	-2.1122284	8.712784	-3.5319977
924318174277441	-1.784195	8.339035	-3.8858795
924318182669775	-2.1831512	7.7957764	-3.4673462
924318191062109	-2.095642	7.605774	-2.6719208
924318199454443	-2.1943054	7.7036896	-2.0621948
924318207846777	-2.6243134	7.9075775	-1.6203918
924318216239111	-3.0654907	8.022507	-1.1367035
924318224631445	-2.9114227	7.9678497	-0.91404724
924318233023779	-2.8813477	7.855591	-1.2008972
924318241416113	-3.1737518	7.6784973	-1.6736908
924318249808447	-2.8897705	7.5706635	-1.5021667
924318258200781	-1.9919739	7.6161957	-1.0343628
924318266593115	-1.173172	7.749069	-0.85816956
924318274985449	-1.5041656	7.549881	0.26860046
924318283377783	-1.9452667	6.839279	1.4231567
924318291770117	-1.7378235	6.003601	1.6633759
924318300162451	-1.2648621	5.5865784	1.1526489
924318308554785	-0.99694824	5.7299194	-0.026229858
924318316947119	-1.2273102	6.1988373	-1.6260529
924318325339453	-1.6839447	6.4969482	-2.42865
924318333731787	-1.6393127	6.0170135	-2.3464966
924318342124121	-1.8547668	5.2942657	-0.05708313
924318350516455	-2.3431854	4.3741455	2.8911133
924318358908789	-2.6347656	3.617752	4.017853
924318367301123	-2.3700562	3.9556732	2.5135956
924318375693457	-2.8173676	7.7945404	5.8862762
924318384085791	-1.7332153	12.438034	6.6698
924318392478125	-0.3940277	18.497192	4.9729614
924318400870459	2.4384003	22.568848	-3.928543
924318409262793	2.0815582	23.710907	-11.650467
924318417655127	-6.6337585	22.986908	-5.9041443
924318426047461	-10.802292	19.717682	-2.250061
924318434439795	-7.079483	16.931412	-1.2239075
924318442832129	-1.9504242	14.625732	1.5329285
924318451224463	0.76519775	13.018219	2.2934113
924318459616797	1.0964813	12.353226	1.1951904
924318468009131	1.4462738	12.389084	1.7112885
924318476401465	0.61032104	10.377197	4.2430267
924318484793799	0.86473083	10.20163	0.6340637
924318493186133	2.0463715	10.202866	-0.9108887
924318501578467	2.5326385	9.687912	-0.40066528
924318509970801	2.3552399	9.137436	0.20768738
924318518363135	3.084076	9.660614	-0.8296814
924318526755469	4.072113	9.922836	1.7076874
924318535147803	4.2039337	9.882263	3.3054962
924318543540137	4.2074738	10.430817	1.9901733
924318551932471	4.0832977	10.323212	0.9959259
924318560324805	3.8921509	9.36647	1.3246155
924318568717139	3.7761078	8.636612	1.1353302
924318577109473	3.597351	9.16301	0.28381348
924318585501807	3.1114807	9.704575	0.07847595
924318593894141	2.7926178	9.799789	0.17974854
924318602286475	2.5134888	9.519943	0.34603882
924318610678808	2.341385	9.121506	0.5836792
924318619071142	2.5393066	8.918076	1.0347137
924318627463476	2.6932526	9.119308	1.397934
924318635855810	2.8233032	9.537094	-0.431015
924318644248144	1.8660889	9.258057	-0.53364563
924318652640478	0.39961243	8.42865	0.5025482
924318661032812	-1.3295593	7.6871033	1.041336
924318669425146	-3.497818	7.7565613	-0.16899109
924318677817480	-4.255829	7.5129547	0.24641418
924318686209814	-4.243759	7.2830048	0.7706146
924318694602148	-3.7013092	6.8505554	0.99871826
924318702994482	-2.8350067	6.4319763	0.4088745
924318711386816	-1.7471161	5.9888	-1.2182465
924318719779150	-0.42416382	5.1159363	-3.4834747
924318728171484	0.8290558	4.294861	-4.785797
924318736563818	1.2984924	4.661072	-5.026886
924318744956152	1.1448364	5.446808	-4.579834
924318753348486	0.40194702	6.330414	-3.4939575
924318761740820	-0.7404022	7.054413	-1.9471893
924318770133154	-1.9636688	7.4033966	-0.24639893
924318778525488	-2.418579	7.1515656	1.1610565
924318786917822	-2.2008362	6.9060974	2.5123901
924318795310156	-2.013153	7.611801	3.7611237
924318803702490	-1.3818512	8.050568	4.215973
924318812094824	-0.29057312	7.4844513	3.9104462
924318820487158	0.36512756	6.621689	3.893402
924318828879492	-0.22532654	7.6604156	4.1021423
924318837271826	-0.3407135	9.350403	-0.7674866
924318845664160	0.47097778	10.191223	-3.900406
924318854056494	1.0780182	10.481247	-5.0998535
924318862448828	0.48130798	11.055786	-4.936081
924318870841162	-1.3173676	12.609909	-2.9177704
924318879233496	-2.0880585	13.357666	-1.72435
924318887625830	-3.0528564	14.232376	-1.6488953
924318896018164	-4.097885	15.958298	-1.2840881
924318904410498	-4.504303	17.700165	-0.53764343
924318912802832	-4.0368195	18.92543	0.49072266
924318921195166	-3.3129578	20.261261	2.0055237
924318929587500	-1.2822571	20.187057	3.1653748
924318937979834	0.7019043	19.422485	1.3998413
924318946372168	1.9451447	17.919708	-2.171753
924318954764502	2.534134	15.741135	-4.718338
924318963156836	2.8613434	12.991058	-4.4055176
924318971549170	3.1981812	9.721359	-2.040039
924318979941504	2.9190826	7.2471313	0.4209442
924318988333838	2.5109406	5.391556	2.6127014
924318996726172	2.0609589	4.0397644	4.203293
924319005118506	2.0389404	2.8918304	4.823044
924319013510840	2.591217	1.8234711	4.612198
924319021903174	3.1474304	1.1063385	4.4876556
924319030295508	3.7667084	0.47911072	4.46579
924319038687842	3.8616333	1.0140228	4.7450714
924319047080176	4.052109	1.4226837	4.705673
924319055472510	4.018402	2.217331	4.516861
924319063864844	3.3960571	4.0334167	4.41156
924319072257178	2.3897858	6.507019	4.217743
924319080649512	1.8485565	9.062241	4.0775757
924319089041846	1.7226105	11.175369	3.7333221
924319097434180	2.3649292	12.286499	3.1674347
924319105826514	3.7602234	12.21608	2.504074
924319114218848	5.3447113	11.393295	1.8095856
924319122611182	6.057251	10.785889	0.8965149
924319131003516	6.5283203	9.996613	0.13595581
924319139395850	6.616638	9.149658	-0.41600037
924319147788183	6.4449005	8.482956	-0.7197418
924319156180517	6.1588287	8.110764	-0.8229523
924319164572851	5.7993164	8.050766	-0.82154846
924319172965185	5.226959	8.251282	-0.8459015
924319181357519	4.190933	8.307022	-0.62316895
924319189749853	3.2091522	8.215622	-0.39045715
924319198142187	2.436081	8.121323	-0.19537354
924319206534521	1.9234314	8.102768	-0.041885376
924319214926855	1.6502228	8.180679	0.07510376
924319223319189	1.5565033	8.325256	0.13790894
924319231711523	1.6551819	8.489197	0.29658508
924319240103857	1.9117584	8.589172	0.5220642
924319248496191	2.2371826	8.619095	0.75497437
924319256888525	2.569275	8.630875	1.0109253
924319265280859	2.8377228	8.683411	1.2880707
924319273673193	2.9274445	8.765167	1.4535675
924319282065527	2.812912	8.859436	1.5285492
924319290457861	2.5893707	8.857101	1.5258484
924319298850195	2.326065	8.78064	1.4724884
924319307242529	2.1011353	8.654526	1.3815155
924319315634863	1.9517212	8.491974	1.2567291
924319324027197	1.8283234	8.276566	1.1020203
924319332419531	1.7445221	8.026077	0.9364929
924319340811865	1.7453461	7.8186646	0.8148804
924319349204199	1.7965088	7.7176666	0.7280884
924319357596533	1.8730774	7.7867737	0.66482544
924319365988867	1.9732666	8.047165	0.621994
924319374381201	2.1387787	8.40509	0.6180115
924319382773535	2.446869	8.715927	0.6920471
924319391165869	2.8399506	8.833008	0.7627716
924319399558203	3.1751251	8.863678	0.7722626
924319407950537	3.3975677	8.843536	0.6360321
924319416342871	3.5022583	8.782028	0.26052856
924319424735205	3.43367	8.8138275	-0.43925476
924319433127539	3.455368	8.741791	-1.4439392
924319441519873	3.0393982	8.763611	-0.93989563
924319449912207	1.930893	8.701233	2.105484
924319458304541	1.475357	8.877914	3.326004
924319466696875	2.9013672	9.58963	-1.1732178
924319475089209	3.366562	9.780472	-1.0797882
924319483481543	3.498993	9.840363	0.9128418
924319491873877	3.9770355	10.30011	0.967865
924319500266211	4.2104034	10.9604645	0.92015076
924319508658545	3.8831635	11.524231	1.8675232
924319517050879	3.0706482	11.779129	3.6000366
924319525443213	2.164627	11.733231	4.9209747
924319533835547	1.8481598	11.198486	4.4845734
924319542227881	2.2651672	10.721237	2.2729034
924319550620215	2.4896393	10.807587	-0.13923645
924319559012549	2.4131775	11.249588	-2.0205383
924319567404883	2.5586395	11.537537	-3.5422516
924319575797217	2.8866272	12.221954	-4.977112
924319584189551	2.566864	13.474762	-4.923233
924319592581885	1.9659729	14.616211	-2.9943085
924319600974219	0.63383484	14.726471	-2.7061768
924319609366553	-1.034729	14.036636	-5.034424
924319617758887	-1.7887878	13.527954	-7.8824005
924319626151221	0.29067993	13.397736	-6.254196
924319634543555	4.920059	12.779114	-1.1898804
924319642935889	8.150558	12.688644	3.2308655
924319651328223	9.059235	13.213684	5.453949
924319659720557	8.191772	14.390305	5.4264374
924319668112891	7.1175995	16.072113	4.5908203
924319676505225	6.4937286	17.175339	4.587906
924319684897558	6.004303	16.692352	4.7160187
924319693289892	5.759796	15.252304	4.499008
924319701682226	5.6151276	13.635696	3.6177368
924319710074560	5.656204	12.16452	2.0059357
924319718466894	6.194336	10.684296	-0.110809326
924319726859228	7.4418335	9.284042	-1.8665314
924319735251562	8.844528	8.045807	-2.2443695
924319743643896	9.954742	7.0864563	-1.5074005
924319752036230	10.228531	6.45697	-0.5725708
924319760428564	9.294769	6.176178	0.06222534
924319768820898	6.967987	6.2857056	0.42938232
924319777213232	4.311615	6.6572266	-0.2671051
924319785605566	0.4474945	6.538513	5.776184
924319793997900	-0.85617065	7.294235	5.748764
924319802390234	-1.1174927	7.951416	4.516861
924319810782568	-0.83110046	7.664093	3.8575287
924319819174902	1.5948792	6.5342407	-1.0376282
924319827567236	3.4473114	5.971924	-2.2619476
924319835959570	4.1981354	5.5894775	-0.26449585
924319844351904	4.772064	5.7279816	1.5703125
924319852744238	5.075409	5.836792	2.5963135
924319861136572	5.127701	5.667694	2.9536285
924319869528906	5.203827	5.543579	3.2306213
924319877921240	4.6437225	4.8219147	3.9288025
924319886313574	4.3238983	3.985489	3.9259033
924319894705908	4.3193054	3.0329285	3.6726227
924319903098242	4.474655	2.1228485	3.2302551
924319911490576	4.636673	1.3353271	2.6585693
924319919882910	4.7611694	0.6093292	2.0850983
924319928275244	4.707016	-0.014984131	1.5874786
924319936667578	4.699463	-0.5370636	1.3060913
924319945059912	4.566269	-0.50808716	1.4994049
924319953452246	4.4403076	0.35816956	1.9506378
924319961844580	4.6268616	1.6195068	2.2894897
924319970236914	5.4011383	2.2443237	2.2282104
924319978629248	5.8474426	2.2602234	1.690445
924319987021582	5.806946	2.3054657	1.2176056
924319995413916	5.7108917	2.7515259	0.8646698
924320003806250	5.816681	3.7883148	0.13734436
924320012198584	6.132004	5.6697845	-1.6757507
924320020590918	6.309021	8.716766	-5.117813
924320028983252	5.7980957	13.339905	-10.578903
924320037375586	4.2326202	17.204468	-19.73758
924320045767920	2.9909668	18.54506	-23.7583
924320054160254	1.9703522	18.791962	-19.373932
924320062552588	0.41067505	19.222412	-10.82991
924320070944922	-2.1855927	19.013962	-8.133362
924320079337256	1.3525238	16.628845	-7.4890137
924320087729590	2.2441711	14.776428	-3.901947
924320096121924	3.586731	14.523041	0.022506714
924320104514258	5.1582794	14.684921	1.7438965
924320112906592	6.283798	14.2907715	0.6806488
924320121298926	7.4208374	14.016876	-1.0757446
924320129691260	6.9089203	13.681885	-1.9017792
924320138083594	5.277832	13.500504	-1.3224945
924320146475928	4.0830994	13.617722	0.6257324
924320154868262	4.1508636	14.113419	3.0581055
924320163260596	5.288147	14.534317	4.297104
924320171652930	5.8856964	13.663101	2.665741
924320180045264	6.1232605	11.116455	2.4868164
924320188437598	6.2719116	6.9592285	2.5643768
924320196829932	5.190094	3.4185944	3.639923
924320205222266	3.1483612	0.86717224	7.7384644
924320213614600	1.2800903	-0.45298767	12.491791
924320222006933	0.8683319	0.67689514	6.860489
924320230399267	2.3226013	2.1126862	7.1739197
924320238791601	3.3848724	2.88089	6.462799
924320247183935	4.190811	3.2963257	5.3895264
924320255576269	4.6193695	3.8146515	4.4617615
924320263968603	4.7494965	4.5676117	3.7293396
924320272360937	5.258896	5.078644	2.6520386
924320280753271	6.1242676	5.730835	0.25938416
924320289145605	6.7862244	6.851364	-1.6727295
924320297537939	7.3583374	8.056427	-2.1723328
924320305930273	8.144516	9.07399	-1.4529724
924320314322607	9.352051	9.761337	0.15838623
924320322714941	10.83313	10.0486145	3.6304474
924320331107275	7.666641	9.2031555	3.965454
924320339499609	4.4499054	8.428665	2.8296814
924320347891943	3.238739	7.8742523	2.1365662
924320356284277	3.3882294	7.6227875	2.0865173
924320364676611	3.5434723	7.7138214	2.2451477
924320373068945	3.617035	8.039856	2.544342
924320381461279	3.4152832	8.510941	2.7093353
924320389853613	3.02948	8.820068	2.6352844
924320398245947	2.4622803	8.977966	2.3852997
924320406638281	1.9341431	8.942444	1.9895935
924320415030615	1.7290192	8.659531	1.4898529
924320423422949	1.8353729	8.149597	0.9918518
924320431815283	1.9398651	7.6639404	0.76904297
924320440207617	2.299881	7.187851	0.61224365
924320448599951	2.7522125	6.789871	0.8036804
924320456992285	3.2952576	6.5110474	1.4714966
924320465384619	3.9069977	6.3504944	2.439804
924320473776953	4.201111	6.2956696	3.1925354
924320482169287	4.2464905	6.2408295	3.9375153
924320490561621	4.0305786	6.2895355	4.410782
924320498953955	3.6295319	6.420639	4.2476807
924320507346289	3.1854553	6.6344147	3.3632355
924320515738623	2.8977356	6.9194183	2.0115204
924320524130957	2.9645386	7.2234955	0.5369568
924320532523291	3.4253387	7.4767	-0.4064331
924320540915625	3.884079	7.6949463	-0.3455963
924320549307959	4.390091	7.8641357	0.11239624
924320557700293	4.894226	7.919937	0.35876465
924320566092627	5.2959747	7.82428	-0.056137085
924320574484961	5.6698456	7.8152924	-0.76301575
924320582877295	6.1548157	8.08963	-0.43643188
924320591269629	6.5133667	8.66922	0.35191345
924320599661963	6.387451	9.527283	0.49627686
924320608054297	5.7858734	10.56163	-0.11619568
924320616446631	5.04657	11.603073	-0.83106995
924320624838965	4.3596344	12.552216	-1.5299683
924320633231299	3.2575989	13.359024	-2.6399994
924320641623633	3.970993	13.220627	-3.118988
924320650015967	6.056122	12.012726	-3.2378693
924320658408301	6.759659	11.921692	-1.8727722
924320666800635	4.15567	14.846817	1.7610779
924320675192969	4.1536713	15.920349	3.2789307
924320683585303	4.215164	15.844666	2.261261
924320691977637	3.790329	15.325333	2.2220154
924320700369971	3.5566864	14.2256775	2.0263824
924320708762305	3.7866821	12.951599	0.9332428
924320717154639	4.4087067	12.180374	-0.7988281
924320725546973	5.6649475	11.982956	-1.3780823
924320733939307	7.606903	11.803757	-1.1206055
924320742331641	9.218475	11.750183	-2.6453857
924320750723975	10.481369	11.892899	-3.5501556
924320759116308	10.670761	11.65239	-2.4934845
924320767508642	8.872543	10.240692	0.1771698
924320775900976	6.759857	8.929611	3.313797
924320784293310	6.175293	8.548187	5.95813
924320792685644	6.519516	8.435196	7.703537
924320801077978	7.5835114	8.338989	8.374023
924320809470312	8.89624	8.212051	7.874771
924320817862646	9.78685	8.181839	6.1845856
924320826254980	9.264542	8.306244	3.4496765
924320834647314	8.6901245	8.241653	2.1036377
924320843039648	7.9437256	8.611099	2.0676422
924320851431982	7.171814	9.198151	2.601242
924320859824316	6.4977875	9.661514	2.933075
924320868216650	5.9234924	9.779419	2.6036224
924320876608984	5.302353	9.658768	1.3613434
924320885001318	5.2196045	9.414871	1.2012787
924320893393652	5.6826324	9.030197	1.789856
924320901785986	5.6421356	8.120148	1.2381134
924320910178320	4.8964386	6.900482	-0.10173035
924320918570654	4.3124695	6.18985	0.4250946
924320926962988	4.087158	5.6225586	1.5985718
924320935355322	4.0273743	4.878418	2.2408905
924320943747656	4.0988617	4.339676	2.4781342
924320952139990	4.2888336	3.8574677	2.5436707
924320960532324	4.422226	3.3419037	2.5968628
924320968924658	4.198639	2.8796692	2.6337433
924320977316992	3.9465637	2.7146606	2.0729065
924320985709326	3.8033752	2.68013	2.150879
924320994101660	3.8734741	2.688797	2.4741058
924321002493994	3.965683	2.7638092	2.7549896
924321010886328	3.9773712	2.8447876	2.807953
924321019278662	3.9964142	2.7756958	2.5777283
924321027670996	4.0343018	2.619156	2.2357635
924321036063330	3.9620667	2.493454	1.7114258
924321044455664	3.8531952	2.5784607	1.3243561
924321052847998	4.030487	2.7173157	1.1737518
924321061240332	4.4595184	2.8079681	1.1930542
924321069632666	4.5757446	2.893814	1.1545105
924321078025000	4.3927307	2.8738098	1.1795044
924321086417334	4.4459076	3.0533905	0.79844666
924321094809668	4.7677765	3.438614	0.25697327
924321103202002	5.6325836	4.248825	-0.536499
924321111594336	6.959549	5.7485046	-1.7075195
924321119986670	8.065811	8.009552	-3.2901306
924321128379004	8.339813	10.826035	-6.2644806
924321136771338	8.81311	11.724945	-12.948822
924321145163672	7.79245	13.550781	-18.712845
924321153556006	6.8933563	16.042816	-19.827988
924321161948340	6.931076	17.944687	-15.845276
924321170340674	6.1228333	18.0634	-11.304947
924321178733008	3.060852	14.542038	-7.1408234
924321187125342	1.8184814	12.531525	-3.950592
924321195517676	2.1355896	11.7729645	-1.8111115
924321203910010	3.0181122	11.385971	-0.5424347
924321212302344	3.438675	10.660049	0.40930176
924321220694678	2.9910889	9.622482	1.8251495
924321229087012	2.7797089	9.070129	3.472229
924321237479346	3.8540497	9.246307	3.918213
924321245871680	5.202362	8.785858	3.6177063
924321254264014	6.105057	7.8896027	3.2885742
924321262656348	6.436569	7.030426	3.2883453
924321271048682	6.825165	6.3969116	3.2976685
924321279441016	7.9138947	6.036972	2.9138184
924321287833350	8.828613	7.9519196	3.7252502
924321296225683	9.986237	10.077438	-1.5053406
924321304618017	11.521561	10.040283	-8.489929
924321313010351	12.7825165	7.524887	-11.138809
924321321402685	12.256302	5.3213196	-6.7487335
924321329795019	7.485626	3.870407	0.13702393
924321338187353	3.3530579	3.7856293	4.5795593
924321346579687	0.96951294	4.101349	7.2034454
924321354972021	0.3960724	4.111038	8.108078
924321363364355	1.572586	3.9550018	7.2859497
924321371756689	4.6596375	4.88472	4.9126434
924321380149023	6.4738007	7.826477	6.5108643
924321388541357	6.474167	9.605209	7.386963
924321396933691	6.1898193	10.182831	7.871628
924321405326025	5.947174	10.066177	7.6917725
924321413718359	5.632614	9.782761	6.641876
924321422110693	5.0582733	9.583801	4.8857727
924321430503027	5.255081	9.184219	3.8619385
924321438895361	5.5318604	8.809845	3.4500885
924321447287695	5.8464355	8.488632	3.151062
924321455680029	5.997406	8.328827	2.5970001
924321464072363	5.866791	8.37088	1.7324066
924321472464697	5.586334	8.484848	0.9802551
924321480857031	5.208481	8.519348	0.32522583
924321489249365	5.2356567	8.310379	-0.21511841
924321497641699	5.4063873	7.9574738	-0.7432709
924321506034033	5.513336	7.555374	-1.0986176
924321514426367	5.420212	7.1516113	-1.1191711
924321522818701	5.0645294	6.702057	-0.82670593
924321531211035	4.475998	6.43985	-0.17233276
924321539603369	4.2742767	6.3378296	0.6579895
924321547995703	4.4852905	6.3152313	1.3690491
924321556388037	4.8092346	6.331436	1.7859192
924321564780371	4.97641	6.3451843	1.8689117
924321573172705	5.088684	6.2826996	1.7351685
924321581565039	5.3132324	5.9337616	1.2636719
924321589957373	5.3889313	5.4268646	0.542572
924321598349707	5.3125305	5.0437164	0.21540833
924321606742041	5.0151825	4.9438934	0.47920227
924321615134375	4.472061	5.143509	1.2001648
924321623526709	3.833908	5.473526	2.0053253
924321631919043	3.4334717	5.573761	2.5929565
924321640311377	3.27977	5.6461334	2.6324768
924321648703711	3.2651978	5.7548065	2.3753967
924321657096045	3.364914	5.943924	2.0516052
924321665488379	3.5636597	6.2198334	1.8003082
924321673880713	3.7567902	6.5216675	1.582901
924321682273047	4.107605	6.932144	1.2202301
924321690665381	4.512039	7.3622284	0.5762634
924321699057715	4.9616394	7.7783356	-0.41305542
924321707450049	5.480484	8.225342	-1.497406
924321715842383	6.0455475	8.764816	-2.1798859
924321724234717	6.468292	9.394516	-1.7561798
924321732627051	5.901001	10.067368	7.122177
924321741019385	7.75177	9.590683	0.24591064
924321749411719	11.520111	9.055832	-4.167633
924321757804053	14.087311	8.741791	-2.3678894
924321766196387	12.978638	8.488007	0.31217957
924321774588721	11.598755	8.506943	1.7489014
924321782981055	11.482483	8.570862	0.083724976
924321791373389	12.21843	9.493103	-2.3156738
924321799765723	12.768585	11.240372	-3.8837738
924321808158057	11.475815	12.719742	-5.18425
924321816550391	7.77005	12.823166	-7.1113586
924321824942725	5.6294403	12.4084015	-6.996704
924321833335058	4.771576	12.444656	-6.169281
924321841727392	5.231018	11.885803	-5.2358246
924321850119726	7.1573944	10.76004	-3.5292664
924321858512060	9.435364	9.545868	-1.3206024
924321866904394	10.578827	8.802338	0.5112457
924321875296728	10.714142	8.517136	1.3902283
924321883689062	11.742874	8.060165	2.5063782
924321892081396	12.817032	7.640991	3.6768646
924321900473730	12.849625	7.613739	4.155609
924321908866064	11.8450775	7.764908	3.967926
924321917258398	10.672928	7.5743866	3.7422333
924321925650732	10.336151	6.98526	4.0489197
924321934043066	11.20079	6.610443	5.162552
924321942435400	11.301071	7.176544	5.537369
924321950827734	11.315811	8.013962	5.0211487
924321959220068	11.6521	8.51445	3.6331177
924321967612402	12.16127	8.385788	1.6142426
924321976004736	12.326767	7.845413	0.25732422
924321984397070	10.973267	7.379242	0.28097534
924321992789404	8.683792	7.035904	1.1412201
924322001181738	6.5685577	6.8086853	2.2862701
924322009574072	5.2788696	6.7576447	3.1950989
924322017966406	4.6566467	6.9586334	3.5904388
924322026358740	4.6926727	7.2701263	3.308136
924322034751074	4.762192	7.648468	3.2674713
924322043143408	4.734329	7.410034	3.0305634
924322051535742	4.9755707	6.7624664	2.9097443
924322059928076	5.615341	5.987503	2.819748
924322068320410	6.4350586	5.22464	2.3482666
924322076712744	6.9905853	4.7023315	2.0680695
924322085105078	7.3932495	4.212494	2.424057
924322093497412	7.8436584	3.830536	3.077362
924322101889746	8.204208	3.3710327	3.7903137
924322110282080	8.298569	2.7936249	4.351959
924322118674414	7.9963226	2.2284698	4.5628357
924322127066748	7.665283	1.7379456	4.3752594
924322135459082	7.26474	1.2672577	3.8870392
924322143851416	6.8574066	0.7748108	3.2426147
924322152243750	6.2864075	0.50598145	2.6378784
924322160636084	5.5560303	0.5945587	2.204071
924322169028418	5.0227356	0.8982849	1.9543457
924322177420752	5.4444885	1.2253418	1.7835083
924322185813086	6.14003	1.4505615	1.2963867
924322194205420	7.006134	1.5434418	1.0306396
924322202597754	7.7563477	1.3830719	0.91015625
924322210990088	7.9272614	0.996994	0.8349762
924322219382422	7.175827	0.62461853	0.8379669
924322227774756	6.6291046	0.3287964	0.49235535
924322236167090	6.4376373	-0.038406372	0.04837036
924322244559424	6.5964355	-0.3714447	-0.73669434
924322252951758	6.9655914	-0.5053711	-1.5274506
924322261344092	7.525345	-0.31718445	-2.0353699
924322269736426	8.435165	0.22486877	-2.3063354
924322278128760	9.359589	1.0200806	-2.7775116
924322286521094	9.876831	2.132187	-4.0253754
924322294913428	9.870697	3.6467438	-7.7935486
924322303305762	10.382568	5.1849365	-14.150345
924322311698096	11.960709	6.7956696	-19.501968
924322320090430	13.981735	9.248642	-16.850418
924322328482764	14.2638855	11.251038	-13.653992
924322336875098	13.812119	11.943817	-12.533157
924322345267432	12.052475	11.1545105	-11.079712
924322353659766	9.097229	9.814896	-8.980972
924322362052100	6.1920013	8.883713	-6.1991425
924322370444433	5.5791473	8.546539	-2.2543488
924322378836767	6.3777466	8.205566	0.84140015
924322387229101	7.872925	8.420715	1.3735962
924322395621435	10.191879	8.769699	1.8430023
924322404013769	12.445251	9.35643	2.261261
924322412406103	13.949295	10.052444	2.4146576
924322420798437	15.076706	10.2140045	2.9122314
924322429190771	16.750015	9.921982	3.4116058
924322437583105	16.601395	10.77536	-0.093673706
924322445975439	14.205566	10.202393	-4.7573395
924322454367773	10.131546	7.9431458	-7.721695
924322462760107	5.696808	5.0160217	-6.4908447
924322471152441	3.0754242	3.137619	1.6212463
924322479544775	3.2682648	-0.35943604	10.368378
924322487937109	2.14357	-1.8019867	14.755432
924322496329443	1.6196136	-2.0069733	14.246109
924322504721777	2.3811188	-2.1991425	10.021225
924322513114111	4.1128845	-2.9945068	4.209564
924322521506445	6.248474	-3.6455688	-1.7933807
924322529898779	6.8386383	-0.60084534	-0.4046631
924322538291113	7.0601654	2.6892395	2.1987915
924322546683447	8.262878	4.777664	4.0950165
924322555075781	10.300461	5.427765	4.8192444
924322563468115	12.283096	5.124481	4.5790405
924322571860449	13.552689	4.5429077	3.6026459
924322580252783	13.864288	4.222122	2.96846
924322588645117	13.438965	4.597458	2.6444092
924322597037451	12.7724	5.3181763	2.6260223
924322605429785	11.934631	6.0952606	2.7399292
924322613822119	10.9709015	6.7014465	2.8539276
924322622214453	10.355713	6.9486847	3.1527557
924322630606787	9.191696	6.953949	2.7374878
924322638999121	8.300476	6.8133698	2.3047333
924322647391455	7.7615356	6.4864197	1.7950897
924322655783789	7.5656433	6.0273438	1.2844086
924322664176123	7.6518707	5.51297	0.8477173
924322672568457	7.9150696	4.971588	0.37313843
924322680960791	7.9734955	4.56398	0.0053100586
924322689353125	7.85231	4.2582245	-0.13201904
924322697745459	7.5463257	4.0352783	-0.17878723
924322706137793	7.203079	3.827942	-0.23797607
924322714530127	6.990341	3.557785	-0.33042908
924322722922461	6.8455353	3.1962585	-0.33535767
924322731314795	6.5785675	2.8663177	-0.5438385
924322739707129	6.407074	2.6072388	-0.702713
924322748099463	5.975113	2.361847	-0.8260193
924322756491797	5.51915	2.2698517	-0.77127075
924322764884131	5.522629	2.4696655	-0.29078674
924322773276465	5.8188477	2.6535492	0.7767792
924322781668799	6.3186493	2.8569489	1.9033661
924322790061133	6.1887817	2.9103851	2.5786285
924322798453467	5.804962	3.008377	2.757431
924322806845801	5.5832977	3.1384125	2.4512787
924322815238135	5.815201	3.2914276	1.601059
924322823630469	6.711441	3.9504242	-0.023513794
924322832022803	7.498398	4.903	-1.381134
924322840415137	8.519608	5.3980713	-1.6884003
924322848807471	9.440323	5.556427	-1.2684631
924322857199805	10.139053	5.797409	-0.5402374
924322865592139	10.752853	6.4222717	0.19418335
924322873984473	11.438309	6.8264313	1.0106201
924322882376807	11.822525	6.993408	1.5646057
924322890769141	11.764572	7.0065613	2.0007935
924322899161475	11.214874	6.9792175	2.2595978
924322907553808	10.31575	7.059372	2.1651917
924322915946142	9.395828	7.3916473	1.5198212
924322924338476	8.937347	8.026306	0.44711304
924322932730810	9.703598	9.4075775	-0.52830505
924322941123144	10.01828	11.190735	-1.1926422
924322949515478	10.729706	12.750198	-2.2384644
924322957907812	12.12912	13.6649475	-3.5721436
924322966300146	13.59021	14.000244	-4.560486
924322974692480	14.367966	14.452866	-5.852188
924322983084814	15.25061	13.268967	-6.991333
924322991477148	15.59285	10.613098	-7.041748
924322999869482	15.471466	8.250946	-6.0594635
924323008261816	15.638535	6.850998	-4.286148
924323016654150	16.682083	5.954132	-1.8729248
924323025046484	16.447495	5.8408203	1.2482605
924323033438818	14.597992	4.39386	4.582123
924323041831152	11.907272	3.3695068	7.4921265
924323050223486	10.98143	2.822174	9.140366
924323058615820	12.415405	2.4633636	9.519119
924323067008154	14.393555	2.0339203	9.417267
924323075400488	16.143219	1.9161072	8.54599
924323083792822	17.239487	2.0035553	6.8485107
924323092185156	16.838608	2.1103668	5.046692
924323100577490	15.574402	2.1640167	3.3607635
924323108969824	14.660049	2.0845795	1.7918091
924323117362158	14.892868	1.937912	0.312912
924323125754492	12.580994	2.8889465	0.018951416
924323134146826	9.320053	3.8462067	0.3093872
924323142539160	7.815979	4.448059	0.40786743
924323150931494	8.03537	4.947586	-0.1959076
924323159323828	8.852264	5.549179	-0.7990265
924323167716162	8.8541565	6.139435	-0.027175903
924323176108496	8.169769	6.03302	-0.45968628
924323184500830	6.4561157	5.0472565	-0.95773315
924323192893164	5.7493286	4.309555	-0.81651306
924323201285498	5.5510254	3.9146118	0.42433167
924323209677832	5.4787445	3.532196	2.5792847
924323218070166	5.95076	2.7585754	4.7537537
924323226462500	6.8053894	2.018036	6.261307
924323234854834	6.7825317	1.2185516	6.261963
924323243247168	6.5718994	0.7320862	5.3469696
924323251639502	6.416733	0.519516	3.9929657
924323260031836	6.388153	0.4616089	2.7204437
924323268424170	6.377899	0.49227905	1.9563751
924323276816504	5.935211	0.66874695	2.1617584
924323285208838	5.714432	0.77456665	2.8935394
924323293601172	5.5928345	0.78170776	3.6197815
924323301993506	5.511902	0.7710571	4.1380157
924323310385840	5.5009766	0.7397003	4.295044
924323318778174	5.636307	0.5464325	3.9803772
924323327170508	5.5728607	0.21351624	3.4170532
924323335562842	4.980896	0.030258179	2.880661
924323343955176	4.197632	-0.11601257	2.4187317
924323352347510	3.4539642	-0.27438354	1.9247894
924323360739844	3.019165	-0.37278748	1.1849823
924323369132178	3.1514282	-0.23680115	0.047470093
924323377524512	3.7977448	0.017028809	-0.56759644
924323385916846	4.4646606	0.5465698	-0.92430115
924323394309180	5.370926	1.3431244	-1.3079987
924323402701514	6.854553	2.5194397	-2.3434753
924323411093848	9.3405	4.084961	-5.285309
924323419486182	13.122131	5.7970276	-11.535065
924323427878516	18.645844	7.1707306	-19.594498
924323436270850	21.56044	6.336548	-20.282806
924323444663183	22.742035	5.221924	-20.590912
924323453055517	22.166718	3.6881561	-19.204834
924323461447851	19.178879	1.7795258	-14.532745
924323469840185	12.714996	1.2190857	-9.988449
924323478232519	6.569824	2.5078888	-7.9627686
924323486624853	4.1589966	3.4739685	-5.348419
924323495017187	5.324768	4.689209	-2.8148193
924323503409521	8.438995	5.8558044	-0.8695984
924323511801855	11.816895	6.570175	0.2484436
924323520194189	15.004639	7.000351	0.725235
924323528586523	16.49199	7.591202	-0.23551941
924323536978857	17.62938	7.6880035	0.034118652
924323545371191	18.075714	6.5996857	1.2194672
924323553763525	17.610413	5.7365723	1.4801636
924323562155859	15.705658	5.7151184	-0.66456604
924323570548193	11.240601	4.297821	-4.909622
924323578940527	6.0218964	1.9464722	-4.4249268
924323587332861	3.2830658	1.3001709	-2.193634
924323595725195	2.6694794	0.9779968	1.0756378
924323604117529	3.2581635	0.16217041	4.97377
924323612509863	3.7771454	-1.1264954	8.874481
924323620902197	3.0455627	-1.7119598	11.387329
924323629294531	3.8369446	-1.5699158	11.195023
924323637686865	5.534012	-1.6688995	8.796494
924323646079199	7.6883698	-1.3734589	4.088974
924323654471533	9.876892	-0.4008789	0.7918854
924323662863867	11.846024	1.078598	2.009018
924323671256201	13.900635	2.246109	3.8767242
924323679648535	15.197815	2.7113037	4.4880524
924323688040869	15.638687	3.1454163	4.5519104
924323696433203	13.768555	3.8208008	4.055237
924323704825537	10.520081	4.5360565	3.254776
924323713217871	8.046875	4.974777	2.579071
924323721610205	7.6832275	5.340454	2.394699
924323730002539	8.398544	5.6098175	2.147934
924323738394873	8.5429535	5.880539	1.769928
924323746787207	8.431244	6.019348	1.2868958
924323755179541	8.062592	6.0187225	0.7801819
924323763571875	7.376587	5.9321747	0.3254547
924323771964209	6.672806	5.715103	-0.0901947
924323780356543	6.6528015	5.3822174	0.06994629
924323788748877	6.8173523	5.1219788	0.5002594
924323797141211	6.851303	4.979599	0.88305664
924323805533545	6.847275	4.874069	0.95199585
924323813925879	7.062805	4.6725006	0.6218872
924323822318213	7.458023	4.3475037	0.3651123
924323830710547	7.7199554	4.1214447	0.120147705
924323839102881	7.9017487	3.8615875	0.037216187
924323847495215	7.8851166	3.6272278	-0.04576111
924323855887549	7.597412	3.4277344	-0.13343811
924323864279883	7.116089	3.259964	-0.11071777
924323872672217	6.9184723	3.267105	0.097076416
924323881064551	6.475113	3.135086	0.23313904
924323889456885	6.3498383	3.069458	0.7621002
924323897849219	5.982422	2.9555206	1.1868744
924323906241553	5.3869324	2.8590393	1.2575684
924323914633887	5.0820007	2.9125214	1.0119324
924323923026221	5.3576355	2.869812	0.5402527
924323931418555	6.363083	3.0184937	-0.17996216
924323939810889	7.7121124	3.1452332	-0.9349365
924323948203223	9.072586	3.2649841	-1.6286316
924323956595557	10.17717	3.497406	-2.1548615
924323964987891	10.9158325	3.9435577	-2.4516296
924323973380225	11.56488	4.305481	-2.7148285
924323981772558	11.753052	4.4441376	-2.8361359
924323990164892	10.869141	4.6358643	-1.2328949
924323998557226	10.009323	5.2518463	1.2162018
924324006949560	10.269287	5.9869385	3.406189
924324015341894	11.8428955	6.262451	4.7283173
924324023734228	11.062897	7.5713196	6.442032
924324032126562	10.151779	8.440155	6.854065
924324040518896	9.930206	8.87645	6.5288544
924324048911230	10.120102	9.227173	5.8009186
924324057303564	10.782059	9.659805	4.783722
924324065695898	12.238785	10.055542	3.3434296
924324074088232	13.262604	10.166916	1.4081879
924324082480566	14.780441	9.88678	-0.44281006
924324090872900	15.456116	9.689835	-2.1596222
924324099265234	14.859589	9.50502	-3.660263
924324107657568	13.020538	9.3146515	-4.447891
924324116049902	10.555862	9.056686	-4.1080627
924324124442236	9.133438	7.122345	-6.001648
924324132834570	9.029587	4.0930786	-11.930801
924324141226904	9.67189	2.4432678	-15.605759
924324149619238	11.16095	2.2329712	-15.96904
924324158011572	13.535065	2.947647	-13.429108
924324166403906	16.428665	3.894699	-9.111053
924324174796240	18.433578	4.6839447	-2.7295227
924324183188574	19.864197	4.610031	3.288437
924324191580908	19.826263	4.0863037	7.6511993
924324199973242	18.488968	3.5739746	10.794922
924324208365576	16.603088	3.3797607	13.033478
924324216757910	15.15303	3.5117188	13.961792
924324225150244	14.124222	3.4068146	12.869812
924324233542578	13.092789	3.4901276	10.619171
924324241934912	12.211472	3.5014343	9.123413
924324250327246	11.5095825	3.4725952	7.9277954
924324258719580	10.847488	3.4726563	6.485214
924324267111914	9.88382	3.5475311	4.5821533
924324275504248	8.618256	3.650406	1.2697296
924324283896582	7.3699493	4.0135803	-1.6708069
924324292288916	7.064621	4.360733	-2.6092834
924324300681250	7.616867	4.4188538	-1.9459839
924324309073584	8.44194	4.1968536	-0.8218994
924324317465918	8.793137	4.1173553	-0.317688
924324325858252	9.484467	4.4718475	1.4664459
924324334250586	8.961792	4.1276245	2.9870453
924324342642920	7.652893	3.4863434	3.650406
924324351035254	6.3668976	2.8614502	3.988205
924324359427588	5.6293945	2.422821	4.424103
924324367819922	5.318527	2.1432648	4.6952667
924324376212256	5.4155273	2.0292664	4.942276
924324384604590	5.571991	1.924408	4.961853
924324392996924	5.8185425	1.6027374	5.196106
924324401389258	5.883377	1.1134491	5.417938
924324409781592	5.6992645	0.5778961	5.383255
924324418173926	5.586746	0.10197449	5.0689545
924324426566260	5.513977	-0.3616333	4.1367493
924324434958594	5.4160004	-0.6565857	3.192566
924324443350928	5.1056213	-0.89733887	2.5457916
924324451743262	4.7731476	-1.2234955	2.0584412
924324460135596	4.4742126	-1.6024017	1.4607849
924324468527930	3.9378204	-1.7641907	0.56466675
924324476920264	3.6307983	-1.880188	0.449646
924324485312598	3.5215607	-1.8695374	0.20498657
924324493704932	3.6024323	-1.781601	-0.23136902
924324502097266	3.9872131	-1.5031128	-0.4994049
924324510489600	4.7100983	-0.9055176	-0.47836304
924324518881933	5.6111298	0.06350708	-0.6606903
924324527274267	6.5283966	1.4264374	-1.3885193
924324535666601	8.287231	2.5914307	-2.9921722
924324544058935	11.27771	3.1179047	-6.6542816
924324552451269	15.497772	3.4094086	-13.086273
924324560843603	19.947174	4.2983093	-19.72229
924324569235937	22.350876	6.6576843	-19.318573
924324577628271	21.687866	8.509125	-14.137146
924324586020605	19.693375	9.0824585	-10.437256
924324594412939	15.39238	8.288971	-7.281616
924324602805273	11.228653	6.1711884	-6.597687
924324611197607	9.251816	3.3003387	-8.58107
924324619589941	8.215591	1.0133667	-8.403503
924324627982275	6.0082245	0.35932922	-5.719574
924324636374609	5.4441833	0.3756714	-4.3417053
924324644766943	6.8385773	0.81669617	-2.8076477
924324653159277	10.288971	1.4143829	-0.8769531
924324661551611	15.1923065	2.0122375	1.0109558
924324669943945	19.804413	2.7057648	2.1229553
924324678336279	20.30043	3.566574	4.4340363
924324686728613	16.860703	4.26355	5.8868866
924324695120947	12.6489105	4.730545	5.4601746
924324703513281	9.152939	4.9292603	3.22258
924324711905615	6.7923126	4.8963623	-0.18527222
924324720297949	5.5231323	4.800644	-4.0237274
924324728690283	6.3181	4.0450745	-2.7284546
924324737082617	7.644638	3.3316345	-0.3719635
924324745474951	8.898788	2.3503265	2.3477936
924324753867285	9.180786	1.251236	4.630539
924324762259619	7.954468	0.41661072	5.8952484
924324770651953	5.88295	0.19892883	6.185501
924324779044287	5.5565186	0.25958252	5.673935
924324787436621	6.9851837	0.41304016	4.771866
924324795828955	8.90387	0.80015564	3.7890625
924324804221289	10.672333	1.3266907	2.9971924
924324812613623	11.985657	1.8454437	2.5441284
924324821005957	12.385452	2.4316864	2.3247833
924324829398291	12.022858	2.92659	2.3674774
924324837790625	11.149719	3.225586	2.4600983
924324846182959	10.007736	3.4209137	2.6727295
924324854575293	8.958466	3.5277405	2.9187012
924324862967627	8.281616	3.538559	3.049408
924324871359961	7.860153	3.543518	3.0225677
924324879752295	7.488205	3.644226	2.8673859
924324888144629	7.331436	3.681427	2.8991241
924324896536963	7.3472137	3.7300873	3.0732574
924324904929297	7.419174	3.8671265	3.395874
924324913321631	7.42511	4.099304	3.7802124
924324921713965	7.3426056	4.235489	3.6718597
924324930106299	7.7440643	4.3546906	3.7314453
924324938498633	8.154617	4.475464	3.2450104
924324946890967	8.01384	4.5269623	2.38797
924324955283301	7.4559937	4.4763794	1.495224
924324963675635	7.067581	4.310669	0.8872986
924324972067969	7.266983	3.9567413	0.6609802
924324980460303	7.219879	3.6398315	0.4084015
924324988852637	6.8376465	3.3954315	0.120147705
924324997244971	6.2377167	3.2328339	-0.13417053
924325005637305	5.612961	3.1378632	-0.3695221
924325014029639	5.1278687	3.0685883	-0.66859436
924325022421973	5.00325	2.8572388	-1.0733643
924325030814307	5.133438	2.7102966	-1.6907654
924325039206641	5.581085	2.7778015	-2.112854
924325047598975	6.2919464	3.134018	-1.9854431
924325055991308	7.1310883	3.6041412	-1.3674316
924325064383642	7.969513	3.9094086	-0.6278076
924325072775976	9.00473	4.1789856	0.013809204
924325081168310	10.072678	4.4234467	0.41645813
924325089560644	11.165436	4.6813507	0.6850891
924325097952978	12.254105	4.948303	0.855484
924325106345312	13.073975	5.242569	0.93270874
924325114737646	13.357788	5.5889435	0.90483093
924325123129980	13.85878	5.922943	0.74380493
924325131522314	13.51709	6.274643	0.52531433
924325139914648	12.798431	6.542328	0.2755127
924325148306982	11.981369	6.705063	0.049179077
924325156699316	11.241455	6.8339233	-0.15518188
924325165091650	10.649475	7.0373383	-0.39067078
924325173483984	10.561356	7.167572	-0.5904236
924325181876318	10.761917	7.1457825	-0.7658539
924325190268652	11.132248	7.1134644	-0.9646759
924325198660986	11.749466	7.184128	-1.506012
924325207053320	12.094147	7.6227264	-7.834656
924325215445654	11.239777	8.767334	-26.34671
924325223837988	9.279861	10.710037	-33.63466
924325232230322	18.100266	12.505707	-21.104462
924325240622656	21.342545	12.115036	-13.977341
924325249014990	20.457748	10.146866	-10.952316
924325257407324	18.937225	7.8374176	-7.477188
924325265799658	18.727753	6.34964	-1.060318
924325274191992	20.167084	5.6240234	7.685974
924325282584326	18.05429	6.066864	13.365341
924325290976660	16.591812	5.9163513	14.313431
924325299368994	16.157837	5.0862427	12.662247
924325307761328	16.040817	3.8851318	10.5563965
924325316153662	15.192459	2.752594	9.134354
924325324545996	14.249283	1.8432922	8.794357
924325332938330	14.34906	1.2521362	8.565353
924325341330664	14.934174	0.9528351	8.170197
924325349722998	15.667603	0.7371979	7.2646484
924325358115332	16.049667	0.4178772	6.17836
924325366507666	15.532944	-0.039108276	5.87175
924325374900000	14.5507965	-0.61291504	5.452652
924325383292334	13.125763	-1.0210724	5.031006
924325391684668	11.221542	-1.1910248	4.787262
924325400077002	9.190475	-1.2288055	4.6549835
924325408469336	7.3520813	-1.2352448	4.521393
924325416861670	5.822998	-1.2333069	4.314499
924325425254004	4.8856506	-1.1159973	4.012314
924325433646338	4.2151337	-0.9557953	4.675766
924325442038672	3.8338776	-0.77827454	5.3127594
924325450431006	3.513733	-0.5418396	5.643875
924325458823340	3.2796326	-0.28396606	5.713974
924325467215674	3.623825	-0.18606567	5.7382507
924325475608008	4.6723785	-0.062072754	5.704071
924325484000342	6.5630035	1.9736786	-1.7170715
924325492392676	8.900848	4.2463074	-6.28566
924325500785010	10.048065	5.459137	-6.098877
924325509177344	9.0377655	5.2085266	-3.1240997
924325517569678	7.153763	4.463745	-0.06436157
924325525962012	5.934952	3.4757233	2.267212
924325534354346	4.85553	2.3848724	3.8987274
924325542746680	4.2877045	1.2561646	4.874771
924325551139014	4.230133	0.22096252	5.1424103
924325559531348	4.4421234	-0.61608887	4.679764
924325567916266	4.643158	-1.2406769	3.5034485
924325576308600	4.382721	-1.5587616	2.7877502
924325584700934	3.904953	-1.7523651	2.4967651
924325593093267	3.3470764	-1.8280182	2.054184
924325601485601	2.8132477	-1.7658691	1.3243713
924325609877935	2.4578552	-1.4942017	0.5891266
924325618270269	2.5437775	-0.8957367	0.48464966
924325626662603	2.9393005	0.15974426	0.54426575
924325635054937	3.8900757	1.4489441	0.2912445
924325643447271	5.3588104	2.5608978	-0.44091797
924325651839605	7.3771057	3.0902405	-1.9735565
924325660231939	10.803314	2.9076233	-6.3842316
924325668624273	17.713608	2.6422882	-18.463638
924325677016607	24.628922	3.7217712	-30.498108
924325685408941	24.254578	5.4718323	-24.607742
924325693801275	21.615906	6.6227875	-11.930481
924325702193609	18.500946	7.079254	-1.9230652
924325710585943	15.194336	7.2527313	-0.12834167
924325718978277	11.809738	7.0320587	-3.89563
924325727370611	10.153473	5.247772	-6.1630707
924325735762945	9.261597	3.2483826	-6.177536
924325744155279	9.147736	1.8476257	-5.175354
924325752547613	9.894241	1.1988525	-3.65036
924325760939947	11.720428	1.0834808	-1.6195984
924325769332281	14.940262	1.22406	0.73231506
924325777724615	19.022247	1.5821686	1.6612244
924325786116949	22.095047	2.2476807	1.6487732
924325794509283	22.735321	2.9750214	1.4005737
924325802901617	19.476593	3.4762268	0.5823364
924325811293951	12.592789	3.6135254	-2.075882
924325819686285	6.5502167	3.6552734	-8.818253
924325828078619	4.6886444	1.948288	-4.7198486
924325836470953	4.0587463	0.43670654	1.0229034
924325844863287	3.2412872	-0.26913452	4.251343
924325853255621	2.0590973	-0.3276062	4.7856445
924325861647955	1.053482	-0.17230225	4.5303955
924325870040289	0.40141296	0.12887573	4.314682
924325878432623	1.2463074	0.38729858	4.5392456
924325886824957	3.1365814	0.758728	5.247879
924325895217291	6.2082977	1.3282471	6.27713
924325903609625	10.364914	2.0765076	7.2250977
924325912001959	14.985382	2.910019	7.5905914
924325920394293	18.51178	3.7724304	6.8428345
924325928786627	19.558487	4.1842804	5.24765
924325937178961	17.827988	4.3174896	3.5746002
924325945571295	14.593521	4.2183228	2.5697784
924325953963629	11.266617	4.011917	2.3286285
924325962355963	8.742447	3.7977295	2.5067291
924325970748297	7.5830383	3.5352783	2.7936401
924325979140631	6.912979	3.405426	3.1045685
924325987532965	6.484619	3.3742828	3.0756836
924325995925299	6.288986	3.388733	2.866272
924326004317633	6.3572693	3.4003143	2.7039642
924326012709967	6.6944733	3.3774872	2.7450562
924326021102301	7.0113373	3.348114	2.7146912
924326029494635	6.9960175	3.4537964	2.237854
924326037886969	6.9405975	3.509079	1.7197266
924326046279303	7.0552673	3.5470734	1.2298126
924326054671637	7.3984833	3.559433	0.8529968
924326063063971	7.8378754	3.5021973	0.66337585
924326071456305	8.046616	3.442566	0.52124023
924326079848639	7.8194885	3.4612274	0.25709534
924326088240973	7.4762573	3.4135284	0.050430298
924326096633307	7.096039	3.357193	-0.13421631
924326105025641	6.6733704	3.3128815	-0.34436035
924326113417975	6.168335	3.241684	-0.58218384
924326121810309	5.669922	3.1075287	-0.71240234
924326130202642	5.2976837	2.9658203	-0.8268585
924326138594976	4.9853973	2.8089905	-0.9315491
924326146987310	4.7207184	2.6685638	-1.0179749
924326155379644	4.5396576	2.6257477	-0.95874023
924326163771978	4.529709	2.754593	-0.6039276
924326172164312	4.885086	2.9127502	-0.20071411
924326180556646	5.770508	3.097168	0.16152954
924326188948980	6.9523926	3.3768463	0.46896362
924326197341314	8.24202	3.6845856	0.7106781
924326205733648	9.510773	3.964264	0.8829346
924326214125982	10.683258	4.207733	0.9688568
924326222518316	11.502792	4.431061	0.9259796
924326230910650	12.049408	4.653137	0.77168274
924326239302984	12.435211	4.857239	0.60183716
924326247695318	12.757645	5.0614014	0.44111633
924326256087652	13.028732	5.2684326	0.33615112
924326264479986	13.150299	5.455612	0.33668518
924326272872320	13.008163	5.6076813	0.36154175
924326281264654	12.636917	5.846939	0.39382935
924326289656988	12.288437	6.170456	0.39546204
924326298049322	12.103912	6.5151215	0.36242676
924326306441656	12.256088	6.8162994	0.3293457
924326314833990	12.924774	7.0660095	0.35668945
924326323226324	14.058807	7.481659	0.5095215
924326331618658	14.884048	8.262909	-0.30744934
924326340010992	12.551437	12.347931	-19.685562
924326348403326	13.185699	16.819077	-28.186295
924326356795660	17.645447	17.735382	-17.683105
924326365187994	18.864944	13.227509	-15.71756
924326373580328	15.1245575	9.253891	-14.824234
924326381972662	14.779297	7.217285	-10.198761
924326390364996	16.74054	6.26503	-3.29187
924326398757330	18.784286	6.379837	3.625229
924326407149664	19.423676	7.0430756	8.299606
924326415541998	19.004044	7.183197	9.705811
924326423934332	17.788681	6.049576	10.491455
924326432326666	18.21701	4.641098	9.356689
924326440719000	18.083023	3.508667	8.761139
924326449111334	17.332703	2.908142	8.725037
924326457503668	16.876663	2.807373	8.905899
924326465896002	18.05481	2.722931	9.164795
924326474288336	19.417725	2.107788	8.501785
924326482680670	19.709137	1.0350952	8.476044
924326491073004	18.689865	0.008453369	8.715363
924326499465338	16.034927	-0.7117157	9.235306
924326507857672	12.055084	-1.0641022	9.841827
924326516250006	7.6912994	-1.1503601	9.963577
924326524642340	5.1584625	-1.0861053	8.961929
924326533034674	3.281128	-0.95440674	7.7697144
924326541427008	1.8374634	-0.7869873	6.3688507
924326549819342	0.9252472	-0.6183624	5.0769806
924326558211676	0.64790344	-0.4467163	4.0072327
924326566604010	0.91108704	-0.22421265	2.8400726
924326574996344	1.9587708	-0.0055236816	1.9305573
924326583388678	4.686798	2.7261047	-4.407593
924326591781012	7.192734	5.1747894	-8.7834015
924326600173346	8.385895	6.111389	-7.950653
924326608565680	8.113266	5.5762787	-2.658661
924326616958014	7.6272125	5.0871124	1.5319519
924326625350348	6.799698	5.0881195	4.728348
924326633742682	5.9831085	5.037018	6.2660675
924326642135016	5.577606	4.4727783	6.794998
924326650527350	5.450714	3.076538	6.752823
924326658919684	5.301071	1.0487518	6.326416
924326667312017	5.085144	-0.53619385	5.1866455
924326675704351	5.055847	-1.6169586	4.339218
924326684096685	5.136215	-2.4787292	3.6877136
924326692489019	5.164261	-3.0635376	3.3431244
924326700881353	4.943695	-3.3801575	2.9488678
924326709273687	4.370682	-3.4668121	2.300888
924326717666021	3.532837	-3.381958	1.8433533
924326726058355	2.5721588	-2.8401184	1.8882446
924326734450689	1.8899231	-2.2314606	1.4440308
924326742843023	1.4836121	-1.5747528	0.7302551
924326751235357	1.9410858	-0.65579224	-0.17745972
924326759627691	3.7120514	0.4156952	-1.3948517
924326768020025	6.4997253	0.67593384	-3.287201
924326776412359	9.346512	-0.056655884	-6.758209
924326784804693	16.418701	-0.19316101	-16.888718
924326793197027	23.49826	1.3647308	-24.882355
924326801589361	26.95317	4.224762	-24.154434
924326809981695	24.719727	7.3481445	-13.468811
924326818374029	19.422546	9.808792	-5.022049
924326826766363	13.967255	11.26416	-2.3107605
924326835158697	10.068802	11.387695	-2.471115
924326843551031	8.578644	10.057022	-3.395218
924326851943365	8.762192	7.5120697	-3.4845734
924326860335699	9.020142	4.601227	-2.0889282
924326868728033	8.655243	2.962143	-0.7758789
924326877120367	9.094803	2.6121674	0.16781616
924326885512701	10.818298	2.4762878	1.5205688
924326893905035	13.56189	2.5157318	2.6102448
924326902297369	16.587769	2.7169342	3.073349
924326910689703	18.899796	3.057495	2.9467316
924326919082037	19.427612	3.516739	2.355301
924326927474371	18.604568	3.8769226	1.1302643
924326935866705	16.032486	3.6832733	-0.55511475
924326944259039	12.242783	3.165268	-6.7407837
924326952651373	8.557556	2.131958	-11.488388
924326961043707	6.699585	0.49153137	-5.4057617
924326969436041	7.0663757	-0.35435486	2.8296204
924326977828375	4.9875336	-0.38650513	4.7651215
924326986220709	2.77359	-0.2766571	5.2092285
924326994613043	1.128479	-0.12626648	5.405716
924327003005377	0.50071716	0.012237549	5.6993713
924327011397711	1.1384277	0.114852905	5.9374847
924327019790045	3.1194763	0.2275238	6.220627
924327028182379	6.4492188	0.44480896	6.698822
924327036574713	10.767029	0.7943573	6.9425964
924327044967047	15.003159	1.3253784	6.7249756
924327053359381	17.820007	1.9552765	5.8475037
924327061751715	17.981964	2.480606	4.2384033
924327070144049	15.265121	2.6660461	2.4039154
924327078536383	12.049698	2.472046	1.6685638
924327086928717	9.222092	2.2612915	1.6291351
924327095321051	7.0474854	2.089981	1.8836517
924327103713385	5.588135	1.982193	2.177948
924327112105719	4.730774	1.9547882	2.4619904
924327120498053	4.5428925	2.082016	2.638916
924327128890387	4.992401	2.34552	2.7470093
924327137282721	5.6319733	2.735321	3.1084595
924327145675055	6.5655823	3.230484	3.5197754
924327154067389	7.6071014	3.742447	3.6930542
924327162459723	8.256729	4.1371765	3.3883667
924327170852057	8.426697	4.47612	2.93013
924327179244391	8.986969	4.6472473	2.556839
924327187636725	9.595688	4.717636	2.0435028
924327196029059	9.977539	4.7200775	1.5266418
924327204421392	9.903275	4.673691	1.0889435
924327212813726	9.278595	4.589615	0.71698
924327221206060	8.514557	4.455612	0.41996765
924327229598394	7.900711	4.380783	0.14503479
924327237990728	7.3786316	4.251358	-0.06762695
924327246383062	7.0229797	4.1011963	-0.2973175
924327254775396	6.7560425	3.9597778	-0.56044006
924327263167730	6.410736	3.8303223	-0.76361084
924327271560064	6.3264465	3.8232117	-0.60214233
924327279952398	6.2875214	3.926941	-0.1928711
924327288344732	6.8394775	4.015793	0.098602295
924327296737066	7.642456	4.0565186	0.26261902
924327305129400	8.333878	4.073166	0.362854
924327313521734	8.727539	4.115326	0.45159912
924327321914068	9.044632	4.059677	0.39891052
924327330306402	9.50853	3.9879303	0.3283844
924327338698736	10.048798	3.9675293	0.26815796
924327347091070	10.690643	4.0332794	0.23275757
924327355483404	11.424637	4.1964417	0.2326355
924327363875738	12.158615	4.4327393	0.2740631
924327372268072	12.726257	4.631775	0.35327148
924327380660406	12.843491	4.929306	0.38102722
924327389052740	12.729614	5.232132	0.32606506
924327397445074	12.520386	5.550949	0.1822052
924327405837408	12.390411	5.8470154	0.013336182
924327414229742	12.4874115	6.006912	-0.05847168
924327422622076	12.534271	6.001816	-0.040145874
924327431014410	12.69017	5.968811	-0.29473877
924327439406744	13.089386	6.021942	-1.8151093
924327447799078	13.98703	6.1152954	-9.683685
924327456191412	15.227905	6.0202484	-21.972275
924327464583746	16.28267	5.38739	-25.81572
924327472976080	19.939621	4.16774	-17.202637
924327481368414	20.564346	3.088684	-15.41983
924327489760748	20.232513	1.6955872	-15.435516
924327498153082	19.85353	0.36206055	-12.685593
924327506545416	19.72464	-0.29444885	-5.2402496
924327514937750	19.574097	0.23936462	4.5085754
924327523330084	18.232117	1.7359009	13.089951
924327531722418	17.517776	3.6218262	16.333298
924327540114752	15.318344	4.5292816	16.299637
924327548507086	13.015121	4.1257477	15.141571
924327556899420	12.068207	2.837738	14.014496
924327565291754	12.368286	1.6960297	12.436951
924327573684088	12.627243	1.2553253	10.607086
924327582076422	12.109268	1.1365051	8.888412
924327590468756	11.779602	1.2085419	7.300415
924327598861090	12.20018	1.2979736	5.9329987
924327607253424	13.2938385	1.2894897	4.8883667
924327615645758	14.151169	1.1763763	4.327469
924327624038092	13.929108	0.9441376	4.1899567
924327632430426	13.72139	0.5813904	3.8368073
924327640822760	12.85025	0.37557983	3.559433
924327649215094	11.542328	0.2945099	3.2670746
924327657607428	10.20047	0.22302246	2.866333
924327665999762	8.923599	0.11114502	2.513626
924327674392096	7.4395447	0.052490234	2.6517944
924327682784430	6.1484222	0.06793213	2.9836273
924327691176764	5.303131	0.056152344	3.3541107
924327699569098	4.775009	0.050811768	3.4252014
924327707961432	4.400955	0.29631042	2.3889008
924327716353766	4.26268	1.2918854	-1.1338348
924327724746100	6.3719635	2.7023926	-1.5900879
924327733138434	7.2235565	3.2261505	-0.0039367676
924327741530767	7.060425	3.142273	1.4545746
924327749923101	6.370453	2.7206268	2.4440308
924327758315435	5.6105957	2.2367554	3.3136292
924327766707769	4.951599	1.98172	4.1254272
924327775100103	4.745804	1.4210358	4.6874237
924327783492437	4.664215	0.6128845	4.9815674
924327791884771	4.505371	-0.25909424	5.0170135
924327800277105	4.285843	-1.0649414	4.7392273
924327808669439	4.105255	-1.7197876	4.1843414
924327817061773	4.0159607	-2.1817627	3.656372
924327825454107	3.899582	-2.508255	3.1801147
924327833846441	3.7406769	-2.6637726	2.1851807
924327842238775	3.5555573	-2.6237946	1.2535248
924327850631109	3.380844	-2.4129486	0.51538086
924327859023443	3.2622223	-2.0558624	-0.036819458
924327867415777	3.2423248	-1.505188	-0.11734009
924327875808111	3.401825	-0.38822937	-0.17956543
924327884200445	4.631912	0.9863434	-0.8134613
924327892592779	6.9306793	1.7280884	-2.5847626
924327900985113	10.56514	1.6968842	-6.851059
924327909377447	15.660904	1.6384277	-14.609299
924327917769781	22.341461	2.8250122	-25.869797
924327926162115	23.69246	5.9985046	-21.932724
924327934554449	21.67279	8.523575	-12.1844635
924327942946783	18.109589	9.879669	-4.3477325
924327951339117	14.2230835	10.249023	-1.0170288
924327959731451	10.945526	9.875488	-1.3623505
924327968123785	9.419556	8.015625	-3.7191467
924327976516119	9.417404	5.0402527	-3.4131775
924327984908453	9.261154	2.9268188	-2.3030548
924327993300787	9.398453	1.8514862	-1.2074127
924328001693121	10.502609	1.5054016	-0.16567993
924328010085455	13.149811	1.4329224	0.9824066
924328018477789	17.579117	1.4229889	1.5360718
924328026870123	21.145828	1.5483398	1.4289398
924328035262457	21.0999	1.6612701	1.5889893
924328043654791	18.000717	1.7493134	1.6610565
924328052047125	14.0728	1.6894836	1.5695648
924328060439459	11.5863495	1.3966064	1.4446564
924328068831793	9.5664215	1.2141571	1.1834564
924328077224127	7.71698	1.240982	0.5354004
924328085616461	6.261841	1.3541107	-1.2099915
924328094008795	5.5073853	1.3153687	-2.4779816
924328102401129	5.631531	1.0506439	-1.6131439
924328110793463	6.3095245	0.68026733	1.835495
924328119185797	5.2952423	0.5946045	3.2128448
924328127578131	3.906845	0.87187195	3.765152
924328135970465	3.4481812	1.1467896	4.3408203
924328144362799	4.029709	1.477417	5.0114594
924328152755133	5.5081177	1.8943481	5.63916
924328161147467	7.635788	2.3634644	5.9937897
924328169539801	10.060577	2.8715973	5.745575
924328177932135	12.396851	3.235443	5.0421295
924328186324469	13.776627	3.482956	4.1817627
924328194716803	13.959595	3.6424408	3.2728577
924328203109137	13.1388855	3.7245026	2.4178162
924328211501471	11.584381	3.6876373	1.7730713
924328219893805	9.938339	3.4572296	1.683258
924328228286139	8.448853	3.1703033	1.6819763
924328236678473	7.201309	2.8362427	1.741272
924328245070807	6.3084564	2.5232697	1.8643036
924328253463141	5.8313446	2.2889252	2.003418
924328261855475	5.791046	2.1709442	2.093872
924328270247809	6.3159027	2.283554	2.2544556
924328278640142	7.140579	2.539383	2.4314117
924328287032476	7.61557	2.8112488	2.3772278
924328295424810	7.997116	3.0277863	2.057251
924328303817144	8.449188	3.1534424	1.5390015
924328312209478	8.858322	3.1902008	0.9660492
924328320601812	8.994995	3.1970367	0.5579529
924328328994146	8.732162	3.2955017	0.2780609
924328337386480	8.410568	3.4141083	0.13049316
924328345778814	8.124054	3.5098724	0.040924072
924328354171148	7.9124603	3.5693054	-0.0010528564
924328362563482	7.820511	3.59964	0.066986084
924328370955816	7.881134	3.5738068	0.07791138
924328379348150	7.7756195	3.5641174	-0.004333496
924328387740484	7.443619	3.5415955	-0.02468872
924328396132818	6.9720917	3.47258	0.033554077
924328404525152	6.502136	3.3431091	0.13798523
924328412917486	6.172409	3.1740417	0.25798035
924328421309820	6.0928802	3.052765	0.5035095
924328429702154	6.5299835	3.0001068	0.7595978
924328438094488	7.195923	3.088684	0.96817017
924328446486822	7.995285	3.2786865	1.116806
924328454879156	8.871567	3.5143127	1.1791077
924328463271490	9.785309	3.77919	1.1160278
924328471663824	10.735352	4.0838776	1.0615082
924328480056158	11.696289	4.3840027	1.0670166
924328488448492	12.575012	4.7235107	1.0998383
924328496840826	13.125656	5.092148	1.1241302
924328505233160	13.192841	5.475128	1.0918427
924328513625494	12.814636	5.8832397	0.952652
924328522017828	12.332291	6.291458	0.83180237
924328530410162	12.121445	6.4856567	0.7002106
924328538802496	12.081512	6.5503235	0.5745392
924328547194830	12.161835	6.5573883	0.43145752
924328555587164	12.404755	6.6121674	0.27764893
924328563979498	13.001526	6.884735	0.17474365
924328572371832	13.805023	7.3299255	-0.23335266
924328580764166	12.76001	9.268799	-17.74736
924328589156500	14.606949	10.529724	-32.277298
924328597548834	18.837814	9.892151	-33.49695
924328605941168	22.452759	7.5745544	-22.409637
924328614333502	22.774872	5.6617737	-13.037018
924328622725836	22.544052	4.453018	-1.8869171
924328631118170	22.181046	4.395355	9.610764
924328639510504	21.15123	4.923004	17.15184
924328647902838	18.515152	5.4068146	19.037872
924328656295172	14.930511	5.072708	16.501389
924328664687506	14.391571	3.268509	14.307632
924328673079840	14.8849945	1.4969635	12.852005
924328681472174	14.427353	0.78604126	11.025284
924328689864508	13.2599945	0.70591736	9.295273
924328698256842	12.4995575	0.8041992	7.810364
924328706649176	12.994156	0.72013855	6.721054
924328715041510	14.415649	0.17732239	6.479904
924328723433844	15.244171	-0.03616333	5.753113
924328731826178	15.218948	-0.41246033	5.0377197
924328740218512	13.836609	-0.67710876	4.5036163
924328748610846	11.805756	-0.7116089	4.33519
924328757003180	10.050369	-0.5963745	4.5564575
924328765395514	8.375366	-0.59936523	4.913391
924328773787848	6.8778534	-0.4638214	4.4972076
924328782180182	5.6444244	-0.2689972	3.8010864
924328790572516	4.925766	-0.09542847	3.463379
924328798964850	4.8025665	0.036331177	3.545517
924328807357184	5.1279755	0.14454651	3.8031769
924328815749517	5.459915	0.2597351	4.1087494
924328824141851	5.252594	0.5743866	4.630234
924328832534185	5.496521	1.6747131	1.7715454
924328840926519	6.7195587	3.1702118	-0.70422363
924328849318853	7.849289	4.1616516	-1.019989
924328857711187	7.5042725	4.0070343	0.45596313
924328866103521	6.213684	3.4978638	1.8395691
924328874495855	4.990448	2.3219452	3.0854797
924328882888189	4.2303314	0.9287567	4.1145782
924328891280523	3.960846	-0.38153076	4.570694
924328899672857	4.0001373	-1.4544373	4.4761505
924328908065191	4.143463	-2.2736359	4.0423126
924328916457525	4.34227	-2.9008484	3.3355713
924328924849859	4.544449	-3.2997437	2.997223
924328933242193	4.6076965	-3.4868317	2.9781036
924328941634527	4.326187	-3.5031738	2.6326752
924328950026861	3.8057098	-3.3998566	1.8380585
924328958419195	3.36763	-3.225937	0.94255066
924328966811529	3.2314606	-3.0092316	0.36999512
924328975203863	2.8521423	-2.535843	0.0765686
924328983596197	3.3022156	-1.753952	0.1510315
924328991988531	4.768921	-0.6805725	0.2219696
924329000380865	7.225647	0.29414368	-0.39326477
924329008773199	11.157883	0.7811127	-3.6411896
924329017165533	19.319763	1.6832275	-15.611603
924329025557867	28.851364	5.7919464	-33.37436
924329033950201	27.160934	8.96431	-28.093994
924329042342535	21.590607	9.82132	-12.003006
924329050734869	17.450546	9.111084	0.26852417
924329059127203	14.792007	8.6249695	1.6494141
924329067519537	11.62001	7.446579	-1.2921753
924329075911871	9.727646	4.785843	-2.9289398
924329084304205	9.082474	2.6203156	-3.4373474
924329092696539	9.486847	1.3447266	-3.546936
924329101088873	10.9105835	0.83665466	-3.2286682
924329109481207	13.422546	0.7963562	-1.8509216
924329117873541	16.570526	1.1213226	0.77511597
924329126265875	19.329193	1.5003052	2.2812805
924329134658209	20.753876	1.903305	3.0098572
924329143050543	20.235626	2.2351685	3.0082092
924329151442877	17.7258	2.467575	2.404419
924329159835211	13.787613	2.6365356	1.3692322
924329168227545	9.526123	2.6228333	-0.10055542
924329176619879	4.716263	3.29245	-6.652359
924329185012213	3.4451447	2.421463	-4.0411835
924329193404547	3.305008	1.0449066	1.2819519
924329201796881	2.286148	0.19657898	3.798233
924329210189215	0.6411743	-0.0158844	4.2784424
924329218581549	-0.19692993	-0.091796875	4.5539093
924329226973883	-0.75375366	0.074142456	4.871582
924329235366217	-0.40792847	0.36857605	5.38649
924329243758551	1.4603729	0.7498932	6.114731
924329252150885	5.115967	1.231247	7.042862
924329260543219	10.0759735	1.8598175	8.07074
924329268935553	15.232803	2.6896667	8.527649
924329277327887	19.537262	3.216385	7.6990204
924329285720221	22.05452	3.330597	5.815048
924329294112555	21.039063	3.2956848	3.493515
924329302504889	16.593735	3.1997986	1.6699982
924329310897223	11.569962	2.8222504	1.1360474
924329319289557	8.166122	2.294815	1.3354492
924329327681891	5.9976807	1.7466736	1.5173492
924329336074225	4.6334534	1.418869	1.6690979
924329344466559	3.9230194	1.3370361	1.9130249
924329352858892	3.8379822	1.4520874	2.2913818
924329361251226	4.4417267	1.6962128	2.6679993
924329369643560	5.66893	1.9871521	2.919876
924329378035894	6.72876	2.4334717	3.2024536
924329386428228	7.3626556	2.8967743	3.0312195
924329394820562	7.657135	3.3191528	2.4845276
924329403212896	7.889099	3.6282501	1.8381805
924329411605230	8.371719	3.7308807	1.3405304
924329419997564	8.946014	3.681244	0.9920502
924329428389898	9.170792	3.6903687	0.7402954
924329436782232	8.913712	3.6684875	0.5461731
924329445174566	8.314102	3.5968018	0.4091034
924329453566900	7.614685	3.4856415	0.3222046
924329461959234	7.036331	3.3567963	0.24668884
924329470351568	6.8256073	3.2514343	0.18704224
924329478743902	6.723343	3.1793976	0.11987305
924329487136236	6.7065277	3.1338654	0.015365601
924329495528570	6.89711	3.1042023	-0.025558472
924329503920904	7.344925	3.1020355	0.09440613
924329512313238	7.8656006	3.179123	0.36479187
924329520705572	8.237366	3.3272095	0.59243774
924329529097906	8.918396	3.4032745	0.8362427
924329537490240	9.74556	3.4867706	1.0080719
924329545882574	10.537338	3.583313	1.0980682
924329554274908	11.140106	3.6698456	1.1252441
924329562667242	11.471054	3.7313232	1.0958252
924329571059576	11.588211	3.8338318	1.0401764
924329579451910	11.671585	4.012787	0.9926605
924329587844244	11.744797	4.21611	0.9702301
924329596236578	11.809799	4.4428864	0.9721527
924329604628912	11.807358	4.706375	0.96917725
924329613021246	11.6067505	4.9976807	0.903595
924329621413580	11.530823	5.3412933	0.89289856
924329629805914	11.687637	5.6875	0.9261322
924329638198248	11.861099	5.9710693	0.92170715
924329646590582	12.1506195	6.189087	0.87968445
924329654982916	12.764908	6.398102	0.8046417
924329663375250	13.818161	6.6862335	0.62358093
924329671767584	14.913406	7.899582	-12.246857
924329680159918	15.794159	11.204514	-29.334442
924329688552252	17.91829	12.465698	-29.413925
924329696944586	19.374481	11.547592	-18.673264
924329705336920	18.074692	9.8802185	-12.121094
924329713729254	16.293427	7.236145	-7.579468
924329722121588	17.22786	4.543213	-1.7897186
924329730513922	18.01532	3.599411	5.3849792
924329738906256	17.81073	3.8102417	10.976013
924329747298590	16.739166	4.328003	13.389572
924329755690924	15.5182495	4.258362	12.666992
924329764083258	14.924393	3.2234344	10.964874
924329772475592	14.901321	2.0949402	9.620361
924329780867926	14.816681	1.2876129	9.025497
924329789260260	14.763153	0.7831421	8.46315
924329797652594	14.790268	0.59088135	7.861603
924329806044928	14.8381195	0.55877686	7.393219
924329814437262	14.680069	0.2367096	6.8644104
924329822829596	15.20665	-0.27375793	5.853195
924329831221930	15.999176	-0.7293091	5.3570404
924329839614264	15.798447	-1.1445007	4.8999634
924329848006598	14.33638	-1.4535675	4.4008484
924329856398932	12.2105255	-1.5684052	4.010727
924329864791266	10.272461	-1.5469818	3.5434875
924329873183600	8.305969	-1.2911377	3.44281
924329881575934	6.7802887	-1.0999146	3.3441162
924329889968267	5.6214905	-0.92652893	3.5707092
924329898360601	4.83667	-0.78492737	4.0954437
924329906752935	4.4480743	-0.70643616	4.6280823
924329915145269	4.2005463	-0.5322418	5.044693
924329923537603	3.8690643	-0.3826599	5.2240753
924329931929937	3.7316895	-0.20718384	5.356491
924329940322271	4.440613	1.0564575	2.8193665
924329948714605	5.95578	3.0015106	-0.9638519
924329957106939	7.4611664	4.164505	-2.2114258
924329965499273	7.2976837	3.8060455	-1.6082306
924329973891607	6.7825165	3.3078156	-0.16261292
924329982283941	6.575943	2.9414825	1.6706848
924329990676275	6.3107758	2.6807556	3.2983398
924329999068609	5.8466034	2.457779	4.278885
924330007460943	5.3527527	2.115921	4.483917
924330015853277	5.109207	1.0424042	4.230438
924330024245611	4.750473	-0.15020752	3.912674
924330032637945	4.534027	-1.0693817	3.3817596
924330041030279	4.246109	-1.736618	2.7794647
924330049422613	3.8628387	-2.190384	2.2161255
924330057814947	3.5246124	-2.4582367	1.7180481
924330066207281	3.1110992	-2.4870605	1.0769196
924330074599615	2.7911987	-2.3601837	0.6634979
924330082991949	2.8891754	-2.0035706	0.42871094
924330091384283	3.4498138	-1.2445374	0.2557373
924330099776617	4.4799805	0.03742981	-0.12585449
924330108168951	6.037796	1.6845703	-1.115982
924330116561285	8.656662	2.2458344	-3.3487854
924330124953619	12.618042	2.038971	-8.308945
924330133345953	19.347687	2.8070374	-19.740189
924330141738287	24.085556	5.3082275	-27.170395
924330150130621	24.26233	8.556824	-23.768478
924330158522955	20.04898	10.300598	-8.953888
924330166915289	15.621658	10.094833	0.08564758
924330175307623	12.179489	9.40979	0.9578705
924330183699957	10.284897	7.8105774	-1.7712402
924330192092291	9.653198	5.4165955	-4.4137573
924330200484625	9.52475	2.9248962	-4.898987
924330208876959	9.043304	1.3662262	-3.7469177
924330217269293	8.582687	0.75704956	-2.467743
924330225661627	9.806839	0.4732666	-0.62924194
924330234053961	12.050858	0.4724121	0.8257599
924330242446295	14.507828	0.6897278	1.5939789
924330250838629	16.433441	1.0440979	1.9072876
924330259230963	17.150833	1.4177246	2.4557495
924330267623297	16.082306	1.9300995	2.2937775
924330276015631	15.188156	2.1016846	1.8507996
924330284407965	14.309891	1.9736633	1.309906
924330292800299	13.018341	1.7937317	0.70814514
924330301192633	11.151657	1.7386017	-0.8104553
924330309584967	9.067535	1.7246704	-4.5796204
924330317977301	7.368622	1.1464081	-5.7421265
924330326369635	7.2724	0.35572815	-0.21942139
924330334761969	6.1407166	-0.06933594	2.8950806
924330343154303	4.2635193	-0.13371277	3.7453613
924330351546637	2.6498413	-0.016448975	4.065323
924330359938971	2.073883	0.10215759	4.6543884
924330368331305	2.5868835	0.29684448	5.2627716
924330376723639	4.386795	0.6906433	5.9140472
924330385115973	7.049164	1.3229828	6.3259125
924330393508307	10.435226	2.0812073	6.432434
924330401900641	14.102188	2.811905	6.227066
924330410292975	16.97821	3.3776093	5.6729126
924330418685309	16.928268	3.6547241	4.615387
924330427077642	14.952286	3.7981415	3.4532928
924330435469976	12.304489	3.7039795	2.6602173
924330443862310	9.814377	3.3843384	2.4334717
924330452254644	7.8398743	2.9535522	2.6261444
924330460646978	6.2308807	2.5932465	2.772812
924330469039312	5.352524	2.2961273	2.8994446
924330477431646	4.95665	2.248886	3.134262
924330485823980	5.177902	2.377243	3.398346
924330494216314	5.8267365	2.6167603	3.5228882
924330502608648	6.5151978	2.9256592	3.4035034
924330511000982	6.8156586	3.2918854	3.0783691
924330519393316	7.1228027	3.5155487	2.6211243
924330527785650	7.797348	3.5919342	2.0013733
924330536177984	8.334656	3.6333313	1.4758301
924330544570318	8.626419	3.6432343	1.0700836
924330552962652	8.659943	3.6253204	0.7280426
924330561354986	8.393326	3.6204834	0.38424683
924330569747320	7.8250275	3.4609528	0.17686462
924330578139654	7.2759094	3.3656464	-0.12057495
924330586531988	6.994095	3.2362366	-0.47044373
924330594924322	6.7725525	3.1179504	-0.81137085
924330603316656	6.4404297	3.0684052	-1.07724
924330611708990	6.1523285	3.0789185	-1.2086182
924330620101324	6.466385	2.9762268	-0.9473877
924330628493658	6.925522	2.9125214	-0.37532043
924330636885992	7.397415	2.8729706	0.16726685
924330645278326	7.895935	2.873169	0.5876312
924330653670660	8.461609	2.9167175	0.8861542
924330662062994	9.088089	2.9706879	1.0715637
924330670455328	9.770966	3.0820007	1.1918335
924330678847662	10.528671	3.2193604	1.2494965
924330687239996	11.192932	3.4417877	1.28656
924330695632330	11.717758	3.7379456	1.3037567
924330704024664	12.133789	4.079941	1.2929077
924330712416998	12.51236	4.466461	1.2598572
924330720809332	12.684326	4.8243103	1.21315
924330729201666	12.418869	5.141968	1.1864319
924330737594000	11.959122	5.434387	1.1766052
924330745986334	11.591934	5.6924896	1.1661682
924330754378668	11.484238	5.906769	1.1374512
924330762771002	11.520798	6.0895386	1.0860596
924330771163336	11.986084	6.1416626	1.0767365
924330779555670	12.816925	6.252884	1.0455017
924330787948004	13.903534	6.522049	0.9373169
924330796340338	14.792816	6.8985443	0.74472046
924330804732672	14.744232	7.525055	-2.2376862
924330813125006	12.739258	9.13121	-16.6763
924330821517340	14.138016	11.774689	-35.45128
924330829909674	19.180557	10.314102	-30.001114
924330838302008	21.886414	8.014084	-18.732803
924330846694342	21.76294	6.354767	-8.216171
924330855086676	21.056656	5.5805054	1.875473
924330863479010	21.509293	5.409027	12.759766
924330871871344	20.564758	5.6151733	16.95192
924330880263678	17.999405	5.399475	15.469208
924330888656012	16.542023	4.3525543	12.876297
924330897048346	15.914383	2.7763672	11.194916
924330905440680	14.7269745	1.3434753	10.505615
924330913833014	13.139542	0.70532227	9.911194
924330922225348	12.4461975	0.40827942	9.564743
924330930617682	12.855621	0.2740326	8.685104
924330939010016	13.865265	0.028518677	8.373016
924330947402350	14.748489	-0.30760193	8.336014
924330955794684	14.938385	-0.6178589	7.77359
924330964187017	14.604385	-1.0283966	6.9078064
924330972579351	13.159317	-1.121872	5.8399353
924330980971685	11.317276	-1.0398865	5.696991
924330989364019	9.499939	-1.0843964	5.600067
924330997756353	7.9533844	-1.1683502	5.200989
924331006148687	6.7252655	-1.0626984	4.6750183
924331014541021	5.6447754	-0.8996887	4.481186
924331022933355	4.9977875	-0.82888794	3.8225098
924331031325689	4.7563934	-0.7583771	3.3099213
924331039718023	4.5078735	-0.6861572	3.4980621
924331048110357	4.228409	-0.62054443	4.4624176
924331056502691	4.2164154	-0.5076599	5.416046
924331064895025	4.928299	-0.0410614	3.5276794
924331073287359	6.8033447	2.2730865	-4.0012817
924331081679693	7.904587	3.1678925	-3.8600006
924331090072027	7.8043823	3.1776123	-1.5972748
924331098464361	6.903702	2.7405243	0.42626953
924331106856695	5.9904327	2.0605621	2.8449707
924331115249029	5.326416	1.535141	4.4162445
924331123641363	4.9365997	0.6754761	5.1158295
924331132033697	4.653366	-0.3458252	5.271652
924331140426031	4.464691	-1.2968903	4.945694
924331148818365	4.4032745	-2.0601501	4.453308
924331157210699	4.439926	-2.627884	4.139221
924331165603033	4.1506653	-3.0065918	3.6660767
924331173995367	3.4981995	-3.1663513	3.0501556
924331182387701	2.877365	-3.1852875	2.471054
924331190780035	2.4960175	-3.0371552	1.9648438
924331199172369	2.3035889	-2.6870422	1.4248505
924331207564703	2.1749573	-2.1302338	0.7483673
924331215957037	2.844925	-1.3509216	0.40046692
924331224349371	4.4755707	-0.53364563	-0.0034942627
924331232741705	7.1335754	-0.38908386	-2.1524658
924331241134039	13.239166	-0.6528473	-12.181686
924331249526373	22.32022	-0.020645142	-27.285446
924331257918707	30.744324	2.8072815	-37.081406
924331266311041	26.17955	6.2443085	-21.274368
924331274703375	20.734116	8.364243	-8.133118
924331283095709	16.849762	9.7453	-1.3408661
924331291488043	13.4509735	10.167786	-0.14309692
924331299880377	10.527054	9.22464	-1.7732086
924331308272711	9.188385	6.68779	-2.8846588
924331316665045	8.941879	3.6777802	-2.0157776
924331325057379	9.10199	2.1153564	-1.2264557
924331333449713	10.045273	1.7111511	-0.4465027
924331341842047	12.089203	1.8437805	0.78041077
924331350234381	14.897644	2.1291504	2.2245026
924331358626715	17.5643	2.5210266	3.0413055
924331367019049	19.284134	2.9866333	2.9994354
924331375411383	19.601212	3.4840088	2.1863098
924331383803717	18.128616	3.634964	1.1642456
924331392196051	15.130432	3.4548035	0.056289673
924331400588385	10.977524	3.358963	-2.6925507
924331408980719	6.497772	3.6949768	-8.126709
924331417373053	6.6672516	1.7129364	-0.66911316
924331425765387	5.488434	0.41938782	3.010559
924331434157721	3.5238495	-0.114212036	4.3717346
924331442550055	1.7524719	-0.22387695	4.6780396
924331450942389	0.8831482	-0.2732849	4.880142
924331459334723	0.98527527	-0.37301636	5.0827637
924331467727057	2.298294	-0.49079895	5.183304
924331476119391	5.1447144	-0.57141113	5.7639313
924331484511725	9.363678	-0.5007782	6.4902496
924331492904059	14.209137	-0.23576355	6.787613
924331501296392	18.323364	0.22149658	6.2453003
924331509688726	20.11325	0.821228	4.8329315
924331518081060	17.699127	1.364151	3.0880432
924331526473394	14.085892	1.3647156	2.557129
924331534865728	10.6276245	1.2700348	2.7375488
924331543258062	7.8472595	1.1586151	3.1857758
924331551650396	5.923538	1.0528717	3.6000366
924331560042730	4.81604	0.9985199	3.8809357
924331568435064	4.536728	1.0651245	3.7596893
924331576827398	4.6613617	1.2577515	3.8758698
924331585219732	5.0886993	1.5159912	4.012985
924331593612066	5.7053986	1.8521881	3.90654
924331602004400	6.411667	2.2674255	3.4925842
924331610396734	7.204666	2.731903	2.9839172
924331618789068	8.155029	3.1525726	2.5439453
924331627181402	8.927963	3.5336456	1.9420471
924331635573736	9.298065	3.7998962	1.3658142
924331643966070	9.318024	4.0049896	0.9900055
924331652358404	9.190216	4.1473846	0.8287964
924331660750738	9.099701	4.0948944	0.7200775
924331669143072	8.68335	3.9395447	0.5982208
924331677535406	8.146713	3.8220367	0.55003357
924331685927740	7.4884796	3.7115784	0.52679443
924331694320074	6.8707886	3.5922546	0.46343994
924331702712408	6.496887	3.472168	0.31307983
924331711104742	6.506668	3.3882751	0.068984985
924331719497076	6.440872	3.390274	-0.2839508
924331727889410	6.4219666	3.545517	-0.31195068
924331736281744	6.8585815	3.7035217	-0.07710266
924331744674078	7.798874	3.7885437	0.26081848
924331753066412	9.06102	3.8119507	0.5663605
924331761458746	10.292511	3.882309	0.80322266
924331769851080	11.029068	4.028427	0.9095764
924331778243414	11.551575	4.269516	0.92453
924331786635748	12.076309	4.5523834	0.9217529
924331795028082	12.637207	4.8667755	0.9252777
924331803420416	13.138199	5.2089386	0.9193115
924331811812750	13.407043	5.5690155	0.8552551
924331820205084	13.106201	5.948883	0.7505493
924331828597418	12.653915	6.232315	0.5912628
924331836989752	12.37468	6.464905	0.47694397
924331845382086	12.433533	6.6343384	0.35162354
924331853774420	12.872559	6.7190247	0.11880493
924331862166754	13.627243	6.735626	-0.26585388
924331870559088	15.00473	7.1430054	-13.673157
924331878951422	15.084	8.072617	-29.332672
924331887343756	17.841309	8.395035	-26.857025
924331895736090	20.37564	8.27359	-15.857803
924331904128424	19.582077	8.025101	-11.45134
924331912520758	17.426193	7.2339935	-14.76709
924331920913092	17.172714	4.646591	-10.842743
924331929305426	18.021545	2.8687592	-1.8109436
924331937697760	17.980453	2.4805298	8.261246
924331946090094	16.843033	3.2175293	15.587952
924331954482428	15.533356	4.2608337	17.61789
924331962874762	15.070877	4.985672	13.833725
924331971267096	14.097382	4.0682983	11.264526
924331979659430	14.460358	2.5610504	10.667328
924331988051764	14.964584	1.3256989	10.277405
924331996444098	14.848801	0.605484	9.530594
924332004836432	14.100159	0.21864319	8.698013
924332013228766	13.3671875	0.083343506	7.928055
924332021621100	13.521606	-0.050323486	6.413864
924332030013434	14.637405	-0.3938446	5.4805756
924332038405767	15.736893	-0.75675964	4.811508
924332046798101	16.082428	-0.99702454	4.2998657
924332055190435	15.313644	-1.1064148	3.9621582
924332063582769	13.383408	-1.2629547	3.697937
924332071975103	11.407852	-1.1771545	3.1022186
924332080367437	10.006561	-1.0704651	2.8585052
924332088759771	8.847519	-1.1076355	2.7323914
924332097152105	7.7570953	-1.2086334	2.625946
924332105544439	6.7705383	-1.2032166	2.497879
924332113936773	6.2022552	-1.0127869	2.2316742
924332122329107	5.7285614	-0.9413452	2.95047
924332130721441	5.0618896	-0.8071594	4.2616425
924332139113775	4.391693	-0.5654144	5.3193665
924332147506109	4.0874634	0.016036987	4.7326508
924332155898443	4.6893005	1.1617737	1.9737091
924332164290777	7.0681915	2.884613	-0.769104
924332172683111	7.6052246	2.9829407	0.06498718
924332181075445	7.0269012	2.6496887	0.81430054
924332189467779	6.0825195	2.1978302	1.8126221
924332197860113	5.4100647	1.7945099	3.1202545
924332206252447	5.1986237	1.4332275	4.413864
924332214644781	4.9682007	0.9577637	5.0338135
924332223037115	4.9567566	-0.118881226	5.3863983
924332231429449	4.9949646	-1.1955872	4.8625336
924332239821783	5.063843	-2.0326538	3.9230347
924332248214117	5.0462494	-2.6261292	2.9884338
924332256606451	4.7683716	-3.070572	2.1929016
924332264998785	4.0910034	-3.403656	1.164093
924332273391119	3.1603088	-3.5634155	0.70121765
924332281783453	2.4906921	-3.5833435	0.8427582
924332290175787	2.1413116	-3.3223572	1.1844482
924332298568121	2.0714111	-2.6013336	1.3372345
924332306960455	2.3944244	-1.3133698	1.1220245
924332315352789	3.8969269	0.31776428	0.66438293
924332323745123	6.317383	0.6754608	-0.06921387
924332332137457	10.299377	0.5661011	-4.480713
924332340529791	18.232391	1.0579529	-17.363586
924332348922125	26.754791	2.9465027	-30.510483
924332357314459	29.408508	5.8858643	-29.320313
924332365706793	26.108627	7.1211395	-14.524384
924332374099127	20.50444	8.076111	-6.3294525
924332382491461	14.936981	8.595245	-3.9766083
924332390883795	10.271286	7.990494	-4.0075836
924332399276129	7.411087	6.1503906	-4.082794
924332407668463	6.8469696	3.6687927	-3.2142334
924332416060797	6.8586884	1.9534302	-1.5223083
924332424453131	7.601166	1.0454712	-0.58618164
924332432845465	9.461502	0.7225647	0.10890198
924332441237799	12.438873	0.8804779	0.7299652
924332449630133	15.934402	1.3790131	1.0692749
924332458022467	18.979263	2.047882	1.131134
924332466414801	20.158157	2.46138	3.327896
924332474807135	19.274536	2.6135712	4.1009674
924332483199469	17.41661	2.5835419	3.618332
924332491591803	14.90033	2.3849335	2.3497162
924332499984137	11.594238	2.1854553	-0.31521606
924332508376471	7.3184204	2.1535034	-5.044815
924332516768805	4.2964935	1.5273895	-5.2471924
924332525161139	3.2984772	1.198288	-3.2224884
924332533553473	3.412094	0.8986664	-0.25601196
924332541945807	3.3027802	0.6392517	2.1483002
924332550338141	2.442154	0.47987366	3.2685852
924332558730475	1.516098	0.4581604	3.6438904
924332567122809	1.5219421	0.48060608	4.327301
924332575515142	3.2392578	0.6369934	5.5960236
924332583907476	5.940216	0.9747925	6.532593
924332592299810	9.147736	1.4404907	6.8500824
924332600692144	12.449142	1.9528198	6.43808
924332609084478	15.388596	2.4094086	5.4195557
924332617476812	17.093506	2.6875763	3.9120636
924332625869146	16.776993	2.9372559	2.384262
924332634261480	14.918259	3.0674133	1.276413
924332642653814	12.431412	3.031784	0.84284973
924332651046148	10.11293	2.8567505	1.005127
924332659438482	8.358322	2.605133	1.4945526
924332667830816	7.295517	2.3239746	2.1216736
924332676223150	6.638626	2.120758	2.575241
924332684615484	6.222763	2.0362396	3.0095367
924332693007818	6.103592	2.0750885	3.502884
924332701400152	6.2781067	2.206131	4.041321
924332709792486	6.628128	2.370636	4.4574738
924332718184820	7.2442627	2.535141	4.069641
924332726577154	7.9623413	2.7048035	3.3849487
924332734969488	8.45723	2.8975067	2.585312
924332743361822	8.716156	3.036438	1.7422333
924332751754156	8.846313	3.1019745	0.95170593
924332760146490	8.965424	3.1639862	0.33503723
924332768538824	9.128464	3.1903534	-0.03401184
924332776931158	9.157562	3.2415314	-0.22850037
924332785323492	8.948883	3.2646332	-0.31993103
924332793715826	8.537979	3.2471771	-0.3113861
924332802108160	8.063538	3.1854248	-0.2437439
924332810500494	7.6795197	3.0694733	-0.19137573
924332818892828	7.1785583	2.9651031	0.090927124
924332827285162	6.835205	2.813736	0.34962463
924332835677496	6.5440063	2.668274	0.5250702
924332844069830	6.294403	2.5756683	0.6689453
924332852462164	6.139206	2.5421906	0.82341003
924332860854498	6.19722	2.5352325	0.95851135
924332869246832	6.617691	2.6684265	1.1056366
924332877639166	7.3227997	2.8591003	1.2258911
924332886031500	8.215607	3.0673676	1.3037567
924332894423834	9.1800995	3.2984467	1.3491364
924332902816168	10.118774	3.5621185	1.3824158
924332911208502	11.020233	3.8497467	1.4202118
924332919600836	11.963196	4.145462	1.4368591
924332927993170	12.811264	4.4424744	1.4830017
924332936385504	13.457626	4.740494	1.4738159
924332944777838	13.648376	5.032715	1.4124603
924332953170172	13.279495	5.296463	1.2857971
924332961562506	12.519623	5.486618	1.0095978
924332969954840	12.046539	5.48468	0.8908386
924332978347174	11.664276	5.4530487	0.78900146
924332986739508	11.516113	5.4734344	0.7279358
924332995131842	11.61528	5.5884857	0.6919708
924333003524176	12.026627	5.797882	0.68795776
924333011916510	12.935699	6.0558014	0.7746277
924333020308844	13.941681	6.369858	0.86935425
924333028701178	14.843384	6.5794067	0.86976624
924333037093512	15.057663	6.8434296	0.40193176
924333045485846	13.647369	8.3298645	-11.261734
924333053878180	12.182953	11.194	-31.0831
924333062270514	16.82965	12.633194	-21.552353
924333070662848	19.140717	10.544785	-11.515839
924333079055182	17.139847	8.176254	-8.596878
924333087447516	16.002228	5.9695587	-6.646393
924333095839850	16.836838	4.260254	-3.1407623
924333104232184	18.046967	3.3923645	2.1832428
924333112624517	16.525238	3.6590424	7.7897797
924333121016851	15.151413	3.5601501	10.996658
924333129409185	15.396637	2.9590912	10.2267
924333137801519	15.082336	2.2973175	8.86145
924333146193853	13.885178	1.5357819	8.297409
924333154586187	12.514801	0.4691162	8.758759
924333162978521	11.824951	-0.92845154	10.435638
924333171370855	13.202621	-1.5149231	10.768631
924333179763189	14.229431	-1.5392151	10.40834
924333188155523	14.508911	-1.449997	9.342651
924333196547857	14.005814	-1.4192047	7.595398
924333204940191	13.029602	-1.4456635	5.496063
924333213332525	11.985886	-1.4784546	3.8032684
924333221724859	10.364166	-1.3437195	3.3094788
924333230117193	8.6271515	-1.1099854	2.8799438
924333238509527	7.186386	-0.88237	2.752243
924333246901861	6.30307	-0.69721985	3.2914734
924333255294195	5.9444733	-0.53359985	4.6667023
924333263686529	5.5051117	-0.32684326	6.248169
924333272078863	4.679764	0.030288696	6.926895
924333280471197	4.4463806	0.38964844	7.759308
924333288863531	4.457428	0.70962524	8.0759735
924333297255865	4.7079926	1.1280365	7.332184
924333305648199	5.87706	2.2982635	3.210968
924333314040533	9.829178	5.8765106	-11.5516815
924333322432867	11.670563	6.9855194	-9.37587
924333330825201	9.995956	6.496292	-5.139679
924333339217535	7.3743134	5.5030212	-0.58625793
924333347609869	5.5269775	4.4484406	3.1620178
924333356002203	4.733139	3.1894379	5.634308
924333364394537	4.221222	1.5791473	6.9782104
924333372786871	3.949936	0.36288452	7.160614
924333381179205	4.188263	-0.73205566	6.768936
924333389571539	4.418747	-1.662323	5.986328
924333397963873	4.387085	-2.3344727	4.832062
924333406356207	4.077286	-2.6674194	3.3968658
924333414748541	3.5588531	-2.7092896	2.3161163
924333423140875	3.335022	-2.535675	1.8198547
924333431533209	3.3073273	-2.3150177	1.6833496
924333439925543	3.248993	-2.089386	1.5565186
924333448317877	3.148117	-1.9072723	1.3009796
924333456710211	3.2670746	-1.8144379	0.8591614
924333465102545	4.1982727	-1.7944794	-0.1627655
924333473494879	5.8273773	-1.9037323	-2.315384
924333481887213	11.1944275	-2.7390137	-10.198975
924333490279547	21.081772	-2.875351	-25.527908
924333498671881	29.04741	-1.0246887	-35.21399
924333507064215	27.876358	3.0223541	-24.852585
924333515456549	23.137589	6.879776	-8.326248
924333523848883	18.564041	9.294403	-1.4009705
924333532241217	14.383713	10.0868225	0.3555603
924333540633551	11.394669	9.177444	-0.5964508
924333549025885	9.699539	6.988968	-1.8565369
924333557418219	8.498215	4.4221344	-1.9503021
924333565810553	6.5897064	2.5563812	-1.0040131
924333574202887	5.598404	1.7443695	-0.046707153
924333582595221	5.860794	1.6450958	1.2839966
924333590987555	7.630844	1.7750549	2.7567444
924333599379889	11.028595	1.8882904	3.8763123
924333607772223	15.656082	1.9858398	4.0298767
924333616164557	19.766312	2.1727142	3.2386322
924333624556891	21.981766	2.4807434	2.4046936
924333632949225	21.661148	2.8271484	1.3265686
924333641341559	18.652634	3.009201	0.205719
924333649733892	13.42067	3.1490936	-2.5279999
924333658126226	7.641922	3.4375916	-8.363632
924333666518560	5.212219	2.3199615	-6.9658356
924333674910894	5.700287	0.74842834	0.20141602
924333683303228	4.6539764	-0.07774353	3.6103516
924333691695562	2.6369934	-0.2883606	4.3969727
924333700087896	0.826004	-0.2035675	4.5556793
924333708480230	-0.102142334	-0.06852722	4.9171143
924333716872564	-0.11853027	0.1313324	5.331192
924333725264898	1.7116241	0.2994995	5.5992737
924333733657232	4.7188263	0.59669495	6.0220795
924333742049566	8.934341	0.99760437	6.3719025
924333750441900	13.978607	1.5063019	6.293518
924333758834234	18.60701	2.127472	5.4213104
924333767226568	20.600998	2.4594727	3.9034576
924333775618902	19.013947	2.4476013	2.57135
924333784011236	15.32222	2.3425446	1.774643
924333792403570	11.398575	2.0821075	1.5889893
924333800795904	8.373749	1.6921997	1.8756561
924333809188238	6.3064575	1.3689423	2.2508087
924333817580572	5.1085663	1.2273712	2.631775
924333825972906	4.666565	1.2994995	3.0358124
924333834365240	4.8496704	1.5162964	3.5049744
924333842757574	5.6554565	1.8264313	4.0445557
924333851149908	6.8275146	2.161148	4.449356
924333859542242	7.816101	2.4597626	4.324066
924333867934576	8.201813	2.8231812	4.0426483
924333876326910	8.124741	3.0587769	3.1411743
924333884719244	8.310715	3.1865997	2.3393097
924333893111578	8.796829	3.2155151	1.5401917
924333901503912	9.3526	3.1922607	0.68681335
924333909896246	9.64035	3.1875305	-0.0066833496
924333918288580	9.452911	3.1137543	-0.54008484
924333926680914	8.626587	3.06456	-0.8778229
924333935073248	7.976303	2.9258423	-1.0978394
924333943465582	7.5193634	2.7556915	-1.2785645
924333951857916	7.1141663	2.6076355	-1.4161377
924333960250250	6.645035	2.4790802	-1.3955841
924333968642584	6.361023	2.4450836	-1.0105743
924333977034918	6.4427032	2.5129852	-0.30474854
924333985427252	6.7821045	2.5716705	0.39878845
924333993819586	7.2903748	2.6319427	0.9954376
924334002211920	7.857559	2.7458038	1.453125
924334010604254	8.365219	2.960266	1.8024292
924334018996588	9.03241	3.1548157	2.0611572
924334027388922	9.7838745	3.3802185	2.2381897
924334035781256	10.498154	3.6099548	2.3304749
924334044173590	11.094284	3.8692627	2.3576508
924334052565924	11.571732	4.1874237	2.3450928
924334060958258	12.028381	4.5677643	2.3094482
924334069350592	12.359451	4.892685	2.2471313
924334077742926	12.395309	5.2253113	2.172058
924334086135260	12.248276	5.529846	2.1387634
924334094527594	12.0407715	5.8184357	2.1482697
924334102919928	11.871262	6.107727	2.1309662
924334111312262	11.789734	6.393173	1.9588013
924334119704596	12.106827	6.5760803	1.8156586
924334128096930	12.678467	6.591095	1.6478882
924334136489264	13.122498	6.644348	1.2527161
924334144881598	13.470184	6.876587	-0.2844391
924334153273932	13.381546	7.7099304	-8.457657
924334161666266	11.551376	10.263641	-38.20996
924334170058600	17.69429	11.040176	-29.09468
924334178450934	20.303177	10.556229	-15.173813
924334186843267	19.763412	10.105591	-7.566269
924334195235601	18.334946	9.250916	-4.6186523
924334203627935	17.913559	7.4845276	-1.2809906
924334212020269	18.509308	5.1493073	5.350891
924334220412603	18.475693	4.3150635	9.935608
924334228804937	17.267456	3.7472534	10.994354
924334237197271	16.345749	2.9476776	10.798294
924334245589605	15.859253	1.9561157	10.281158
924334253981939	15.386902	1.0027161	9.786255
924334262374273	14.314133	0.32077026	9.477173
924334270766607	13.225342	-0.20799255	8.933929
924334279158941	12.511749	-0.8512573	8.43309
924334287551275	12.518799	-1.5355682	8.053879
924334295943609	13.697861	-2.0550842	7.409378
924334304335943	15.846878	-2.258255	6.357773
924334312728277	17.466995	-2.1670532	5.5880585
924334321120611	17.006378	-1.9756317	5.063614
924334329512945	15.957184	-2.0364532	4.19722
924334337905279	14.620529	-2.441269	3.1981506
924334346297613	13.078995	-3.0025482	2.5083313
924334354689947	11.403732	-3.3804016	2.4268188
924334363082281	9.831345	-3.1574554	2.7921753
924334371474615	7.975296	-2.913208	4.195755
924334379866949	6.2939606	-2.7541962	5.5323334
924334388259283	4.702118	-2.4909668	6.509613
924334396651617	3.4095612	-2.1183014	7.1677856
924334405043951	2.591339	-1.7046356	7.358078
924334413436285	2.0651093	-1.2809296	6.182602
924334421828619	2.200592	0.740921	-1.824707
924334430220953	4.088272	2.1488953	-4.2303314
924334438613287	5.764206	2.3088837	-3.190796
924334447005621	6.438904	1.7317657	-0.65338135
924334455397955	6.1268005	1.2163086	2.0437927
924334463790289	5.2384796	0.9690552	4.2102966
924334472182623	4.170578	1.0085449	5.2213593
924334480574957	3.5394745	1.0196533	5.7585907
924334488967291	3.496292	0.81170654	5.4297028
924334497359625	3.838379	0.09617615	4.3411865
924334505751959	4.1689453	-1.129425	2.9949646
924334514144293	4.060608	-2.0021667	2.1947937
924334522536627	3.647812	-2.384842	1.8674011
924334530928961	3.1403046	-2.4736328	1.9595795
924334539321295	2.8006897	-2.3861084	2.009018
924334547713629	2.666916	-2.192459	1.8347931
924334556105963	2.72258	-1.9111786	1.4839325
924334564498297	3.1981506	-1.4938507	1.1190186
924334572890631	4.2615356	-1.053299	0.062469482
924334581282965	7.998337	-0.91911316	-5.6027985
924334589675299	17.545471	0.67889404	-21.779984
924334598067633	27.015503	3.9607239	-35.098633
924334606459967	28.19484	7.4237213	-29.021973
924334614852301	22.657257	7.386627	-13.549545
924334623244635	18.092606	7.0378265	-5.701065
924334631636969	14.891617	6.6187286	-2.9257507
924334640029303	13.643341	5.9910126	-2.6910095
924334648421637	13.659103	4.88501	-2.8918304
924334656813971	13.745972	3.2213135	-2.3522034
924334665206305	13.829483	1.7134094	-1.9565735
924334673598639	14.084488	1.3735809	-1.2418976
924334681990973	15.404724	1.3413849	0.46080017
924334690383307	17.420334	1.4522705	2.0552826
924334698775641	19.392685	1.5965881	3.1173706
924334707167975	20.16336	1.7179413	3.6933136
924334715560309	17.477707	1.8902283	3.3769684
924334723952642	12.921997	2.1314545	2.4170837
924334732344976	8.891983	2.0526276	1.8013
924334740737310	5.8602295	1.7118683	1.7341919
924334749129644	3.8782501	1.2128448	2.1871185
924334757521978	2.760147	0.6759949	2.914032
924334765914312	2.018402	0.30413818	3.2187042
924334774306646	1.4490662	0.053649902	3.3612366
924334782698980	1.013382	-0.06437683	3.5218048
924334791091314	1.5369415	-0.19250488	3.785553
924334799483648	3.2483826	-0.3033142	4.094223
924334807875982	5.85878	-0.24356079	4.360977
924334816268316	9.370804	0.080581665	4.8233337
924334824660650	13.639496	0.4846344	5.737549
924334833052984	17.227661	0.9997711	6.295288
924334841445318	19.308975	1.4580231	6.1362457
924334849837652	18.793533	1.8316498	5.2213135
924334858229986	15.278229	2.208084	3.9544525
924334866622320	11.410553	2.2915802	3.3332062
924334875014654	8.741394	2.1791534	3.3605194
924334883406988	6.8216553	2.0096283	3.4752502
924334891799322	5.537628	1.8942719	3.5985565
924334900191656	4.8376617	1.8860016	3.714737
924334908583990	4.695816	1.963501	3.8192139
