linearaccelerometer_timestamp	linearaccelerometer_x_data	linearaccelerometer_y_data	linearaccelerometer_z_data
924313418840345	1.2428126	-0.16018057	-0.9004402
924313427141127	1.1172458	-0.18792057	-1.5298929
924313435441908	0.91284645	-0.1925664	-1.5709286
924313443742689	0.8748585	-0.22720766	-1.4535112
924313452043470	0.8340225	-0.28297567	-1.2926712
924313460344252	0.7915937	-0.33419132	-1.0986023
924313468645033	0.76539636	-0.31748915	-1.0868893
924313476945814	0.72738886	-0.3537464	-0.6078968
924313485246595	0.67313945	-0.35652542	-0.3712511
924313493547377	0.6545881	-0.33996534	-0.19260597
924313501848158	0.63968444	-0.3257022	-0.054982185
924313510148939	0.62735057	-0.28615427	-0.07695675
924313518449720	0.63573396	-0.2685218	0.06612873
924313526750502	0.66819084	-0.24310875	0.22614193
924313535051283	0.5926391	-0.12584925	0.41345978
924313543352064	0.46351016	-0.09309435	0.35843182
924313551652845	0.3775866	-0.08679438	0.090605736
924313559953627	0.37487638	-0.086967945	0.0898695
924313568254408	0.3283614	-0.08745384	-0.34893894
924313576555189	0.2718917	-0.07588959	-0.8260298
924313584855970	0.03167343	-0.05149412	-1.2840452
924313593156752	-0.006615758	-0.075293064	-1.1136742
924313601457533	0.027861834	-0.09550333	-0.7878008
924313609758314	0.028081179	-0.08907509	-0.7813444
924313618059095	0.11222398	-0.082592964	-0.4266224
924313626359877	0.7482611	-0.276937	0.84652424
924313634660658	1.2283025	-0.12682247	1.8581152
924313642961439	0.45957017	0.3990736	1.2058258
924313651262220	0.44963694	0.4198122	1.1759405
924313659563002	0.17434967	0.4407506	0.27994537
924313667863783	0.50815046	0.0667367	-0.23591614
924313676164564	0.7637694	-0.1686449	-0.39692974
924313684465345	0.24420047	0.113939285	-0.6602011
924313692766127	0.13431704	0.11915779	-0.70102787
924313701066908	0.13164842	0.10273838	-0.68337727
924313709367689	0.13920403	0.0035333633	-0.73197174
924313717668470	0.13349688	-0.1108098	-0.70538235
924313725969252	0.019812465	-0.16075277	-0.5437479
924313734270033	-0.13320208	-0.18583107	-0.37398338
924313742570814	-0.22387004	-0.29047918	-0.29786682
924313750871595	-0.21694231	-0.2884245	-0.29485607
924313759172377	-0.13065374	-0.258667	-0.38179874
924313767473158	0.0035934448	-0.23966503	-0.28775787
924313775773939	0.11538017	-0.2791252	-0.010677338
924313784074720	0.23501205	-0.31064463	0.28535652
924313792375502	0.23036826	-0.30428314	0.28075695
924313800676283	0.34779274	-0.3320632	0.35616207
924313808977064	0.30015528	-0.30103064	0.24623966
924313817277845	0.13611412	-0.26069355	-0.027389526
924313825578627	-0.024381995	-0.2762251	-0.29602814
924313833879408	-0.4817629	-0.2767043	-0.40285778
924313842180189	-0.47374892	-0.2899232	-0.38932323
924313850480970	-0.5351832	-0.37370872	-0.50018406
924313858781752	-0.53884625	-0.42731	-0.61514664
924313867082533	-0.53458714	-0.41408443	-0.60815716
924313875383314	-0.4741565	-0.3686905	-0.4452505
924313883684095	-0.2589339	-0.35640764	-0.3904419
924313891984877	-0.055865288	-0.3504696	-0.42092228
924313900285658	-8.997917E-4	-0.27588367	-0.42004395
924313908586439	0.05035937	-0.22702408	-0.8576956
924313916887220	0.15958464	-0.16549063	-1.3111019
924313925188002	0.3266846	-0.050004005	-1.0341396
924313933488783	0.5389074	-0.1302433	-0.44038963
924313941789564	0.48589325	-0.19762707	-0.12165356
924313950090345	0.3109995	-0.20362616	-0.0111866
924313958391127	0.19342792	-0.23177576	0.06333923
924313966691908	0.17374015	-0.28670883	0.23801708
924313974992689	0.1923877	-0.3284316	0.5526705
924313983293470	0.20653391	-0.38485193	0.79457855
924313991594252	0.22426021	-0.33085108	0.83105755
924313999895033	0.20891726	-0.25867558	0.78008556
924314008195814	0.20790708	-0.15333414	0.6745825
924314016496595	0.27288795	-0.02217102	0.34015083
924314024797377	0.40548074	0.085556984	-0.44651031
924314033098158	0.4668082	0.030860424	-1.6572752
924314041398939	0.06582117	-0.031109333	-1.4965181
924314049699720	-0.06891775	-0.08616781	-0.63406277
924314058000502	0.03558147	-0.16913557	0.25825024
924314066301283	0.042559624	-0.17535543	0.2601633
924314074602064	0.20928323	-0.3052349	0.57653904
924314082902845	0.018257022	-0.27994204	0.084074974
924314091203627	-0.15799332	-0.23925734	-0.3380623
924314099504408	-0.1584686	-0.2403493	-0.54905796
924314107805189	-0.12471354	-0.25911236	-0.5443592
924314116105970	-0.1352365	-0.27621412	-0.38576984
924314124406752	-0.12939751	-0.27880192	-0.38070107
924314132707533	-0.25305676	-0.32536125	-0.56433773
924314141008314	-0.14236856	-0.17604351	-2.2454958
924314149309095	0.22602046	-0.10006094	-1.658742
924314157609877	0.6219567	-0.17883253	0.07742882
924314165910658	0.83096504	-0.3284788	1.6108875
924314174211439	0.81531847	-0.3064103	1.5882788
924314182512220	0.5517591	-0.25967216	1.2407494
924314190813002	0.343817	-0.22513676	0.66559887
924314199113783	0.33347118	-0.1918745	0.62852097
924314207414564	0.4563396	-0.11746693	0.7692232
924314215715345	0.46172762	-0.14191341	0.77935314
924314224016127	0.5915396	-0.0638752	0.68921566
924314232316908	0.40063655	-0.053496838	-0.75849247
924314240617689	0.038813353	0.14547396	-1.2253008
924314248918470	0.18951845	0.13952923	-1.5300322
924314257219252	0.20071447	0.10074186	-1.4961128
924314265520033	0.4788922	-0.01595831	-1.6513739
924314273820814	0.60621	-0.102740765	-1.5936651
924314282121595	0.31192887	0.022787094	-0.7244921
924314290422377	-0.027787447	-0.013289928	-0.2717352
924314298723158	0.12647152	-0.22959757	0.23714733
924314307023939	0.3449998	-0.40242243	0.64555645
924314315324720	0.35771203	-0.3799796	0.6258211
924314323625502	0.3481269	-0.3689289	0.79754925
924314331926283	0.13271773	-0.2002964	0.48037815
924314340227064	0.053482294	-0.19287491	0.0983448
924314348527845	-0.032161355	-0.1680603	-0.050862312
924314356828627	-0.12840974	-0.16141081	-0.021998405
924314365129408	-0.17005694	-0.19848871	0.056884766
924314373430189	-0.16305912	-0.2073493	0.062633514
924314381730970	0.013281584	-0.20062447	-0.23296452
924314390031752	0.23174846	-0.25951385	-0.5065918
924314398332533	0.3732654	-0.26812458	-0.79324627
924314406633314	0.37823212	-0.27347898	-0.7848244
924314414934095	0.46228194	-0.30574512	-0.9173527
924314423234877	0.4241838	-0.35539436	-0.8360548
924314431535658	-0.19166344	-0.13686371	-0.3281269
924314439836439	-0.12401503	-0.16426802	0.2751627
924314448137220	-0.106624246	-0.14269781	0.25754547
924314456438002	0.14767134	-0.30001116	0.71883106
924314464738783	0.3716678	-0.47289276	0.8983059
924314473039564	0.39432204	-0.532825	0.77845955
924314481340345	0.195597	-0.41552782	0.50335026
924314489641127	0.024284542	-0.27152443	0.12673569
924314497941908	0.0066486597	-0.22885752	-0.11224365
924314506242689	0.075137496	-0.23818636	-0.25717068
924314514543470	0.1750027	-0.26783848	-0.32054234
924314522844252	0.2557745	-0.28517294	-0.34955788
924314531145033	0.25672185	-0.29717016	-0.33889675
924314539445814	0.24444854	-0.20546436	-0.54639435
924314547746595	0.15457249	-0.20996332	-0.6167078
924314556047377	0.06691784	-0.22492886	-0.6449394
924314564348158	-0.029954553	-0.2484684	-0.6225729
924314572648939	-0.13979292	-0.27710295	-0.54343605
924314580949720	-0.23334366	-0.2906809	-0.40917873
924314589250502	-0.24904591	-0.29623556	-0.24690723
924314597551283	-0.2730887	-0.29573917	-0.048731804
924314605852064	-0.28174096	-0.2896595	0.100626945
924314614152845	-0.25100273	-0.29792595	0.19064236
924314622453627	-0.1922394	-0.3182516	0.2516613
924314630754408	-0.16919833	-0.30802917	0.33469868
924314639055189	-0.25565892	-0.24952555	0.3613634
924314647355970	-0.2885145	-0.24575138	0.3533888
924314655656752	-0.24784344	-0.2881484	0.33509827
924314663957533	-0.15044487	-0.31089878	0.26264095
924314672258314	-0.04180622	-0.27750826	0.12848663
924314680559095	0.015437543	-0.23294401	0.0157938
924314688859877	0.046092868	-0.16088581	-0.13984966
924314697160658	0.019496858	-0.107032776	-0.25083923
924314705461439	-0.031645358	-0.123977184	-0.30154896
924314713762220	-0.11256844	-0.19701767	-0.3031845
924314722063002	-0.23611903	-0.30145884	-0.28022194
924314730363783	-0.40297067	-0.43712378	-0.260705
924314738664564	-0.6408058	-0.572031	-0.29851437
924314746965345	-0.8462201	-0.63661385	-0.36164474
924314755266127	-1.0219005	-0.6744766	-0.38579273
924314763566908	-0.994635	-0.6613412	-0.39204502
924314771867689	-1.0524383	-0.6610961	-0.3821993
924314780168470	-0.7155852	-0.5980034	-0.20794773
924314788469252	-0.52949727	-0.5474901	0.07935047
924314796770033	-0.34260783	-0.5422058	0.4795475
924314805070814	-0.0566763	-0.5651579	0.92828083
924314813371595	0.20352802	-0.57039547	1.3636131
924314821672377	0.25900865	-0.5172796	1.3246908
924314829973158	0.21243678	-0.44324017	1.9484682
924314838273939	0.026001357	-0.4032898	1.8015223
924314846574720	-0.11282979	-0.38868237	1.3514414
924314854875502	-0.013906963	-0.36216497	1.3317108
924314863176283	-0.29430276	-0.36832857	0.13496399
924314871477064	-0.1825319	-0.36806917	0.13877583
924314879777845	-0.42392576	-0.52018213	-0.30981636
924314888078627	-0.5000964	-0.5068021	-0.29122066
924314896379408	-0.48511505	-0.4813161	-0.27004528
924314904680189	-0.38931745	-0.49978447	-0.24891281
924314912980970	-0.21993649	-0.41177845	-0.18643188
924314921281752	-0.10553008	-0.44729233	-0.22881413
924314929582533	-0.009749174	-0.41953945	-0.389637
924314937883314	0.016001582	-0.36341953	-0.6007042
924314946184095	0.0945797	-0.2726822	-0.7288723
924314954484877	0.14234924	-0.18100691	-0.90224457
924314962785658	0.17422259	-0.13447618	-1.1025476
924314971086439	0.23655963	-0.16521883	-1.0682802
924314979387220	0.25781238	-0.2944374	-1.3441248
924314987688002	0.16027927	-0.3976531	-1.4896708
924314995988783	0.4927603	-0.3995757	-1.4965057
924315004289564	0.5478046	-0.41582108	-1.4678822
924315012590345	1.1047521	-0.44572973	-0.41107655
924315020891127	1.1507753	-0.4537654	-0.39264393
924315029191908	0.65099347	0.23915434	-2.4078522
924315037492689	0.5733217	0.3151784	-2.6859703
924315045793470	0.6513059	0.31966352	-2.6608825
924315054094252	0.9029896	0.26524067	-1.2796521
924315062395033	1.8815637	-0.34805155	0.6389284
924315070695814	1.997479	-0.30025673	0.6383629
924315078996595	0.18226314	0.07420492	2.2645087
924315087297377	-0.91527724	0.5038471	1.0289226
924315095598158	-0.7861006	0.5502119	1.0330439
924315103898939	-0.73415256	-0.08055687	-0.7718797
924315112199720	-1.0347934	-0.16110611	-0.6132798
924315120500502	-0.9309907	-0.14353752	-0.5858364
924315128801283	-1.028008	0.26331472	-0.13985491
924315137102064	-0.46563077	0.74609995	-0.45400572
924315145402845	0.8691764	0.54500866	-1.1363716
924315153703627	1.9450786	0.30409336	-2.2766776
924315162004408	1.9969747	0.29941463	-2.2410307
924315170305189	2.0280244	0.38756657	-2.6600628
924315178605970	0.43075824	1.6744237	-0.14285564
924315186906752	-2.282518	1.0806732	1.872962
924315195207533	-2.7151818	0.7464366	0.9326005
924315203508314	-2.617289	0.7545209	0.963397
924315211809095	-2.0175576	0.388587	-0.6802206
924315220109877	-1.3484871	0.0638051	-1.4190044
924315228410658	-0.5608287	0.19115496	-1.427741
924315236711439	0.23226523	0.39834738	-1.4725089
924315245012220	0.56916237	0.6390772	-1.5900602
924315253313002	0.48349142	0.8866043	-1.6311293
924315261613783	0.0029053688	1.2492733	-1.5305915
924315269914564	-0.57836103	1.6828346	-1.3083324
924315278215345	-0.33005953	2.0148835	-1.4069734
924315286516127	-0.32064533	1.91191	-1.3181567
924315294816908	0.49860096	1.6347256	-1.8387046
924315303117689	1.3350577	1.4036188	-2.4880548
924315311418470	2.0603938	1.214622	-2.8272285
924315319719252	2.6794367	0.95190907	-2.759503
924315328020033	3.1775093	0.45885038	-2.5253477
924315336320814	2.8681736	-0.07416868	-2.5346513
924315344621595	2.0811543	-0.51730156	-2.5349545
924315352922377	1.0381546	-0.8803692	-2.403131
924315361223158	0.12815237	-1.6234074	-2.2850919
924315369523939	-0.62254286	-2.1084538	-2.212307
924315377824720	-1.4735937	-1.1348181	-1.9906664
924315386125502	-1.9255939	-1.1601443	-1.0670137
924315394426283	-1.5683408	-1.0901933	-0.42700052
924315402727064	-1.3165674	-0.78858757	-0.30312443
924315411027845	-0.90664625	-0.4889469	-0.34426212
924315419328627	-0.124750614	-0.33554602	-0.4611869
924315427629408	0.9485707	-0.3266716	-0.8878517
924315435930189	2.4479156	-0.67460585	-1.3631244
924315444230970	3.41785	-0.94814205	-1.6263943
924315452531752	3.675106	-1.3729792	-1.7659268
924315460832533	2.8774128	-1.5786271	-1.9840674
924315469133314	1.1920757	-1.4395189	-2.0822864
924315477434095	-0.65894794	-1.2094316	-1.5560689
924315485734877	-2.1318002	-0.7535372	-1.2796559
924315494035658	-3.285962	-0.34322643	-1.1704755
924315502336439	-3.9438748	0.15208387	-0.9190824
924315510637220	-3.959756	0.59140635	-0.7345264
924315518938002	-3.4323149	0.8088856	-0.7670362
924315527238783	-3.3859	0.7339916	-0.5584612
924315535539564	-2.0365891	0.20990086	-0.66895914
924315543840345	-1.8360753	-0.27032804	-0.26176763
924315552141127	-1.9081974	-0.6901798	0.0706563
924315560441908	-2.120901	-0.8112154	0.35984206
924315568747656	-2.2495422	-0.5134077	0.5555978
924315577048437	-2.2608452	-0.5801554	0.71774197
924315585349219	-1.7630601	0.257401	0.3989761
924315593650000	-1.6824474	0.39883327	0.08847022
924315601950781	-1.6295066	0.38676453	-0.24785662
924315610251562	-1.6971812	0.26908493	-0.35092092
924315618552344	-1.9938841	0.11694288	-0.17781782
924315626853125	-2.5267448	-0.04333067	0.027397513
924315635153906	-3.1365137	-0.22337341	0.5954138
924315643454687	-3.8393083	-0.35547304	1.3329644
924315651755469	-4.57466	-0.40945148	1.8547466
924315660056250	-5.1517806	-0.36753225	2.1696172
924315668357031	-5.3465037	-0.29178095	2.387884
924315676657812	-4.8997617	-0.37119913	2.5575933
924315684958594	-4.281293	-0.5845432	2.6482606
924315693259375	-3.5971508	-0.82016087	2.6351151
924315701560156	-2.9316373	-0.96960974	2.3243008
924315709860937	-2.3428698	-0.9401889	1.8482643
924315718161719	-1.9330387	-0.68537617	1.4022757
924315726462500	-1.921072	-0.23358107	0.99333096
924315734763281	-1.9405813	0.15366316	0.8707012
924315743064062	-1.8950653	0.38892984	0.75486374
924315751364844	-1.6922932	0.44276667	0.7695407
924315759665625	-1.7717347	0.38277435	0.8709321
924315767966406	-1.640687	0.13149405	1.544024
924315776267187	-1.9639783	-0.048496246	1.6118851
924315784567969	-2.285575	-0.26960182	1.7353201
924315792868750	-2.6018796	-0.44829464	1.7637384
924315801169531	-2.6247177	-0.46378613	1.814908
924315809470312	-2.8485942	-0.5556183	1.8616267
924315817771094	-2.5942063	-0.5104866	1.8955729
924315826071875	-2.6182594	-0.5249586	1.9490252
924315834372656	-1.8971734	-0.22653389	1.9400717
924315842673437	-1.5315089	-0.086857796	1.694542
924315850974219	-1.6011691	-0.1255846	1.7690594
924315859275000	-0.64290714	0.032859802	0.95515525
924315867575781	-0.737463	-0.015617371	1.0389769
924315875876562	-0.31687927	-0.16400719	0.13806355
924315884177344	-0.6057577	-0.20321178	0.030608535
924315892478125	-1.0155969	-0.3159399	0.19394565
924315900778906	-1.3167629	-0.3998928	0.53973436
924315909079687	-1.374598	-0.4220829	0.60095525
924315917380469	-1.4713631	-0.3893757	1.1986245
924315925681250	-1.4206219	-0.43413067	1.4947646
924315933982031	-1.4247451	-0.6510086	1.5923808
924315942282812	-1.5366158	-0.67572117	1.5351888
924315950583594	-1.5728331	-0.688818	1.5631703
924315958884375	-1.5614924	-0.6824627	1.4973062
924315967185156	-1.4677129	-0.6924715	1.4446684
924315975485937	-1.6796246	-0.59202003	1.0717152
924315983786719	-1.7828074	-0.5319643	0.9176364
924315992087500	-1.8308105	-0.5445814	0.97190547
924316000388281	-1.8818293	-0.67814827	1.0403221
924316008689062	-2.065845	-0.77653885	1.0229633
924316016989844	-2.212595	-0.7752304	0.8120756
924316025290625	-1.6251788	-0.61630917	0.44246078
924316033591406	-1.3070221	-0.50022984	0.27196646
924316041892187	-1.3433926	-0.50786114	0.30908442
924316050192969	-1.083076	-0.3573742	0.31514764
924316058493750	-0.92102695	-0.25109577	0.46104693
924316066794531	-0.9321048	-0.21920681	0.7340815
924316075095312	-1.1303	-0.23358345	1.1318507
924316083396094	-1.2928112	-0.25642395	1.5425417
924316091696875	-1.2619386	-0.41674995	1.719347
924316099997656	-1.2168744	-0.52957726	1.7342954
924316108298437	-1.1429601	-0.5579443	1.6463943
924316116599219	-0.9695475	-0.54393387	1.4815066
924316124900000	-0.6082244	-0.56178	1.2442455
924316133200781	-0.05311346	-0.57760906	0.991817
924316141501562	0.27535892	-0.53213406	0.67178583
924316149802344	0.5092225	-0.43069553	0.32639456
924316158103125	0.6405363	-0.3356428	0.01838684
924316166403906	0.70923734	-0.29129982	-0.2555561
924316174704687	0.7880523	-0.3101263	-0.5049598
924316183005469	0.7589655	-0.4836235	-0.07533789
924316191306250	0.7281203	-0.48568916	-0.049361944
924316199607031	0.49607062	-0.5647917	0.5999744
924316207907812	0.13127041	-0.6555319	1.1244297
924316216208594	-0.355186	-0.7451563	1.427805
924316224509375	-0.9345467	-0.8058796	1.6323576
924316232810156	-1.5003605	-0.6762123	1.599606
924316241110937	-1.7889235	-0.3802166	1.1374302
924316249411719	-1.6130409	-0.13313198	0.7484348
924316257712500	-1.2548308	-0.0026359558	0.54779124
924316266013281	-0.9385803	0.030085564	0.4785676
924316274314062	-0.6967902	0.03965664	0.39343476
924316282614844	-0.35182762	0.014009476	0.32990074
924316290915625	-0.04138136	-0.051991463	0.3394804
924316299216406	0.16895723	-0.17447662	0.33274508
924316307517187	0.2903061	-0.31014538	0.35967064
924316315817969	0.35036135	-0.45916462	0.5149431
924316324118750	0.3667457	-0.67375374	0.8613715
924316332419531	0.30898523	-0.89538574	1.1119425
924316340720312	0.12711716	-0.8946266	1.0882227
924316349021094	-0.012648582	-0.8100834	1.0498476
924316357321875	-0.18989778	-0.6833124	0.9759569
924316365622656	-0.43755174	-0.55055046	0.84019804
924316373923437	-0.67345953	-0.43358326	0.68936133
924316382224219	-0.8030188	-0.28004932	0.73231816
924316390525000	-0.83108234	-0.15184784	0.75334024
924316398825781	-0.7774718	-0.09170532	0.73380065
924316407126562	-0.6565771	-0.06102276	0.71861315
924316415427344	-0.5072198	-0.033367157	0.71699476
924316423728125	-0.5250399	-0.039021492	0.71895504
924316432028906	-0.41434193	-0.030042648	0.57211614
924316440329687	-0.42036653	-0.046024323	0.5797813
924316448630469	-0.3047588	-0.08881378	0.5546591
924316456931250	-0.11899638	-0.12798214	0.5291033
924316465232031	-0.15429807	-0.13755798	0.53517795
924316473532812	0.052219868	-0.08893299	0.2503829
924316481833594	0.022152185	0.0012130737	0.08735013
924316490134375	-0.09960961	-0.004040718	0.09892416
924316498435156	-0.3140111	-0.007881165	0.16270351
924316506735937	-0.5949693	-0.023000717	0.30425906
924316515036719	-0.5950303	-0.025219917	0.29676914
924316523337500	-0.98971367	-0.24578667	0.7449901
924316531638281	-1.0502658	-0.29060364	0.89149475
924316539939062	-1.1110411	-0.23544407	0.9391029
924316548239844	-1.0800622	-0.17824364	0.8368311
924316556540625	-1.0836029	-0.18322372	0.8214934
924316564841406	-0.9445114	-0.18213558	0.699142
924316573142187	-0.708416	-0.24208832	0.5631287
924316581442969	-0.5703521	-0.20980167	0.59294057
924316589743750	-0.44556212	-0.21837234	0.70871353
924316598044531	-0.3357575	-0.28467464	0.79535985
924316606345312	-0.36965752	-0.29630947	0.7863672
924316614646094	-0.20428729	-0.5439491	0.84861445
924316622946875	-0.19941998	-0.62584877	0.9479892
924316631247656	-0.21299815	-0.75107574	1.025718
924316639548437	-0.32198095	-0.8322153	1.0594025
924316647849219	-0.41481018	-0.93411064	1.0521061
924316656150000	-0.5325084	-0.9788132	0.9445977
924316664450781	-0.5292649	-0.97830105	0.93303037
924316672751562	-0.849283	-0.67055416	0.382056
924316681052344	-0.60984683	-0.8088703	-0.25022578
924316689353125	-0.3643682	-1.8289165	-0.31443143
924316697653906	-0.57643557	-2.4304657	0.70756173
924316705954687	-0.5664203	-2.4253302	0.69403267
924316714255469	-0.6480429	-2.0508156	1.3518994
924316722556250	-0.14476728	-0.9696388	0.68988276
924316730857031	0.28074026	-0.17315102	-0.072107315
924316739157812	0.3264532	-0.10970402	0.13565683
924316747458594	0.2915442	-0.12477493	0.11035061
924316755759375	0.4074359	-0.3341217	1.2597871
924316764060156	0.24461293	-0.6369276	2.213092
924316772360937	-0.11797643	0.06153965	3.0224648
924316780661719	-0.121777534	0.0529871	2.9803736
924316788962500	-0.57930136	0.6965723	1.7260319
924316797263281	-0.5706694	0.6960983	1.7174164
924316805564062	-0.76928043	0.858922	1.5181606
924316813864844	-0.8863385	0.9575062	1.1602774
924316822165625	-0.4384296	1.2191458	-0.31206012
924316830466406	-0.42242026	1.2287846	-0.27278316
924316838767187	-0.16748309	1.314784	-0.6216924
924316847067969	-0.19516253	1.5415936	-0.758528
924316855368750	-0.55100894	1.6069641	-0.27436042
924316863669531	-0.9466126	1.485095	0.507509
924316871970312	-1.013926	1.3001432	1.0136333
924316880271094	-0.6074958	1.1612501	1.0138037
924316888571875	-0.5031595	0.6323881	1.3613491
924316896872656	-0.51936793	0.6210022	1.3347771
924316905173437	-0.6705768	0.25410557	1.7212514
924316913474219	-0.85723186	-0.039406776	2.0695148
924316921775000	-1.1131921	-0.12010288	2.2730813
924316930075781	0.55779195	-0.8055868	2.0569687
924316938376562	1.3056452	-0.90358067	2.048338
924316946677344	1.2719564	-0.915452	2.0157337
924316954978125	0.91013813	-0.7074547	1.8747505
924316963278906	0.1548562	-0.4651947	1.7417403
924316971579687	-0.12063074	-0.66376114	2.1142375
924316979880469	-0.11805248	-0.66844845	2.0722713
924316988181250	-0.04681492	-0.59815407	1.5731565
924316996482031	0.007823706	-0.6555157	1.2368022
924317004782812	0.0019812584	-0.7494688	1.0972464
924317013083594	0.10311246	-0.8569317	1.0014284
924317021384375	0.42856884	-1.0089989	0.88530636
924317029685156	0.4940009	-1.2615318	1.3579569
924317037985937	0.41751218	-1.2577515	1.1458737
924317046286719	0.36175942	-1.1752787	1.0374126
924317054587500	0.285079	-1.158042	1.0909966
924317062888281	0.14231014	-1.2075825	1.2521707
924317071189062	-0.057313442	-1.2418604	1.387625
924317079489844	-0.12536526	-1.2572231	1.2986276
924317087790625	0.251904	-1.219573	1.0845366
924317096091406	0.38147998	-1.032465	0.9409324
924317104392187	0.3297422	-0.96341133	1.0377088
924317112692969	0.19472027	-1.1010809	1.3944556
924317120993750	0.025471449	-0.6168518	1.405255
924317129294531	0.038680553	-0.6131077	1.395184
924317137595312	-1.1896029	-0.65484524	1.0959716
924317145896094	-1.3306615	-0.21886826	1.880227
924317154196875	-0.37701702	-0.25605774	2.7687325
924317162497656	0.6792908	-0.9613285	2.848002
924317170798437	0.528985	-1.631444	2.054389
924317179099219	-1.2120259	-0.7920885	3.0412889
924317187400000	0.24388433	-1.2480164	3.4251583
924317195700781	0.70252013	-1.4012356	3.0430813
924317204001562	0.8263974	-1.6609192	2.336343
924317212302344	0.8667488	-1.9253473	1.8776033
924317220603125	0.79890823	-1.9481573	1.7511768
924317228903906	0.91012895	-1.7708969	1.008856
924317237204687	1.4046891	-1.7671576	-0.03776735
924317245505469	1.2970164	-1.8043413	-0.4470615
924317253806250	1.0129232	-1.9575891	-0.37950212
924317262107031	0.99112487	-2.25809	-0.20890221
924317270407812	0.9470835	-2.2611504	-0.395266
924317278708594	1.768317	-2.1102152	-0.056799144
924317287009375	1.8578819	-2.0370789	0.17740756
924317295310156	1.7455634	-2.1842918	0.29412222
924317303610937	1.5990901	-2.0288239	0.38424903
924317311911719	1.5563773	-2.008009	0.1719743
924317320212500	1.3842542	-1.8832388	0.5021318
924317328513281	1.4402479	-2.4978504	0.5417367
924317336814062	1.6007346	-2.762888	0.37970543
924317345114844	1.624468	-2.9390411	0.10699248
924317353415625	1.7436818	-2.9190865	-0.12615895
924317361716406	1.9894134	-2.6373615	-0.22196889
924317370017187	2.1478143	-2.1479473	-0.19604588
924317378317969	2.2828493	-1.5999355	-0.30448627
924317386618750	1.9816947	-1.0325756	-0.14460492
924317394919531	1.1768694	-0.55177593	0.1983254
924317403220312	0.43962616	-0.28020668	0.54376554
924317411521094	0.09430754	-0.23191261	0.8010776
924317419821875	0.013028592	-0.23585892	0.80130005
924317428122656	-0.27929634	-0.36402702	1.2766781
924317436423437	-0.8064677	-0.36025906	1.5313487
924317444724219	-1.3716497	-0.27880192	1.685324
924317453025000	-1.7848605	-0.25768948	1.6178012
924317461325781	-1.8927395	-0.2538948	1.6041703
924317469626562	-2.0406237	0.51780033	1.5803139
924317477927344	-2.526967	0.6564369	1.959506
924317486228125	-3.3394806	1.4914322	1.976918
924317494528906	-3.8349373	1.7233276	1.4669192
924317502829687	-3.8484728	1.7395878	1.3963609
924317511130469	-4.09835	1.7399969	0.55471706
924317519431250	-4.264618	1.9597979	-0.24675918
924317527732031	-4.6500726	2.5581532	0.025589705
924317536032812	-4.5793524	2.5780869	-0.059910536
924317544333594	-4.934036	2.5780764	0.36824965
924317552634375	-5.213199	2.6884575	0.6350522
924317560935156	-5.589026	2.874711	0.5109787
924317569235937	-5.8441787	3.0768242	0.012370825
924317577536719	-5.2932944	3.2555351	-0.39471388
924317585837500	-5.2805853	3.0492926	-0.32765412
924317594138281	-5.689272	2.9312735	0.061331987
924317602439062	-5.820611	3.0351858	0.049277544
924317610739844	-5.3930144	3.065546	-0.38529444
924317619040625	-4.5612073	2.8902588	-1.0095606
924317627341406	-4.002683	2.729352	-1.4330266
924317635642187	-3.5797176	2.3854237	-1.9979529
924317643942969	-3.082329	2.1734695	-1.7475677
924317652243750	-2.8179398	1.969264	-1.4423244
924317660544531	-2.1996546	1.6745596	-1.1120737
924317668845312	-0.8131347	1.3175039	-0.9480555
924317677146094	-0.59355044	1.3567934	-0.82664156
924317685446875	2.31332	0.6189108	-2.4953268
924317693747656	3.0729995	-0.06660652	-2.8297238
924317702048437	3.048084	-0.5937834	-2.3168395
924317710349219	2.3831809	-1.352808	-1.3049757
924317718650000	1.253792	-2.5385523	-0.44147682
924317726950781	1.2871323	-2.5463552	-0.24365604
924317735251562	-1.23898	-2.29101	-0.9953176
924317743552344	-1.1578889	-1.1155539	-1.6100609
924317751853125	-0.52934337	-0.24522686	-1.688973
924317760153906	-0.43223453	-0.21179962	-1.4956331
924317768454687	-0.7284541	-0.24417877	-1.3348318
924317776755469	-1.4838305	0.07293224	-0.75862753
924317785056250	-1.1568804	-0.26328278	-0.30870622
924317793357031	-1.2088118	-0.6319256	0.34338972
924317801657812	-1.0781221	-1.3785515	0.76579756
924317809958594	-1.0269885	-1.3472567	0.84201264
924317818259375	-0.3243003	-1.8389673	0.86065054
924317826560156	-0.30704737	-1.8210316	0.95193666
924317834860937	0.2732706	-2.7079859	1.0567172
924317843161719	0.17846584	-2.6303692	1.0542933
924317851462500	0.1030612	-2.374216	0.9501147
924317859763281	-0.077347755	-2.009385	0.6939415
924317868064062	-0.4363289	-1.5651827	0.3017912
924317876364844	-0.65064335	-1.1823864	-0.14734328
924317884665625	-0.6447644	-1.0625525	-0.29746103
924317892966406	-0.61407804	-1.0547209	-0.19372642
924317901267187	-0.61773443	-1.0408726	-0.10678148
924317909567969	-0.39413786	-1.3169622	0.14161909
924317917868750	-0.2692132	-2.1524687	0.5952085
924317926169531	-0.5834279	-2.4608374	1.0001284
924317934470312	-0.65959835	-2.0451517	1.5475683
924317942771094	-0.68066597	-1.5802107	1.5040107
924317951071875	-0.68025684	-1.5654745	1.5549738
924317959372656	-0.5925827	-0.9875574	1.0690088
924317967673437	0.23727417	-0.4584322	-0.16998422
924317975974219	0.49833632	0.05321884	-0.3891282
924317984275000	0.37680054	0.10376072	-0.40150976
924317992575781	0.20303631	-0.05578327	-0.3364122
924318000876562	0.16848516	-0.059082985	-0.27959013
924318009177344	-0.47072458	-0.51938915	0.29273129
924318017478125	-0.13752747	-0.37135887	-0.12779975
924318025778906	-0.12081051	-0.23592186	0.23097801
924318034079687	-0.9056945	0.28378868	0.5445614
924318042380469	-1.660275	0.8142605	0.6680167
924318050681250	-1.6338162	0.81287	0.62182426
924318058982031	-1.6707497	0.6364918	-0.34172702
924318067282812	-1.6567187	0.63292503	-0.37201977
924318075583594	-1.467412	1.3432283	-0.24233007
924318083884375	-1.5995455	0.5161133	0.3960681
924318092185156	-2.2275796	0.3675108	1.1616087
924318100485937	-2.3596087	0.2329359	1.5476685
924318108786719	-2.4186358	0.19305897	1.5136526
924318117087500	-1.9207649	0.01115036	1.6061832
924318125388281	-1.4647593	0.4137106	1.877641
924318133689062	-1.5242066	0.66444874	0.94369173
924318141989844	-0.9926665	0.66663647	-0.2372148
924318150290625	-1.1016705	0.61183643	-0.25866008
924318158591406	-0.46590257	0.46030235	-1.0510451
924318166892187	0.31279898	0.20806217	-1.4591016
924318175192969	1.5646532	-0.50242424	-2.1335225
924318183493750	1.0205424	-1.1006346	-1.7338125
924318191794531	0.88121533	-1.1530199	-1.7638882
924318200095312	0.8405266	-1.3906822	-1.0105293
924318208396094	0.6243768	-1.3372316	-0.45610487
924318216696875	0.08368468	-1.1761255	-0.080649614
924318224997656	-0.30964684	-1.1562891	0.55377424
924318233298437	-0.41407418	-1.1945753	0.47976005
924318241599219	-0.48977113	-1.3433428	0.11899519
924318249900000	-0.88993406	-1.5552044	-0.42636847
924318258200781	0.17918754	-1.6506376	0.13974547
924318266501562	0.06311631	-1.6825914	0.06548524
924318274802344	0.75988233	-1.5811949	0.16238678
924318283103125	0.30414176	-1.810296	1.2021046
924318291403906	-0.2614597	-2.5470848	2.2653394
924318299704687	-0.1772716	-3.4039755	2.4185157
924318308005469	0.17164075	-3.837923	1.8352417
924318316306250	0.31238043	-3.7084694	0.6090818
924318324607031	-0.0464983	-3.2510118	-1.0082577
924318332907812	-0.6275395	-2.9614658	-1.8053474
924318341208594	-0.70006907	-3.445839	-1.7066218
924318349509375	-1.0251195	-4.1694345	0.59436107
924318357810156	-1.6198401	-5.087656	3.5388374
924318366110937	-2.0190349	-5.840233	4.648646
924318374411719	-1.8665609	-5.4980736	3.1318789
924318382712500	-2.430326	-1.6605072	6.504941
924318391013281	-1.467112	2.9756355	7.3192253
924318399314062	-0.24894835	9.019085	5.6895666
924318407614844	2.4631813	13.072626	-3.0809438
924318415915625	1.9949411	14.204517	-10.588182
924318424216406	-6.8111053	13.485389	-4.5807843
924318432517187	-11.07366	10.235204	-0.6794797
924318440817969	-7.4902477	7.467705	0.50968885
924318449118750	-2.5880578	5.173088	3.3075666
924318457419531	-0.18612075	3.5728493	3.9963565
924318465720312	-0.20069754	2.9155664	2.732759
924318474021094	-0.16511619	2.9580708	3.0053828
924318482321875	-1.2327204	0.9524498	5.242333
924318490622656	-1.1139803	0.77651024	1.3344525
924318498923437	0.014065027	0.77200127	-0.4652163
924318507224219	0.50864553	0.24835014	-0.11352208
924318515525000	0.563475	0.23488712	-0.15343554
924318523825781	1.2004613	0.1902113	-0.547764
924318532126562	2.2920763	0.4321165	2.0318604
924318540427344	2.537557	0.3705597	3.658948
924318548728125	2.6596334	0.89679813	2.351012
924318557028906	2.6577969	0.76705647	1.3362937
924318565329687	2.589558	-0.20879936	1.6231394
924318573630469	2.5888343	-0.95366096	1.3840889
924318581931250	2.5106	-0.43982506	0.49042568
924318590232031	2.1124914	0.09105301	0.2591381
924318598532812	1.8770008	0.17706585	0.35081124
924318606833594	1.6837857	-0.1106329	0.5164822
924318615134375	1.601675	-0.5155449	0.7545052
924318623435156	1.8938992	-0.7245083	1.2025483
924318631735937	2.1487439	-0.52870274	1.5593163
924318640036719	2.3889534	-0.11654186	-0.27260494
924318648337500	1.5557382	-0.39963913	-0.37497658
924318656638281	0.23093723	-1.2298985	0.66587526
924318664939062	0.38809758	-1.228528	0.6798446
924318673239844	-3.3348455	-1.8949156	0.033252046
924318681540625	-3.9158905	-2.1289988	0.4807595
924318689841406	-3.7332351	-2.3458939	1.0422649
924318698142187	-3.0427277	-2.76264	1.3126063
924318706442969	-2.9361215	-2.7477484	1.359271
924318714743750	-2.0160418	-3.1534967	0.82140243
924318723044531	0.3924001	-4.457608	-3.0049274
924318731345312	1.5949736	-5.268031	-4.2315836
924318739646094	1.9795836	-4.893525	-4.3951945
924318747946875	1.7247413	-4.101797	-3.883772
924318756247656	1.6267713	-4.0964985	-3.8485363
924318764548437	-0.33421642	-2.488059	-1.223934
924318772849219	-0.3834703	-2.48845	-1.2703015
924318781150000	-2.0787792	-2.3926039	1.7513173
924318789450781	-1.8555092	-2.6384182	2.9914117
924318797751562	-1.649601	-1.9331512	4.1181226
924318806052344	-1.6285158	-1.9319105	3.9997056
924318814353125	-0.984028	-1.4915037	4.348678
924318822653906	0.10777646	-2.0540886	3.9526854
924318830954687	0.16056445	-1.8747692	4.0681334
924318839255469	0.021110177	-0.18499565	-0.85346055
924318847556250	0.8013698	0.65382385	-4.018149
924318855857031	0.7658852	0.65163994	-4.0312433
924318864157812	1.3304605	0.9387131	-5.2304616
924318872458594	0.6870935	1.5092754	-5.074125
924318880759375	-1.9211781	3.8029947	-1.8954266
924318889060156	-2.9103339	4.668685	-1.8738655
924318897360937	-2.922111	4.660633	-1.9405776
924318905661719	-3.9724689	6.3754625	-1.6424677
924318913962500	-4.386487	8.102726	-0.95596033
924318922263281	-3.9406629	9.310756	0.018015355
924318930564062	-1.2414191	10.552578	2.636393
924318938864844	0.64223415	9.770591	0.81885964
924318947165625	0.49719983	9.754999	0.7723424
924318955466406	1.560916	8.242264	-2.8220787
924318963767187	1.953408	6.0606413	-5.3581758
924318972067969	2.0808067	3.3155537	-5.007119
924318980368750	1.947674	-2.408947	-0.13893014
924318988669531	1.769785	-2.3867464	-0.10507333
924318996970312	0.74867964	-5.5624466	3.680246
924319005271094	0.5799664	-6.67488	4.280948
924319013571875	0.447662	-6.638941	4.2527065
924319021872656	0.87387216	-7.668789	4.018303
924319030173437	1.3048092	-8.345339	3.8829584
924319038474219	1.7979505	-8.930184	3.8679461
924319046775000	1.7720473	-8.354703	4.1731806
924319055075781	1.8564391	-7.909316	4.1794257
924319063376562	1.7367549	-7.0838633	4.0532026
924319071677344	1.0500052	-5.2451496	4.0232906
924319079978125	0.0016553402	-2.758542	3.9163074
924319088278906	-0.56652164	-0.19843197	3.872967
924319096579687	-0.7194109	1.9163685	3.6324694
924319104880469	-0.11911154	3.0318785	3.1735969
924319113181250	1.2087793	2.9736948	2.6191669
924319121482031	2.6869264	2.1769094	2.0349972
924319129782812	3.250416	1.6119175	1.2347064
924319138083594	3.5435748	0.879735	0.5884748
924319146384375	3.4457762	0.09936333	0.14765567
924319154685156	3.097519	-0.49834442	-0.059502363
924319162985937	2.654562	-0.80532455	-0.090007484
924319171286719	1.5916729	-0.60849476	-0.06832367
924319179587500	1.4874735	-0.56395626	-0.054659545
924319187888281	0.3766508	-0.47702503	0.15015858
924319196189062	-0.65260386	-0.5499859	0.3344974
924319204489844	-1.450216	-0.6366329	0.4538406
924319212790625	-1.9714491	-0.6548071	0.5096212
924319221091406	-2.245605	-0.57967854	0.5102395
924319229392187	-2.3381789	-0.4380207	0.44201759
924319237692969	-2.2400115	-0.27492523	0.4603996
924319245993750	-1.987462	-0.17246437	0.53855735
924319254294531	-1.669378	-0.13642025	0.6195138
924319262595312	-1.3466318	-0.11525345	0.7208101
924319270896094	-1.3570049	-0.10262108	0.5652136
924319279196875	-1.0106523	0.04702854	0.8527697
924319287497656	-1.135107	0.15812302	0.7767212
924319295798437	-1.3652649	0.17318916	0.6305566
924319304099219	-1.6308782	0.1138916	0.44284594
924319312400000	-1.8533902	0.004272461	0.22585607
924319320700781	-1.9976282	-0.14178371	-0.017392993
924319329001562	-2.1150794	-0.33979797	-0.2842164
924319337302344	-2.1936395	-0.5713701	-0.5563196
924319345603125	-2.1888626	-0.75830936	-0.77975965
924319353903906	-2.13522	-0.8374758	-0.96442735
924319362204687	-2.05777	-0.7454405	-1.1225119
924319370505469	-2.0583005	-0.72143173	-1.2141492
924319378806250	-1.7943189	-0.079916	-1.3486735
924319387107031	-1.4882419	0.2534485	-1.358959
924319395407812	-1.0975771	0.39266777	-1.3692219
924319403708594	-0.7653539	0.44535923	-1.4375265
924319412009375	-0.5460601	0.4470358	-1.647865
924319420310156	-0.5482342	0.4678669	-1.7174482
924319428610937	-0.51226616	0.4571209	-2.854578
924319436911719	-0.48763633	0.40159607	-3.913382
924319445212500	-0.8967011	0.43756676	-3.460294
924319453513281	-1.9937978	0.38874722	-0.4719956
924319461814062	-1.9806709	0.40405846	-0.53578305
924319470114844	-2.4222856	0.5994835	0.6086788
924319478415625	-0.531626	1.5240002	-3.862172
924319486716406	-0.42672253	1.6118813	-1.917953
924319495017187	-0.006979227	2.1059465	-1.8896163
924319503317969	0.15200567	2.8051453	-1.9567547
924319511618750	0.07642603	2.8448792	-1.9742785
924319519919531	-1.12672	3.6968088	0.6842706
924319528220312	-2.0764189	3.6764593	1.9787681
924319536521094	-2.4159293	3.1587543	1.5152991
924319544821875	-2.0044317	2.69063	-0.72069645
924319553122656	-1.7770057	2.7764664	-3.1393423
924319561423437	-1.8485951	3.2046585	-4.9925437
924319569724219	-1.8428874	3.1813765	-4.9395
924319578025000	-1.3645287	4.1245537	-7.8252783
924319586325781	-1.6766605	5.3463745	-7.7045946
924319594626562	-2.2636018	6.457716	-5.728911
924319602927344	-3.5688467	6.539261	-5.414455
924319611228125	-3.5261173	6.5056467	-5.3971977
924319619528906	-5.134963	5.768072	-7.675211
924319627829687	-3.751349	5.056843	-8.757609
924319636130469	0.91623163	4.343931	-3.4544234
924319644431250	4.168482	4.1527414	1.2763638
924319652732031	4.1965275	4.0574703	1.6081079
924319661032812	5.158126	4.4901485	4.1439495
924319669333594	3.3205602	7.243931	3.5834007
924319677634375	2.8522062	8.2328005	3.8798363
924319685935156	2.545985	7.640464	4.3074656
924319694235937	2.4894242	6.1075954	4.3921623
924319702536719	2.6600487	6.035589	4.695802
924319710837500	2.642668	4.3783455	4.121815
924319719138281	3.2931094	1.4217453	0.70686847
924319727439062	4.55497	0.046471596	-0.7378329
924319735739844	5.9193773	-1.1407185	-0.8212837
924319744040625	5.8447857	-1.0742702	-0.5604067
924319752341406	7.135432	-2.5895452	1.3213484
924319760642187	6.1174116	-2.8054953	2.1080213
924319768942969	6.0573006	-2.7598276	2.201606
924319777243750	1.0595565	-2.258648	1.9133759
924319785544531	1.0824575	-2.2631807	1.9088945
924319793845312	-2.720999	-2.4054708	7.898862
924319802146094	-3.948648	-1.6838846	7.795434
924319810446875	-4.1458263	-1.0578146	6.4856386
924319818747656	-3.8282046	-1.3617201	5.7601514
924319827048437	-1.400321	-2.4906902	0.841017
924319835349219	1.2015111	-3.423767	1.634121
924319843650000	1.2209783	-3.4079638	1.7049532
924319851950781	1.8409138	-3.254119	3.6428094
924319860251562	2.2067375	-3.135209	4.765321
924319868552344	2.3197198	-3.2981758	5.1928406
924319876853125	1.8883281	-4.13828	6.2126064
924319885153906	1.9338183	-4.1333513	6.2438383
924319893454687	1.654036	-4.9625015	6.2661133
924319901755469	1.6804509	-5.903512	6.0361204
924319910056250	1.8533907	-6.795951	5.6186495
924319918357031	2.018283	-7.5592766	5.075227
924319926657812	2.1327314	-8.255553	4.5318217
924319934958594	2.0583003	-8.846524	4.062071
924319943259375	2.0223958	-9.334055	3.8003607
924319951560156	1.8549643	-9.272568	3.9988701
924319959860937	1.690371	-8.37913	4.4364643
924319968161719	1.8340809	-7.0972137	4.7420893
924319976462500	2.561187	-6.455724	4.6342363
924319984763281	2.953835	-6.42365	4.041047
924319993064062	2.852662	-6.361205	3.5067503
924320001364844	2.6916554	-5.897052	3.0912137
924320009665625	2.7309701	-4.843211	2.3020597
924320017966406	2.981498	-2.9490976	0.42882943
924320026267187	3.097097	0.1026392	-3.0704165
924320034567969	2.5307057	4.7189827	-8.581196
924320042868750	0.91894984	8.567103	-17.770756
924320051169531	-0.3600974	9.888235	-21.806322
924320059470312	-1.4055307	10.115451	-17.427517
924320067771094	-2.9698029	10.521311	-8.895619
924320076071875	-5.5441594	10.277112	-6.232931
924320084372656	-1.9710898	7.8478966	-5.6516213
924320092673437	-1.0376923	5.9498386	-2.150158
924320100974219	0.3370688	5.6538935	1.6742449
924320109275000	0.36050558	5.61442	1.5657926
924320117575781	3.0714288	5.345331	2.1095128
924320125876562	3.0827112	5.3113413	1.9974344
924320134177344	3.7120175	4.674055	-0.68583333
924320142478125	2.0788085	4.469452	-0.20750606
924320150778906	0.87789226	4.5652704	1.6227546
924320159079687	0.874733	4.5420895	1.4812986
924320167380469	2.0856004	5.4300413	4.98149
924320175681250	2.1046746	5.399623	4.8058977
924320183982031	2.9701104	1.958313	2.8496268
924320192282812	3.159684	-2.2137146	2.828529
924320200583594	2.124797	-5.7609653	3.8427956
924320208884375	0.13461709	-8.312912	7.8883867
924320217185156	0.19388938	-8.315377	7.8415146
924320225485937	-2.0089295	-8.511238	6.9316487
924320233786719	-0.4741025	-7.085042	7.2477274
924320242087500	0.6575911	-6.324069	6.590937
924320250388281	1.5048997	-5.907336	5.610129
924320258689062	1.9381442	-5.3768206	4.788311
924320266989844	1.9138687	-5.3548555	4.8938313
924320275290625	2.5007951	-4.0623207	3.1890655
924320283591406	3.2761946	-3.371416	0.89076644
924320291892187	3.8083718	-2.2026253	-0.97583145
924320300192969	4.213263	-0.9406557	-1.4559028
924320308493750	4.019597	-0.8752289	-1.4954796
924320316794531	4.5980244	0.20992851	-0.8976017
924320325095312	7.0753565	1.2521915	3.963462
924320333396094	3.7216785	0.47828007	3.993375
924320341696875	0.35597372	-0.22119331	2.5008328
924320349997656	-0.96387625	-0.70098114	1.4627966
924320358298437	-1.0464354	-0.6321001	1.1914091
924320366599219	-0.9743967	-0.8196449	0.96190774
924320374900000	-0.82362175	-0.34433365	1.3044689
924320383200781	-1.0979424	0.1785965	1.3874614
924320391501562	-1.5459795	0.5332861	1.24422
924320399802344	-2.1594987	0.7294035	0.9258193
924320408103125	-2.1916986	0.76134396	0.8535503
924320416403906	-2.740158	0.75302696	0.38403654
924320424704687	-2.8506136	-0.014788628	-0.6864337
924320433005469	-2.7521095	-0.47639847	-0.9845861
924320441306250	-2.3964639	-0.92740726	-1.21918
924320449607031	-1.9493346	-1.2980957	-1.1085047
924320457907812	-1.4127584	-1.5472927	-0.52592516
924320466208594	-1.4188566	-1.5158119	-0.61525226
924320474509375	-0.52013683	-1.6978545	1.0099831
924320482810156	-0.48089647	-1.719224	1.6596618
924320491110937	-0.7023878	-1.6387839	2.0460289
924320499411719	-0.70998764	-1.6105461	1.977696
924320507712500	-1.121553	-1.4567313	1.7724953
924320516013281	-1.5803947	-1.2259207	0.8749645
924320524314062	-1.8215923	-0.62593174	-1.9313016
924320532614844	-1.3918843	-0.3644085	-2.8262875
924320540915625	-0.9783373	-0.13479805	-2.7004778
924320549216406	-1.035213	-0.11562681	-2.634422
924320557517187	-0.59655046	0.082150936	-2.1209342
924320565817969	-0.16357422	0.17527437	-1.840738
924320574118750	0.165699	0.12561464	-2.246303
924320582419531	0.9481993	0.44500637	-2.6381173
924320590720312	1.2296472	1.0848799	-1.8842666
924320599021094	1.1553063	1.1511879	-1.9402828
924320607321875	0.962646	2.0784898	-1.8782861
924320615622656	0.30785465	3.1826863	-2.600572
924320623923437	-1.1551137	5.2397046	-4.1438384
924320632224219	-2.279358	6.111926	-5.398443
924320640525000	-2.289349	6.180172	-5.5634813
924320648825781	-1.5741835	6.116203	-6.2323613
924320657126562	0.5179076	4.9932613	-6.5601025
924320665427344	1.2143159	4.9921846	-5.3808384
924320673728125	-1.4112668	7.983839	-1.8654356
924320682028906	-1.4103885	8.998442	-1.3344166
924320690329687	-1.492876	8.962234	-1.1595552
924320698630469	-1.9743152	8.369463	-0.9746301
924320706931250	-2.2366967	7.176359	-0.9270997
924320715232031	-2.0134883	5.8032537	-1.7764769
924320723532812	-1.3798623	4.935247	-3.2819254
924320731833594	-0.0989666	4.6450524	-3.6590016
924320740134375	1.8795748	4.3753567	-3.2274554
924320748435156	3.5414014	4.2296095	-4.5980997
924320756735937	4.864915	4.274367	-5.3458138
924320765036719	5.113193	3.931229	-4.082864
924320773337500	3.3658066	2.4221158	-1.1361716
924320781638281	0.71796036	0.64500284	4.960859
924320789939062	0.77137613	0.5701256	5.297501
924320798239844	1.1802077	0.3902998	7.37339
924320806540625	2.3194604	0.23428822	8.3612
924320814841406	3.7142444	0.055555344	8.169592
924320823142187	4.690845	-0.016776085	6.7876844
924320831442969	4.260426	0.07575226	4.3677416
924320839743750	3.7834926	-0.010533333	3.3330016
924320848044531	3.1354933	0.345685	3.584507
924320856345312	2.4566016	0.9258528	4.3678493
924320864646094	2.5360184	0.9239054	4.56965
924320872946875	1.3471079	1.5041275	4.710932
924320881247656	0.7593193	1.383892	3.548015
924320889548437	0.68219376	1.1427746	3.4147315
924320897849219	1.1249509	0.7636976	3.9850192
924320906150000	1.0472612	-0.13802052	3.3831077
924320914450781	1.0101128	-0.12995815	3.330296
924320922751562	-0.32801104	-2.0492134	2.5184093
924320931052344	-0.5199156	-2.606594	3.7711782
924320939353125	-0.50946	-3.3421688	4.5506563
924320947653906	-0.35044336	-3.8725557	4.9415846
924320955954687	-0.076021194	-4.344452	5.1467295
924320964255469	0.12929058	-4.847039	5.314821
924320972556250	0.18902397	-4.8339996	5.404833
924320980857031	-0.23569107	-5.448742	4.9483576
924320989157812	-0.33453274	-5.473035	5.0749054
924320997458594	-0.2236104	-5.4563293	5.433893
924321005759375	-0.09371424	-5.3754435	5.739502
924321014060156	-0.048938274	-5.290184	5.8064566
924321022360937	-0.021620989	-5.2861633	5.8117256
924321030661719	0.05544758	-5.506324	5.239159
924321038962500	-0.006253481	-5.6244555	4.7076197
924321047263281	-0.11573863	-5.5300817	4.3045187
924321055564062	-0.12782288	-5.5195713	4.2763014
924321063864844	0.02568388	-5.370345	4.082568
924321072165625	0.4183488	-5.269397	4.041935
924321080466406	0.3049016	-5.1924086	3.95459
924321088767187	0.30166674	-5.0001526	3.4889438
924321097067969	0.2356224	-4.985221	3.392137
924321105368750	1.3458576	-3.77524	1.9511969
924321113669531	1.2631364	-3.7586641	1.8336177
924321121970312	2.5011358	-2.2436652	0.5383115
924321130271094	3.7886243	2.8403797	-4.139575
924321138571875	3.6983843	2.8487153	-4.2592916
924321146872656	4.084583	3.7593613	-11.029141
924321155173437	2.08569	8.088691	-17.940372
924321163474219	2.0124974	8.10983	-17.919973
924321171775000	1.9905639	10.030382	-13.886839
924321180075781	-1.914422	6.6412344	-5.159412
924321188376562	-1.9302568	6.6308117	-5.1852736
924321196677344	-2.844377	3.8308768	0.06327069
924321204978125	-2.8113194	3.783517	-0.03481114
924321213278906	-1.8878384	3.3448477	1.1297151
924321221579687	-1.431644	2.5736027	1.9771796
924321229880469	-2.0622382	0.9488878	4.931732
924321238181250	-0.9656706	1.0939159	5.2694864
924321246482031	-0.9416561	1.0635662	5.163828
924321254782812	0.432477	0.5735884	4.766514
924321263083594	1.3629532	-0.34963226	4.3543644
924321271384375	1.7253752	-1.2334566	4.2857256
924321279685156	3.2357469	-2.2509642	3.8503103
924321287985937	3.2771182	-2.2788801	3.7908335
924321296286719	4.238841	-0.39881992	4.5455904
924321304587500	5.438537	1.6900301	-0.72541296
924321312888281	6.9916177	1.6296711	-7.7195435
924321321189062	8.214215	-0.86997604	-10.320364
924321329489844	8.109814	-0.81139755	-10.214787
924321337790625	2.684853	-4.377817	1.1365968
924321346091406	-1.5507302	-4.38933	5.5783653
924321354392187	-3.972684	-4.04185	8.1446495
924321362692969	-4.517974	-4.0380154	9.004536
924321370993750	-3.274642	-4.217451	8.198158
924321379294531	-0.12012434	-3.3124332	5.880911
924321387595312	1.7417521	-0.38991356	7.5423365
924321395896094	1.766357	1.3794146	8.473904
924321404196875	1.47645	1.9585752	8.971228
924321412497656	1.1971326	1.8557615	8.75833
924321420798437	0.8218746	1.5977345	7.6479692
924321429099219	0.1680646	1.4368525	5.830399
924321437400000	0.26488924	1.091116	4.7582445
924321445700781	0.4231825	0.7856417	4.308625
924321454001562	0.6048379	0.54581356	3.9746983
924321462302344	0.6144805	0.47547102	3.3769665
924321470603125	0.34287882	0.608757	2.450402
924321478903906	-0.06954384	0.8096752	1.6146474
924321487204687	-0.5640898	0.92265177	0.85538834
924321495505469	-0.63592434	0.7815323	0.188737
924321503806250	-0.5459862	0.4856205	-0.48861158
924321512107031	-0.5020361	0.13080168	-1.0149634
924321520407812	-0.6408987	-0.23377228	-1.2243836
924321528708594	-1.0234323	-0.6520891	-1.1393204
924321537009375	-1.6189923	-0.89075804	-0.7086737
924321545310156	-1.8120217	-0.97408485	-0.11084092
924321553610937	-1.5818195	-0.9793391	0.3644253
924321561911719	-1.2337341	-0.9438057	0.55049086
924321570212500	-1.0415463	-0.90709925	0.4162079
924321578513281	-0.9059582	-0.942575	0.082635164
924321586814062	-0.66376686	-1.2597289	-0.56434953
924321595114844	-0.57987595	-1.7299094	-1.4293524
924321603415625	-0.65874004	-2.0719018	-1.8707669
924321611716406	-0.9674125	-2.1275692	-1.6981175
924321620017187	-0.98356056	-2.0823846	-1.77508
924321628317969	-2.1778712	-1.5094304	-0.32496858
924321636618750	-2.5875945	-1.3674474	0.18527126
924321644919531	-2.7504025	-1.2537451	0.15146232
924321653220312	-2.7811022	-1.1018944	-0.16450596
924321661521094	-2.71167	-0.86581707	-0.5226264
924321669821875	-2.5608873	-0.5386267	-0.77809477
924321678122656	-2.4323149	-0.1805954	-0.9727533
924321686423437	-2.16286	0.29220915	-1.2872005
924321694724219	-1.8548336	0.79131126	-1.8597391
924321703025000	-1.9608359	0.8685441	-1.7764254
924321711325781	-1.1060123	1.8145046	-3.7563994
924321719626562	-0.6587281	2.4430022	-4.3427296
924321727927344	-0.3545947	3.168573	-3.8335083
924321736228125	-1.0343204	3.9434767	5.086831
924321744528906	0.70980215	3.5770345	-1.7754011
924321752829687	4.37649	3.1604142	-6.218606
924321761130469	4.282113	3.283978	-6.2756767
924321769431250	6.746782	3.0936532	-4.512872
924321777732031	4.1735406	2.9706216	-0.44085264
924321786032812	4.023944	3.121532	-2.2463062
924321794333594	4.7990704	4.099492	-4.92397
924321802634375	4.900647	4.132858	-5.2880898
924321810935156	4.2941737	7.3760924	-8.525006
924321819235937	4.43609	7.388176	-8.853912
924321827536719	-1.2832494	7.0835476	-10.902127
924321835837500	-2.0955334	7.118793	-10.144058
924321844138281	-1.7021003	6.5615506	-9.090023
924321852439062	-1.8311296	6.5751944	-8.862285
924321860739844	2.2216215	4.2643814	-4.695529
924321869040625	2.0699358	4.298527	-4.4251947
924321877341406	3.2028193	3.2971773	-1.4222796
924321885642187	4.1027756	2.843206	0.019764662
924321893942969	3.9990978	2.815364	0.38711572
924321902243750	5.0255103	2.3196692	2.4368553
924321910544531	3.9659119	2.4137487	2.6715395
924321918845312	3.9327073	2.3586373	3.0974588
924321927146094	2.4125233	1.5339642	3.588383
924321935446875	3.275136	1.1308227	5.084391
924321943747656	3.2751331	1.125699	5.44098
924321952048437	3.3871813	2.5464563	5.633395
924321960349219	3.718382	3.0838795	4.566808
924321968650000	3.7148943	3.1360116	4.877268
924321976950781	4.3861694	2.532692	1.8021611
924321985251562	3.0294504	2.1441317	2.093558
924321993552344	0.7342	1.8833866	3.1635242
924322001853125	0.7260628	1.953013	3.3111093
924322010153906	-1.3928394	1.7727461	4.5386715
924322018454687	-2.68265	1.7413907	5.467645
924322026755469	-3.2642856	2.241437	5.54394
924322035056250	-3.1911936	2.5860662	5.4158187
924322043357031	-3.1893091	2.542954	5.2948647
924322051657812	-3.2137966	2.257082	4.922699
924322059958594	-2.9593477	1.5618191	4.6976967
924322068259375	-2.2894163	0.74334526	4.5880175
924322076560156	-0.86848927	-0.57300043	3.9247758
924322084860937	-0.8127737	-0.5907397	4.082652
924322093161719	-0.35565138	-1.0865436	4.606872
924322101462500	0.14310837	-1.4685998	5.4075937
924322109763281	0.5453458	-1.9295955	6.2327337
924322118064062	0.6778245	-2.5162334	6.870532
924322126364844	0.08456993	-3.590612	6.9444647
924322134665625	0.13147259	-3.6238818	6.983084
924322142966406	-0.21320629	-4.137724	6.5332174
924322151267187	-0.55938673	-4.6751714	5.9322376
924322159567969	-1.0658913	-4.9871964	5.377411
924322167868750	-1.7318344	-4.937328	4.9962683
924322176169531	-2.2050738	-4.667252	4.793821
924322184470312	-1.7324853	-4.368874	4.6583614
924322192771094	-0.9987664	-4.1659164	4.191804
924322201071875	-0.11140013	-4.0860167	3.9278042
924322209372656	0.6408391	-4.248379	3.786522
924322217673437	0.79720163	-4.626978	3.6672795
924322225974219	0.020724773	-4.9861264	3.604699
924322234275000	-0.55682755	-5.266346	3.1778655
924322242575781	-0.7818608	-5.616519	2.6436598
924322250876562	-0.6599612	-5.9294677	1.7630954
924322259177344	-0.33219767	-6.038393	0.8736446
924322267478125	0.18135214	-5.820082	0.26470923
924322275778906	1.9638944	-4.4514184	-0.5781827
924322284079687	1.9123678	-4.418296	-0.680233
924322292380469	2.3780131	-3.2752728	-2.030365
924322300681250	2.3228207	-1.7348809	-5.8958178
924322308982031	2.7887888	-0.17831278	-12.339036
924322317282812	2.746777	-0.16273594	-12.423892
924322325583594	4.28201	1.4640794	-17.832235
924322333884375	6.542434	5.9305296	-12.019552
924322342185156	6.0628824	6.62378	-10.901207
924322350485937	4.3012323	5.8113184	-9.430947
924322358786719	1.3720946	4.4218736	-7.3130646
924322367087500	-1.4858994	3.4208202	-4.521988
924322375388281	-1.431634	3.3386087	-4.5254035
924322383689062	-1.1932044	2.5770364	2.4771361
924322391989844	0.34037638	2.7169771	2.9418583
924322400290625	2.6740336	3.0083575	3.3113985
924322408591406	4.916678	3.5579138	3.5974593
924322416892187	6.389021	4.2339516	3.5816197
924322425192969	7.472536	4.386717	3.8723383
924322433493750	9.098974	4.0902333	4.14094
924322441794531	8.914231	4.9325523	0.41022456
924322450095312	6.5070996	4.3340745	-4.437675
924322458396094	2.4547234	2.0303402	-7.50696
924322466696875	-1.9273434	-0.9583268	-6.290149
924322474997656	-4.4760003	-2.9092479	1.85711
924322483298437	-4.20333	-6.478955	10.618336
924322491599219	-5.2433233	-7.9945006	14.955464
924322499900000	-5.6822085	-8.270109	14.357663
924322508200781	-4.840788	-8.525276	10.092116
924322516501562	-3.0405111	-9.369291	4.3775363
924322524802344	-0.8498316	-10.046887	-1.3660833
924322533103125	-0.21041584	-7.007594	0.37936217
924322541403906	0.050957203	-3.6996264	3.3348138
924322549704687	1.266016	-1.574729	5.470458
924322558005469	1.2353969	-1.5205984	5.5474863
924322566306250	5.164194	-1.0912828	5.97151
924322574607031	6.3009295	-1.5546074	4.8718457
924322582907812	6.455978	-1.7226777	4.1051393
924322591208594	5.86142	-1.1647573	3.6618032
924322599509375	5.0268197	-0.24679804	3.5412288
924322607810156	4.8702207	-0.051792145	3.4428282
924322616110937	2.9352083	1.5051146	3.55716
924322624411719	2.209548	1.8993645	3.717978
924322632712500	0.95947456	2.0233564	3.1426687
924322641013281	0.0027799606	1.9785028	2.537516
924322649314062	-0.048103333	2.0574985	2.3627245
924322657614844	-0.820158	1.3386054	1.1723847
924322665915625	-0.76245594	0.8834615	0.5717135
924322674216406	-0.52193546	0.39678144	-0.05880958
924322682517187	-0.48139858	0.040594578	-0.5731581
924322690817969	-0.6146755	-0.21924686	-0.8495948
924322699118750	-0.925724	-0.40407467	-1.0303277
924322707419531	-1.2672768	-0.5803628	-1.2218266
924322715720312	-1.4728155	-0.82374716	-1.4490416
924322724021094	-1.6064644	-1.1591477	-1.593175
924322732321875	-1.8593359	-1.4602423	-1.9464456
924322740622656	-2.0151672	-1.6846547	-2.2565398
924322748923437	-2.4297342	-1.887423	-2.5389519
924322757224219	-2.4107542	-1.8369808	-2.707779
924322765525000	-2.8436222	-1.8714018	-2.833274
924322773825781	-2.5165777	-1.4251933	-1.480753
924322782126562	-1.9844799	-1.1541424	-0.56384826
924322790427344	-1.9467535	-1.0807548	-0.7802546
924322798728125	-2.0361414	-0.9496949	-0.31714988
924322807028906	-2.3816242	-0.7727728	-0.328012
924322815329687	-2.5754843	-0.5663223	-0.7797322
924322823630469	-1.440095	0.31641436	-3.3380568
924322831931250	-0.670104	1.3347287	-4.7149105
924322840232031	-0.704834	1.3996453	-4.688103
924322848532812	0.26869488	1.961376	-4.9417486
924322856833594	1.1396055	2.192582	-4.472474
924322865134375	1.8017855	2.5115085	-3.7375853
924322873435156	2.3974457	3.2129977	-3.046693
924322881735937	3.0925703	3.6857932	-2.3395789
924322890036719	3.515339	3.9070113	-1.9492469
924322898337500	3.5144768	3.9572551	-1.6958454
924322906638281	3.0347128	3.95172	-1.6229093
924322914939062	2.2093763	4.0406923	-1.8872871
924322923239844	1.3593693	4.370336	-2.6741176
924322931540625	0.9592514	4.9930034	-3.8513842
924322939841406	1.7666655	6.3557	-4.895128
924322948142187	2.1073546	8.118338	-5.600125
924322956442969	2.8317466	9.659999	-6.6673756
924322964743750	4.233572	10.564568	-8.012551
924322973044531	5.686639	10.900579	-9.0052
924322981345312	7.3236837	10.180486	-11.420349
924322989646094	7.2884336	10.189272	-11.381517
924322997946875	7.5755377	7.5278587	-11.343409
924323006247656	7.3766994	5.1360865	-10.208101
924323014548437	7.4557276	3.672064	-8.228518
924323022849219	8.401255	2.6719716	-5.547571
924323031150000	6.217842	0.9831567	1.2300293
924323039450781	6.1214857	0.8454597	1.5983398
924323047751562	3.3479156	-0.3090675	4.9001083
924323056052344	2.3515615	-0.97807145	6.9657893
924323064353125	3.726489	-1.452929	7.7934527
924323072653906	5.6604595	-1.9925251	8.172982
924323080954687	7.383752	-2.2092247	7.8137507
924323089255469	8.474885	-2.2038312	6.6514792
924323097556250	8.094982	-2.1601696	5.3923616
924323105857031	6.8774986	-2.1492424	4.2341986
924323114157812	6.027136	-2.250269	3.149578
924323122458594	6.3255415	-2.396864	2.0847895
924323130759375	4.0686646	-1.4279742	2.1007452
924323139060156	0.8489151	-0.443954	2.6030424
924323147360937	-0.63644505	0.18499231	2.8082724
924323155661719	-0.42799568	0.71040154	2.2066236
924323163962500	0.34829807	1.3413482	1.5145111
924323172263281	0.28488445	1.9690809	2.1122317
924323180564062	-0.47607803	1.9073634	1.4465575
924323188864844	-2.262947	0.96597624	0.672009
924323197165625	-3.0197191	0.26060152	0.5746013
924323205466406	-3.2299109	-0.119594574	1.7342088
924323213767187	-3.2746592	-0.50366974	4.0051184
924323222067969	-3.2177649	-0.51997614	4.234245
924323230368750	-1.8266201	-2.058516	8.13046
924323238669531	-1.7929802	-2.8854184	8.276414
924323246970312	-1.9611158	-3.3954535	7.4439135
924323255271094	-2.0847378	-3.623056	6.1419606
924323263571875	-2.0874586	-3.6859746	4.918764
924323271872656	-2.073514	-3.6515641	4.214024
924323280173437	-2.491994	-3.465909	4.4834967
924323288474219	-2.6890402	-3.3492565	5.275701
924323296775000	-2.7874784	-3.3333306	6.0527234
924323305075781	-2.8462458	-3.340695	6.6062555
924323313376562	-2.8260365	-3.3439617	6.6235514
924323321677344	-2.6849136	-3.576282	6.464497
924323329978125	-2.7359161	-3.9183388	5.8826222
924323338278906	-3.3200111	-4.1090994	5.31119
924323346579687	-4.099515	-4.26004	4.799385
924323354880469	-4.8419056	-4.421859	4.243081
924323363181250	-4.843013	-4.4259853	4.169347
924323371482031	-5.1472073	-4.392824	2.2151716
924323379782812	-4.50469	-4.1423182	1.5220606
924323388083594	-3.843584	-3.6142979	1.0886819
924323396384375	-2.9450626	-2.8197894	0.62846196
924323404685156	-2.9519358	-2.82382	0.5483184
924323412985937	1.0040207	-0.09559059	-3.5063376
924323421286719	4.7659044	1.5950785	-9.8263855
924323429587500	10.259024	2.9434595	-17.943151
924323437888281	13.13599	2.0892582	-18.687181
924323446189062	14.273857	0.9689789	-19.041105
924323454489844	13.652011	-0.54341984	-17.66199
924323462790625	13.610178	-0.50088024	-17.586632
924323471091406	4.1521482	-2.922494	-8.23812
924323479392187	-1.9700603	-1.6121364	-6.06955
924323487692969	-4.340906	-0.66696835	-3.3597105
924323495993750	-3.1291676	0.48927593	-0.77842927
924323504294531	-3.0827408	0.4189887	-0.755672
924323512595312	0.059799194	1.5234718	1.17993
924323520896094	6.619375	2.6272974	2.725503
924323529196875	8.077904	3.1981583	1.6802819
924323537497656	9.171547	3.2866154	1.8310436
924323545798437	9.121765	3.2802992	1.6776431
924323554099219	9.515984	2.1824503	2.6656232
924323562400000	7.105335	1.2779813	0.55785966
924323570700781	2.627389	-0.17709732	-3.8881307
924323579001562	-2.569209	-2.5838742	-3.5323741
924323587302344	-5.2621994	-3.2965546	-1.3392742
924323595603125	-5.2059383	-3.3661275	-1.300107
924323603903906	-5.7580233	-3.758121	2.022826
924323612204687	-5.1154375	-4.642926	5.89549
924323620505469	-5.285837	-6.57943	12.157771
924323628806250	-5.2498426	-6.633468	11.949426
924323637107031	-4.423478	-6.5339017	11.603185
924323645407812	-2.6954098	-6.6613784	9.1803
924323653708594	-0.5184393	-6.375809	4.598201
924323662009375	1.6840162	-5.3879437	1.5540066
924323670310156	3.659276	-3.8664036	3.072229
924323678610937	5.7035084	-2.6351566	5.1804442
924323686911719	7.3977795	-1.6602678	5.9299126
924323695212500	7.3279896	-1.5781293	5.862308
924323703513281	5.384059	-0.8225255	5.2312737
924323711814062	2.0741863	-0.03682232	4.280914
924323720114844	-0.44280243	0.46099186	3.489067
924323728415625	-0.12883568	1.1492662	2.9669955
924323736716406	-0.022211075	1.4747949	2.4977212
924323745017187	-0.0634985	1.5368638	2.388913
924323753317969	-0.22038746	1.7466302	1.7710617
924323761618750	-0.63445187	1.8223362	1.0971246
924323769919531	-2.0633907	1.5963063	0.033097997
924323778220312	-2.096074	1.6715422	-0.18268016
924323786521094	-2.1401243	1.410516	-0.25666153
924323794821875	-1.9905777	1.218843	-0.07331306
924323803122656	-1.9627457	1.1427147	0.058325052
924323811423437	-1.9641933	1.0998924	-0.11919856
924323819724219	-1.3439703	0.63020396	-0.9370806
924323828025000	-1.3278818	0.6776407	-1.1460158
924323836325781	-1.0468245	0.49056482	-1.5715405
924323844626562	-0.84391975	0.26242995	-1.8121134
924323852927344	-0.8380871	0.05339408	-2.03259
924323861228125	-1.103097	-0.124739885	-2.239027
924323869528906	-1.5610943	-0.27240157	-2.324143
924323877829687	-1.7358408	-0.24431133	-2.217097
924323886130469	-2.1588202	-0.3511765	-2.170815
924323894431250	-2.2689848	-0.38629103	-1.7171049
924323902732031	-2.6264658	-0.46336865	-1.35391
924323911032812	-3.2185059	-0.51608896	-1.3260372
924323919333594	-3.25346	-0.45693707	-2.0589955
924323927634375	-3.269579	-0.40550923	-2.0428317
924323935935156	-2.2952156	-0.20188141	-2.7053652
924323944235937	-0.9932709	-0.014734745	-3.3588076
924323952536719	0.30791855	0.17184377	-3.9162774
924323960837500	1.3469238	0.4774089	-4.286538
924323969138281	2.6680489	1.3626266	-4.689849
924323977439062	2.6083765	1.4422102	-4.552529
924323985739844	2.7480488	1.6585116	-4.577924
924323994040625	1.8301525	1.9230356	-2.9331388
924324002341406	0.9529753	2.6047757	-0.513026
924324010642187	1.2129269	3.3992627	1.5635091
924324018942969	1.2290459	3.4578173	1.385961
924324027243750	2.0529509	5.0993676	4.187446
924324035544531	1.192256	6.024275	4.3214536
924324043845312	1.036623	6.508861	3.7059803
924324052146094	1.2964964	6.894767	2.7149158
924324060446875	2.0163946	7.3516	1.4943764
924324068747656	2.0516129	7.3647065	1.3689148
924324077048437	4.5417576	7.8680363	-2.0590549
924324085349219	6.0566616	7.5658484	-3.9220629
924324093650000	6.7308216	7.3285465	-5.641675
924324101950781	6.145137	7.090522	-7.160187
924324110251562	4.336852	6.838942	-7.9967318
924324118552344	1.9300299	6.509369	-7.7490044
924324126853125	0.5945225	4.4926558	-9.774969
924324135153906	0.6061325	1.3666108	-15.8618965
924324143454687	1.3774481	-0.40378618	-19.68548
924324151755469	2.9616022	-0.77014256	-20.097374
924324160056250	5.3419914	-0.23715544	-17.41781
924324168357031	8.166785	0.5420444	-12.821829
924324176657812	10.068993	1.206821	-6.1198125
924324184958594	11.379125	1.0572338	0.23014736
924324193259375	11.21664	0.5005343	4.920863
924324201560156	9.762332	-0.019604921	8.384699
924324209860937	7.774144	-0.22124434	10.950839
924324218161719	7.685666	-0.2478013	11.319456
924324226462500	5.145279	-0.27652383	11.573783
924324234763281	4.08329	-0.27333188	9.77255
924324243064062	4.0823107	-0.3631251	10.194326
924324251364844	2.5202026	-0.46347833	7.8659253
924324259665625	2.5486326	-0.530571	8.171386
924324267966406	1.9183359	-0.5801306	7.0092387
924324276267187	-0.27132607	-0.43616486	2.0943513
924324284567969	-0.2257986	-0.4540205	2.415773
924324292868750	-1.4214172	-0.093854904	-0.19930887
924324301169531	-1.6758862	0.26389217	-0.8504555
924324309470312	-1.084136	0.3413458	0.030548096
924324317771094	-0.24174404	0.13905525	1.2639239
924324326071875	-0.2550993	0.1516838	1.2283762
924324334372656	0.22594738	0.08504772	4.8630996
924324342673437	-1.1285505	-0.56164885	5.259947
924324350974219	-1.1675444	-0.57299376	4.9665146
924324359275000	-2.4677505	-1.2107425	5.102317
924324367575781	-3.1914892	-1.6627712	5.521183
924324375876562	-3.4666662	-1.9530654	5.9412155
924324384177344	-3.323226	-2.0695915	6.408333
924324392478125	-3.1228504	-2.1641316	6.6358905
924324400778906	-2.8437042	-2.4629927	7.027893
924324409079687	-2.7584734	-2.922204	7.352764
924324417380469	-2.9315567	-3.4245877	7.3772635
924324425681250	-3.039814	-3.864823	7.093849
924324433982031	-3.1123142	-4.2887626	6.1818624
924324442282812	-3.2110567	-4.5398493	5.26064
924324450583594	-3.5214367	-4.7332306	4.6431766
924324458884375	-3.8528004	-5.0088854	4.190939
924324467185156	-4.1497383	-5.3352723	3.6312928
924324475485937	-4.1488676	-5.2833867	3.6622164
924324483786719	-4.992091	-5.511242	2.6691923
924324492087500	-5.1040173	-5.4562044	2.4213314
924324500388281	-5.0287504	-5.3322973	1.9581001
924324508689062	-4.651973	-5.0283117	1.6405191
924324516989844	-3.9388943	-4.4176893	1.5905683
924324525290625	-3.9474669	-4.416697	1.5013046
924324533591406	-2.138729	-2.101269	0.48895907
924324541892187	-0.38924408	-0.967175	-1.2245915
924324550192969	2.5901098	-0.48367524	-4.9976025
924324558493750	6.7947655	-0.24298978	-11.528903
924324566794531	11.223051	0.5929973	-18.240072
924324575095312	13.60485	2.898956	-17.882273
924324583396094	12.929013	4.698971	-12.697849
924324591696875	10.935362	5.22429	-8.934862
924324599997656	6.6502037	4.3880086	-5.6834846
924324608298437	6.6653137	4.3473425	-5.592681
924324616599219	0.54638577	-0.6733186	-6.8391256
924324624900000	0.5625839	-0.7072344	-6.8192644
924324633200781	-2.65726	-3.6755962	-3.9399166
924324641501562	-3.1920528	-3.6927342	-2.5408573
924324649802344	-1.7700357	-3.3015628	-1.0192293
924324658103125	1.6955976	-2.768732	0.83438396
924324666403906	1.7003355	-2.8347855	0.6912236
924324674704687	6.5843534	-2.2893534	2.3749542
924324683005469	11.648759	-0.7658081	5.538905
924324691306250	8.165343	-0.07915878	6.69026
924324699607031	3.924921	0.38200808	5.9436116
924324707907812	3.913827	0.3652711	5.6569486
924324716208594	-1.9269133	0.50206804	-0.16711056
924324724509375	-3.1751928	0.37746906	-4.05185
924324732810156	-2.366088	-0.39537525	-2.7070265
924324741110937	-1.0362425	-1.1076994	-0.27295637
924324749411719	-1.0421858	-1.0879383	-0.21737555
924324757712500	0.1963768	-2.0352764	2.490281
924324766013281	-0.7637625	-3.9277263	5.959287
924324774314062	-2.8419638	-4.1118855	6.177486
924324782614844	-3.1638174	-4.0387	5.6624656
924324790915625	-1.720684	-3.8985624	4.830936
924324799216406	-1.6974802	-3.926713	4.936709
924324807517187	0.2406168	-3.5657053	4.06382
924324815817969	3.3295403	-2.5351024	2.9182386
924324824118750	3.729086	-1.951539	2.7784932
924324832419531	3.3622198	-1.4526682	2.87298
924324840720312	2.4830875	-1.1469007	2.9828348
924324849021094	2.47396	-1.1376915	2.9679627
924324857321875	0.27455616	-0.82292366	3.3821082
924324865622656	-0.41306973	-0.7933192	3.4437582
924324873923437	-0.84776783	-0.762568	3.3372004
924324882224219	-1.2347441	-0.62949514	3.1028023
924324890525000	-1.4090309	-0.55231667	3.0612392
924324898825781	-1.4137793	-0.45568705	3.1726558
924324907126562	-1.4362955	-0.40185785	3.1209548
924324915427344	-1.3883286	-0.20699883	3.3995051
924324923728125	-1.4896641	0.22180891	3.6363316
924324932028906	-1.1139956	0.4029975	3.6588352
924324940329687	-0.7297249	0.58612156	3.1369302
924324948630469	-0.7554903	0.6488373	3.0993035
924324956931250	-0.9208021	0.7626424	2.1989715
924324965232031	-1.5000801	0.7722249	1.2528684
924324973532812	-1.7076073	0.31039715	0.35632452
924324981833594	-1.7711535	0.04964614	0.036773443
924324990134375	-1.7862844	0.1048975	-0.031784803
924324998435156	-2.1812496	-0.08543706	-0.38912493
924325006735937	-3.413145	-0.2935009	-0.9494153
924325015036719	-3.4165783	-0.2512319	-1.0232446
924325023337500	-4.0253315	-0.49462318	-1.802316
924325031638281	-3.8924494	-0.6067834	-2.4959881
924325039939062	-3.888423	-0.5727079	-2.57509
924325048239844	-3.4363956	-0.4711008	-3.08007
924325056540625	-1.8834152	0.38725686	-2.4256217
924325064841406	-1.8774014	0.41775656	-2.5276394
924325073142187	0.00258255	1.0204701	-1.2683296
924325081442969	0.014101028	1.0476472	-1.4102325
924325089743750	2.1870584	1.5759306	-0.89799154
924325098044531	3.289877	1.867919	-0.89250636
924325106345312	3.306593	1.8922935	-1.0533557
924325114646094	4.1426153	2.2085261	-1.1261578
924325122946875	4.442404	2.572343	-1.2895727
924325131247656	4.9584703	2.9173155	-1.5704157
924325139548437	4.6323805	3.2731726	-1.8936973
924325147849219	3.929985	3.5404766	-2.235341
924325156150000	3.1302633	3.7007787	-2.5453243
924325164450781	2.4083424	3.8275626	-2.8276987
924325172751562	1.8340473	4.0321493	-3.1372175
924325181052344	1.7624693	4.169997	-3.4112744
924325189353125	1.9781342	4.16518	-3.6648328
924325197653906	2.3619642	4.1620307	-3.9483795
924325205954687	2.9902582	4.2741694	-4.578809
924325214255469	3.3443947	4.7633467	-10.986359
924325222556250	3.3541632	4.8205843	-11.068357
924325230857031	0.5592766	7.9635143	-36.906578
924325239157812	9.406915	9.822842	-24.513922
924325247458594	12.763603	9.526579	-17.768726
924325255759375	12.100657	7.6900253	-15.3130865
924325264060156	10.736052	5.5215063	-12.215196
924325272360937	10.441763	4.13663	-5.729735
924325280661719	11.63214	3.44124	3.4134097
924325288962500	9.277967	3.8338976	9.5731
924325297263281	7.646805	3.566665	10.947348
924325305564062	7.1043777	2.5660646	9.6682415
924325313864844	6.9183035	1.1599092	7.911209
924325322165625	6.0298367	-0.19564342	6.833935
924325330466406	5.066844	-1.3389399	6.8642397
924325338767187	5.1665983	-2.1687448	7.0288115
924325347067969	5.773093	-2.7034962	7.0302505
924325355368750	6.5459013	-3.1387048	6.5001607
924325363669531	6.596592	-3.3309035	6.834632
924325371970312	6.5139446	-4.261322	5.7253337
924325380271094	5.5770226	-4.9457226	5.5320344
924325388571875	4.1844263	-5.4194727	5.2868066
924325396872656	2.298318	-5.61197	5.191225
924325405173437	0.27501678	-5.6381006	5.201684
924325413474219	-1.5589113	-5.6120167	5.22009
924325421775000	-3.0809374	-5.567487	5.1808615
924325430075781	-4.005615	-5.404731	5.061104
924325438376562	-4.6578674	-5.198599	5.908989
924325446677344	-5.0195494	-4.973383	6.712037
924325454978125	-5.322234	-4.6853766	7.184263
924325463278906	-5.3102503	-4.626289	7.3007164
924325471579687	-5.198477	-4.200581	7.477369
924325479880469	-4.162777	-3.9925747	7.4900513
924325488181250	-2.3006582	-1.8607609	0.10373616
924325496482031	-0.0058116913	0.520309	-4.438194
924325504782812	1.0893869	1.8520603	-4.2394814
924325513083594	1.0345888	1.9721925	-4.248179
924325521384375	-1.9038305	1.0830748	1.7488353
924325529685156	-3.1478434	0.17397594	4.0589824
924325537985937	-4.2280025	-0.86503816	5.721035
924325546286719	-4.77979	-1.9581673	6.767089
924325554587500	-4.7588644	-1.9292116	6.845345
924325562888281	-4.5870132	-3.767049	6.713599
924325571181646	-4.3761377	-4.3499994	5.5782666
924325579482428	-4.632203	-4.619858	4.8865066
924325587783209	-5.107703	-4.763462	4.6077495
924325596083990	-5.663086	-4.791774	4.169505
924325604384771	-5.6602	-4.75058	4.1663256
924325612685553	-6.5439196	-4.3853326	2.6915355
924325620986334	-6.4525347	-3.7668438	2.5640175
924325629287115	-6.052306	-2.70443	2.585429
924325637587896	-5.098032	-1.4235363	2.2797503
924325645888678	-3.6274385	-0.3376882	1.4786615
924325654189459	-1.6096087	0.14470029	-0.14475954
924325662490240	-1.6072416	0.07751131	-0.2620448
924325670791021	1.8185024	-0.18980622	-4.8028455
924325679091803	15.620735	0.52224994	-29.012478
924325687392584	15.232512	2.1517153	-23.227625
924325695693365	15.234795	2.0162776	-23.282402
924325703994146	12.626959	3.021713	-10.565454
924325712294928	9.562568	3.340961	-0.44858396
924325720595709	2.9220161	3.1862628	-2.3347034
924325728896490	1.2885714	1.3426523	-4.587804
924325737197271	0.39555073	-0.66745377	-4.624808
924325745498053	0.3829651	-0.6439793	-4.6268826
924325753798834	0.25217342	-1.999033	-3.6075191
924325762099615	2.7997818	-2.7126937	-0.05160272
924325770400396	5.987007	-2.5326433	2.2631116
924325778701178	10.028966	-2.1542635	3.1105459
924325787001959	13.057614	-1.4862494	2.9811914
924325795302740	13.016887	-1.4938357	2.8470426
924325803603521	13.621291	-0.7834778	2.4729886
924325811904303	10.341507	-0.30956173	1.5532737
924325820205084	-2.5703	-0.16958189	-7.901336
924325828505865	-4.4055367	-1.9221294	-3.833571
924325836806646	-4.3766766	-1.9674332	-3.8406901
924325845107428	-5.7994165	-4.2148256	5.074081
924325853408209	-5.788457	-4.23359	4.902911
924325861708990	-6.9607124	-4.3075495	5.1580086
924325870009771	-7.9448185	-4.1713285	4.594698
924325878310553	-8.563498	-3.8927865	4.1161356
924325886611334	-7.6837645	-3.655819	4.1547003
924325894912115	-5.764863	-3.3007507	4.7326508
924325903212896	-2.6786728	-2.7366781	5.6883783
924325911513678	1.4725027	-1.9793282	6.624031
924325919814459	6.066947	-1.1228924	7.0373507
924325928115240	10.595584	0.18502545	4.8128557
924325936416021	10.547732	0.22658706	4.9927244
924325944716803	8.776446	0.40223956	3.5484676
924325953017584	5.517144	0.33971	2.7886147
924325961318365	2.1823921	0.16032648	2.7695768
924325969619146	-1.4959736	-0.29725432	3.3981652
924325977919928	-1.4920092	-0.28195548	3.4887965
924325986220709	-2.1631765	-0.39257097	3.818665
924325994521490	-2.5998545	-0.39575052	3.7502227
924326002822271	-2.8092823	-0.34503388	3.4625216
924326011123053	-2.7583122	-0.28965187	3.2031121
924326019423834	-2.441348	-0.26129103	3.135715
924326027724615	-2.146163	-0.23415995	2.9885588
924326036025396	-2.1821785	-0.06991625	2.397065
924326044326178	-2.2563381	0.043743134	1.770476
924326052626959	-2.1584377	0.13835907	1.1828951
924326060927740	-1.8305063	0.20461345	0.720596
924326069228521	-1.4055719	0.19911623	0.45403853
924326077529303	-1.2103081	0.18959618	0.23998186
924326085830084	-1.4488277	0.256001	-0.094488114
924326094130865	-1.8004255	0.25200033	-0.3733546
924326102431646	-2.1850557	0.23317432	-0.63469785
924326110732428	-2.6078424	0.21962237	-0.92661864
924326119033209	-3.1088028	0.17339802	-1.2505939
924326127333990	-3.5991278	0.059414387	-1.4719245
924326135634771	-3.9596071	-0.06596017	-1.6836296
924326143935553	-4.2567225	-0.20909023	-1.8922839
924326152236334	-4.5031404	-0.33712006	-2.08931
924326160537115	-4.663045	-0.36808968	-2.1479144
924326168837896	-4.648816	-0.22817683	-1.9203728
924326177138678	-4.26684	-0.058938026	-1.6542115
924326185439459	-3.35359	0.13800502	-1.4384123
924326193740240	-2.143443	0.4325459	-1.2851588
924326202041021	-0.82626915	0.7585411	-1.2005687
924326210341803	0.46805096	1.0600758	-1.1819286
924326218642584	0.49286842	1.084749	-1.3247726
924326226943365	2.5037498	1.5759466	-1.4091458
924326235244146	3.0660734	1.8201694	-1.6738522
924326243544928	3.465417	2.0418742	-1.9390869
924326251845709	3.8004255	2.2578866	-2.1843019
924326260146490	4.0841675	2.4717615	-2.3679628
924326268447271	4.0980406	2.4767394	-2.446148
924326276748053	4.0930033	2.8216631	-2.5029154
924326285048834	3.7399912	3.0703058	-2.5599713
924326293349615	3.412714	3.4091282	-2.6571321
924326301650396	3.252243	3.776579	-2.799274
924326309951178	3.2785692	3.809069	-2.9181726
924326318251959	4.125592	4.4024343	-3.0504289
924326326552740	5.284025	4.870414	-3.0281327
924326334853521	6.1304092	5.716426	-3.9739566
924326343154303	3.821147	9.871887	-23.437439
924326351455084	4.4735794	14.413094	-31.997904
924326359755865	8.939146	15.406487	-21.571022
924326368056646	8.973114	15.495693	-21.709904
924326376357428	6.5630083	7.122816	-19.13132
924326384658209	6.3398924	5.1606255	-14.772987
924326392958990	8.279691	4.202256	-7.843238
924326401259771	10.149666	4.2310143	-0.59078836
924326409560553	9.950124	4.102766	-0.13307524
924326417861334	10.431431	4.618891	4.964631
924326426162115	8.686154	3.4655497	7.5273247
924326434462896	9.031103	1.8833828	6.7539515
924326442763678	8.830553	0.5669918	6.54605
924326451064459	8.781699	0.37767577	6.9588275
924326459365240	8.007174	-0.41067123	7.334277
924326467666021	7.551791	-0.69840145	7.912611
924326475966803	10.109493	-1.5794322	7.8855696
924326484267584	10.430201	-2.8133998	8.199497
924326492568365	9.442773	-3.963288	8.728596
924326500869146	9.463779	-4.03977	8.962445
924326509169928	6.817704	-4.785249	9.661932
924326517470709	-1.5138025	-5.212782	10.532329
924326525771490	-4.033471	-5.1249795	9.659447
924326534072271	-5.89205	-4.970266	8.592659
924326542373053	-7.3118076	-4.7823634	7.312717
924326550673834	-7.2904797	-4.75718	7.413672
924326558974615	-8.18664	-4.553291	6.193917
924326567275396	-8.457319	-4.329667	5.1725154
924326575576178	-7.1543226	-3.8147123	3.1276472
924326583876959	-4.450657	-0.9923916	-3.1820111
924326592177740	-1.9822798	1.5631373	-7.5246987
924326600478521	-2.0227795	1.6833286	-7.487162
924326608779303	-0.8686266	2.7384777	-6.6032686
924326617080084	-1.167366	2.3088744	-1.235401
924326625380865	-2.482253	1.895278	6.2683
924326633681646	-3.2770777	1.8795938	7.951805
924326641982428	-3.2462406	1.883786	8.076216
924326650283209	-3.6225119	1.307173	8.67825
924326658583990	-3.7281523	-0.10204697	8.661021
924326666884771	-3.8634357	-2.1320515	8.2364645
924326675185553	-4.097273	-4.7824535	6.2585235
924326683486334	-4.087412	-4.75414	6.2816424
924326691787115	-3.9980612	-5.5750947	5.667573
924326700087896	-3.961753	-6.111103	5.367009
924326708388678	-4.174265	-6.3766227	5.0151567
924326716689459	-4.737961	-6.4173527	4.401905
924326724990240	-6.5230875	-5.758008	4.0086136
924326733291021	-6.5095243	-5.740396	4.0078554
924326741591803	-7.1764994	-5.131864	3.5425315
924326749892584	-7.567032	-4.4910154	2.7875319
924326758193365	-7.0957623	-3.598595	1.822284
924326766494146	-5.3159065	-2.5621192	0.53274167
924326774794928	-2.5269957	-2.3430586	-1.4494557
924326783095709	0.31291962	-3.1196437	-5.027979
924326791396490	7.362793	-3.3057077	-15.269671
924326799697271	14.407223	-1.8096819	-23.378605
924326807998053	17.828587	0.96822906	-22.760406
924326816298834	15.584751	3.9846559	-12.141619
924326824599615	10.312993	6.3127213	-3.6729062
924326832900396	4.9125576	7.6128874	-0.8915975
924326841201178	1.0735798	7.5757604	-1.0374737
924326849501959	-0.3730049	6.1066065	-2.031184
924326857802740	-0.16449356	3.4667492	-2.2148755
924326866103521	0.0990324	0.5183768	-0.8957888
924326874404303	0.16135597	-1.4576721	1.3011433
924326882705084	0.14038849	-1.425169	1.2395205
924326891005865	1.8368483	-1.5277834	2.5024838
924326899306646	4.5475893	-1.4573205	3.4789417
924326907607428	7.53391	-1.2225847	3.820141
924326915908209	9.800425	-0.8414295	3.5779715
924326924208990	10.281836	-0.3362031	2.8924148
924326932509771	9.41755	0.06755328	1.6046383
924326940810553	6.816697	-0.09419942	-0.109718114
924326949111334	3.0153036	-0.59832597	-6.287019
924326957412115	3.012083	-0.60357666	-6.2656755
924326965712896	-2.5183163	-3.2884583	-4.917141
924326974013678	-2.1414347	-4.1449223	3.2661953
924326982314459	-4.2110643	-4.183732	5.0399632
924326990615240	-6.4087334	-4.0822678	5.186622
924326998916021	-8.018614	-3.9512136	5.0360475
924327007216803	-8.5980215	-3.8435833	5.0620003
924327015517584	-7.913309	-3.7744064	5.126997
924327023818365	-5.8981133	-3.6872625	5.3194923
924327032119146	-2.5548487	-3.480712	5.782112
924327040419928	1.7541628	-3.1243203	6.0637064
924327048720709	5.96299	-2.5739155	5.928962
924327057021490	8.740744	-1.9160383	5.171344
924327065322271	8.697722	-1.8794115	5.329217
924327073623053	6.106201	-1.1315792	2.087826
924327081923834	2.8666773	-1.2911811	1.5786372
924327090224615	0.028170586	-1.4708366	1.7633401
924327098525396	-2.1479988	-1.6123753	2.2003124
924327106826178	-2.1497393	-1.5820203	2.3092551
924327115126959	-3.611576	-1.657336	2.6294754
924327123427740	-4.6613407	-1.5222034	3.0499773
924327131728521	-4.2205915	-1.2193379	3.0710938
924327140029303	-3.5933657	-0.7850609	3.3077033
924327148330084	-2.6748533	-0.24001908	3.5662327
924327156630865	-2.6892996	-0.18410945	3.397302
924327164931646	-1.6627502	0.38756275	3.39796
924327173232428	-0.85849094	1.1839802	2.474886
924327181533209	-0.31424618	1.4209838	1.964761
924327189833990	0.27717304	1.5592151	1.3386343
924327198134771	0.6407356	1.6309545	0.7284917
924327206435553	0.62243557	1.7011018	0.6482369
924327214736334	0.53088284	1.7240319	0.13809526
924327223037115	-0.86992645	1.5714445	-0.600644
924327231337896	-1.4905243	1.5544307	-0.95066273
924327239638678	-2.0128145	1.4732673	-1.250429
924327247939459	-2.3616877	1.3623941	-1.5847704
924327256240240	-2.6148844	1.2531264	-1.9712889
924327264541021	-2.594348	1.2792764	-2.1144938
924327272841803	-2.995738	1.164249	-2.3157403
924327281142584	-3.0000677	1.2853029	-2.07794
924327289443365	-2.408267	1.3874762	-1.9671814
924327297744146	-1.561449	1.438195	-1.9881139
924327306044928	-1.5135317	1.4461071	-2.171051
924327314345709	-0.77403545	1.4692726	-2.2442179
924327322646490	-0.0160923	1.4595876	-2.3690848
924327330947271	0.492671	1.3883395	-2.5832431
924327339248053	1.0742645	1.3643556	-2.7686694
924327347548834	1.1134739	1.3571143	-2.8791053
924327355849615	1.7917919	1.4132216	-3.0147636
924327364150396	2.5617208	1.5627224	-3.1112208
924327372451178	3.898408	1.9787879	-3.0849059
924327380751959	3.9363585	1.9537823	-3.178821
924327389052740	4.094784	2.2188082	-3.2450435
924327397353521	4.0256796	2.4818	-3.393373
924327405654303	3.8640938	2.7549186	-3.6285367
924327413955084	3.782673	3.0031831	-3.8852005
924327422255865	3.9737053	3.1131327	-4.0230913
924327430556646	4.017297	3.0773554	-4.1035104
924327438857428	4.20955	3.0224276	-4.431122
924327447158209	4.6348495	3.0684066	-6.01095
924327455458990	5.5471373	3.1669033	-13.911064
924327463759771	6.792489	3.0851846	-26.195612
924327472060553	7.8482704	2.4747682	-30.029842
924327480361334	11.53038	1.3011024	-21.501495
924327488662115	12.23021	0.3130486	-19.925728
924327496962896	11.991455	-0.93290067	-20.193655
924327505263678	11.618954	-2.0658686	-17.562046
924327513564459	11.31234	-2.4909763	-9.938109
924327521865240	10.872379	-1.744424	0.22020674
924327530166021	9.260912	-0.10127318	9.258349
924327538466803	8.346679	1.838768	12.902899
924327546767584	6.018465	2.7037063	13.191576
924327555068365	3.6387453	2.1762257	12.301013
924327563369146	2.6458979	0.71422887	11.420236
924327571669928	2.613945	0.5139859	11.678275
924327579970709	3.147994	-1.2749879	8.566029
924327588271490	2.6180458	-1.6008506	7.160693
924327596572271	2.293827	-1.7356119	5.8799753
924327604873053	2.7345018	-1.8482888	4.8043375
924327613173834	3.855811	-2.042758	4.034292
924327621474615	4.742613	-2.3173125	3.7406363
924327629775396	4.5487013	-2.677663	3.866835
924327638076178	4.3640003	-3.129429	3.7593596
924327646376959	3.5103064	-3.3880255	3.6973531
924327654677740	2.2129154	-3.4877994	3.5844939
924327662978521	2.2119627	-3.4738998	3.7276511
924327671279303	-0.41171646	-3.617746	3.0933259
924327679580084	-1.901926	-3.6228876	3.343
924327687880865	-3.196	-3.5492442	3.793415
924327696181646	-4.0385895	-3.503829	4.297493
924327704482428	-4.558916	-3.4531054	4.512705
924327712783209	-4.550706	-3.3947513	4.6464496
924327721083990	-5.056776	-2.0925517	0.20705748
924327729384771	-2.9529114	-0.61743546	-0.17319548
924327737685553	-2.1197844	-0.025262117	1.4176695
924327745986334	-2.3103027	-0.04200673	2.8086925
924327754287115	-3.0253124	-0.40883517	3.6956081
924327762587896	-3.7963333	-0.8544352	4.501897
924327770888678	-4.450966	-1.0863943	5.3174224
924327779189459	-4.640253	-1.6352639	5.9401445
924327787490240	-4.698797	-2.434175	6.325934
924327795791021	-4.835471	-3.2925718	6.4437394
924327804091803	-5.037491	-4.0774107	6.2234945
924327812392584	-5.205331	-4.70376	5.7055016
924327820693365	-5.2852325	-5.130665	5.203758
924327828994146	-5.394144	-5.416716	4.7496777
924327837294928	-5.5467854	-5.5281067	3.775167
924327845595709	-5.7265253	-5.44271	2.8599486
924327853896490	-5.8966427	-5.1890116	2.1285892
924327862197271	-5.892935	-5.152333	2.1190991
924327870498053	-6.027281	-4.219713	1.461865
924327878798834	-4.634841	-1.7236025	0.72537327
924327887099615	-4.6291265	-1.7377169	0.66782224
924327895400396	-4.6207743	-1.7709608	0.5880233
924327903701178	-2.31742	-1.0797396	-1.2914495
924327912001959	6.401677	-1.2336977	-13.426261
924327920302740	13.062221	-0.13070273	-24.795713
924327928603521	14.397367	2.936147	-20.987343
924327936904303	14.392271	2.814069	-21.093857
924327945205084	12.384968	5.1990128	-11.403615
924327953505865	4.9741	6.7769675	-0.23090464
924327961806646	5.0138054	6.638977	-0.20041573
924327970107428	0.24490166	4.302149	-2.9244108
924327978408209	0.2571602	1.2717957	-2.690413
924327986708990	0.25518608	1.2601972	-2.7529774
924327995009771	0.22171688	-1.8976073	-0.588516
924328003310553	0.20127392	-1.8500574	-0.62233937
924328011611334	1.2824926	-2.149003	0.3657034
924328019912115	8.323662	-2.1920366	1.9835732
924328028212896	11.8501835	-2.0333128	1.7770469
924328036513678	11.766566	-1.8898585	1.8434331
924328044814459	8.638968	-1.7750032	1.8428092
924328053115240	4.6946135	-1.8155987	1.6977072
924328061416021	4.6841917	-1.8113387	1.6538856
924328069716803	0.18432617	-2.3009405	1.232244
924328078017584	-1.6506786	-2.298764	0.55836636
924328086318365	-1.6363506	-2.3227339	0.5379344
924328094619146	-3.8289194	-2.2671924	-2.4900453
924328102919928	-3.8151484	-2.2773585	-2.5104115
924328111220709	-3.6820507	-2.5392447	-1.6927831
924328119521490	-4.0124016	-2.9785912	3.0167913
924328127822271	-4.0042267	-2.9567094	2.8235445
924328136123053	-5.3709297	-2.665385	3.1209693
924328144423834	-5.2143517	-2.0596948	4.103639
924328152724615	-5.1767206	-2.0681372	3.8947673
924328161025396	-3.6696157	-1.660877	4.3888216
924328169326178	0.8912029	-0.6899097	4.434075
924328177626959	0.88792133	-0.68719864	4.431366
924328185927740	3.2041893	-0.3112228	3.783524
924328194228521	4.5522118	-0.043854713	3.0290046
924328202529303	4.6987896	0.1413269	2.2579958
924328210830084	3.8425426	0.25171947	1.5655532
924328219130865	2.259036	0.24125051	1.092325
924328227431646	0.5930004	0.033016443	1.1649894
924328235732428	-0.9080105	-0.23439193	1.2951405
924328244033209	-2.1610098	-0.5486982	1.4392537
924328252333990	-3.0560493	-0.83908105	1.5937951
924328260634771	-3.5339231	-1.0470386	1.7120366
924328268935553	-3.5742006	-1.1352255	1.7329041
924328277236334	-3.0488033	-0.99080634	1.784974
924328285537115	-2.2230892	-0.70217776	1.8299916
924328293837896	-1.7459898	-0.39655685	1.6353703
924328302138678	-1.3622427	-0.14528394	1.1841353
924328310439459	-0.9094	0.016190052	0.5542523
924328318740240	-0.3659277	0.09667778	-0.510134
924328327041021	-0.37049198	0.13409257	-0.56919515
924328335341803	-0.6388693	0.26925635	-0.88987994
924328343642584	-0.9656811	0.42242694	-1.0680043
924328351943365	-1.2553625	0.5493362	-1.18948
924328360244146	-1.4676933	0.63690233	-1.2696784
924328368544928	-1.4973574	0.66885304	-1.2424715
924328376845709	-1.4931946	0.6978383	-1.3118192
924328385146490	-1.5917263	0.7199087	-1.4811622
924328393447271	-1.913065	0.73205185	-1.6057808
924328401748053	-2.369461	0.69995093	-1.6672186
924328410048834	-2.8195267	0.6090491	-1.6951528
924328418349615	-2.7959833	0.6491163	-1.8368139
924328426650396	-3.1775885	0.40151978	-1.6198814
924328434951178	-2.7107363	0.39382696	-1.5166111
924328443251959	-2.0135126	0.52852273	-1.4628706
924328451552740	-1.1819592	0.7640953	-1.4677601
924328459853521	-0.2734394	1.0425909	-1.5534751
924328468154303	0.6709242	1.3459892	-1.7533383
924328476455084	1.6494827	1.6839473	-1.9331992
924328484755865	2.6361847	2.0135531	-2.042563
924328493056646	3.5363293	2.379489	-2.1111026
924328501357428	4.104521	2.7707226	-2.1749387
924328509658209	4.1866083	3.1736379	-2.2845843
924328517958990	4.200079	3.1912818	-2.354567
924328526259771	3.3548126	4.0198555	-2.679979
924328534560553	3.1600657	4.2242546	-2.8750756
924328542861334	3.1359844	4.3021917	-3.0637503
924328551162115	3.2301655	4.3310184	-3.2688582
924328559462896	3.2407322	4.364961	-3.3287525
924328567763678	3.4902382	4.4654856	-3.5392172
924328576064459	4.891878	5.237092	-4.1040616
924328584365240	3.8491325	7.234214	-21.635082
924328592666021	5.692168	8.557288	-36.148438
924328600966803	5.68923	8.628774	-36.1376
924328609267584	13.545928	5.783343	-26.360508
924328617568365	13.595656	5.9487367	-26.54946
924328625869146	13.708658	3.040927	-6.19767
924328634169928	13.26226	3.1934342	5.3381042
924328642470709	12.025764	3.866747	13.208945
924328650771490	11.779011	3.9009953	13.727577
924328659072271	5.380804	3.960749	13.573408
924328667373053	4.7356033	1.9664234	11.778085
924328675673834	5.169203	-0.057257056	10.655197
924328683974615	4.677435	-1.0420582	9.157469
924328692275396	3.4956417	-1.3956108	7.7747865
924328700576178	3.5023537	-1.667608	8.115649
924328708876959	3.2667866	-1.9239993	5.8515863
924328717177740	4.7322683	-2.7220402	5.8733044
924328725478521	5.6089106	-3.1585245	5.3690147
924328733779303	5.6250343	-3.7038636	4.846926
924328742080084	5.6514845	-3.8106565	5.009481
924328750380865	2.256628	-4.1635003	4.441664
924328758681646	0.5100117	-4.0605145	4.782226
924328766982428	-1.160306	-4.0497684	5.263966
924328775283209	-2.6518812	-3.8884714	4.9887223
924328783583990	-3.8753548	-3.6627789	4.4518223
924328791884771	-4.5787287	-3.4571013	4.291528
924328800185553	-4.560398	-3.4239466	4.4676514
924328808486334	-4.3412123	-3.1473207	4.958143
924328816787115	-3.9981966	-2.9873462	5.377343
924328825087896	-4.201789	-2.6167285	5.973977
924328833388678	-3.9614525	-1.4526918	3.1666481
924328841689459	-3.96986	-1.382915	3.1946154
924328849990240	-2.7624702	0.18413496	0.72742414
924328858291021	-1.6563845	1.2496562	0.38882554
924328866591803	-3.316965	0.6604104	3.1796465
924328874892584	-4.560376	-0.44894218	4.340145
924328883193365	-4.5690804	-0.4031918	4.2898793
924328891494146	-5.321227	-1.7672453	5.3397903
924328899794928	-5.534418	-4.1225214	5.7713823
924328908095709	-5.518244	-4.0924263	5.8354244
924328916396490	-5.1647215	-5.4996824	4.741456
924328924697271	-4.956002	-5.851945	4.4308167
924328932998053	-4.9530973	-5.800725	4.441211
924328941298834	-4.889164	-5.9348593	4.419873
924328949599615	-5.17021	-5.9014535	4.060936
924328957900396	-5.688451	-5.75727	3.2434778
924328966201178	-6.1221495	-5.5555935	2.3130603
924328974501959	-6.2525578	-5.3267097	1.6873648
924328982802740	-6.624013	-4.856145	1.3236158
924328991103521	-6.1649475	-4.091794	1.3144382
924328999404303	-4.689804	-3.0518024	1.287187
924329007705084	-2.2275352	-2.1244771	0.5558958
924329016005865	1.7044249	-1.6963534	-2.824545
924329024306646	19.364334	3.23504	-32.649654
924329032607428	19.337318	3.1384635	-32.74928
924329040908209	17.635475	6.1838207	-27.531631
924329049208990	12.081194	6.890922	-11.405854
924329057509771	7.980673	6.0223255	1.0057516
924329065810553	2.2059956	4.210982	-0.38959575
924329074111334	0.35370255	1.4447961	-1.9719439
924329082412115	0.36327457	1.3918614	-2.0456896
924329090712896	-0.28838444	-0.776422	-2.645951
924329099013678	0.101792336	-2.0205739	-2.8006897
924329107314459	1.5066462	-2.483473	-2.4962692
924329115615240	3.995225	-2.4826577	-1.1481454
924329123916021	7.115382	-2.1311116	1.3997763
924329132216803	9.843809	-1.7401166	2.786629
924329140517584	11.239047	-1.3339219	3.382945
924329148818365	10.695765	-1.0032213	3.259535
924329157119146	8.168684	-0.7743499	2.560199
924329165419928	4.2234383	-0.6114981	1.4658678
924329173720709	-0.03447628	-0.63464046	-0.021088965
924329182021490	-4.829015	0.019770145	-6.552322
924329190322271	-6.0814257	-0.8666506	-3.9253411
924329198623053	-6.204563	-2.2512076	1.3616139
924329206923834	-7.206518	-3.0988233	3.7292857
924329215224615	-8.827231	-3.3068838	3.9555986
924329223525396	-9.626539	-3.3840563	3.910845
924329231826178	-10.128411	-3.2303736	3.9019294
924329240126959	-9.723963	-2.9541502	4.154872
924329248427740	-7.8053055	-2.5912519	4.6937523
924329256728521	-4.115802	-2.1235151	5.4929714
924329265029303	0.8548498	-1.4975235	6.4469385
924329273330084	5.993367	-0.6531818	6.8953123
924329281630865	10.249906	-0.093634605	6.139962
924329289931646	12.696974	0.06716108	4.418556
924329298232428	11.603922	0.086977005	2.3467326
924329306533209	7.091735	0.04751134	0.83781093
924329314833990	2.0248528	-0.28110027	0.63013923
924329323134771	-1.3975468	-0.7728517	1.0969946
924329331435553	-3.56884	-1.2948561	1.4599221
924329339736334	-4.929124	-1.5997705	1.6841191
924329348037115	-5.6340647	-1.6582403	1.9024893
924329356337896	-5.629039	-1.6321037	1.8245556
924329364638678	-5.105994	-1.2439666	2.4558127
924329372939459	-3.8754396	-0.9208505	2.5519283
924329381240240	-2.8125467	-0.43826962	2.661998
924329389541021	-2.1751137	0.06517577	2.3174062
924329397841803	-1.8763905	0.5292547	1.611493
924329406142584	-1.8717852	0.5704229	1.4764303
924329414443365	-1.1549559	1.0204563	0.22931671
924329422744146	-0.58150005	1.008843	-0.19565892
924329431044928	-0.3600006	1.0586076	-0.50805926
924329439345709	-0.62043476	1.0803294	-0.7595252
924329447646490	-1.2205839	1.0522637	-0.9603975
924329455947271	-1.9156151	0.9812677	-1.1231961
924329464248053	-2.483696	0.8876314	-1.2902273
924329472548834	-2.6788177	0.81401825	-1.4581374
924329480849615	-2.7607632	0.7725234	-1.6483537
924329489150396	-2.7531395	0.7573869	-1.8869344
924329497451178	-2.5347338	0.75804996	-2.0694463
924329505751959	-2.056326	0.78572536	-2.0965798
924329514052740	-1.5025749	0.8914895	-1.9769282
924329522353521	-1.0953188	1.06673	-1.9012408
924329530654303	-0.37729454	1.1681647	-1.8091066
924329538955084	0.4873562	1.2751012	-1.7860982
924329547255865	1.3156052	1.3936062	-1.8377261
924329555556646	1.3510046	1.4146235	-1.9681232
924329563857428	2.3161907	1.5814292	-2.0877025
924329572158209	2.4631052	1.6983459	-2.2489917
924329580458990	2.576355	1.8844657	-2.39469
924329588759771	2.681283	2.0877662	-2.513065
924329597060553	2.716282	2.0833368	-2.6115935
924329605361334	2.8201056	2.303385	-2.713601
924329613662115	2.660098	2.851728	-2.892208
924329621962896	2.630394	3.1919415	-3.0180428
924329630263678	2.835246	3.5383925	-3.1029525
924329638564459	2.8845472	3.5435922	-3.2221298
924329646865240	3.1068935	3.839197	-3.3451195
924329655166021	4.0560904	4.287017	-3.5778508
924329663466803	5.149103	4.606161	-3.8687105
924329671767584	6.2765675	5.8589854	-16.813591
924329680068365	6.3004866	5.9086666	-16.874601
924329688369146	7.193368	9.263889	-33.970467
924329696669928	9.324035	10.582145	-34.05878
924329704970709	10.814644	9.74839	-23.413385
924329713271490	9.596623	8.209002	-17.055637
924329721572271	7.862509	5.722011	-12.648151
924329729873053	8.701791	3.1714668	-6.7572327
924329738173834	9.269404	2.3155541	0.75060415
924329746474615	8.81838	2.5432172	6.779369
924329754775396	7.5414953	3.0048914	9.622793
924329763076178	6.173189	2.809946	9.2762785
924329771376959	5.4798813	1.5994086	7.896247
924329779677740	5.3013115	-0.5352396	6.256695
924329787978521	5.247074	-0.7489283	6.560347
924329796279303	5.152978	-1.4766653	6.321026
924329804580084	5.155466	-1.8975837	6.055475
924329812880865	5.03973	-2.4804826	5.3905354
924329821181646	5.5776405	-3.2120733	4.692436
924329829482428	6.392621	-3.8694596	4.477136
924329837783209	6.4195175	-4.0388546	4.7159696
924329846083990	6.240699	-4.575617	4.450179
924329854384771	4.790121	-4.950087	4.0970826
924329862685553	0.73209476	-5.062176	3.367486
924329870986334	0.7298527	-5.053986	3.5100634
924329879287115	-1.2356625	-4.7804346	3.5923076
924329887587896	-2.7523375	-4.5723486	3.704586
924329895888678	-3.8927898	-4.38653	4.151446
924329904189459	-4.652547	-4.2336445	4.8889832
924329912490240	-5.015787	-4.139227	5.5972815
924329920791021	-5.2430696	-3.9401178	6.140733
924329929091803	-5.5611963	-3.7564635	6.399143
924329937392584	-5.6927013	-3.5363488	6.574562
924329945693365	-4.98773	-2.2204382	4.0468946
924329953994146	-3.4870243	-0.21764159	0.24746752
924329962294928	-2.005248	1.0132277	-1.031437
924329970595709	-2.1956377	0.7325156	-0.47210634
924329978896490	-2.7335987	0.31028128	0.93729687
924329987197271	-2.9511204	0.00970149	2.7935178
924329995498053	-3.2137136	-0.19667888	4.5117416
924330003798834	-3.6666822	-0.3761227	5.602894
924330012099615	-4.3889627	-1.7534857	5.653818
924330020400396	-4.3749676	-1.722017	5.7262683
924330028701178	-4.720998	-2.8852804	5.456901
924330037001959	-4.9253054	-3.7766635	4.9614596
924330045302740	-5.2001925	-4.418852	4.3895535
924330053603521	-5.5693665	-4.8518677	3.8500028
924330061904303	-6.3060246	-5.1320095	2.7255049
924330070205084	-6.2914553	-5.1218123	2.727202
924330078505865	-6.596654	-4.993958	2.2991297
924330086806646	-6.4849653	-4.645034	2.0327768
924330095107428	-5.9119034	-3.902924	1.8144782
924330103408209	-4.871498	-2.6491125	1.3715255
924330111708990	-4.861232	-2.6860554	1.2905738
924330120009771	-0.6822748	-0.5298333	-2.029612
924330128310553	3.2753315	-0.8017833	-7.1014953
924330136611334	3.2759838	-0.88223577	-7.23388
924330144912115	14.726187	2.2849019	-26.20557
924330153212896	14.894186	5.408804	-22.914629
924330161513678	14.898952	5.269231	-22.963049
924330169814459	6.2941866	6.657294	0.8910706
924330178115240	2.8990574	5.831175	1.8105206
924330186416021	1.0438032	4.1170387	-0.9187076
924330194716803	0.43050003	1.6567516	-3.6220715
924330203017584	0.3001089	-0.84523606	-4.174952
924330211318365	-0.19378567	-2.3757725	-3.0614676
924330219619146	-0.6696129	-2.9400218	-1.7920527
924330227919928	0.53698254	-3.1786418	0.030662477
924330236220709	2.7607899	-3.1449609	1.4318035
924330244521490	5.1956816	-2.9064949	2.1066403
924330252822271	7.098481	-2.5396605	2.3090758
924330261123053	7.0782976	-2.5306458	2.198015
924330269423834	6.71014	-1.6397133	2.4858053
924330277724615	5.803175	-1.4665289	1.9620078
924330286025396	4.9162493	-1.5967853	1.3588374
924330294326178	3.620183	-1.781317	0.7114063
924330302626959	3.6159868	-1.7862728	0.6774144
924330310927740	1.749074	-1.8461833	-0.86701834
924330319228521	-2.0264292	-2.441242	-5.8202257
924330327529303	-2.0203857	-2.439387	-5.860805
924330335830084	-2.1120367	-3.2190359	-0.43768328
924330344130865	-5.108382	-3.6905375	3.3436635
924330352431646	-5.085327	-3.6732616	3.0588374
924330360732428	-6.6547823	-3.5477695	3.0375602
924330369033209	-6.6660385	-3.2339873	3.9454308
924330377333990	-6.619747	-3.234521	3.743757
924330385634771	-4.790085	-2.8384032	4.2787066
924330393935553	1.2599173	-1.4419663	4.7576847
924330402236334	1.248394	-1.4286871	4.775191
924330410537115	4.883605	-0.67645884	4.639164
924330418837896	4.840543	-0.64289856	4.7554803
924330427138678	5.6384068	0.38462543	2.1436453
924330435439459	5.5854454	0.42774415	2.3336806
924330443740240	2.8953304	0.37197876	1.742693
924330452041021	0.37654877	0.084700346	1.7004461
924330460341803	-1.614666	-0.31633878	2.0311737
924330468642584	-3.2322054	-0.64429665	2.2520032
924330476943365	-4.11495	-0.90348864	2.3870327
924330485244146	-4.5126553	-0.9078505	2.572147
924330493544928	-4.2922125	-0.73278403	2.7491512
924330501845709	-3.6437101	-0.44416022	2.763196
924330510146490	-2.9543276	-0.08480573	2.5133939
924330518447271	-2.9508991	-0.032673597	2.373219
924330526748053	-2.339285	0.6086297	1.454532
924330535048834	-1.6623125	0.73625755	0.7172048
924330543349615	-1.1256323	0.82928824	0.09914434
924330551650396	-0.83690834	0.8909459	-0.37912428
924330559951178	-0.84105206	0.94120884	-0.43674374
924330568251959	-0.81169605	0.96987534	-0.82580686
924330576552740	-1.6470537	0.84666467	-1.4223666
924330584853521	-2.1918936	0.7858968	-1.7721022
924330593154303	-2.4647312	0.68518996	-2.1847978
924330601455084	-2.6728067	0.59151053	-2.6001873
924330609755865	-2.9868422	0.56367445	-2.9522274
924330618056646	-2.9650593	0.5831711	-3.0489273
924330626357428	-2.9140635	0.50982857	-3.0248911
924330634658209	-2.4279633	0.4669497	-2.568451
924330642958990	-1.9277334	0.45229578	-2.1498256
924330651259771	-1.3998871	0.48306465	-1.8605335
924330659560553	-0.80432796	0.563359	-1.6981444
924330667861334	-0.14856529	0.65884304	-1.647991
924330676162115	0.56154823	0.81480765	-1.6564038
924330684462896	1.3430243	0.9980178	-1.7161403
924330692763678	2.0274858	1.2653618	-1.7841737
924330701064459	2.0462732	1.3079853	-1.8792088
924330709365240	3.0039234	1.9830799	-1.9613941
924330717666021	3.0225039	2.0145464	-2.0483584
924330725966803	3.5934076	2.7839842	-2.2170012
924330734267584	3.351943	3.1232264	-2.3360574
924330742568365	2.9194498	3.4367414	-2.4411287
924330750869146	2.5821037	3.7186246	-2.5499015
924330759169928	2.5418177	4.1445913	-2.7300646
924330767470709	2.5716028	4.181786	-2.8284202
924330775771490	3.0625286	4.2826505	-2.931148
924330784072271	3.9129143	4.453703	-3.0480423
924330792373053	5.0127087	4.792563	-3.2342272
924330800673834	5.020977	4.8738155	-3.3034601
924330808974615	5.862441	5.964672	-6.5293603
924330817275396	3.8574858	7.659625	-20.977367
924330825576178	5.2493343	10.386751	-39.712337
924330833876959	10.27703	9.017373	-34.238625
924330842177740	10.296577	9.136568	-34.29131
924330850478521	13.066711	7.007087	-23.203869
924330858779303	12.266217	4.7707663	-2.7372208
924330867080084	12.596627	4.7543993	8.290348
924330875380865	11.418759	5.0170517	12.890075
924330883681646	8.629778	4.749036	11.888728
924330891982428	8.458212	4.604525	12.326048
924330900283209	6.2560415	1.768045	8.437763
924330908583990	6.174857	1.5095758	8.789523
924330916884771	3.3476038	-0.83296025	7.8620133
924330925185553	2.6266594	-1.4113593	7.871999
924330933486334	3.0336952	-1.8314023	7.3263154
924330941787115	3.0530386	-2.11084	7.6323347
924330950087896	4.9763393	-2.9492443	7.5562167
924330958388678	5.2034245	-3.4786801	7.2132735
924330966689459	4.9057417	-4.0624967	6.513084
924330974990240	3.491435	-4.2799945	5.567592
924330983291021	1.670744	-4.2713003	5.5187516
924330991591803	1.6771622	-4.295734	5.6073117
924330999892584	-0.14087582	-4.3293886	5.614491
924331008193365	-1.6890755	-4.3849115	5.3486147
924331016494146	-3.9944782	-4.080015	4.7879553
924331024794928	-4.6349926	-3.969554	4.2940784
924331033095709	-4.627533	-3.9268827	4.4419665
924331041396490	-4.862156	-3.809528	4.04855
924331049697271	-5.106492	-3.6842048	4.3233013
924331057998053	-5.3847685	-3.5593657	5.343157
924331066298834	-4.6873217	-2.917623	4.4497275
924331074599615	-2.8192682	-0.5428102	-3.0247748
924331082900396	-2.8267555	-0.4784317	-2.9710405
924331091201178	-1.7364864	0.48156738	-2.7865024
924331099501959	-2.7475433	0.116610765	1.5085219
924331107802740	-2.7558584	0.16405582	1.494611
924331116103521	-4.330538	-1.0138636	5.4757795
924331124404303	-4.7062826	-1.8655753	6.2097874
924331132705084	-4.6850395	-1.8709953	6.2732763
924331141005865	-4.9454556	-2.8999708	6.4868584
924331149306646	-5.1134787	-3.8550086	6.200271
924331157607428	-5.1576195	-4.6150594	5.731949
924331165908209	-5.3956957	-5.5494814	4.9594154
924331174208990	-5.3836327	-5.531827	4.9669814
924331182509771	-6.6437016	-5.69078	3.7745962
924331190810553	-6.631213	-5.6737447	3.7667894
924331199111334	-6.9994173	-5.5154967	3.2402706
924331207412115	-7.1783047	-5.1643457	2.6646385
924331215712896	-7.29296	-4.6158886	1.9376043
924331224013678	-6.6100206	-3.8532124	1.5265827
924331232314459	-4.9691687	-3.0611553	1.0458751
924331240615240	-2.3055372	-2.9517796	-1.1982284
924331248916021	3.7943687	-3.2595115	-11.327388
924331257216803	12.853551	-2.6825294	-26.521048
924331265517584	21.2434	0.06978369	-36.39885
924331273818365	16.664856	3.39955	-20.677612
924331282119146	11.234197	5.3765087	-7.5559826
924331290419928	7.3884277	6.587473	-0.7087513
924331298720709	4.0374155	6.838276	0.5199475
924331307021490	1.1516991	5.7579136	-1.176491
924331315322271	-0.16723919	3.1437852	-2.406558
924331323623053	-0.41225433	0.12004757	-1.6320255
924331331923834	-0.2645111	-1.4109299	-0.89692104
924331340224615	0.6587162	-1.7660463	-0.16969743
924331348525396	2.6804085	-1.5901237	0.9791854
924331356826178	5.466299	-1.2759724	2.3116977
924331365126959	8.109031	-0.86376715	2.9975839
924331373427740	9.8033905	-0.3803134	2.8439705
924331381728521	10.094649	0.13444877	1.9523634
924331390029303	8.599203	0.30116487	0.8957534
924331398330084	5.585515	0.13069391	-0.19859818
924331406630865	1.4290915	0.03362775	-2.9035962
924331414931646	-3.0397892	0.3536737	-8.280938
924331423232428	-2.8548937	-1.6524456	-0.8065573
924331431533209	-4.013049	-2.9721313	2.8204167
924331439833990	-5.9486227	-3.530696	4.001751
924331448134771	-7.675585	-3.6682734	4.0142055
924331456435553	-8.486662	-3.7518504	3.9168887
924331464736334	-8.428108	-3.7875822	3.6942058
924331473037115	-6.9682493	-4.0326767	3.8664227
924331481337896	-4.0986567	-4.1254745	4.3920236
924331489638678	0.11790371	-4.049499	5.130411
924331497939459	4.9368467	-3.7623649	5.491541
924331506240240	9.005274	-3.2702346	5.0619593
924331514541021	10.740613	-2.6325674	3.812012
924331522841803	8.278272	-2.056716	2.2718756
924331531142584	4.6305056	-2.0314088	1.9725857
924331539443365	1.1545277	-2.1098385	2.3687034
924331547744146	-1.6305361	-2.2077312	2.9730167
924331556044928	-1.6331587	-2.1901212	3.0433013
924331564345709	-4.661543	-2.3251514	3.716895
924331572646490	-4.938547	-2.225524	3.501379
924331580947271	-4.8122463	-1.9912803	3.477466
924331589248053	-4.383852	-1.6830599	3.4534657
924331597548834	-4.382207	-1.6259663	3.2909071
924331605849615	-3.7647285	-1.2288351	3.0338173
924331614150396	-2.2679453	-0.2875688	1.9814316
924331622451178	-1.3227806	0.1951201	1.433162
924331630751959	-0.55792904	0.6387048	0.74382603
924331639052740	-0.19832706	0.96856403	0.099033
924331647353521	-0.20992756	1.033459	0.04241216
924331655654303	-0.32915688	1.4455864	-0.54539704
924331663955084	-0.42999744	1.4580338	-0.7057946
924331672255865	-0.85369205	1.3691671	-0.8898772
924331680556646	-1.3932762	1.3200383	-1.0173477
924331688857428	-2.0490503	1.2789845	-1.1374061
924331697158209	-2.6575623	1.2285852	-1.3174914
924331705458990	-2.642189	1.2950389	-1.4522743
924331713759771	-2.9843063	1.1548862	-1.9931958
924331722060553	-3.023016	1.2182739	-2.498642
924331730361334	-3.0111008	1.4326639	-2.6801095
924331738662115	-2.5414476	1.6471283	-2.5975683
924331746962896	-2.5057583	1.7009311	-2.746633
924331755263678	-1.530097	1.8401809	-2.5546904
924331763564459	-0.23472977	1.9218874	-2.391024
924331771865240	1.7623978	2.1992621	-2.183825
924331780166021	2.3129606	2.499763	-2.29709
924331788466803	2.3416138	2.552973	-2.417251
924331796767584	2.8948936	2.8814378	-2.5338783
924331805068365	3.9849606	3.5749552	-2.6468153
924331813369146	4.284251	3.9620757	-2.820021
924331821669928	4.01756	4.3600025	-3.0337033
924331829970709	3.6036806	4.6540565	-3.3028095
924331838271490	3.6448736	4.659871	-3.4132938
924331846572271	3.4086094	4.89709	-3.636499
924331854873053	3.9474792	5.159414	-4.0987434
924331863173834	4.7379923	5.1928573	-4.5791755
924331871474615	6.1424046	5.6275873	-18.043314
924331879775396	6.2407475	6.5934706	-33.713737
924331888076178	9.004301	6.9598117	-31.24214
924331896376959	11.548633	6.893846	-20.29055
924331904677740	11.6097145	6.984557	-20.444122
924331912978521	10.951691	6.8819466	-16.333927
924331921279303	8.646264	3.7006872	-15.943363
924331929580084	9.40021	2.1345246	-6.8056664
924331937880865	9.102588	1.92855	3.6672964
924331946181646	8.821133	2.051086	4.1918755
924331954482428	7.449812	2.8265393	12.020484
924331962783209	5.9708138	3.804146	14.472075
924331971083990	5.39287	4.3607235	11.031916
924331979384771	4.3428946	3.2012422	8.75806
924331987685553	4.6528273	1.416507	8.439791
924331995986334	5.119482	-0.09884298	8.332849
924332004287115	4.9809017	-1.0869178	7.872692
924332012587896	4.2275133	-1.7322971	7.314149
924332020888678	3.5083694	-2.1233416	6.796091
924332029189459	3.690281	-2.5085132	5.521954
924332037490240	4.839921	-3.0873933	4.8298993
924332045791021	5.974553	-3.6561325	4.4039426
924332054091803	6.3509426	-4.055456	4.1301894
924332062392584	5.6046753	-4.266916	4.003155
924332070693365	3.688877	-4.474231	3.9077754
924332078994146	1.72054	-4.398667	3.4533741
924332087294928	0.32094002	-4.2724814	3.3384671
924332095595709	-0.8379164	-4.269754	3.3558893
924332103896490	-1.9252596	-4.3189116	3.4185224
924332112197271	-2.9021206	-4.258774	3.4813664
924332120498053	-3.4518852	-4.0181985	3.4242637
924332128798834	-3.9004574	-3.902795	4.342753
924332137099615	-4.5402603	-3.7296002	5.8169794
924332145400396	-5.186898	-3.4522457	6.986622
924332153701178	-5.4740095	-2.8366294	6.4658623
924332162001959	-4.8643885	-1.654248	3.7398562
924332170302740	-2.4917364	0.11229229	1.0025141
924332178603521	-1.9704514	0.2669642	1.8135563
924332186904303	-2.5682936	-0.0022563934	2.5190258
924332195205084	-3.5261278	-0.39343262	3.4846692
924332203505865	-4.1999702	-0.7494142	4.7941785
924332211806646	-4.3993263	-1.077059	6.1378555
924332220107428	-4.609624	-1.5234175	6.8369913
924332228408209	-4.603915	-2.5675354	7.2500696
924332236708990	-4.553482	-3.6059527	6.765421
924332245009771	-4.477643	-4.3978205	5.8467345
924332253310553	-4.492899	-4.939933	4.9168973
924332261611334	-4.4927073	-4.885986	4.9131503
924332269912115	-5.4465094	-5.609368	3.0825047
924332278212896	-6.3739185	-5.7214413	2.6050806
924332286513678	-7.0389233	-5.705278	2.7175403
924332294814459	-7.383065	-5.423205	3.0117679
924332303115240	-7.4473124	-4.6969194	3.10034
924332311416021	-7.441142	-4.704086	3.021687
924332319716803	-5.6130247	-1.8093932	2.254829
924332328017584	-3.1949224	-1.4867527	1.4090681
924332336318365	0.77691174	-1.6383224	-3.1238601
924332344619146	8.684414	-1.1940255	-16.11451
924332352919928	8.661074	-1.2457879	-16.228834
924332361220709	19.79775	3.5128756	-28.244104
924332369521490	16.478756	4.667659	-13.442234
924332377822271	10.882481	5.5277157	-5.159378
924332386123053	5.3483057	5.933837	-2.6673965
924332394423834	0.72623444	5.2048054	-2.6017423
924332402724615	0.7522507	5.0867677	-2.6265106
924332411025396	-2.6552467	0.6870501	-1.9174432
924332419326178	-2.6365356	-1.0600069	-0.2942574
924332427626959	-1.8965569	-1.960978	0.5969969
924332435927740	-0.048285484	-2.2575479	1.2456906
924332444228521	2.9083328	-2.0730464	1.796282
924332452529303	6.376235	-1.557344	2.0376315
924332460830084	6.3504267	-1.5465543	1.9266311
924332469130865	10.541167	-0.45693994	4.0682096
924332477431646	9.62722	-0.29802084	4.713092
924332485732428	7.744114	-0.3241601	4.078234
924332494033209	5.211232	-0.52373147	2.642272
924332502333990	5.1987514	-0.5283568	2.488454
924332510634771	1.8901424	-0.73416805	-0.28165942
924332518935553	-5.3937206	-1.3980877	-5.262495
924332527236334	-6.3761396	-1.7306318	-3.2721188
924332535537115	-6.2478943	-2.0290596	-0.37883756
924332543837896	-6.2317677	-2.0229073	-0.5491288
924332552138678	-6.316573	-2.2731988	1.5708034
924332560439459	-8.063522	-2.446658	2.7503233
924332568740240	-8.013323	-2.4227123	3.177731
924332577041021	-6.258971	-2.2715735	4.2756343
924332585341803	-3.535287	-1.9412313	5.119182
924332593642584	-0.32170486	-1.4794915	5.4039865
924332601943365	2.968357	-0.9630251	5.011254
924332610244146	2.9459248	-0.9490514	5.087085
924332618544928	7.5484076	-0.1937871	2.7046297
924332626845709	7.1847515	0.08245444	1.3830798
924332635146490	5.283044	0.24254394	0.52607447
924332643447271	2.7648134	0.23579717	0.35845006
924332651748053	2.7424583	0.2609613	0.6050352
924332660048834	0.41401005	0.107528925	0.97925776
924332668349615	-2.402978	-0.4052055	2.2463646
924332676650396	-3.0581036	-0.5866811	2.763083
924332684951178	-3.474041	-0.6446669	3.1729014
924332693251959	-3.4762812	-0.6128745	3.074465
924332701552740	-3.5971346	-0.5385392	3.4139137
924332709853521	-3.4218664	-0.37025976	3.7629738
924332718154303	-3.0680695	-0.16698003	3.9769478
924332726455084	-1.730073	0.20825672	2.7135806
924332734755865	-1.7258558	0.25288534	2.5513453
924332743056646	-1.2297173	0.49272227	1.6315078
924332751357428	-0.9730406	0.6795969	0.71032894
924332759658209	-0.84761906	0.79187965	-0.12715912
924332767958990	-0.57143784	0.9246423	-1.1437793
924332776259771	-0.5768633	0.9669626	-1.1725641
924332784560553	-0.5516434	1.0583417	-1.4026033
924332792861334	-0.7612219	1.1191356	-1.5428268
924332801162115	-1.1687641	1.1365352	-1.6010046
924332809462896	-1.635562	1.1070473	-1.6151271
924332817763678	-2.0077581	1.021379	-1.6584088
924332826064459	-2.491706	0.94654775	-1.4899387
924332834365240	-2.8131428	0.82592535	-1.3619443
924332842666021	-3.077693	0.71387994	-1.3314195
924332850966803	-3.2964315	0.65837836	-1.34231
924332859267584	-3.417347	0.66520846	-1.3470922
924332867568365	-3.3226576	0.7002374	-1.3709724
924332875869146	-2.8646688	0.87607014	-1.3788879
924332884169928	-2.1232347	1.10945	-1.4048104
924332892470709	-1.1975088	1.3599404	-1.4590576
924332900771490	-0.20561695	1.6323649	-1.5270782
924332909072271	0.755352	1.9351922	-1.5912104
924332917373053	2.6148882	2.553122	-1.6184564
924332925673834	2.6267862	2.5831668	-1.6855226
924332933974615	3.4846077	2.9038439	-1.7007587
924332942275396	4.1408186	3.2182035	-1.7707744
924332950576178	4.343628	3.5205822	-1.8962243
924332958876959	3.9907045	3.7886958	-2.0915167
924332967177740	3.2521906	3.9769027	-2.4418192
924332975478521	2.8052301	3.9699068	-2.6411214
924332983779303	2.4516335	3.9357288	-2.8265853
924332992080084	2.331481	3.9612517	-2.9696004
924333000380865	2.3555765	3.9782388	-3.04456
924333008681646	2.8842373	4.3311906	-3.150566
924333016982428	2.89886	4.3695707	-3.2103283
924333025283209	4.8217096	4.98764	-3.0840833
924333033583990	5.726549	5.250273	-3.1333857
924333041884771	5.9406033	5.571647	-3.6433287
924333050185553	5.9373302	5.631041	-3.6777215
924333058486334	3.0632095	10.031523	-35.125313
924333066787115	3.0669785	10.082092	-35.09472
924333075087896	10.050798	9.4962435	-15.621649
924333083388678	8.149879	7.2090487	-12.94743
924333091689459	7.1329603	5.0808315	-11.260902
924333099990240	7.9762993	3.4111567	-7.7961254
924333108291021	9.047399	2.5205674	-2.2278738
924333116591803	7.3213015	2.7056344	3.7968009
924333124892584	5.7526684	2.479107	7.474343
924333133193365	5.851591	1.7137941	7.1304073
924333141494146	5.4397182	0.8600575	6.123972
924333149794928	4.178506	-0.11084449	5.8815393
924333158095709	4.132888	-0.3341241	6.2037854
924333166396490	2.0469112	-3.0269043	8.67672
924333174697271	3.4130335	-3.842271	9.350242
924333182998053	4.4427567	-4.081446	9.311626
924333191298834	4.735778	-4.175047	8.518487
924333199599615	4.7524004	-4.314699	8.720234
924333207900396	4.2628593	-4.379758	7.1195507
924333216201178	2.2501497	-4.4880295	3.4653933
924333224501959	0.6272707	-4.3591876	3.1397355
924333232802740	-1.1127777	-4.1037207	2.9345934
924333241103521	-2.5509424	-3.84057	3.08332
924333249404303	-3.4220142	-3.6160705	3.9126143
924333257705084	-3.4020357	-3.5770988	4.1877255
924333266005865	-4.174243	-3.1680796	7.3804255
924333274306646	-4.973695	-2.7714474	8.241052
924333282607428	-5.186264	-2.3710768	9.196289
924333290908209	-5.1630335	-2.006333	9.577293
924333299208990	-5.1616306	-1.9524205	9.586233
924333307509771	-4.921834	-1.464931	8.804699
924333315810553	0.16925144	3.3598008	-10.109514
924333324111334	1.9722624	4.556345	-7.9822903
924333332412115	0.2635374	4.1585073	-3.8028393
924333340712896	-2.376707	3.2354004	0.7090516
924333349013678	-2.3768883	3.2563856	0.71713054
924333357314459	-4.202964	2.179808	4.5176787
924333365615240	-5.474889	-0.73584247	8.393742
924333373916021	-5.7121544	-2.006492	8.61134
924333382216803	-5.4480057	-3.140566	8.223153
924333390517584	-5.1994476	-4.0914354	7.424302
924333398818365	-5.1868343	-4.0933695	7.403038
924333407119146	-5.21008	-4.747389	6.233149
924333415419928	-6.030467	-5.091119	3.7120206
924333423720709	-6.2470026	-4.8794475	3.2168052
924333432021490	-6.2675695	-4.618785	3.0835586
924333440322271	-6.3181524	-4.3556414	2.959784
924333448623053	-6.309375	-4.324215	2.9596303
924333456923834	-6.400159	-4.122795	2.6931736
924333465224615	-5.341344	-4.0056562	1.2032341
924333473525396	-3.706606	-4.1253133	-0.9937196
924333481826178	-3.700904	-4.149844	-1.0643165
924333490126959	1.6605473	-5.0197716	-9.031309
924333498427740	11.522263	-5.2015414	-24.440786
924333506728521	19.449125	-3.414868	-34.20402
924333515029303	18.25278	0.5279441	-23.929575
924333523330084	8.954129	6.6484017	-0.5236806
924333531630865	8.986134	6.4690933	-0.48463225
924333539931646	4.8512573	7.069727	1.2854083
924333548232428	1.9050255	5.9909506	0.28789723
924333556533209	0.23867512	3.6861286	-1.0589554
924333564833990	-0.95040417	1.0676565	-1.2396412
924333573134771	-2.8545122	-0.80327463	-0.34790647
924333581435553	-3.8445892	-1.5980623	0.5806499
924333589736334	-3.581336	-1.6807799	1.8764756
924333598037115	-1.8123169	-1.5438564	3.2836928
924333606337896	1.5769157	-1.4254823	4.306971
924333614638678	6.1827745	-1.3113315	4.355798
924333622939459	10.25757	-1.0887384	3.4760168
924333631240240	12.428635	-0.72870636	2.5782619
924333639541021	12.06424	-0.32767487	1.4575437
924333647841803	9.023096	-0.10417962	0.30838174
924333656142584	3.7766075	0.055617094	-2.4398952
924333664443365	-4.4219637	-0.7743707	-6.8809595
924333672744146	-3.920147	-2.3589442	0.2547663
924333681044928	-3.9060268	-2.3727994	0.18198666
924333689345709	-4.9355574	-3.20398	3.376192
924333697646490	-6.9192476	-3.4146068	3.779779
924333705947271	-8.668846	-3.3365335	3.4897506
924333714248053	-9.514569	-3.2212791	3.442449
924333722548834	-9.447732	-3.0497205	3.5500288
924333730849615	-7.5498877	-2.9110878	3.6141229
924333739150396	-4.496828	-2.638344	3.9111152
924333747451178	-0.26321793	-2.2509289	4.2041388
924333755751959	-0.2689762	-2.2482185	4.22532
924333764052740	9.353696	-1.102946	3.3817751
924333772353521	11.274563	-0.74593806	2.0578122
924333780654303	9.60674	-0.7275009	1.002757
924333788955084	5.8426886	-0.80147886	0.5440906
924333797255865	1.8676643	-1.0338895	0.7078403
924333805556646	-1.1841516	-1.3993132	1.283169
924333813857428	-3.2618713	-1.6986613	1.863899
924333822158209	-4.462082	-1.812891	2.3606114
924333830458990	-4.903495	-1.7079442	2.7735596
924333838759771	-4.718755	-1.4538238	3.1570582
924333847060553	-3.9097652	-1.1031747	3.5355158
924333855361334	-2.7324219	-0.7250359	3.7380805
924333863662115	-1.3509016	-0.017150164	3.1128922
924333871962896	-1.3390045	0.031083584	2.8919291
924333880263678	-1.4009104	0.3141172	1.7869536
924333888564459	-1.1996679	0.48600602	0.8136867
924333896865240	-0.70167255	0.55488014	-0.11664784
924333905166021	-0.6940136	0.5932257	-0.21211088
924333913466803	-0.13585472	0.60984826	-1.1341783
924333921767584	-0.036872864	0.5733812	-2.4087586
924333930068365	-0.865077	0.5657344	-2.7791762
924333938369146	-0.8661747	0.6037004	-2.809606
924333946669928	-1.9692888	0.3299799	-3.2483535
924333954970709	-1.9619465	0.36423635	-3.2990708
924333963271490	-2.3561125	0.25233388	-3.4998598
924333971572271	-3.093278	0.12952447	-3.173973
924333979873053	-2.991066	0.24055815	-2.5688353
924333988173834	-2.9652348	0.2877369	-2.6889365
924333996474615	-2.0884	0.45952415	-1.5286067
924334004775396	-1.4887543	0.63308454	-1.2242284
924334013076178	-1.4537334	0.6993265	-1.3806441
924334021376959	-0.2459917	1.1782598	-0.9240823
924334029677740	-0.21468925	1.2505243	-1.0629058
924334037978521	0.5637293	1.5486883	-1.009762
924334046279303	1.8958044	2.1093786	-1.0008862
924334054580084	1.9157715	2.1795328	-1.1008985
924334062880865	2.411891	2.5645492	-1.2069631
924334071181646	3.217599	3.330452	-1.3946679
924334079482428	3.237029	3.385902	-1.482367
924334087783209	3.1467505	4.074323	-1.6769073
924334096083990	2.9615574	4.4126496	-1.7526028
924334104384771	2.984558	4.4627495	-1.8366673
924334112685553	2.838728	4.803688	-1.9366655
924334120986334	3.0972776	5.3274665	-2.332294
924334129287115	3.6893568	5.405309	-2.576552
924334137587896	3.7068043	5.477745	-2.6465788
924334145888678	4.5097094	5.845559	-4.6351795
924334154189459	4.5160666	5.936248	-4.6807446
924334162490240	4.430277	6.8622303	-12.873047
924334170791021	8.735181	10.278359	-33.480362
924334179091803	8.743956	10.371404	-33.483406
924334187392584	10.884432	9.558865	-12.135047
924334195693365	11.04345	9.715402	-12.463245
924334203994146	9.726638	9.028713	-9.734013
924334212294928	9.808436	5.0773706	0.35353088
924334220595709	9.57827	5.1465263	0.7366276
924334228896490	9.291112	4.274775	5.793951
924334237197271	6.9530087	2.7825289	7.104472
924334245498053	6.805913	2.5970078	7.4603167
924334253798834	6.212672	1.3776848	7.2434835
924334262099615	4.5920067	-0.51447374	6.708949
924334270400396	4.538927	-0.7878101	6.9569845
924334278701178	3.4187632	-1.6048772	6.651731
924334287001959	2.6947193	-2.5515165	6.3811283
924334295302740	2.708311	-3.5483615	6.2354364
924334303603521	3.904498	-4.3767376	5.8412976
924334311904303	6.0739603	-4.8647165	5.0626817
924334320205084	7.7149887	-5.0175295	4.5745134
924334328505865	7.2772675	-5.021187	4.309941
924334336806646	6.2502556	-5.2267385	3.6603963
924334345107428	4.9317093	-5.7296543	2.839499
924334353408209	3.4017715	-6.346118	2.3140876
924334361708990	1.7328615	-6.744196	2.4155827
924334370009771	0.16596413	-6.518569	2.9842682
