gyroscope_timestamp	gyroscope_x_data	gyroscope_y_data	gyroscope_z_data
330392726098488	-0.0680679	0.4834566	-0.64402705
330392759198488	0.23038366	-0.41189805	-0.6457724
330392769198488	0.27576226	-0.57595915	-0.6300644
330392779198488	0.3246315	-0.5846858	-0.62657374
330392789198488	0.44505933	-0.5445432	-0.6108658
330392799198488	0.56897783	-0.47298464	-0.6021391
330392809198488	0.7190763	-0.42411536	-0.57595915
330392819198488	0.93375194	-0.44156867	-0.53232586
330392829098488	1.2182409	-0.50265527	-0.44855002
330392839098488	1.4329165	-0.51487255	-0.31415954
330392849198488	1.6144309	-0.7888895	-0.07155856
330392859198488	1.9111372	-1.0524344	0.19547704
330392871098488	2.2881286	-1.1658809	0.4188794
330392885098488	2.6197414	-1.1327196	0.6318097
330392895098488	2.7087533	-1.0716331	0.7714362
330392905098488	2.8483799	-0.59690315	0.88662803
330392916098488	2.8989944	0.2042037	1.0279998
330392924098488	2.8640878	0.44505933	1.0716331
330392926098488	2.7611132	0.26529026	1.0506891
330392934198488	2.6511574	-0.034906615	0.9651679
330392973398488	2.4295003	-0.453786	1.0506891
330392973498488	2.2340233	-0.34383017	1.2426755
330392973598488	1.6964614	-0.0907572	1.2007875
330392989198488	1.593487	-0.25307295	1.123993
330392999198488	1.5987229	-0.52534455	1.4206992
330393021298488	1.4451338	-0.928516	2.1362848
330393021398488	1.4224446	-1.3421594	2.5656362
330393029098488	1.2322035	-1.7976906	2.6459215
330393038198488	1.0646517	-1.9355718	2.5900707
330393049198488	1.0349811	-1.7435855	2.359687
330393071298488	0.9634226	-1.4556059	2.1607194
330393071398488	0.7609642	-1.5498537	2.015857
330393079198488	0.6213378	-1.7366041	1.9233545
330393089198488	0.4834566	-1.8762306	1.8081627
330393099198488	0.29845157	-1.9530251	1.7400948
330393109198488	0.12740915	-1.9600065	1.5952322
330393119098488	-0.066322565	-2.0018945	1.5219284
330393129198488	-0.2600543	-1.9460437	1.4643325
330393139198488	-0.36477414	-1.9914224	1.3700846
330393149198488	-0.49741927	-1.9861864	1.3596127
330393159198488	-0.54628855	-2.1170862	1.2566382
330393169098488	-0.55326986	-2.1764274	1.1571543
330393192298488	-0.5445432	-2.1921353	1.1815889
330393192398488	-0.64053637	-2.026329	1.192061
330393209198488	-0.83601344	-1.747076	0.99832916
330393219198488	-0.96865857	-1.6912255	0.8080881
330393229198488	-1.1327196	-1.556835	0.6248284
330393239198488	-1.2828181	-1.3840473	0.3682648
330393249198488	-1.4015006	-1.1885703	0.17104241
330393259198488	-1.4887671	-0.9424786	-0.09599319
330393269198488	-1.5411271	-1.0297451	-0.2094397
330393279198488	-1.5114565	-1.1588997	-0.33335817
330393289198488	-1.4503698	-1.0210185	-0.39269942
330393299198488	-1.3177247	-0.9267706	-0.4310967
330393309198488	-1.1327196	-0.6300644	-0.4363327
330393319198488	-0.86044806	-0.38397276	-0.34557548
330393329098488	-0.5881765	-0.47996596	-0.16929708
330393339098488	-0.40491673	-0.50265527	-0.012217315
330393349198488	-0.3001969	-0.43982336	0.120427825
330393357998488	-0.2443463	-0.35081148	0.23387432
330393369198488	-0.17802374	-0.2391103	0.28972492
330393379198488	-0.19024105	-0.10122918	0.19373171
330393389198488	-0.25132763	0.16057043	-0.02094397
330393400098488	-0.37699145	0.41538873	-0.2949609
330393409198488	-0.6318097	1.0419625	-0.9302613
330393422098488	-0.9459693	1.7907094	-1.5166924
330393435098488	-1.2147502	2.6982813	-1.9879317
330393483098488	-1.1588997	3.0595648	-2.221806
330393483198488	-0.8953547	2.7977653	-2.3614326
330393483298488	-0.5619965	1.3421594	-2.485351
330393483398488	-0.4834566	-0.20071304	-1.8587773
330393483498488	-1.192061	0.11519183	-1.0576705
330393499198488	-1.6894802	2.6057787	-1.0506891
330393509198488	-1.6214123	3.6425052	-0.87092006
330393519198488	-1.609195	3.6267972	-0.69115096
330393529198488	-1.7139148	2.9216838	-0.76445484
330393652098488	-1.7400948	1.9006652	-1.1065397
330393652198488	-1.6633002	0.55850583	-1.6615549
330393652298488	-1.6475922	-0.46774864	-1.8483052
330393652398488	-1.7715107	-0.9651679	-1.556835
330393652498488	-1.7505667	-0.89360934	-1.335178
330393652598488	-1.5271645	-0.24609163	-1.1571543
330393652698488	-1.2810727	0.83252275	-0.9459693
330393652798488	-0.9267706	2.5412016	-0.6422817
330393652898488	-0.5550152	3.909541	-0.3804821
330393652998488	-0.3700101	3.53604	-0.1308998
330393663198488	-0.2600543	2.3457246	-0.106465176
330393671198488	-0.21118502	1.4713138	-0.21118502
330393679198488	-0.23038366	1.0053105	-0.34033948
330393689198488	-0.34033948	0.9302613	-0.35604748
330393699198488	-0.49567392	1.1466823	-0.29670623
330393709198488	-0.57595915	1.2496568	-0.28099826
330393719198488	-0.56897783	1.1903156	-0.25307295
330393756098488	-0.51487255	1.150173	-0.22863832
330393756198488	-0.45204067	1.1693716	-0.2042037
330393756298488	-0.49567392	1.2199862	-0.19722238
330393768598488	-0.5375619	1.150173	-0.1867504
330393777098488	-0.5619965	1.0629064	-0.1815144
330393789198488	-0.60388446	0.82554144	-0.18500505
330393799198488	-0.63704574	0.5375619	-0.24085565
330393809198488	-0.67369765	0.3176502	-0.29321557
330393819198488	-0.72780293	0.054105252	-0.36477414
330393829198488	-0.7976161	-0.12915447	-0.44156867
330393839198488	-0.881392	-0.09424786	-0.5218539
330393942998488	-0.902336	0.17976907	-0.62657374
330393943098488	-0.8691747	0.5305805	-0.7138403
330393943198488	-0.7836535	0.66148037	-0.95818657
330393943298488	-0.5899218	0.6387911	-1.3281966
330393943398488	-0.44855002	0.53232586	-1.546363
330393943498488	-0.3106689	0.34732082	-1.7139148
330393943598488	-0.16755176	0.1815144	-1.577779
330393943698488	0.066322565	-0.13962646	-0.891864
330393943798488	0.27925292	-0.32812217	-0.3246315
330393950198488	0.39619008	-0.2600543	-0.2094397
330393962098488	0.5602512	-0.031415954	-0.16231576
330393975098488	0.78539884	0.24609163	-0.16929708
330393985098488	1.0157825	0.44331402	-0.22863832
330393995098488	1.3439047	0.6248284	-0.27576226
330394005098488	1.857032	0.7487469	-0.2670356
330394013098488	2.2898738	0.8377588	-0.2443463
330394081598488	2.8413985	0.7400202	-0.20594902
330394081698488	3.2899485	0.56548715	-0.04188794
330394081798488	3.2899485	-0.054105252	0.41189805
330394081898488	2.7227159	-1.0332358	1.0279998
330394081998488	2.448699	-1.7802373	1.6179216
330394082098488	2.19039	-2.7349334	2.1834087
330394099198488	2.2252967	-1.8448147	2.480115
330394109198488	2.4382272	-0.6457724	2.5028043
330394119198488	2.5516737	0.49741927	2.310818
330394129198488	2.5987976	1.2042782	1.9582611
330394138198488	2.563891	1.335178	1.6109403
330394254098488	2.391103	0.7504922	1.1728623
330394254198488	2.2619486	-0.49043795	1.139701
330394254298488	2.0559995	-1.6144309	1.5114565
330394254398488	1.8657585	-1.6667908	2.1101048
330394254498488	1.7558028	-1.9076465	2.5726175
330394254598488	1.8238707	-2.2567127	2.7646039
330394254698488	1.7575481	-2.5953069	2.8431437
330394254798488	1.6318842	-3.071782	2.5132763
330394254898488	1.5184377	-3.0805087	2.122322
330394254998488	1.3631033	-3.1730113	1.9268452
330394262198488	1.2042782	-3.249806	1.9268452
330394270198488	1.0175278	-3.2428246	1.9320811
330394279198488	0.6981323	-3.1625392	1.8343426
330394289198488	0.33684883	-3.045602	1.6650455
330394299198488	0.012217315	-2.8309264	1.5655617
330394309198488	-0.26354495	-2.6878095	1.4713138
330394319198488	-0.5375619	-2.5289843	1.3857926
330394369498488	-0.79936147	-2.4295003	1.3177247
330394369598488	-1.0890864	-2.2392592	1.2217315
330394369698488	-1.3788112	-2.1240675	1.0768691
330394369798488	-1.6126856	-1.8709946	0.9861119
330394378098488	-1.747076	-1.7191508	0.94073325
330394389198488	-1.9931678	-1.3857926	0.8342681
330394411098488	-2.2148247	-1.0210185	0.675443
330394411198488	-2.3177993	-0.82554144	0.5777045
330394419198488	-2.3963392	-0.6021391	0.3124142
330394442298488	-2.3230352	-0.5602512	0.02094397
330394442398488	-2.0751982	-0.60388446	-0.30194223
330394459198488	-1.4032459	0.1535891	-0.7766722
330394493398488	-0.8272868	1.123993	-0.9477146
330394493498488	0.10122918	0.8517214	-0.90408134
330394493598488	0.87615603	-0.5986484	-0.28623423
330394509198488	0.9878572	-0.71209496	0.026179962
330394519198488	0.7487469	-0.14486246	0.085521206
330394538298488	0.38746342	0.6579897	0.036651947
330394538398488	-0.13264513	1.7767467	-0.16929708
330394547198488	-0.6195924	3.171266	-0.6195924
330394555198488	-0.95818657	4.586729	-1.1798435
330394634798488	-0.83252275	4.3650723	-2.1397755
330394634898488	-0.69115096	2.4382272	-2.6337042
330394634998488	-0.6003938	-0.20594902	-2.083925
330394635098488	-1.4364072	-0.13962646	-0.78190815
330394635198488	-1.7505667	0.67369765	-0.57246846
330394635298488	-1.7313681	2.1537383	-0.22863832
330394635398488	-1.8744853	3.3475444	0.1535891
330394644198488	-2.0176024	3.56222	0.34557548
330394655098488	-1.7959453	3.1049435	0.28099826
330394669198488	-1.1850796	1.2601289	-0.881392
330394679198488	-1.0018198	0.21293035	-1.6615549
330394689198488	-1.1903156	-0.5445432	-2.0943968
330394699198488	-1.6458468	-0.58643115	-2.1589742
330394733398488	-2.0402915	-0.085521206	-1.9111372
330394733498488	-2.2567127	1.2444208	-1.5027298
330394733598488	-2.3509605	3.4662268	-1.4119725
330394749198488	-1.9792051	5.155707	-1.4590966
330394759198488	-1.37183	4.2655883	-1.2496568
330394769098488	-0.84299475	2.5586548	-0.9459693
330394779198488	-0.6789337	1.4468791	-0.75223756
330394789098488	-0.72431225	0.9564412	-0.65624434
330394799098488	-0.7906348	0.98436654	-0.54279786
330394809098488	-0.891864	1.2409302	-0.39793542
330394819198488	-0.9320066	1.4905125	-0.37699145
330394829198488	-0.86568403	1.3648486	-0.3577928
330394839198488	-0.7138403	1.0506891	-0.26354495
330394873398488	-0.61610174	0.7504922	-0.22340234
330394873498488	-0.4886926	0.3001969	-0.1867504
330394873598488	-0.39619008	0.038397275	-0.17627841
330394889198488	-0.46774864	-0.10995584	-0.2042037
330394925098488	-0.6003938	-0.22165701	-0.24260098
330394925198488	-0.7784175	-0.31590486	-0.33161286
330394925298488	-0.98960257	-0.25656363	-0.47298464
330394939998488	-1.1833342	0.17278774	-0.5393072
330394947998488	-1.2514021	0.54628855	-0.5515245
330394959098488	-1.3212154	0.9529506	-0.659735
330394974098488	-1.3421594	0.938988	-0.83950406
330394991198488	-1.1815889	0.6527537	-1.2828181
330394991298488	-0.6998776	0.7435109	-1.6702815
330395047498488	-0.059341244	0.52883524	-1.097813
330395047598488	0.052359924	-0.012217315	-0.659735
330395047698488	0.6003938	-0.21816635	-0.5044006
330395047798488	0.8848827	-0.24260098	-0.35604748
330395059198488	0.9826212	-0.057595916	-0.29670623
330395069198488	1.3578674	0.5672325	-0.17627841
330395079198488	1.8709946	1.1362103	-0.04886926
330395089198488	2.2287874	1.4887671	0.07504922
330395099198488	2.76984	1.4416432	0.33859417
330395109198488	3.2951844	1.2723461	0.51487255
330395119198488	3.3004205	1.0314904	0.7941255
330395129198488	3.0508382	0.7330389	1.192061
330395139198488	2.8099825	-0.09424786	1.6231576
330395149198488	2.5935614	-1.3753207	1.8727399
330395159198488	2.4818604	-2.0228384	1.963497
330395169198488	2.6005428	-1.4608419	2.1205769
330395179198488	2.6563933	-0.7190763	2.253222
330395189198488	2.675592	0.17976907	2.2671847
330395199198488	2.7227159	0.9599319	2.1938808
330395209198488	2.71748	1.4416432	2.089161
330395230298488	2.5202577	1.3980099	1.8465599
330395230398488	2.3352525	0.6318097	1.6318842
330395239198488	2.4137924	-0.057595916	1.5585804
330395249198488	2.3893578	-0.67718834	1.6685362
330395259198488	2.1554835	-0.97389454	1.9966583
330395269198488	2.0455277	-1.2409302	2.4347365
330395279198488	2.0612357	-2.263694	2.6790826
330395333598488	2.0804343	-2.5097857	2.7890387
330395333698488	2.1432662	-2.8204546	2.7838025
330395333798488	2.2078433	-3.2934391	2.532475
330395333898488	2.0088756	-3.494152	2.0717075
330395333998488	1.8273613	-3.0944715	2.0088756
330395342198488	1.5847603	-3.022913	1.8971745
330395350198488	1.356122	-3.1538126	1.8011813
330395359198488	1.097813	-3.1538126	1.7610388
330395369198488	0.7766722	-3.11367	1.7505667
330395379198488	0.4310967	-3.077018	1.7296227
330395389198488	0.07504922	-2.9635715	1.7208961
330395399198488	-0.20769437	-2.8466344	1.6947162
330395451498488	-0.49567392	-2.7785666	1.6859895
330395451598488	-0.8621934	-2.5883255	1.6702815
330395451698488	-1.2880541	-2.1991167	1.5498537
330395451798488	-1.7383494	-1.6144309	1.3334327
330395459198488	-2.0350556	-1.2863088	1.1728623
330395469198488	-2.432991	-0.9459693	0.9529506
330395482098488	-2.7803118	-0.58294046	0.7033683
330395501198488	-3.0909808	-0.12566382	0.47472996
330395501298488	-3.3580163	0.46774864	0.16929708
330395519198488	-3.1363595	0.58643115	-0.5445432
330395528198488	-2.8274357	0.37175545	-0.95818657
330395539198488	-2.0333104	0.24609163	-1.4625871
330395549198488	-1.2391849	0.53581655	-1.6074497
330395559198488	-0.02443463	1.0122918	-1.4678231
330395569198488	0.96865857	0.1361358	-0.3752461
330395579198488	1.1519183	-0.664971	0.29147023
330395589198488	1.1362103	-0.5270899	0.39968073
330395599198488	0.9826212	0.3804821	0.34906614
330395609198488	0.42935136	2.1170862	0.2391103
330395619198488	-0.19547704	3.6285427	-0.17453307
330395629198488	-0.5567605	4.8886714	-1.0314904
330395639198488	-0.6003938	4.506444	-1.7016975
330395649198488	-0.5061459	2.8256905	-1.9163731
330395659198488	-0.7696909	1.0245092	-1.6912255
330395669198488	-1.3962646	0.120427825	-1.2828181
330395679198488	-2.021093	0.6195924	-1.118757
330395689198488	-2.122322	1.5201831	-1.0279998
330395699198488	-1.9390625	2.7663493	-0.75572824
330395709198488	-2.0507636	3.092726	-0.3804821
330395719098488	-2.099633	2.6651201	-0.24609163
330395729198488	-1.8029267	2.0176024	-0.4310967
330395739198488	-1.4800404	1.2322035	-0.8569574
330395749198488	-1.3107435	0.34906614	-1.3857926
330395759198488	-1.3316873	-0.3577928	-1.7715107
330395769198488	-1.3840473	-0.6318097	-1.9704784
330395779198488	-1.567307	-0.6318097	-1.9250998
330395789198488	-1.815144	-0.043633267	-1.6894802
330395799198488	-1.8762306	1.392774	-1.4643325
330395809198488	-1.9285905	3.2742405	-1.2845634
330395819198488	-1.9198638	4.780461	-1.113521
330395829198488	-1.4974937	5.002118	-0.8290321
330395839198488	-0.9354973	3.5220776	-0.5567605
330395849198488	-0.65449905	1.7104242	-0.459022
330395859198488	-0.5567605	0.7365296	-0.4834566
330395869198488	-0.60562974	0.5166179	-0.40666208
330395879198488	-0.74525625	0.92153466	-0.2949609
330395889198488	-0.81506944	1.2444208	-0.232129
330395899198488	-0.8011068	1.1972969	-0.2094397
330395909198488	-0.73129356	0.96865857	-0.23038366
330395919198488	-0.6353004	0.7679455	-0.19896771
330395929198488	-0.5619965	0.54279786	-0.17627841
330395937998488	-0.5305805	0.3577928	-0.19896771
330395955098488	-0.5235992	0.16406108	-0.24783696
330395958998488	-0.56548715	0.029670622	-0.27576226
330395975098488	-0.675443	0.006981323	-0.28797957
330395976998488	-0.76445484	-0.120427825	-0.36651945
330395991098488	-0.8412494	-0.27052626	-0.45727664
330396005098488	-0.9424786	-0.40142608	-0.5951578
330396030298488	-1.0105464	-0.3228862	-0.7033683
330396030398488	-1.082105	-0.2670356	-0.73827493
330396030498488	-1.2618741	-0.055850584	-0.7574735
330396042098488	-1.298526	0.099483855	-0.79587084
330396055098488	-1.139701	0.28099826	-0.84299475
330396065098488	-0.82030547	0.5515245	-0.95818657
330396075098488	-0.50265527	0.7976161	-1.0367265
330396085098488	-0.34208483	0.8237961	-0.9773852
330396093098488	-0.29845157	0.5410525	-0.8377588
330396101098488	-0.19024105	0.0226893	-0.70511365
330396103098488	-0.026179962	-0.39095408	-0.5497792
330396114198488	0.2617996	-0.40666208	-0.31415954
330396125098488	0.44680467	-0.17453307	-0.21991168
330396139198488	0.78190815	0.44680467	-0.18500505
330396149198488	1.0157825	0.78539884	-0.23387432
330396159198488	1.4625871	1.155409	-0.23387432
330396169198488	1.9826957	1.4887671	-0.18500505
330396179198488	2.427755	1.7139148	-0.11170117
330396189198488	2.9827702	1.6894802	0.06457724
330396199198488	3.3807056	1.3892833	0.32114086
330396209198488	3.361507	0.96865857	0.6928963
330396219198488	3.012441	0.43284202	1.129229
330396229198488	2.7000268	-0.6073751	1.6580642
330396239198488	2.4661524	-2.0036397	1.9966583
330396249198488	2.5359657	-3.0525835	2.057745
330396259198488	2.5516737	-2.2986007	2.3282712
330396269198488	2.6843188	-1.0314904	2.532475
330396364998488	2.7035174	0.16406108	2.6424308
330396365098488	2.7035174	0.92327994	2.6179962
330396365198488	2.738424	1.1990422	2.474879
330396365298488	2.579599	1.1780982	1.9652424
330396365398488	2.3300166	0.65624434	1.4294258
330396365498488	2.2724206	-0.031415954	1.3316873
330396365598488	2.2986007	-0.685915	1.6807535
330396365698488	2.1589742	-0.93375194	2.1764274
330396365798488	2.015857	-1.5847603	2.5412016
330396373098488	1.9826957	-2.6302135	2.7454052
330396382098488	2.031565	-2.7611132	2.7977653
330396399098488	2.2828927	-2.4417176	2.3928485
330396409098488	2.211334	-2.6197414	1.8744853
330396419098488	1.9617518	-2.4469538	1.6283937
330396431098488	1.7907094	-2.448699	1.5812696
330396478098488	1.3735753	-2.5342202	1.514947
330396478198488	0.8988453	-2.5202577	1.4381526
330396478298488	0.36128345	-2.4469538	1.3281966
330396478398488	-0.043633267	-2.3090725	1.2793274
330396487198488	-0.2670356	-2.2026074	1.2322035
330396495198488	-0.49567392	-2.0559995	1.160645
330396503198488	-0.7295483	-1.8919386	1.1170117
330396511198488	-0.9477146	-1.7366041	1.1065397
330396522098488	-1.150173	-1.6929709	0.98960257
330396535098488	-1.4015006	-1.5411271	0.84648544
330396601598488	-1.7069335	-1.4451338	0.7662002
330396601698488	-2.0664716	-1.3735753	0.67369765
330396601798488	-2.3788857	-1.2863088	0.59341246
330396601898488	-2.6668653	-1.2514021	0.36128345
330396601998488	-2.6686108	-0.96167725	0.11519183
330396602098488	-2.5446923	-0.2722716	-0.22340234
330396619198488	-2.010621	0.45029533	-0.89011866
330396629198488	-1.6022136	0.8377588	-1.2618741
330396639198488	-0.9529506	0.928516	-1.4590966
330396649198488	0.09599319	0.34208483	-1.1815889
330396672298488	0.66671634	-0.6422817	-0.5707232
330396672398488	0.8011068	-1.1466823	-0.33335817
330396701298488	0.41538873	-0.0226893	-0.07330389
330396701398488	-0.07155856	0.45727664	-0.080285214
330396709198488	-0.44331402	0.7365296	-0.26878095
330396719198488	-0.907572	1.551599	-0.670207
330396729198488	-1.6231576	3.3440537	-1.1728623
330396739198488	-2.0786889	4.035205	-1.7278775
330396749198488	-2.0717075	3.1642847	-2.1729367
330396759198488	-2.1170862	1.8500506	-2.490587
330396769198488	-1.6790081	0.6824243	-2.6319587
330396779198488	-1.4032459	-0.50265527	-1.8238707
330396789198488	-1.8971745	-0.02443463	-0.649263
330396799198488	-2.0123663	1.0018198	-0.06457724
330396809198488	-2.2881286	2.7262065	0.3682648
330396819198488	-2.727952	3.0072048	0.34033948
330396829198488	-2.5865803	2.1188316	-0.21467568
330396839198488	-1.9582611	1.0646517	-0.9494599
330396849198488	-1.2391849	-0.0034906615	-1.556835
330396859198488	-0.8447401	-0.8674294	-2.1013782
330396869198488	-1.0053105	-1.4015006	-2.401575
330396879198488	-1.3613579	-1.567307	-2.3631778
330396889198488	-1.7435855	-0.87092006	-1.6667908
330396899198488	-2.0141118	1.2182409	-0.675443
330396909198488	-1.747076	3.4836802	0.15533444
330396919198488	-1.2740915	4.8781996	0.3106689
330396928198488	-0.6998776	4.64258	0.24085565
330396939098488	-0.41713405	3.942702	0.16755176
330396949198488	-0.29845157	2.2305326	0.08901187
330396959198488	-0.39095408	1.2740915	0.08901187
330396969198488	-0.469494	0.9372426	0.099483855
330396979198488	-0.5707232	1.0890864	0.07330389
330396989198488	-0.5811951	1.1379557	0.0052359924
330396999198488	-0.5009099	0.928516	-0.07155856
330397009198488	-0.4084074	0.664971	-0.13264513
330397022098488	-0.35255682	0.58643115	-0.1134465
330397035098488	-0.33859417	0.60562974	-0.087266535
330397045098488	-0.34732082	0.5707232	-0.13264513
330397053098488	-0.37699145	0.45553133	-0.15533444
330397065098488	-0.4782206	0.21293035	-0.15009844
330397075098488	-0.6318097	0.11170117	-0.15533444
330397085098488	-0.7330389	-0.0226893	-0.19547704
330397095098488	-0.81506944	-0.24609163	-0.28623423
330397105098488	-0.9093173	-0.51836324	-0.44680467
330397109098488	-1.113521	-0.675443	-0.62308306
330397125098488	-1.3334327	-0.5916671	-0.68067896
330397129098488	-1.3962646	-0.43284202	-0.71209496
330397138998488	-1.3962646	-0.08203054	-0.7906348
330397147098488	-1.3212154	0.2042037	-0.88662803
330397155098488	-1.171117	0.45029533	-0.99483854
330397164098488	-0.9669132	0.70162296	-1.1047944
330397173198488	-0.6894056	0.91106266	-1.1676263
330397189198488	-0.3682648	0.84299475	-0.902336
330397199198488	-0.1815144	0.30368754	-0.6108658
330397209198488	0.08377588	-0.226893	-0.34033948
330397219198488	0.3351035	-0.28797957	-0.14137179
330397229198488	0.47472996	0.120427825	-0.036651947
330397239198488	0.5672325	0.7033683	0.012217315
330397259298488	0.7033683	1.2356942	0.036651947
330397259398488	0.9058267	1.7348588	-0.0017453308
330397267098488	1.2234769	1.9181185	-0.012217315
330397275098488	1.6633002	1.841324	-0.040142607
330397282998488	1.9547704	1.6196669	-0.07504922
330397299198488	2.4940777	0.83077747	-0.02094397
330397333398488	3.0525835	0.13788113	0.16929708
330397333498488	3.202682	-0.35255682	0.649263
330397333598488	2.9164476	-0.9477146	1.2147502
330397349198488	2.5673816	-2.3561964	1.8116534
330397359198488	2.5045497	-2.5359657	2.0245836
330397368198488	2.6302135	-1.7453308	2.1659555
330397379198488	2.7768211	-0.49741927	2.3195446
330397402098488	2.7227159	0.38397276	2.3160539
330397402198488	2.659884	1.134465	2.0751982
330397455098488	2.4609163	1.2147502	1.2636194
330397455198488	2.3055818	0.1361358	1.0663971
330397455298488	2.1293035	-0.7225669	1.3177247
330397455398488	2.0821795	-1.2461661	1.7715107
330397466198488	1.9931678	-1.8762306	2.4888415
330397474198488	2.0176024	-2.26893	2.8030012
330397482198488	2.0751982	-2.7227159	2.965317
330397511098488	2.1240675	-3.1398501	2.785548
330397511198488	2.2043529	-3.4627361	2.61276
330397519198488	2.0176024	-3.5046241	2.1135955
330397529198488	1.7523121	-3.487171	1.9408078
330397542098488	1.4992391	-3.3859417	1.9093919
330397573298488	1.2007875	-3.3649976	1.8954293
330397573398488	0.89360934	-3.1642847	1.9024105
330397573498488	0.43982336	-3.0560741	1.8657585
330397589198488	-0.06981323	-2.8588517	1.804672
330397623398488	-0.31939554	-2.8413985	1.7383494
330397623498488	-0.5777045	-2.759368	1.6929709
330397623598488	-0.89011866	-2.5342202	1.593487
330397639198488	-1.4311712	-2.089161	1.3753207
330397649198488	-1.7418401	-1.7697654	1.2095143
330397659198488	-2.015857	-1.5097111	1.0367265
330397669198488	-2.2497313	-1.1955515	0.8115788
330397679198488	-2.4713883	-0.79587084	0.5916671
330397689198488	-2.6459215	-0.464258	0.36128345
330397699198488	-2.7296972	-0.20594902	0.11868249
330397709198488	-2.6633747	0.02443463	-0.11868249
330397718198488	-2.532475	0.06283191	-0.35953814
330397742298488	-2.2287874	0.10297451	-0.8063428
330397742398488	-1.6004683	0.38920876	-1.2304581
330397759198488	-0.11519183	0.5707232	-0.97913057
330397769198488	0.5550152	-0.30892354	-0.39269942
330397779198488	0.89011866	-0.7033683	-0.12217315
330397789198488	0.94422394	-0.38920876	0.07330389
330397799198488	0.68766034	0.3298675	0.12740915
330397809198488	0.19373171	0.92327994	0.015707977
330397819198488	-0.38746342	1.5044751	-0.34033948
330397829198488	-1.0541798	3.0054595	-0.938988
330397839198488	-1.6667908	4.9253235	-1.6022136
330397849198488	-1.4782951	4.1905394	-2.1938808
330397859198488	-1.4660778	2.9094663	-2.5202577
330397869198488	-1.129229	1.0803597	-2.701772
330397879198488	-1.2060236	-0.93375194	-1.7051882
330397889198488	-1.9879317	-0.6475177	-0.21991168
330397899198488	-1.862268	0.6108658	0.4310967
330397909198488	-1.857032	2.748896	0.8080881
330397919198488	-2.1118503	3.799585	0.8377588
330397929198488	-1.8814665	3.371979	0.47298464
330397939198488	-1.4346619	2.4783697	-0.3054329
330397947198488	-1.1850796	1.5201831	-1.0437078
330397959198488	-0.9808759	0.033161283	-1.9163731
330397969198488	-1.0175278	-0.7086043	-2.3614326
330397979198488	-1.3055074	-0.891864	-2.4661524
330397989198488	-1.8221253	-0.41189805	-2.099633
330397999198488	-2.2287874	0.9773852	-1.37183
330398009198488	-2.3492153	2.9635715	-0.73827493
330398019198488	-2.3177993	4.649561	-0.5619965
330398026998488	-2.0123663	5.030043	-0.48520195
330398045098488	-1.061161	4.211483	-0.28797957
330398054098488	-0.6003938	3.207918	-0.17976907
330398055098488	-0.49218327	2.2200608	-0.19024105
330398062998488	-0.63355505	1.4172086	-0.29321557
330398079198488	-0.9267706	1.3159794	-0.19024105
330398089198488	-1.0349811	1.8343426	-0.1815144
330398099198488	-1.0681424	2.1205769	-0.2094397
330398109198488	-1.0314904	2.0717075	-0.24260098
330398119198488	-0.93375194	1.7575481	-0.24958229
330398129098488	-0.8080881	1.4015006	-0.24609163
330398139198488	-0.65449905	1.0925771	-0.226893
330398149198488	-0.5550152	0.902336	-0.22340234
330398159198488	-0.5567605	0.79936147	-0.20769437
330398169198488	-0.65100837	0.664971	-0.19373171
330398179198488	-0.76270956	0.45727664	-0.28274357
330398189198488	-0.8848827	0.17976907	-0.3577928
330398199198488	-0.9529506	-0.13264513	-0.43284202
330398219298488	-0.9372426	-0.28448892	-0.5602512
330398219398488	-0.92153466	-0.24609163	-0.74176556
330398227198488	-0.94422394	-0.15009844	-0.7906348
330398236198488	-1.0297451	-0.0226893	-0.72431225
330398244198488	-1.1466823	0.057595916	-0.6527537
330398255098488	-1.1746076	0.019198637	-0.649263
330398269198488	-0.6195924	0.21991168	-0.7714362
330398279198488	-0.17278774	0.7470016	-0.79587084
330398289198488	-0.02094397	0.92327994	-0.7086043
330398310298488	0.06981323	0.14486246	-0.49218327
330398310398488	0.2617996	-0.64402705	-0.28448892
330398319198488	0.459022	-0.6684617	-0.11693716
330398329198488	0.6283191	-0.4136434	0.012217315
330398339198488	0.7208216	-0.09424786	0.09599319
330398349198488	0.89360934	0.29147023	0.120427825
330398359198488	1.3107435	0.58643115	0.08901187
330398413598488	1.7278775	0.89011866	-0.0052359924
330398413698488	2.1450114	1.1623902	-0.0017453308
330398413798488	2.9984782	1.2583835	0.11170117
330398413898488	3.4627361	1.0122918	0.3246315
330398413998488	3.440047	0.7155856	0.8045975
330398425198488	3.0805087	-0.11519183	1.408482
330398433198488	2.790784	-1.3124887	1.76802
330398441198488	2.7960198	-2.4626617	1.8517959
330398449198488	2.850125	-2.7558773	1.8552866
330398459198488	2.8867772	-1.7976906	2.0350556
330398469198488	2.9269197	-0.38746342	2.2706754
330398479198488	2.8571064	0.86568403	2.3335073
330398489198488	2.8448892	1.562071	2.2095888
330398499198488	2.7419145	1.7505667	1.8640132
330398521098488	2.4207737	1.1327196	1.377066
330398521198488	2.2828927	0.28274357	1.1798435
330398539198488	2.1921353	-0.72780293	1.7697654
330398552098488	2.0333104	-1.3543767	2.3631778
330398565098488	2.015857	-1.9582611	2.7139893
330398580198488	1.9460437	-2.654648	2.8710692
330398580298488	2.122322	-3.054329	2.8710692
330398592098488	2.359687	-3.134614	2.628468
330398605098488	2.3649232	-3.2166445	2.0769436
330398614098488	2.1868994	-3.4679723	1.6563189
330398624098488	1.8971745	-3.3178737	1.5132017
330398632098488	1.7208961	-3.150322	1.5166924
330398641098488	1.4905125	-3.1101794	1.514947
330398643098488	1.1955515	-3.1258874	1.4660778
330398654098488	0.9058267	-3.012441	1.4748045
330398665098488	0.57595915	-2.970553	1.4154632
330398675098488	0.232129	-2.9408822	1.3212154
330398685098488	-0.04188794	-2.9356463	1.2304581
330398722398488	-0.24609163	-2.7890387	1.335178
330398722498488	-0.5393072	-2.6651201	1.298526
330398722598488	-0.8185601	-2.5761082	1.1780982
330398722698488	-1.160645	-2.3561964	1.0838504
330398739198488	-1.6563189	-1.9547704	0.8168148
330398749198488	-1.9687331	-1.577779	0.685915
330398780398488	-2.3230352	-1.097813	0.5375619
330398780498488	-2.7087533	-0.57595915	0.35953814
330398780598488	-3.0316396	-0.2548183	0.13264513
330398789198488	-3.1363595	0.05061459	-0.085521206
330398799198488	-3.022913	0.3735008	-0.33161286
330398821298488	-2.7872932	0.44505933	-0.7487469
330398821398488	-2.052509	0.36128345	-1.2199862
330398839198488	-0.7592189	0.93375194	-1.2793274
330398899098488	0.38222742	0.49741927	-0.70685893
330398899198488	1.0088012	-0.6457724	0.25132763
330398899298488	1.1588997	-0.41189805	0.44680467
330398899398488	0.67195237	0.9826212	0.47996596
330398899498488	0.16231576	1.9722238	0.45029533
330398909198488	-1.0733784	3.8187838	-0.26878095
330398919198488	-1.3980099	4.232427	-1.3526313
330398949098488	-1.1972969	3.5796733	-2.010621
330398949198488	-0.99483854	2.099633	-2.4870963
330398949298488	-0.7365296	0.97214925	-2.7872932
330398959198488	-0.7260576	-1.9600065	-2.0647264
330398982098488	-1.577779	-1.7069335	-1.0227638
330398982198488	-1.6685362	-0.4258607	-0.67195237
330398992098488	-1.2461661	1.9303358	-0.29670623
330398994098488	-1.2025329	3.6913745	0.23387432
330399002198488	-1.4119725	4.0282235	0.6003938
330399010198488	-1.5219284	3.4889162	0.5742138
330399019198488	-1.4922578	2.4469538	0.14660779
330399029198488	-1.3613579	1.1780982	-0.54279786
330399042098488	-1.2793274	-0.033161283	-1.2339488
330399055098488	-1.2950354	-0.9459693	-1.7558028
330399065098488	-1.4154632	-1.1868249	-2.0141118
330399075098488	-1.6022136	-0.82030547	-1.9722238
330399085098488	-1.8064173	-0.052359924	-1.6388656
330399095098488	-1.9495344	1.061161	-1.1484276
330399103098488	-1.9408078	1.8867025	-0.83252275
330399111098488	-1.7540574	2.3719044	-0.68766034
330399113098488	-1.4713138	2.4626617	-0.57944983
330399122098488	-1.1466823	2.206098	-0.44505933
330399139098488	-1.097813	1.6144309	-0.2722716
330399149198488	-1.0698878	1.3107435	-0.26354495
330399159198488	-1.1013037	0.9826212	-0.33684883
330399169198488	-1.103049	0.79238015	-0.44680467
330399179198488	-1.1222477	0.5113819	-0.52883524
330399189198488	-1.1519183	0.46251264	-0.54279786
330399199198488	-1.0890864	0.659735	-0.5218539
330399207198488	-0.9529506	0.66148037	-0.4939286
330399219198488	-0.7400202	0.49218327	-0.40666208
330399229198488	-0.6283191	0.30194223	-0.33161286
330399239198488	-0.5811951	0.21118502	-0.3246315
330399249198488	-0.5811951	0.20594902	-0.27401692
330399259098488	-0.5899218	0.10122918	-0.26878095
330399269198488	-0.6073751	0.02443463	-0.29147023
330399279198488	-0.6475177	-0.0907572	-0.3071782
330399289198488	-0.71733093	-0.21118502	-0.3228862
330399299198488	-0.7766722	-0.36128345	-0.37699145
330399309198488	-0.8726654	-0.34732082	-0.5340712
330399319198488	-1.0733784	-0.087266535	-0.6632257
330399329198488	-1.2583835	0.18500505	-0.68416965
330399339198488	-1.3805566	0.3054329	-0.6422817
330399349198488	-1.3316873	0.27401692	-0.6789337
330399382098488	-1.0140371	0.46251264	-0.8011068
330399382198488	-0.5201086	1.0140371	-0.8552121
330399382298488	-0.11868249	1.3212154	-0.82554144
330399399198488	0.3246315	0.6126111	-0.5637418
330399408198488	0.66148037	0.5881765	-0.40142608
330399419098488	0.8587027	0.70511365	-0.2949609
330399429198488	1.0000745	0.8848827	-0.17976907
330399439198488	1.1536636	1.0733784	-0.14660779
330399449198488	1.6057043	1.2060236	-0.13264513
330399459198488	2.122322	1.2042782	-0.19024105
330399469198488	2.4556804	0.9320066	-0.19722238
330399479198488	2.9304104	0.4782206	0.1815144
330399489198488	3.1485767	-0.034906615	0.67369765
330399499198488	2.996733	-0.45029533	1.1327196
330399509198488	2.6878095	-1.3439047	1.7191508
330399521098488	2.443463	-2.300346	2.0245836
330399529198488	2.3195446	-3.070037	2.310818
330399542098488	2.5708723	-2.2724206	2.4975684
330399555098488	2.7820573	-1.2479115	2.5621455
330399565098488	2.7628586	-0.22165701	2.5289843
330399575098488	2.733188	0.57944983	2.3335073
330399586098488	2.754132	0.96167725	1.9669877
330399596098488	2.6982813	1.103049	1.356122
330399604098488	2.5830896	0.902336	0.89710003
330399612098488	2.4713883	0.459022	0.6475177
330399622198488	2.3073273	0.1361358	0.7539829
330399622298488	2.1973715	0.04886926	1.0786144
330399633098488	2.099633	0.0017453308	1.530655
330399645098488	1.9617518	-0.2391103	2.1537383
330399655098488	1.9093919	-1.314234	2.6721015
330399665098488	1.8814665	-2.5865803	3.0525835
330399675098488	1.9408078	-3.2323525	3.1642847
330399685098488	1.9879317	-3.715809	2.933901
330399695098488	2.0385463	-3.8118024	2.3492153
330399725098488	2.1415207	-3.3597617	1.9774598
330399725198488	2.1275582	-2.9618263	1.7435855
330399725298488	1.9198638	-3.0351303	1.5707977
330399725398488	1.6441016	-3.2672591	1.4625871
330399750598488	1.2182409	-3.4592454	1.5079658
330399750698488	0.7033683	-3.440047	1.4346619
330399759198488	0.36477414	-3.3196192	1.356122
330399769198488	0.087266535	-3.0892355	1.2880541
330399779198488	-0.1867504	-2.897249	1.2287128
330399789198488	-0.44505933	-2.7401693	1.2880541
330399799198488	-0.7208216	-2.659884	1.3823019
330399820298488	-1.0245092	-2.5918162	1.3543767
330399820398488	-1.3037621	-2.537711	1.2950354
330399828198488	-1.4713138	-2.258458	1.3002714
330399839198488	-1.7121694	-1.8814665	1.2583835
330399885498488	-2.010621	-1.4713138	1.1693716
330399885598488	-2.3945937	-0.89360934	1.0279998
330399885698488	-2.7000268	-0.5410525	0.86393875
330399885798488	-2.9042304	-0.14835311	0.5567605
330399893198488	-2.918193	0.080285214	0.2722716
330399901198488	-2.7035174	0.19722238	-0.120427825
330399909198488	-2.3492153	0.27576226	-0.6003938
330399919198488	-1.7854733	0.6422817	-1.1362103
330399929198488	-0.5497792	0.95469594	-1.4590966
330399939198488	0.9354973	0.010471985	-0.99134785
330399949198488	1.387538	-1.335178	-0.031415954
330399959198488	1.3334327	-1.1588997	0.3001969
330399969198488	1.1850796	-0.6457724	0.36477414
330399979198488	0.9477146	-0.31939554	0.15533444
330399989198488	0.36651945	-0.031415954	-0.120427825
330399999198488	-0.29147023	0.47298464	-0.5061459
330400009198488	-0.902336	1.4451338	-1.0559251
330400019198488	-1.2479115	2.2497313	-1.5219284
330400032098488	-1.2915448	2.4347365	-2.0856702
330400045098488	-1.3281966	2.2462406	-2.474879
330400055098488	-1.1519183	1.3002714	-1.8308519
330400065098488	-0.6387911	0.19024105	-0.6789337
330400075098488	-1.1205024	1.4224446	0.24783696
330400085098488	-1.0541798	3.4889162	1.1274836
330400095098488	-1.356122	4.886926	1.6633002
330400105098488	-1.7313681	4.4087057	1.3386687
330400115098488	-1.3212154	3.1974459	0.62657374
330400125098488	-0.69115096	1.5236738	-0.27576226
330400133098488	-1.1117756	-0.13962646	-1.0698878
330400142098488	-2.1293035	-1.097813	-1.5393817
330400143098488	-2.6354494	-0.5951578	-1.5411271
330400152098488	-2.6057787	0.92153466	-1.356122
330400169198488	-2.047273	2.6686108	-1.4887671
330400179198488	-1.5952322	2.6302135	-1.6702815
330400223098488	-1.31947	2.4033206	-1.7191508
330400223198488	-1.2915448	2.036801	-1.5393817
330400223298488	-1.5166924	1.9547704	-1.2897995
330400223398488	-1.862268	2.2759113	-1.0576705
330400234098488	-1.783728	2.4766243	-0.9494599
330400241998488	-1.624903	2.4242644	-0.8080881
330400259198488	-1.3805566	1.9512798	-0.44156867
330400269198488	-1.3212154	1.6406109	-0.5061459
330400279198488	-1.2531475	1.6266483	-0.5619965
330400289198488	-1.0524344	1.6353749	-0.58643115
330400299198488	-0.99483854	1.6528282	-0.55326986
330400309198488	-1.0594158	1.6353749	-0.43458736
330400319198488	-1.0419625	1.4468791	-0.35081148
330400329198488	-0.98436654	1.1170117	-0.5096366
330400339198488	-0.90059066	0.8290321	-0.59341246
330400349198488	-0.85346675	0.6353004	-0.57595915
330400359198488	-0.8691747	0.5951578	-0.55326986
330400367198488	-0.9093173	0.57944983	-0.54628855
330400378098488	-0.9669132	0.60562974	-0.53232586
330400389198488	-1.061161	0.5166179	-0.57246846
330400399198488	-1.1152663	0.54628855	-0.5916671
330400409198488	-1.171117	0.54279786	-0.6684617
330400419198488	-1.2531475	0.6021391	-0.7470016
330400429198488	-1.3159794	0.5899218	-0.81332415
330400461098488	-1.3386687	0.55850583	-0.86393875
330400461198488	-1.2479115	0.5567605	-0.9162986
330400461298488	-0.9564412	0.50789124	-1.0088012
330400469198488	-0.73129356	0.42935136	-1.0698878
330400479198488	-0.464258	0.3577928	-1.0698878
330400489198488	-0.21816635	0.41538873	-0.98960257
330400499198488	0.066322565	0.62308306	-0.87615603
330400509198488	0.4084074	1.0192732	-0.77492684
330400519198488	0.79238015	1.2496568	-0.7086043
330400532098488	1.0070559	1.2531475	-0.7033683
330400551098488	1.1588997	1.1955515	-0.6981323
330400551198488	1.5271645	1.4765499	-0.69464165
330400560998488	2.0786889	1.4364072	-0.7365296
330400572998488	2.522003	1.5795243	-0.696387
330400600598488	3.387687	1.6737722	-0.469494
330400600698488	3.851945	1.2409302	0.18500505
330400609098488	3.5814188	0.5672325	0.84299475
330400619098488	3.3213644	0.05061459	1.5166924
330400629098488	2.9321556	-0.42760605	1.9425532
330400639198488	2.5778534	-0.34383017	2.4085565
330400649198488	2.4504445	-0.09424786	3.054329
330400722698488	2.5359657	0.09250253	3.5482574
330400722798488	2.3474698	0.17278774	3.9165223
330400722898488	1.9984037	1.0995584	3.747225
330400722998488	1.8657585	1.1850796	2.8745596
330400723098488	1.8308519	0.031415954	2.1519928
330400723198488	1.6493375	-0.6073751	1.9338264
330400739198488	1.1379557	-1.3543767	2.352706
330400749198488	1.0349811	-1.9949131	3.1276326
330400759198488	1.3421594	-2.5673816	3.9165223
330400769198488	1.3316873	-3.3684883	4.101527
330400848098488	1.1362103	-3.6634493	3.724536
330400848198488	1.1082851	-4.1067634	3.330091
330400848298488	1.2199862	-4.2708244	2.954845
330400848398488	1.0890864	-4.670505	2.5918162
330400848498488	0.84997606	-5.53968	2.3335073
330400848598488	0.74525625	-5.6897783	2.1729367
330400848698488	0.6353004	-5.7421384	2.0123663
330400859198488	0.4363327	-5.546661	1.624903
330400869198488	0.29845157	-5.0509872	1.4102273
330400878198488	0.029670622	-4.488991	1.2322035
330400889098488	-0.22165701	-4.0718565	1.0751238
330400962698488	-0.7609642	-3.2323525	0.8447401
330400962798488	-1.2723461	-2.2986007	0.7574735
330400962898488	-1.7645293	-1.562071	0.7033683
330400962998488	-2.3177993	-0.7679455	0.68067896
330400963098488	-2.712244	-0.24085565	0.675443
330400963198488	-2.9792795	0.034906615	0.62657374
330400979198488	-2.4364817	-0.70511365	0.25830895
330400989198488	-1.7575481	-1.4765499	-0.37175545
330400999198488	-0.9197893	-1.171117	-0.9564412
330401020098488	0.9197893	-1.0960677	-1.3229607
330401020198488	1.9006652	-1.7400948	-0.9808759
330401029198488	2.3614326	-1.2706008	-0.07504922
330401042098488	2.0909061	-0.65449905	0.33161286
330401060198488	1.7051882	-0.2548183	0.39444476
330401060298488	0.9372426	0.24609163	0.14137179
330401072098488	0.32114086	0.53581655	-0.14835311
330401085098488	-0.29321557	1.1379557	-0.5009099
330401174898488	-0.49218327	1.9984037	-0.97214925
330401174998488	-0.36128345	2.9373918	-1.4294258
330401175098488	-0.04188794	3.5342948	-1.9163731
330401175198488	0.2600543	3.1991913	-2.385867
330401175298488	0.7295483	1.7907094	-1.7400948
330401175398488	0.27576226	2.8152184	0.15184377
330401175498488	-0.39968073	3.129378	1.4590966
330401175598488	-1.1746076	2.3195446	1.0070559
330401175698488	-0.9477146	1.7610388	0.44156867
330401184198488	-1.34565	1.556835	-0.06981323
330401195098488	-2.122322	1.8133986	-0.453786
330401209198488	-3.4505188	3.0002236	-0.9878572
330401219198488	-2.7803118	2.9042304	-1.097813
330401229198488	-1.783728	2.6843188	-1.2671101
330401239198488	-1.5097111	1.963497	-1.6633002
330401311698488	-1.609195	1.3037621	-1.7348588
330401311798488	-1.8919386	0.9162986	-1.7278775
330401311898488	-1.9163731	0.6300644	-1.7121694
330401311998488	-1.6196669	0.7888895	-1.9181185
330401312098488	-1.577779	1.4032459	-2.0664716
330401312198488	-1.6563189	1.5027298	-1.8448147
330401319098488	-1.7872187	1.1013037	-1.3386687
330401329098488	-2.237514	1.0489438	-0.649263
330401339198488	-2.3945937	1.6580642	-0.5044006
330401349198488	-1.9600065	2.042037	-0.685915
330401358198488	-1.8535413	2.0961423	-0.70685893
330401369198488	-1.8273613	1.4713138	-0.675443
330401379198488	-1.8483052	0.8447401	-0.7103496
330401389198488	-1.8901932	0.6387911	-0.7836535
330401398198488	-1.783728	0.66148037	-0.7906348
330401409098488	-1.6231576	0.7330389	-0.7714362
330401419198488	-1.2688555	0.8796467	-0.7086043
330401429198488	-1.0698878	0.9704039	-0.7504922
330401439198488	-1.0960677	0.8290321	-0.902336
330401449198488	-1.2723461	0.51487255	-1.0122918
330401459098488	-1.3247061	0.24609163	-0.9704039
330401469198488	-1.2618741	0.08901187	-0.9267706
330401479198488	-1.1571543	0.0017453308	-0.9494599
330401489198488	-1.1327196	-0.17453307	-1.0018198
330401499198488	-1.097813	-0.5235992	-0.94422394
330401509198488	-0.7976161	-0.51312727	-0.82030547
330401519198488	-0.4258607	0.19373171	-0.6684617
330401529198488	-0.22863832	1.150173	-0.6178471
330401539198488	-0.10995584	1.3700846	-0.47298464
330401552098488	0.07679455	0.69464165	-0.22514766
330401565098488	0.24609163	0.06283191	-0.040142607
330401575098488	0.5009099	-0.017453307	0.052359924
330401585098488	0.7836535	0.24609163	0.055850584
330401595098488	0.90059066	0.45553133	-0.013962646
330401605098488	1.0175278	0.62308306	-0.16580643
330401614098488	1.3212154	0.79238015	-0.37699145
330401622098488	1.7645293	0.9424786	-0.56897783
330401631098488	2.1973715	1.0140371	-0.6178471
330401633098488	2.490587	0.7662002	-0.49916458
330401641198488	2.7611132	0.3106689	-0.3298675
330401659198488	3.0333848	-0.3071782	0.49567392
330401669198488	2.8885224	-0.95469594	0.95469594
330401679198488	2.5743628	-1.8517959	1.3945193
330401689198488	2.3073273	-3.092726	1.7662747
330401699198488	2.443463	-3.789113	2.0507636
330401709198488	2.5918162	-3.3999043	2.359687
330401717198488	2.6005428	-2.279402	2.5080402
330401729198488	2.6249774	-0.56548715	2.3352525
330401739198488	2.6982813	0.44505933	1.9338264
330401749198488	2.8431437	1.0000745	1.3980099
330401759198488	3.0106955	1.0541798	1.0070559
330401769198488	2.944373	0.5672325	0.94422394
330401779198488	2.6686108	-0.44331402	1.0943223
330401789198488	2.3788857	-1.2671101	1.2845634
330401799198488	2.2916193	-1.3910286	1.583015
330401809198488	2.2619486	-1.5481083	2.1135955
330401818198488	2.263694	-2.179918	2.5569096
330401829198488	2.3143086	-3.2445698	2.9618263
330401839198488	2.3492153	-3.9671369	3.0264034
330401849198488	2.495823	-4.125962	2.7558773
330401859198488	2.443463	-3.6337786	2.2287874
330401869198488	2.29511	-3.1258874	1.8343426
330401878198488	2.1694462	-2.7977653	1.6667908
330401889198488	1.9303358	-2.7995105	1.546363
330401899198488	1.6388656	-2.801256	1.551599
330401909198488	1.3124887	-2.785548	1.5638163
330401919198488	0.9477146	-2.6825733	1.5638163
330401929198488	0.54628855	-2.480115	1.5254191
330401939198488	0.1588251	-2.2392592	1.4782951
330401949198488	-0.20594902	-2.0141118	1.4015006
330401959198488	-0.52534455	-1.788964	1.31947
330401969198488	-0.7976161	-1.6371202	1.2461661
330402021098488	-1.0367265	-1.6179216	1.1536636
330402021198488	-1.2531475	-1.6161762	1.0594158
330402021298488	-1.7296227	-1.567307	0.9861119
330402021398488	-2.2881286	-1.2758368	0.8412494
330402123698488	-2.5272388	-1.3316873	0.5951578
330402123798488	-1.7400948	-1.7174054	-0.017453307
330402123898488	-1.3055074	-0.696387	-0.7766722
330402123998488	-0.036651947	-0.1588251	-1.1990422
330402124098488	0.8988453	-1.0454531	-0.5811951
330402124198488	0.9058267	-0.86393875	0.0
330402142198488	0.38746342	-0.32812217	0.2042037
330402153098488	0.1134465	-0.20769437	0.08377588
330402165098488	-0.17976907	0.464258	-0.3298675
330402175098488	-0.6073751	1.2810727	-0.9197893
330402184098488	-0.81506944	1.6004683	-1.2723461
330402192098488	-0.8848827	1.984441	-1.7016975
330402194098488	-1.0629064	1.8727399	-2.1554835
330402203198488	-1.0367265	1.3020167	-1.8221253
330402213198488	-0.56897783	0.5672325	-0.91106266
330402224098488	-0.37175545	0.24783696	-0.3246315
330402351898488	-0.6998776	1.8709946	0.13962646
330402351998488	-1.0105464	3.5552387	0.3351035
330402352098488	-1.5219284	3.3754697	0.1815144
330402352198488	-2.2357688	0.7487469	-0.040142607
330402352298488	-2.939137	0.0907572	-0.29147023
330402352398488	-2.015857	0.5009099	-0.8447401
330402352498488	-1.6353749	1.1466823	-1.2164955
330402352598488	-1.809908	1.6004683	-1.366594
330402352698488	-1.8675039	2.099633	-1.3613579
330402371198488	-1.8640132	0.7888895	-0.6073751
330402379198488	-2.1170862	0.79587084	-0.20594902
330402387198488	-2.3788857	1.4817858	-0.13962646
330402399098488	-2.5115309	2.2008622	-0.16755176
330402409198488	-2.2357688	3.0595648	-0.27052626
330402568098488	-1.8797212	2.8728144	-0.25132763
330402568198488	-1.588251	2.4085565	-0.18500505
330402568298488	-1.2671101	1.9233545	-0.1815144
330402568398488	-1.0175278	1.3753207	-0.38746342
330402568498488	-0.8744107	0.52534455	-0.39793542
330402568598488	-0.90408134	-0.16231576	-0.42237005
330402568698488	-1.103049	-0.2443463	-0.42237005
330402568798488	-1.3491406	0.226893	-0.3298675
330402568898488	-1.4067366	0.44331402	-0.36651945
330402568998488	-1.2671101	0.5393072	-0.49043795
330402588198488	-1.1152663	0.059341244	-0.6213378
330402596198488	-0.8220508	0.2600543	-0.5916671
330402605198488	-0.44156867	0.7260576	-0.51836324
330402613198488	-0.078539886	1.0908318	-0.45553133
330402629198488	0.4206247	0.83077747	-0.31590486
330402638198488	0.6422817	0.664971	-0.2391103
330402646198488	0.8115788	0.51312727	-0.12740915
330402656198488	0.8412494	0.5619965	-0.019198637
330402664198488	0.8185601	0.86568403	0.006981323
330402672198488	0.97214925	1.3543767	0.019198637
330402775798488	2.1572287	2.3998299	-0.055850584
330402775898488	2.7104986	2.522003	-0.15184377
330402775998488	3.0630555	1.963497	0.0052359924
330402776098488	3.3440537	1.34565	0.5881765
330402776198488	3.0665462	-0.9145533	1.4573512
330402776298488	2.5289843	-3.0682914	1.9704784
330402776398488	2.61276	-1.567307	2.2130795
330402785198488	2.7227159	0.41189805	2.4050658
330402796098488	2.675592	1.4992391	2.4417176
330402809198488	2.8623424	2.359687	2.047273
330402819198488	2.7576225	2.0751982	1.6109403
330402870498488	2.3177993	0.94422394	1.0855957
330402870598488	2.2706754	-0.3124142	0.7574735
330402870698488	2.0804343	-0.8552121	0.9459693
330402870798488	1.7802373	-1.8064173	1.4887671
330402879198488	1.7959453	-3.0508382	1.9390625
330402889198488	2.0751982	-3.724536	2.1537383
330402923398488	2.3492153	-3.4016497	2.0804343
330402923498488	2.5935614	-3.0333848	1.7976906
330402923598488	2.6563933	-2.628468	1.4590966
330402939198488	2.1868994	-2.026329	1.1693716
330402949198488	1.9408078	-2.1031237	1.1449369
330402971298488	1.6685362	-2.1118503	1.2060236
330402971398488	1.2566382	-2.1816635	1.2740915
330402979198488	0.9372426	-2.195626	1.298526
330403099098488	0.54803383	-2.1677008	1.2880541
330403099198488	0.21816635	-2.0751982	1.3421594
330403099298488	-0.21642101	-1.8901932	1.4381526
330403099398488	-0.670207	-1.7348588	1.535891
330403099498488	-0.9808759	-1.577779	1.609195
330403099598488	-1.1938063	-1.4468791	1.603959
330403099698488	-1.6790081	-1.0681424	1.5795243
330403099798488	-2.1450114	-0.7714362	1.4049913
330403099898488	-2.5900707	-0.32637686	1.3159794
330403099998488	-3.0019689	0.029670622	0.97913057
330403112198488	-3.2550418	0.7976161	0.5497792
330403129198488	-3.124142	1.9024105	-0.10995584
330403138198488	-2.8221998	2.047273	-0.5009099
330403149198488	-2.2008622	1.9739691	-0.99832916
330403159198488	-1.4119725	1.7715107	-1.2304581
330403169198488	-0.39619008	1.5166924	-1.1623902
330403179198488	0.62657374	0.5550152	-0.5672325
330403200298488	1.0314904	-0.46251264	-0.043633267
330403200398488	1.1833342	-0.6318097	0.08377588
330403209198488	0.9808759	-0.13962646	0.06981323
330403219198488	0.469494	0.5951578	-0.11868249
330403229198488	-0.19722238	1.4015006	-0.44680467
330403252298488	-0.93375194	2.5446923	-0.83601344
330403252398488	-1.7750014	3.9182675	-1.4067366
330403269198488	-2.2444954	2.9216838	-1.8238707
330403279198488	-2.0594902	1.9355718	-1.6755176
330403289198488	-1.3578674	0.9564412	-1.0454531
330403299198488	-1.7139148	0.9930932	-0.059341244
330403322298488	-2.206098	2.000149	0.29321557
330403322398488	-1.9914224	3.5587294	0.3735008
330403339198488	-1.7069335	3.4016497	0.06457724
330403349198488	-1.2863088	2.9600809	-0.46076733
330403359198488	-1.1519183	1.6755176	-1.1693716
330403369198488	-1.34565	0.18325973	-1.747076
330403379198488	-1.5707977	-0.52534455	-2.0594902
330403418098488	-1.7400948	-0.26354495	-2.1135955
330403418198488	-1.8483052	0.469494	-1.836088
330403418298488	-1.8535413	1.0506891	-1.5184377
330403418398488	-1.9041559	2.2514768	-0.9354973
330403425998488	-1.877976	3.0595648	-0.7435109
330403439098488	-1.6283937	4.6827226	-0.659735
330403449098488	-1.5393817	5.082403	-0.6195924
330403459198488	-1.3543767	4.665269	-0.4939286
330403469198488	-1.0070559	3.478444	-0.27925292
330403512098488	-0.66148037	2.1135955	-0.12740915
330403512198488	-0.57595915	1.3543767	-0.08203054
330403512298488	-0.6527537	1.2950354	-0.061086576
330403512398488	-0.81332415	1.7069335	0.0226893
330403529198488	-0.8744107	2.2410047	0.13788113
330403539198488	-0.7190763	2.221806	0.1535891
330403549198488	-0.5270899	2.146757	0.12915447
330403559198488	-0.4136434	1.9896771	0.06457724
330403569098488	-0.34557548	1.8343426	-0.0052359924
330403579198488	-0.36651945	1.6214123	-0.0907572
330403586998488	-0.4206247	1.4433886	-0.12915447
330403598998488	-0.5619965	1.1082851	-0.19896771
330403610998488	-0.67718834	0.6684617	-0.28797957
330403629198488	-0.86393875	0.031415954	-0.4817113
330403637198488	-0.9372426	-0.08901187	-0.6021391
330403661098488	-0.99832916	-0.031415954	-0.76270956
330403661198488	-1.0402172	0.27401692	-0.8587027
330403668998488	-1.0175278	0.464258	-0.89011866
330403685098488	-0.8185601	0.71209496	-0.95818657
330403686998488	-0.5899218	0.9669132	-1.0035652
330403702098488	-0.44505933	1.1571543	-1.0140371
330403705998488	-0.4136434	1.0594158	-0.9477146
330403714098488	-0.2949609	0.696387	-0.7888895
330403722198488	0.013962646	0.21816635	-0.58294046
330403763098488	0.3857181	-0.2042037	-0.26354495
330403763198488	0.49043795	-0.07679455	-0.1134465
330403763298488	0.649263	0.48520195	-0.054105252
330403779198488	1.4189539	1.6144309	-0.07679455
330403789198488	2.0559995	1.9233545	-0.108210504
330403799198488	2.448699	1.9006652	-0.036651947
330403808198488	2.8064919	1.7907094	0.06981323
330403816198488	3.1991913	1.5603257	0.24958229
330403829198488	3.4697175	1.0402172	0.7086043
330403839198488	3.1957006	0.59341246	1.1868249
330403849198488	2.7628586	-0.43458736	1.7051882
330403859098488	2.7244613	-2.2095888	2.0909061
330403869198488	2.7454052	-2.9932423	2.1624649
330403879198488	2.785548	-1.6685362	2.2165701
330403889198488	2.8571064	-0.033161283	2.3143086
330403899198488	2.8780503	1.2740915	2.258458
330403909198488	2.9426277	1.7418401	2.068217
330403919198488	2.9827702	1.8133986	1.6528282
330403929098488	2.6913	1.1484276	1.2548928
330403939198488	2.5115309	0.34208483	0.902336
330403949198488	2.4626617	-0.04712393	0.8848827
330403959198488	2.1729367	-0.5881765	1.2461661
330403979098488	2.021093	-1.4154632	1.857032
330403979198488	2.0402915	-2.5307295	2.342234
330403990998488	2.0961423	-2.7576225	2.792529
330403999198488	2.1938808	-2.8867772	2.892013
330404009198488	2.310818	-3.2690046	2.5045497
330404019198488	2.5254936	-3.3126378	2.057745
330404029198488	2.406811	-2.9827702	1.7331134
330404039198488	2.104869	-3.0438569	1.3857926
330404049198488	1.9006652	-2.9530997	1.335178
330404070298488	1.6650455	-2.839653	1.3386687
330404070398488	1.2915448	-2.8797958	1.2688555
330404082098488	0.98436654	-2.7942746	1.2758368
330404095098488	0.65449905	-2.6843188	1.3334327
330404105098488	0.31590486	-2.644176	1.2653648
330404113098488	0.052359924	-2.4836056	1.3700846
330404121098488	-0.19373171	-2.3719044	1.4049913
330404130098488	-0.42237005	-2.3335073	1.3910286
330404132098488	-0.69464165	-2.2392592	1.3473953
330404141198488	-1.0070559	-1.9617518	1.3700846
330404152098488	-1.2950354	-1.7034428	1.3613579
330404165098488	-1.6563189	-1.3735753	1.2496568
330404175098488	-2.0542543	-1.0402172	1.1414464
330404185098488	-2.4574256	-0.7103496	0.99483854
330404195098488	-2.8483799	-0.3228862	0.8063428
330404205098488	-3.2550418	0.033161283	0.6143564
330404214098488	-3.5604746	0.37699145	0.40142608
330404222098488	-3.6843932	0.7609642	0.13788113
330404224098488	-3.598872	1.0210185	-0.19373171
330404233198488	-3.3684883	1.0210185	-0.69464165
330404249198488	-2.2619486	1.192061	-1.6196669
330404259198488	-1.335178	1.3788112	-1.8727399
330404269198488	0.62657374	1.0437078	-1.6458468
330404296098488	1.8465599	-0.8447401	-0.1867504
330404296198488	1.8675039	-1.3247061	0.6824243
330404296298488	1.7697654	-0.89710003	0.83252275
330404309198488	1.1693716	0.5846858	0.76270956
330404319198488	0.37175545	2.146757	0.54628855
330404329198488	-0.5445432	3.7175546	0.3176502
330404339098488	-1.4643325	5.5065184	-0.38397276
330404349198488	-1.6929709	4.8677273	-1.6266483
330404359198488	-1.4940032	3.3859417	-2.3823764
330404369198488	-1.1082851	1.0419625	-2.9478636
330404379098488	-0.64053637	-1.8797212	-3.0490928
330404387098488	-1.2234769	-2.4836056	-1.9774598
330404398098488	-1.984441	-1.1571543	-0.7033683
330404409198488	-1.6493375	2.5726175	0.9162986
330404419198488	-1.8081627	4.422668	1.192061
330404429198488	-1.9600065	4.4663014	0.95469594
330404439198488	-1.5533444	3.4836802	0.23387432
330404449198488	-1.1815889	1.9006652	-0.8045975
330404459198488	-1.0489438	0.29845157	-1.82038
330404469198488	-1.1327196	-0.96167725	-2.375395
330404479198488	-1.392774	-1.4241899	-2.5987976
330404489198488	-1.8186346	-1.1746076	-2.4085565
330404499198488	-2.031565	-0.4258607	-1.8465599
330404509198488	-2.195626	1.2042782	-1.2496568
330404519198488	-2.1519928	3.0141861	-0.90059066
330404529198488	-1.9565158	4.40696	-0.7888895
330404539198488	-1.377066	4.752536	-0.54279786
330404551098488	-0.73129356	3.8554356	-0.32114086
330404620598488	-0.33161286	2.1240675	-0.22863832
330404620698488	-0.6387911	0.8115788	-0.33161286
330404620798488	-0.95469594	0.6527537	-0.18500505
330404620898488	-1.0175278	1.335178	-0.13264513
330404620998488	-1.0140371	1.4730592	-0.24260098
330404621098488	-0.83950406	1.0681424	-0.23736498
330404628198488	-0.71209496	0.67195237	-0.21293035
330404636198488	-0.6195924	0.4310967	-0.21816635
330404649198488	-0.5637418	0.17976907	-0.19896771
330404672298488	-0.59341246	0.11693716	-0.17104241
330404672398488	-0.7155856	0.054105252	-0.16929708
330404689198488	-0.9145533	-0.15184377	-0.26878095
330404746598488	-1.0262545	-0.35953814	-0.39793542
330404746698488	-1.1588997	-0.41713405	-0.58294046
330404746798488	-1.329942	-0.043633267	-0.67369765
330404746898488	-1.4154632	0.15009844	-0.675443
330404746998488	-1.3892833	0.0680679	-0.6894056
330404759198488	-1.0698878	0.13264513	-0.7941255
330404769198488	-0.61610174	0.7976161	-0.8674294
330404779198488	-0.28448892	1.5236738	-0.8621934
330404789198488	-0.026179962	1.4294258	-0.69464165
330404799198488	0.3228862	0.68067896	-0.45029533
330404809198488	0.6178471	0.16580643	-0.19373171
330404819098488	0.7208216	-0.1815144	0.038397275
330404840298488	0.6318097	-0.30892354	0.19896771
330404840398488	0.68067896	0.13439047	0.27401692
330404849098488	1.0943223	1.0245092	0.17802374
330404858198488	1.572543	1.7505667	0.0017453308
330404869198488	2.221806	2.227042	-0.099483855
330404879198488	2.6529028	2.042037	0.008726654
330404889198488	3.0787635	1.6737722	0.07504922
330404899198488	3.403395	1.2147502	0.24609163
330404909198488	3.371979	0.87092006	0.7225669
330404919198488	3.06131	-0.036651947	1.2897995
330405032098488	2.8832865	-1.6598096	1.7331134
330405032198488	2.8536158	-3.1695206	1.9442985
330405032298488	2.6529028	-2.3143086	2.1886446
330405032398488	2.8030012	0.20245837	2.300346
330405032498488	2.876305	1.7296227	2.29511
330405032598488	3.0002236	2.1816635	2.146757
330405032698488	3.06131	2.279402	1.8692492
330405032798488	2.8309264	1.7278775	1.4119725
330405032898488	2.3055818	-0.14311711	0.9320066
330405032998488	2.2724206	-1.1623902	0.9564412
330405045198488	1.9896771	-1.7802373	1.603959
330405053198488	1.9809504	-2.2968552	2.0385463
330405069198488	2.0193477	-2.490587	2.5813441
330405081098488	2.1432662	-2.6371949	2.6092694
330405095098488	2.368414	-3.176502	2.258458
330405105098488	2.490587	-2.8047466	1.9512798
330405174698488	2.253222	-2.3876126	1.6563189
330405174798488	1.9216092	-2.3282712	1.5498537
330405174898488	1.6772629	-2.406811	1.5271645
330405174998488	1.3247061	-2.4609163	1.5079658
330405175098488	0.891864	-2.427755	1.5166924
330405175198488	0.469494	-2.368414	1.4957484
330405175298488	0.10122918	-2.3177993	1.4835311
330405182198488	-0.16929708	-2.2392592	1.535891
330405193098488	-0.39095408	-2.2043529	1.530655
330405205098488	-0.649263	-2.1624649	1.4870218
330405215098488	-0.9459693	-2.0298197	1.4433886
330405225098488	-1.2775822	-1.783728	1.4067366
330405241098488	-1.6441016	-1.5393817	1.2845634
330405241198488	-2.1677008	-1.1466823	1.1588997
330405271298488	-2.881541	-0.7976161	0.938988
330405271398488	-3.3475444	-0.42760605	0.68416965
330405289198488	-3.6233068	0.3857181	0.16231576
330405299198488	-3.5011334	0.6824243	-0.3054329
330405309198488	-3.1014528	0.59341246	-0.9651679
330405319198488	-2.2933645	0.71209496	-1.4835311
330405329198488	-1.3980099	0.8953547	-1.7540574
330405339198488	0.036651947	0.6457724	-1.6510829
330405349198488	1.340414	-0.57944983	-0.5550152
330405359198488	1.5376364	-1.556835	0.2548183
330405369198488	1.4748045	-1.2897995	0.41189805
330405379198488	1.129229	-0.16929708	0.40666208
330405389198488	0.4136434	1.192061	0.3106689
330405399198488	-0.35604748	2.1554835	0.14311711
330405409198488	-1.150173	3.3091471	-0.31590486
330405419198488	-1.6406109	4.4523387	-1.1257384
330405429198488	-1.5987229	3.4225936	-2.0036397
330405439198488	-1.5655617	2.2444954	-2.4731336
330405449198488	-1.1466823	0.6283191	-2.759368
330405459198488	-0.84997606	-1.1013037	-2.3474698
330405469198488	-1.4329165	-0.58294046	-0.7295483
330405479198488	-1.5062205	0.34383017	0.36477414
330405489198488	-1.6109403	2.8361626	1.1327196
330405499198488	-2.0856702	3.7646785	1.3107435
330405509198488	-1.9530251	3.0211675	0.8115788
330405519198488	-1.3648486	1.514947	-0.059341244
330405529198488	-0.86568403	0.26529026	-1.0175278
330405539198488	-0.72431225	-0.9058267	-1.8116534
330405549198488	-0.8796467	-1.5393817	-2.3666685
330405559198488	-1.3648486	-1.562071	-2.597052
330405569198488	-1.7034428	-0.96167725	-2.385867
330405581098488	-1.8657585	0.017453307	-1.9722238
330405595098488	-2.0123663	1.8343426	-1.3124887
330405605098488	-2.000149	3.762933	-0.7801629
330405615098488	-1.7645293	4.848529	-0.5742138
330405624098488	-1.1571543	4.6792316	-0.43284202
330405635098488	-0.4310967	3.1834834	-0.28972492
330405645098488	-0.3106689	1.6336296	-0.3054329
330405655098488	-0.5201086	0.50265527	-0.36477414
330405665098488	-0.8168148	0.3106689	-0.3054329
330405675098488	-1.0855957	0.97214925	-0.16755176
330405685098488	-1.2095143	1.6615549	-0.19896771
330405695098488	-1.1431917	1.8395786	-0.22340234
330405705098488	-0.96865857	1.5760337	-0.19024105
330405715098488	-0.8168148	1.2706008	-0.18325973
330405723098488	-0.7295483	1.0559251	-0.20594902
330405733098488	-0.6684617	0.8377588	-0.2600543
330405733198488	-0.63704574	0.73478425	-0.3071782
330405749198488	-0.70685893	0.63704574	-0.3246315
330405759098488	-0.8168148	0.40666208	-0.38746342
330405769098488	-0.94422394	0.12391848	-0.43284202
330405779198488	-1.0524344	-0.13788113	-0.5009099
330405789198488	-1.150173	-0.27052626	-0.57595915
330405799198488	-1.2252222	-0.32637686	-0.6824243
330405809198488	-1.2566382	-0.18325973	-0.8011068
330405819198488	-1.2932901	0.13962646	-0.7766722
330405829198488	-1.340414	0.2670356	-0.6824243
330405839198488	-1.3281966	0.1361358	-0.5951578
330405849198488	-0.9861119	0.10471985	-0.5619965
330405859198488	-0.5602512	0.6213378	-0.6457724
330405869198488	-0.232129	1.3980099	-0.6894056
330405879198488	0.11693716	1.5376364	-0.60388446
330405910098488	0.46076733	0.7731815	-0.3752461
330405910198488	0.5515245	-0.061086576	-0.13264513
330405910298488	0.44855002	-0.6475177	0.06981323
330405919098488	0.4939286	-0.5113819	0.19373171
330405929098488	0.90408134	0.20594902	0.25656363
330405939198488	1.4259353	1.1170117	0.1134465
330405949198488	1.7523121	1.5079658	-0.029670622
330405972298488	2.1607194	1.5097111	0.0453786
330405972398488	3.0438569	1.2583835	0.108210504
330405989198488	3.3684883	0.6684617	0.55850583
330405999198488	3.2515512	0.16580643	1.0419625
330406044498488	2.9722984	-1.0157825	1.4241899
330406044598488	2.733188	-2.808237	1.7505667
330406044698488	2.7419145	-2.3090725	2.0018945
330406044798488	2.9042304	-0.8779014	2.232278
330406060298488	2.907721	0.17453307	2.352706
330406060398488	2.8605971	0.9250253	2.3474698
330406072098488	2.8413985	1.2845634	2.221806
330406085098488	2.7680945	1.3107435	1.8832119
330406095098488	2.495823	0.9145533	1.4835311
330406105098488	2.3579419	0.5567605	1.1693716
330406115098488	2.2741659	0.106465176	1.118757
330406125098488	2.1921353	-0.73827493	1.5690523
330406147098488	2.206098	-1.6353749	2.2043529
330406147198488	2.1118503	-2.4574256	2.537711
330406155098488	1.9896771	-2.754132	2.6494122
330406165098488	2.036801	-3.06131	2.6668653
330406213498488	2.2881286	-3.5308042	2.422519
330406213598488	2.3998299	-3.445283	2.1118503
330406213698488	2.2567127	-3.66694	1.5324004
330406213798488	1.9739691	-3.6233068	1.377066
330406213898488	1.7523121	-3.19221	1.593487
330406229198488	1.0925771	-3.1398501	1.4660778
330406239198488	0.70685893	-2.8413985	1.4573512
330406332898488	0.35255682	-2.6249774	1.4643325
330406332998488	0.036651947	-2.4539351	1.4713138
330406333098488	-0.232129	-2.2567127	1.5079658
330406333198488	-0.55326986	-2.1240675	1.4817858
330406333298488	-0.907572	-1.9600065	1.4922578
330406333398488	-1.3107435	-1.799436	1.3910286
330406333498488	-1.6877348	-1.5219284	1.3072528
330406333598488	-2.068217	-1.2164955	1.1571543
330406349198488	-2.6511574	-0.74176556	0.8168148
330406359198488	-2.9897516	-0.42237005	0.65624434
330406369198488	-3.3004205	-0.14137179	0.4310967
330406452798488	-3.478444	0.16580643	0.13962646
330406452898488	-3.4313202	0.63704574	-0.226893
330406452998488	-3.08749	0.96865857	-0.9424786
330406453098488	-2.1083596	1.0751238	-1.4468791
330406453198488	-0.5445432	1.5760337	-1.6510829
330406453298488	1.3020167	0.13962646	-0.6422817
330406453398488	1.6580642	-1.1152663	0.7801629
330406469198488	1.408482	0.34383017	0.91106266
330406479198488	0.7609642	1.5341457	0.67718834
330406489198488	-0.066322565	2.5499282	0.29321557
330406499198488	-0.9372426	3.6023626	-0.40491673
330406568698488	-1.7174054	4.244644	-1.3247061
330406568798488	-1.8814665	2.9845157	-1.9739691
330406568898488	-1.6406109	1.7959453	-2.368414
330406568998488	-0.8517214	-0.34557548	-2.5953069
330406569098488	-1.5760337	-1.1013037	-0.96865857
330406569198488	-1.6633002	1.0070559	0.12391848
330406577198488	-1.4748045	3.0525835	0.5497792
330406589198488	-1.9233545	4.7420635	0.91106266
330406598198488	-1.8797212	4.2394085	0.54279786
330406607198488	-1.6109403	3.3178737	-0.06283191
330406619198488	-1.4276806	1.2077689	-1.2897995
330406629198488	-1.3735753	-0.2949609	-2.0769436
330406639198488	-1.2915448	-1.2897995	-2.5621455
330406660298488	-1.4015006	-1.5341457	-2.6476667
330406660398488	-1.593487	-1.1205024	-2.1834087
330406669098488	-1.7732561	-0.07330389	-1.4713138
330406679198488	-1.9233545	2.057745	-0.76445484
330406689198488	-2.0036397	4.03695	-0.6073751
330406711298488	-1.8273613	5.2307563	-0.649263
330406711398488	-1.2077689	4.914851	-0.57246846
330406719098488	-0.69464165	3.5901453	-0.4363327
330406729198488	-0.34732082	1.7750014	-0.3106689
330406739198488	-0.42935136	0.68067896	-0.28972492
330406749198488	-0.7609642	0.6318097	-0.20071304
330406759098488	-1.0262545	1.1536636	-0.1308998
330406769198488	-1.1257384	1.577779	-0.106465176
330406779198488	-1.0733784	1.6283937	-0.07330389
330406789198488	-0.8796467	1.4067366	-0.012217315
330406799198488	-0.69115096	1.0786144	0.05061459
330406819298488	-0.5951578	0.9599319	0.059341244
330406819398488	-0.5672325	0.79587084	0.02094397
330406829198488	-0.61610174	0.63704574	-0.0907572
330406850298488	-0.7365296	0.39269942	-0.20594902
330406850398488	-0.85346675	0.085521206	-0.33859417
330406859098488	-0.95818657	-0.16755176	-0.41189805
330406869198488	-1.0454531	-0.34383017	-0.49916458
330406879098488	-1.0838504	-0.3124142	-0.59341246
330406889198488	-1.1152663	-0.17104241	-0.6981323
330406899198488	-1.2112595	-0.017453307	-0.8272868
330406909198488	-1.37183	0.0017453308	-0.918044
330406919198488	-1.4852765	-0.09250253	-1.0088012
330406929198488	-1.3212154	-0.078539886	-1.1170117
330406939198488	-0.8011068	0.28972492	-1.1728623
330406949098488	-0.3054329	0.84299475	-1.1798435
330406959198488	-0.13264513	0.8168148	-1.0646517
330406969198488	-0.013962646	0.30194223	-0.74176556
330406979198488	0.3630288	0.27052626	-0.37175545
330406989198488	0.69115096	0.58643115	-0.019198637
330406999098488	0.7155856	0.64402705	0.23038366
330407007998488	0.67369765	0.6003938	0.3001969
330407019198488	1.0192732	0.7836535	0.23736498
330407039298488	1.7016975	1.2147502	0.05061459
330407039398488	2.221806	1.624903	-0.052359924
330407046998488	2.6040335	1.7750014	0.029670622
330407059098488	3.1747565	1.6126856	0.26878095
330407069098488	3.3789604	1.0314904	0.5393072
330407076998488	3.351035	0.5742138	0.91106266
330407089098488	2.8728144	-0.58294046	1.4782951
330407103098488	2.5987976	-1.6720269	1.7383494
330407112098488	2.4661524	-2.7628586	1.9216092
330407113098488	2.6721015	-3.1939552	1.9600065
330407121198488	2.7977653	-2.2148247	2.1537383
330407132098488	2.8937583	-1.0000745	2.2759113
330407145098488	2.9094663	0.30892354	2.3143086
330407155098488	2.9408822	1.2496568	2.2200608
330407165098488	2.9949875	1.6441016	1.9879317
330407175098488	2.9670622	1.7453308	1.6353749
330407185098488	2.670356	0.9965839	1.2548928
330407195098488	2.4347365	0.019198637	0.9965839
330407205098488	2.375395	-0.7731815	1.0594158
330407213098488	2.2933645	-1.2723461	1.3229607
330407222098488	2.2043529	-1.8901932	1.809908
330407224098488	2.1711915	-2.7000268	2.352706
330407233198488	2.1921353	-2.9880064	2.696536
330407244098488	2.2567127	-3.1485767	2.8274357
330407255098488	2.336998	-3.0805087	2.76984
330407265098488	2.5202577	-3.0211675	2.3928485
330407275098488	2.5028043	-2.9530997	1.8552866
330407285098488	2.2602034	-2.907721	1.5446178
330407295098488	2.0245836	-2.9147024	1.4765499
330407305098488	1.7296227	-2.9408822	1.4189539
330407314098488	1.4660778	-2.939137	1.3857926
330407316098488	1.1484276	-2.7715852	1.3892833
330407325198488	0.75223756	-2.6930454	1.3823019
330407339198488	0.19896771	-2.4975684	1.4416432
330407349198488	-0.078539886	-2.385867	1.4940032
330407359198488	-0.3246315	-2.3352525	1.4835311
330407399098488	-0.55326986	-2.2287874	1.4468791
330407399198488	-0.84648544	-2.0071304	1.4381526
330407399298488	-1.0576705	-1.8744853	1.3910286
330407399398488	-1.335178	-1.6807535	1.3439047
330407409198488	-1.7802373	-1.2706008	1.1990422
330407417198488	-2.042037	-1.1152663	1.0908318
330407429198488	-2.459171	-0.7574735	0.9093173
330407451298488	-2.7733305	-0.34208483	0.75223756
330407451398488	-3.118906	-0.0017453308	0.48520195
330407504498488	-3.21839	0.84299475	-0.12915447
330407504598488	-3.0072048	1.1571543	-0.5445432
330407504698488	-2.2933645	1.4556059	-1.0210185
330407504798488	-1.5585804	1.6214123	-1.3421594
330407513198488	-0.5410525	1.2444208	-1.4835311
330407521198488	0.79238015	0.02443463	-1.2252222
330407530198488	1.377066	-1.2304581	-0.59690315
330407539198488	1.4573512	-1.5114565	-0.120427825
330407550198488	1.192061	-0.39095408	0.08901187
330407572098488	0.7086043	0.65624434	0.19198638
330407572198488	0.16929708	1.4940032	0.19896771
330407585098488	-0.8883734	3.4051404	-0.02443463
330407595098488	-1.7488214	5.2359924	-0.80983347
330407609198488	-1.6790081	4.5465865	-1.5952322
330407609298488	-1.408482	3.1381047	-2.1362848
330407619198488	-0.93375194	1.4294258	-2.495823
330407629198488	-0.5881765	-0.84648544	-2.1118503
330407639198488	-1.1466823	-1.113521	-0.8674294
330407649198488	-1.4730592	0.11868249	-0.057595916
330407659198488	-1.4172086	2.375395	0.4310967
330407669198488	-1.8308519	3.9741182	0.80983347
330407679198488	-1.9984037	3.7821317	0.79587084
330407689198488	-1.804672	2.8064919	0.24958229
330407709298488	-1.4695685	1.5812696	-0.5515245
330407709398488	-1.2653648	0.3071782	-1.3910286
330407717198488	-1.2182409	-0.5061459	-1.8587773
330407765598488	-1.3823019	-0.9267706	-2.2444954
330407765698488	-1.6633002	-0.75223756	-2.1694462
330407765798488	-1.9390625	-0.16406108	-1.9111372
330407765898488	-2.1764274	1.1955515	-1.4381526
330407765998488	-2.1868994	2.9426277	-1.0175278
330407775198488	-2.0664716	4.2202096	-0.8726654
330407786098488	-1.6685362	4.4558296	-0.7365296
330407799198488	-0.7103496	2.7820573	-0.32637686
330407809198488	-0.62308306	1.4119725	-0.2391103
330407819198488	-0.74525625	0.7103496	-0.25656363
330407829198488	-0.8796467	0.8447401	-0.17453307
330407849298488	-0.9756399	1.3002714	-0.17976907
330407849398488	-1.0349811	1.6475922	-0.28099826
330407859198488	-1.0262545	1.4992391	-0.28623423
330407869198488	-0.9634226	1.1623902	-0.2391103
330407879198488	-0.88313735	0.8115788	-0.16929708
330407902298488	-0.8063428	0.51312727	-0.14660779
330407902398488	-0.696387	0.23561965	-0.18500505
330407932298488	-0.7155856	0.13962646	-0.3124142
330407932398488	-0.90059066	0.19722238	-0.464258
330407984498488	-1.1519183	0.17453307	-0.70162296
330407984598488	-1.192061	0.33335817	-0.7470016
330407984698488	-1.139701	0.5393072	-0.7435109
330407984798488	-1.1466823	0.62308306	-0.78190815
330407995198488	-1.1100304	0.5375619	-0.8569574
330408011298488	-0.87615603	0.5305805	-0.9093173
330408011398488	-0.6073751	0.65100837	-0.9197893
330408019198488	-0.28972492	0.7504922	-0.87092006
330408052398488	-0.099483855	0.5166179	-0.7330389
330408052498488	-0.008726654	0.14311711	-0.51487255
330408052598488	0.3577928	0.35430214	-0.16406108
330408060198488	0.6422817	0.56897783	0.036651947
330408072098488	0.7976161	0.6126111	0.16580643
330408124498488	0.86568403	0.53232586	0.19547704
330408124598488	1.0995584	0.5707232	0.08377588
330408124698488	1.836088	1.0681424	-0.120427825
330408124798488	2.4713883	1.4015006	-0.16929708
330408124898488	2.8413985	1.5097111	0.031415954
330408134198488	3.2602777	1.103049	0.24085565
330408142198488	3.4819348	0.77492684	0.49916458
330408153098488	3.487171	0.45029533	0.82030547
330408165098488	3.1311233	-0.2548183	1.2479115
330408175098488	2.7506413	-1.9093919	1.7016975
330408190198488	2.7104986	-3.7018466	1.841324
330408190298488	2.7890387	-3.3004205	2.047273
330408199198488	2.897249	-1.7034428	2.3038366
330408245498488	2.8867772	0.13439047	2.3579419
330408245598488	2.8728144	1.37183	2.0978875
330408245698488	2.8675785	1.1466823	1.4643325
330408245798488	2.6738467	0.2670356	1.1047944
330408256198488	2.4137924	-0.30194223	0.9651679
330408264198488	2.3387432	-0.33161286	1.1013037
330408279198488	2.0804343	-0.9145533	1.7942001
330408289198488	2.106614	-1.9093919	2.232278
330408312298488	2.0717075	-2.981025	2.4818604
330408312398488	2.047273	-3.5639653	2.712244
330408341298488	2.2008622	-3.265514	2.3719044
330408341398488	2.24275	-3.0787635	1.9774598
330408359198488	1.9338264	-2.9949875	1.4922578
330408369198488	1.7174054	-2.9216838	1.4660778
330408379198488	1.4206992	-2.881541	1.4608419
330408389198488	1.0157825	-2.8361626	1.4486245
330408399198488	0.60388446	-2.71748	1.4765499
330408409198488	0.2042037	-2.6563933	1.4206992
330408419198488	-0.14137179	-2.4783697	1.4049913
330408429198488	-0.42411536	-2.4033206	1.2653648
330408439198488	-0.72780293	-2.26893	1.2548928
330408449198488	-1.0297451	-2.1397755	1.192061
330408459198488	-1.3089981	-2.0751982	1.0663971
330408469198488	-1.6022136	-1.8291066	0.98436654
330408479198488	-1.8936839	-1.6999521	0.90408134
330408489198488	-2.1659555	-1.4730592	0.74176556
330408499198488	-2.5028043	-1.2391849	0.5916671
330408509098488	-2.7977653	-0.7941255	0.453786
330408519198488	-3.029894	-0.464258	0.2670356
330408529198488	-3.1066887	-0.19722238	-0.08203054
330408539198488	-2.923429	0.040142607	-0.36477414
330408547998488	-2.6668653	0.22165701	-0.664971
330408558998488	-2.0176024	0.54628855	-1.0646517
330408575098488	-1.4643325	0.8185601	-1.2164955
330408585098488	-0.42935136	1.0454531	-1.2897995
330408595098488	0.83077747	-0.19896771	-0.77492684
330408605098488	1.3805566	-1.2740915	0.0017453308
330408615098488	1.3805566	-0.7103496	0.3106689
330408625098488	1.1170117	0.6003938	0.39793542
330408635098488	0.5602512	1.2950354	0.36477414
330408645098488	-0.34033948	2.1258128	0.24783696
330408655098488	-1.4992391	3.7699144	-0.10122918
330408663098488	-2.3160539	5.187123	-0.7033683
330408671098488	-2.4661524	4.801405	-1.6214123
330408673098488	-2.1345396	3.6861386	-2.2986007
330408682198488	-1.6545736	2.195626	-2.8221998
330408699198488	-0.60388446	-2.7052627	-3.124142
330408709198488	-1.3247061	-2.8937583	-1.340414
330408719198488	-1.4974937	-0.11868249	0.23736498
330408729198488	-1.4451338	3.0997074	0.7836535
330408739198488	-1.6214123	4.5186615	0.79587084
330408749198488	-1.8430693	3.7978396	0.5497792
330408759198488	-2.047273	2.0647264	-0.17453307
330408769198488	-1.8867025	0.5811951	-1.0035652
330408779198488	-1.4940032	-0.73129356	-1.6894802
330408789198488	-1.3247061	-1.8814665	-1.9704784
330408799198488	-1.4992391	-2.010621	-1.9355718
330408809198488	-1.7767467	-1.1658809	-1.6912255
330408819198488	-1.8430693	0.38746342	-1.2391849
330408841298488	-1.572543	2.227042	-0.7033683
330408841398488	-1.0332358	3.2480605	-0.31415954
330408849198488	-0.57944983	3.071782	-0.17627841
330408859198488	-0.37699145	2.3945937	-0.12915447
330408869198488	-0.5550152	1.6510829	-0.15009844
330408879198488	-0.7504922	1.0716331	-0.16231576
330408889198488	-0.74525625	0.685915	-0.1308998
330408899198488	-0.72431225	0.6108658	-0.08203054
330408909198488	-0.7871442	0.76445484	-0.09250253
330408919198488	-0.8168148	0.8569574	-0.09424786
330408929198488	-0.69115096	0.67369765	-0.06981323
330408939098488	-0.5637418	0.5742138	-0.04712393
330408960298488	-0.49741927	0.4764753	-0.04886926
330408960398488	-0.54279786	0.34732082	-0.11170117
330408969198488	-0.62657374	0.20245837	-0.17104241
330408979198488	-0.7330389	0.054105252	-0.24260098
330409012398488	-0.84648544	-0.0017453308	-0.26354495
330409012498488	-0.9564412	-0.07330389	-0.27576226
330409012598488	-1.0594158	-0.24783696	-0.34732082
330409029198488	-1.2863088	-0.5393072	-0.5951578
330409041098488	-1.4154632	-0.49741927	-0.75223756
330409055098488	-1.5341457	-0.32637686	-0.8883734
330409065098488	-1.5952322	-0.12740915	-0.92327994
330409075098488	-1.5952322	0.029670622	-0.8447401
330409084098488	-1.5236738	0.0453786	-0.7784175
330409092098488	-1.3788112	0.054105252	-0.7609642
330409100098488	-1.0681424	0.35604748	-0.8290321
330409102098488	-0.6353004	0.96865857	-0.92153466
330409111198488	-0.20594902	1.4957484	-0.8674294
330409122098488	0.02094397	1.4259353	-0.7033683
330409135098488	0.26878095	0.8691747	-0.44156867
330409145098488	0.5305805	0.44855002	-0.2042037
330409155098488	0.7574735	0.3735008	0.02443463
330409165098488	0.7470016	0.35255682	0.20594902
330409175098488	0.68416965	0.43458736	0.2548183
330409184098488	0.83252275	0.6527537	0.21467568
330409192098488	1.2287128	1.0384718	0.0453786
330409194098488	1.5917417	1.4713138	-0.21293035
330409202198488	1.8325973	1.6266483	-0.20594902
330409213098488	2.1868994	1.5585804	-0.17453307
330409225098488	2.8030012	0.97913057	-0.15184377
330409235098488	3.071782	0.34383017	0.1308998
330409245098488	3.0403662	-0.33684883	0.5445432
330409255098488	2.8326719	-1.3735753	1.0245092
330409265098488	2.6267228	-2.4556804	1.3753207
330409275098488	2.548183	-3.2288618	1.5987229
330409284098488	2.5028043	-3.2969298	1.7767467
330409286098488	2.5534189	-2.474879	2.062981
330409294198488	2.6790826	-1.1205024	2.1554835
330409305098488	2.7227159	-0.24085565	2.005385
330409319198488	2.9042304	0.95469594	1.3177247
330409329198488	2.9618263	1.2234769	1.0140371
330409339198488	2.8553612	0.9320066	0.8569574
330409349198488	2.6476667	0.10122918	0.89011866
330409359198488	2.628468	-0.17627841	0.9564412
330409369198488	2.4539351	-0.464258	1.1885703
330409379198488	2.221806	-0.88662803	1.5393817
330409389198488	2.1240675	-1.1990422	2.0036397
330409399198488	2.1554835	-1.7924547	2.4103017
330409409198488	2.0123663	-2.516767	2.7803118
330409419198488	2.1519928	-2.928665	2.9251742
330409429198488	2.115341	-3.3318365	2.6406853
330409439098488	2.042037	-3.351035	2.2724206
330409449198488	1.862268	-3.1171608	2.0437822
330409459198488	1.603959	-3.1573033	1.9774598
330409469198488	1.356122	-3.3266003	1.9233545
330409479198488	1.1274836	-3.340563	1.9669877
330409489198488	0.8342681	-3.2253711	2.0402915
330409498198488	0.4834566	-3.0962167	2.0228384
330409509198488	0.080285214	-2.9722984	1.9861864
330409533098488	-0.20071304	-2.9356463	1.9338264
330409533198488	-0.40666208	-2.918193	1.8971745
330409545098488	-0.6789337	-2.7628586	1.8675039
330409549098488	-0.9459693	-2.5761082	1.7907094
330409558998488	-1.2514021	-2.3247805	1.7767467
330409575098488	-1.556835	-2.073453	1.6737722
330409585098488	-1.8378333	-1.6859895	1.4974937
330409594098488	-2.1432662	-1.3072528	1.3177247
330409602098488	-2.3893578	-0.8953547	1.2025329
330409610098488	-2.63894	-0.50265527	1.0262545
330409612098488	-2.834417	-0.16231576	0.84997606
330409621098488	-2.9304104	0.10297451	0.6091204
330409632098488	-2.9373918	0.226893	0.34906614
330409645098488	-2.7506413	0.53232586	-0.026179962
330409655098488	-2.2392592	0.6475177	-0.5567605
330409665098488	-1.5184377	0.9494599	-0.9302613
330409675098488	-0.459022	1.2304581	-1.2548928
330409685098488	0.9808759	0.027925292	-1.0908318
330409694098488	1.588251	-1.0384718	-0.44505933
330409695098488	1.6266483	-1.0000745	-0.108210504
330409704098488	1.387538	-0.3857181	0.055850584
330409713198488	0.9320066	0.29670623	0.11693716
330409729198488	-0.18849573	1.2461661	-0.16755176
330409739198488	-0.80983347	2.4137924	-0.70162296
330409749198488	-1.4643325	4.331911	-1.3980099
330409759198488	-1.9879317	4.705412	-1.9722238
330409769098488	-2.2549672	3.9182675	-2.448699
330409779198488	-1.9792051	2.954845	-2.5551643
330409789198488	-1.2601289	0.9861119	-1.862268
330409799198488	-1.3980099	-0.8796467	-0.80285215
330409809198488	-1.8535413	-0.2443463	-0.1361358
330409819198488	-1.4468791	2.0071304	0.45204067
330409829198488	-1.6929709	3.9287395	1.0314904
330409839198488	-2.2392592	4.3999786	1.0524344
330409849098488	-1.9600065	3.820529	0.39444476
330409869298488	-1.5760337	2.4137924	-0.6824243
330409869398488	-1.340414	0.881392	-1.6650455
330409879098488	-1.2915448	-0.13439047	-2.29511
330409889198488	-1.4398979	-0.6213378	-2.5848348
330409932098488	-1.7156601	-0.6300644	-2.5115309
330409932198488	-2.0036397	0.026179962	-2.1834087
330409932298488	-2.1572287	1.6702815	-1.551599
330409932398488	-2.1519928	3.8013303	-1.0070559
330409943998488	-1.8814665	4.248135	-0.6457724
330409952098488	-1.2444208	3.4348109	-0.35255682
330409960198488	-0.7836535	2.464407	-0.06981323
330409968098488	-0.66671634	1.7872187	0.038397275
330409979198488	-0.88313735	1.6790081	-0.031415954
330409989198488	-1.0332358	1.9408078	-0.078539886
330410000098488	-1.0471984	2.083925	-0.055850584
330410009198488	-1.0297451	1.9826957	-0.07330389
330410021098488	-1.0227638	1.7715107	-0.09250253
330410051098488	-0.94073325	1.3281966	-0.1361358
330410051198488	-0.7784175	0.8621934	-0.20245837
330410051298488	-0.5567605	0.3124142	-0.16231576
330410065998488	-0.4084074	0.066322565	-0.099483855
330410133798488	-0.39095408	-0.0017453308	-0.07679455
330410133898488	-0.44156867	-0.0017453308	-0.07155856
330410133998488	-0.63355505	0.061086576	-0.12391848
330410134098488	-0.79936147	-0.059341244	-0.25830895
330410134198488	-1.0088012	-0.19547704	-0.5305805
330410134298488	-1.1309743	0.010471985	-0.8185601
330410143098488	-1.3037621	0.4310967	-0.8779014
330410150998488	-1.4940032	0.7976161	-0.86044806
330410158998488	-1.5603257	1.0297451	-0.8587027
330410168998488	-1.4416432	1.155409	-0.9669132
330410185098488	-1.082105	1.2810727	-1.0751238
330410195098488	-0.5846858	1.4119725	-1.0559251
330410222298488	-0.2094397	1.2915448	-0.8569574
330410222398488	0.18849573	1.1815889	-0.8011068
330410222498488	0.70162296	0.7592189	-0.6981323
330410239198488	1.0629064	0.41538873	-0.3682648
330410249198488	1.4049913	0.9250253	-0.12915447
330410272298488	2.0804343	1.8273613	0.13264513
330410272398488	2.506295	2.5045497	0.24783696
330410361098488	3.3266003	1.6755176	0.8045975
330410361198488	3.5150962	0.7731815	1.1065397
330410361298488	3.176502	0.061086576	1.5742884
330410361398488	2.6179962	-2.1450114	2.122322
330410361498488	2.5691268	-2.8117278	2.24275
330410361598488	2.8047466	-1.9163731	2.2881286
330410361698488	2.9583356	-0.8447401	2.3806312
330410363998488	2.9251742	0.034906615	2.4452083
330410371198488	2.8571064	0.66671634	2.4190285
330410379198488	2.8728144	1.1309743	2.2759113
330410389198488	2.8955038	1.5044751	1.9774598
330410399198488	2.6511574	1.2479115	1.5341457
330410482798488	2.495823	0.5497792	1.1938063
330410482898488	2.4155378	-0.26878095	1.0227638
330410482998488	2.3073273	-1.562071	1.4032459
330410483098488	2.2916193	-2.0228384	2.1450114
330410483198488	2.2497313	-2.965317	2.7506413
330410483298488	2.4364817	-3.445283	2.7104986
330410483398488	2.6494122	-3.2532966	2.336998
330410490198488	2.7262065	-3.5308042	1.9704784
330410499198488	2.7104986	-3.2131538	1.6720269
330410509198488	2.3317618	-3.0822542	1.4643325
330410519198488	1.9582611	-3.3021657	1.3473953
330410529198488	1.6790081	-3.3161285	1.3334327
330410641098488	1.3683393	-3.19221	1.5009844
330410641198488	0.9599319	-3.1485767	1.535891
330410641298488	0.56897783	-2.9688077	1.6109403
330410641398488	0.18849573	-2.9600809	1.6371202
330410641498488	-0.17278774	-2.8483799	1.6510829
330410641598488	-0.5009099	-2.7506413	1.6353749
330410641698488	-0.7103496	-2.654648	1.603959
330410641798488	-1.0646517	-2.352706	1.6074497
330410641898488	-1.4486245	-2.015857	1.6144309
330410641998488	-1.963497	-1.408482	1.5009844
330410654198488	-2.563891	-0.6894056	1.314234
330410662198488	-2.9408822	-0.33684883	1.176353
330410674098488	-3.2847126	0.008726654	1.0088012
330410685098488	-3.7350078	0.5672325	0.76445484
330410695098488	-4.111999	1.4556059	0.47298464
330410743498488	-4.2254457	2.1205769	-0.14660779
330410743598488	-3.9008143	2.195626	-0.928516
330410743698488	-2.4504445	1.4748045	-2.1083596
330410743798488	-0.19547704	0.8220508	-2.628468
330410743898488	2.448699	-0.8988453	-1.3124887
330410759198488	1.8692492	-0.6579897	0.8342681
330410769198488	1.7558028	0.9651679	0.8848827
330410791298488	1.1519183	2.0228384	0.6457724
330410791398488	0.2600543	1.8587773	0.080285214
330410881098488	-0.9424786	2.375395	-0.9145533
330410881198488	-2.146757	3.2672591	-2.0437822
330410881298488	-2.7785666	1.6126856	-2.7680945
330410881398488	-2.4155378	1.2636194	-2.5604002
330410881498488	-1.1938063	-0.6073751	-1.7435855
330410881598488	-1.5760337	-1.1065397	-0.9861119
330410881698488	-1.6650455	0.25830895	-0.15533444
330410889098488	-1.7924547	2.9775343	0.90408134
330410891098488	-2.1170862	4.965466	1.5899963
330410899198488	-2.0943968	5.3337307	1.6807535
330410907198488	-1.7453308	4.686213	1.2269676
330410918098488	-1.4625871	3.3475444	0.40142608
330410952398488	-1.4416432	0.39619008	-1.4241899
330410952498488	-1.4608419	-1.2775822	-2.432991
330410952598488	-1.4206992	-2.6267228	-3.1590486
330410969198488	-2.6459215	-2.459171	-2.9670622
330410979198488	-2.949609	-0.664971	-2.2095888
330410991098488	-2.7820573	1.377066	-1.4468791
330410999198488	-2.2776566	4.228936	-0.685915
330411022298488	-1.8395786	4.9096155	-0.34906614
330411022398488	-0.8447401	3.9304848	-0.078539886
330411051298488	-0.4206247	1.6336296	-0.04886926
330411051398488	-0.97214925	0.5515245	-0.16057043
330411059198488	-1.113521	0.7871442	0.04886926
330411072098488	-1.0384718	1.387538	0.22340234
330411144698488	-0.83950406	1.8587773	0.21467568
330411144798488	-0.48694727	1.8535413	0.16755176
330411144898488	-0.34033948	0.9773852	-0.013962646
330411144998488	-0.35430214	-0.02443463	-0.12566382
330411145098488	-0.35604748	-0.63704574	-0.15707977
330411145198488	-0.36477414	-0.94073325	-0.1361358
330411145298488	-0.44331402	-0.9302613	-0.1361358
330411159198488	-0.675443	-0.4136434	-0.17976907
330411169198488	-0.82554144	-0.07504922	-0.32637686
330411179198488	-0.99134785	0.21118502	-0.4363327
330411189198488	-1.1676263	0.43458736	-0.52534455
330411199198488	-1.366594	0.5619965	-0.65449905
330411209198488	-1.5481083	0.50265527	-0.8290321
330411219198488	-1.5201831	0.57944983	-0.9564412
330411229198488	-1.2164955	0.63355505	-0.98436654
330411239198488	-0.7365296	0.68067896	-0.96167725
330411249198488	-0.24958229	0.7208216	-0.9878572
330411259198488	0.034906615	0.7801629	-0.9965839
330411269198488	0.464258	0.9302613	-0.8342681
330411279198488	0.97389454	1.0297451	-0.5619965
330411289198488	1.3177247	1.0227638	-0.24958229
330411299198488	1.4241899	1.0541798	-0.0034906615
330411309198488	1.6336296	1.340414	0.25307295
330411319198488	2.3701591	1.377066	0.52883524
330411329198488	2.696536	1.3281966	0.5602512
330411339198488	2.944373	1.0402172	0.6789337
330411349198488	3.19221	0.6632257	1.1641356
330411359198488	2.8326719	0.43458736	1.7086788
330411369198488	2.501059	-0.4258607	1.8657585
330411379198488	2.5254936	-1.8535413	1.8605226
330411389198488	2.7314427	-2.881541	1.9408078
330411399198488	2.9408822	-2.4818604	2.1031237
330411409198488	3.0211675	-1.2496568	2.2165701
330411419198488	2.923429	0.11868249	2.232278
330411429198488	2.9112117	1.4067366	2.1135955
330411439198488	2.881541	1.9739691	1.8640132
330411449198488	2.748896	1.9163731	1.4695685
330411459198488	2.5830896	1.3700846	1.0227638
330411469198488	2.3561964	0.11519183	0.83252275
330411479198488	2.2724206	-1.082105	0.99134785
330411489198488	2.1781728	-1.809908	1.6144309
330411498198488	2.015857	-2.1275582	2.3335073
330411509098488	1.8867025	-2.6843188	2.790784
330411532298488	2.0088756	-3.3754697	3.0264034
330411532398488	2.4574256	-3.2515512	2.5691268
330411549198488	2.6651201	-2.7838025	1.7366041
330411559198488	2.3980844	-2.8448892	1.4329165
330411572098488	2.1013782	-3.038621	1.2967807
330411585098488	1.7907094	-3.1625392	1.2688555
330411595098488	1.4311712	-3.3266003	1.2391849
330411605098488	1.0698878	-3.2585325	1.2444208
330411613098488	0.80285215	-3.181738	1.2810727
330411622098488	0.5567605	-3.1049435	1.3334327
330411623098488	0.36477414	-2.9932423	1.34565
330411632198488	0.13962646	-2.8099825	1.3613579
330411643098488	-0.10297451	-2.6249774	1.3369234
330411655098488	-0.3857181	-2.4260097	1.3020167
330411665098488	-0.7330389	-2.1607194	1.2758368
330411675098488	-1.1152663	-1.8448147	1.1972969
330411685098488	-1.5655617	-1.3229607	1.160645
330411695098488	-2.031565	-0.86044806	1.0838504
330411705098488	-2.501059	-0.4084074	0.97913057
330411713098488	-2.8693237	-0.061086576	0.86393875
330411724098488	-3.3353271	0.41713405	0.7365296
330411745298488	-3.6547227	0.8290321	0.58643115
330411745398488	-3.8763795	1.2234769	0.35430214
330411745498488	-3.8379824	1.562071	-0.18500505
330411759198488	-3.2445698	1.3631033	-1.0175278
330411769198488	-2.1729367	1.0995584	-1.5795243
330411779198488	-1.113521	0.9302613	-1.8325973
330411789198488	0.62308306	0.70511365	-1.6999521
330411797198488	1.815144	-0.69464165	-0.7592189
330411809198488	1.7610388	-1.9442985	0.49567392
330411818198488	1.5585804	-1.3386687	0.5707232
330411829198488	1.0297451	0.87615603	0.6073751
330411839198488	0.3106689	2.1659555	0.4712393
330411849198488	-0.45727664	3.134614	0.3001969
330411859198488	-1.4032459	3.9915714	-0.21293035
330411891398488	-2.2008622	4.1818123	-1.4381526
330411891498488	-2.2165701	2.8134732	-2.131049
330411891598488	-1.588251	1.5044751	-2.5918162
330411899198488	-0.918044	-0.033161283	-2.923429
330411909198488	-0.91106266	-1.5446178	-1.9320811
330411919198488	-1.5952322	-0.9197893	-0.53232586
330411929198488	-1.4974937	1.3089981	0.6457724
330411939198488	-1.783728	3.8711436	1.5376364
330411949198488	-1.9285905	4.539605	1.6126856
330411959198488	-1.804672	3.4383016	0.8953547
330411969198488	-1.3578674	1.6580642	-0.21991168
330411978198488	-1.0471984	0.41015273	-1.2147502
330411989098488	-1.0018198	-0.34033948	-1.877976
330411999198488	-1.1885703	-0.99483854	-2.5761082
330412009198488	-1.6598096	-0.8447401	-2.5953069
330412020098488	-2.0594902	-0.50265527	-2.2811472
330412029198488	-2.2986007	0.89011866	-1.4119725
330412036998488	-2.2497313	1.9460437	-0.9162986
330412049198488	-1.9966583	3.4487736	-0.5742138
330412059098488	-1.5254191	3.9915714	-0.4660033
330412082098488	-0.891864	3.5185869	-0.3700101
330412082198488	-0.5619965	2.675592	-0.30194223
330412089098488	-0.5375619	1.4974937	-0.3176502
330412104098488	-0.7801629	0.62657374	-0.38222742
330412106098488	-1.0245092	0.34732082	-0.31590486
330412114098488	-1.1519183	0.64402705	-0.17104241
330412122098488	-1.155409	1.0524344	-0.12740915
330412131198488	-1.0437078	1.3945193	-0.20594902
330412142098488	-0.8883734	1.3823019	-0.23387432
330412155098488	-0.70162296	0.97214925	-0.22340234
330412165098488	-0.59690315	0.4310967	-0.1867504
330412175098488	-0.5567605	-0.033161283	-0.12566382
330412185098488	-0.5445432	-0.25830895	-0.052359924
330412195098488	-0.5445432	-0.4939286	-0.031415954
330412205098488	-0.63704574	-0.464258	-0.06283191
330412215098488	-0.7592189	-0.32812217	-0.16231576
330412223098488	-0.8272868	-0.18325973	-0.28623423
330412225098488	-0.8482307	0.043633267	-0.4258607
330412234098488	-0.8569574	0.39095408	-0.49567392
330412243198488	-0.918044	0.7731815	-0.52534455
330412254098488	-1.0088012	1.0210185	-0.5637418
330412265098488	-1.1013037	1.113521	-0.6632257
330412275098488	-1.2182409	1.1379557	-0.8482307
330412279098488	-1.1100304	1.2042782	-1.0210185
330412295098488	-0.6178471	1.1938063	-1.1780982
330412299098488	-0.15533444	0.94073325	-1.1676263
330412315098488	-0.07155856	0.5410525	-1.0227638
330412317998488	0.029670622	0.41713405	-0.8377588
330412326098488	0.3630288	0.58294046	-0.5899218
330412335098488	0.7976161	0.90408134	-0.28448892
330412342998488	1.0018198	0.9669132	-0.085521206
330412359198488	1.2234769	1.1938063	0.06981323
330412369098488	1.9425532	1.4748045	-0.019198637
330412379198488	2.686064	1.5742884	-0.15533444
330412389198488	2.9618263	1.4957484	-0.17278774
330412399198488	3.4540095	1.0140371	0.29321557
330412409198488	3.5308042	0.5410525	0.83601344
330412419098488	3.1782472	-0.09424786	1.2950354
330412427198488	2.965317	-0.83601344	1.593487
330412436198488	2.785548	-2.0751982	1.8395786
330412449198488	2.8728144	-3.2428246	2.047273
330412459198488	2.9513543	-2.1031237	2.2776566
330412469198488	2.9618263	-0.6003938	2.4783697
330412479198488	2.9112117	0.6824243	2.63894
330412489098488	2.9408822	1.7034428	2.6232321
330412499198488	2.9147024	2.2026074	2.2828927
330412509198488	2.6773374	1.9163731	1.7278775
330412519198488	2.4312458	0.67718834	1.3107435
330412529198488	2.3160539	-0.5707232	1.0716331
330412539098488	2.2095888	-1.5393817	1.1868249
330412549198488	1.9355718	-2.1991167	1.7435855
330412559198488	1.6947162	-3.1677754	2.5080402
330412569198488	1.8483052	-3.8693984	3.0072048
330412579198488	2.247986	-4.183558	2.9792795
330412589198488	2.4713883	-3.7803864	2.5097857
330412602098488	2.4923322	-3.4260843	1.9984037
330412615098488	2.359687	-3.1311233	1.4102273
330412625098488	2.2287874	-2.9042304	1.2112595
330412635098488	2.0717075	-2.9688077	1.2810727
330412645098488	1.747076	-3.1747565	1.2740915
330412655098488	1.3735753	-3.2218807	1.2531475
330412665098488	0.9197893	-3.1782472	1.2950354
330412686298488	0.4939286	-3.1014528	1.408482
330412686398488	0.21816635	-3.2009366	1.4590966
330412686498488	-0.036651947	-3.2358432	1.5027298
330412696198488	-0.34732082	-3.11367	1.577779
330412704198488	-0.59341246	-3.012441	1.6371202
330412719198488	-1.1588997	-2.6651201	1.5987229
330412729198488	-1.5847603	-2.2671847	1.5690523
330412752298488	-1.9495344	-1.8221253	1.546363
330412752398488	-2.4085565	-1.1362103	1.34565
330412781298488	-2.9216838	-0.2443463	1.0594158
330412781398488	-3.1590486	0.37175545	0.7941255
330412799198488	-3.1381047	1.3316873	0.32637686
330412809198488	-2.8588517	1.7069335	-0.14660779
330412819198488	-2.3230352	1.7610388	-0.6353004
330412829198488	-1.6685362	1.5812696	-1.0332358
330412839198488	-0.7103496	1.6022136	-1.3177247
330412849198488	0.6091204	0.60562974	-0.9197893
330412858198488	0.9494599	-0.63355505	-0.21816635
330412869198488	0.8517214	-0.73827493	0.006981323
330412879198488	0.5515245	0.17104241	0.040142607
330412902298488	0.052359924	1.155409	0.017453307
330412902398488	-0.6475177	1.9652424	-0.23736498
330412919198488	-2.1258128	4.5483317	-1.176353
330412929198488	-2.548183	3.567456	-2.1677008
330412938198488	-2.375395	1.815144	-2.5534189
330412949198488	-1.6772629	0.659735	-2.7768211
330412959198488	-0.73827493	-0.7330389	-2.8047466
330412969198488	-0.7208216	-1.2775822	-1.5952322
330412979198488	-1.5079658	-0.664971	-0.35604748
330412989198488	-1.5324004	2.3352525	0.70685893
330412999198488	-2.1921353	4.9218326	1.6074497
330413009198488	-2.7680945	4.4471025	1.5638163
330413019198488	-2.5499282	2.712244	0.7592189
330413029198488	-1.7715107	1.3072528	-0.04188794
330413039198488	-1.134465	-0.09599319	-0.8342681
330413049198488	-0.8011068	-1.0018198	-1.5446178
330413059098488	-0.88313735	-1.2775822	-2.0088756
330413069198488	-1.5446178	-0.8290321	-2.106614
330413079198488	-2.2305326	0.685915	-1.9076465
330413089198488	-2.1851542	2.7506413	-1.3543767
330413102098488	-1.7662747	3.9584103	-0.5218539
330413115098488	-1.1990422	3.7210453	-0.019198637
330413125098488	-0.7679455	3.2358432	0.17976907
330413135098488	-0.56897783	2.6424308	0.11868249
330413145098488	-0.5742138	1.9600065	-0.0680679
330413161198488	-0.7155856	1.4521152	-0.17627841
330413161298488	-0.83950406	1.2775822	-0.05061459
330413193298488	-0.90408134	1.1746076	-0.08377588
330413193398488	-0.74525625	0.74525625	-0.16929708
330413209198488	-0.59690315	0.10122918	-0.13788113
330413243398488	-0.57595915	-0.12391848	-0.10122918
330413243498488	-0.64402705	-0.22340234	-0.11693716
330413243598488	-0.7871442	-0.17453307	-0.19198638
330413251998488	-0.91106266	-0.19198638	-0.2722716
330413302098488	-1.171117	0.034906615	-0.47996596
330413302198488	-1.2653648	0.40666208	-0.5637418
330413302298488	-1.3526313	0.7225669	-0.659735
330413302398488	-1.392774	0.86568403	-0.69464165
330413319198488	-1.4172086	1.0192732	-0.87615603
330413363098488	-1.2566382	0.938988	-1.061161
330413363198488	-0.85346675	0.93375194	-1.1798435
330413363298488	-0.3071782	1.1117756	-1.0437078
330413363398488	-0.0226893	0.87092006	-0.77492684
330413372198488	0.20594902	0.59341246	-0.52534455
330413380098488	0.51312727	0.65624434	-0.28274357
330413389098488	0.8115788	0.96865857	-0.07330389
330413399198488	0.95818657	1.2444208	0.07330389
330413409098488	1.0297451	1.3526313	0.11868249
330413432098488	1.3439047	1.4887671	0.019198637
330413432198488	2.2776566	1.7366041	-0.17627841
330413461298488	3.1223967	2.0559995	0.036651947
330413461398488	3.3492897	1.6650455	0.49567392
330413470098488	3.3388178	0.67718834	0.8988453
330413479198488	3.0752728	-0.4817113	1.2130048
330413489198488	2.76984	-2.148502	1.6057043
330413499198488	2.5272388	-3.3370724	2.0874157
330413509198488	2.4364817	-3.4470282	2.5551643
330413532098488	2.6476667	-2.1031237	2.790784
330413532198488	2.748896	-0.31939554	2.9147024
330413549198488	2.8832865	1.4608419	2.2287874
330413583398488	2.8571064	2.0123663	1.5603257
330413583498488	2.5097857	1.1885703	0.7260576
330413583598488	2.2514768	-0.6894056	0.41189805
330413592098488	2.1834087	-1.9338264	0.5340712
330413600098488	2.1345396	-2.8152184	1.0681424
330413608998488	2.1327941	-3.2567873	2.0717075
330413629098488	2.3020914	-3.5604746	2.9775343
330413629198488	2.3945937	-3.6617038	3.2620232
330413636998488	2.5080402	-3.715809	3.176502
330413655098488	2.839653	-3.6861386	2.6302135
330413675298488	2.748896	-3.4575002	1.9949131
330413675398488	2.4870963	-3.366743	1.5533444
330413675498488	2.3038366	-3.4086308	1.2863088
330413685198488	2.2514768	-3.366743	1.314234
330413693198488	2.0490184	-3.345799	1.3526313
330413702198488	1.799436	-3.4801896	1.2932901
330413809998488	1.113521	-3.366743	1.1641356
330413810098488	0.7696909	-3.2114086	1.2060236
330413810198488	0.43458736	-3.08749	1.2095143
330413810298488	0.0226893	-2.7890387	1.1536636
330413810398488	-0.3630288	-2.4242644	1.1205024
330413810498488	-0.670207	-2.0664716	1.1588997
330413810598488	-1.0524344	-1.7558028	1.1013037
330413810698488	-1.5132017	-1.1903156	1.0559251
330413810798488	-2.1729367	-0.6021391	0.99832916
330413819198488	-2.6686108	-0.23038366	0.9651679
330413829198488	-3.1974459	0.15009844	0.8447401
330413839198488	-3.6809025	0.65624434	0.7365296
330413849198488	-4.096291	1.1414464	0.54279786
330413859198488	-4.143415	1.5481083	0.14835311
330413892398488	-3.8327463	1.6824988	-0.31590486
330413892498488	-3.0072048	1.387538	-1.1100304
330413892598488	-1.7592934	1.2182409	-1.583015
330413961098488	0.9145533	0.94422394	-1.3526313
330413961198488	1.7942001	-1.2863088	0.13788113
330413961298488	1.5603257	-0.8237961	0.41538873
330413961398488	0.82554144	1.5760337	0.2617996
330413961498488	0.07330389	2.8832865	0.28623423
330413975098488	-1.1728623	3.804821	0.017453307
330413986098488	-2.2392592	4.539605	-1.3683393
330413995098488	-2.4836056	3.494152	-2.0437822
330414005098488	-2.036801	2.7227159	-2.5132763
330414081698488	-1.3945193	1.3892833	-3.4383016
330414081798488	-1.572543	-1.5097111	-3.0682914
330414081898488	-2.9094663	-0.81332415	-0.7836535
330414081998488	-3.5744374	2.443463	0.5393072
330414082098488	-3.3492897	3.935721	0.84997606
330414082198488	-2.7035174	2.352706	0.1134465
330414082298488	-1.6964614	-0.11519183	-0.9599319
330414099198488	-0.7662002	-1.3857926	-1.788964
330414109198488	-0.8691747	-1.2653648	-1.8971745
330414119198488	-1.34565	-0.40666208	-1.9076465
330414133098488	-1.788964	1.1082851	-1.5027298
330414145098488	-1.8919386	3.2724953	-0.664971
330414155098488	-1.8814665	5.181887	0.11693716
330414165098488	-1.4224446	5.255191	0.42411536
330414175098488	-0.6248284	4.2568617	0.45727664
330414201298488	-0.10122918	3.0578194	0.44156867
330414201398488	-0.0680679	2.000149	0.3106689
330414201498488	-0.35081148	1.31947	0.13962646
330414219198488	-0.664971	1.3631033	-0.0680679
330414229198488	-0.72780293	1.1449369	-0.25307295
330414238198488	-0.67195237	0.86393875	-0.3298675
330414249198488	-0.5497792	0.5899218	-0.3071782
330414259198488	-0.48694727	0.6021391	-0.2094397
330414269198488	-0.469494	0.5218539	-0.108210504
330414279198488	-0.50789124	0.30892354	-0.08203054
330414289198488	-0.56897783	0.23038366	-0.0680679
330414299198488	-0.675443	0.17104241	-0.07679455
330414309198488	-0.7696909	0.1361358	-0.120427825
330414319198488	-0.8674294	0.08901187	-0.2094397
330414329198488	-0.9634226	0.027925292	-0.33684883
330414337198488	-1.0506891	-0.008726654	-0.469494
330414346198488	-1.1658809	0.010471985	-0.6248284
330414354198488	-1.3159794	0.106465176	-0.7766722
330414369198488	-1.4311712	0.34208483	-0.9058267
330414379198488	-1.3543767	0.41189805	-0.9773852
330414389198488	-1.1693716	0.45553133	-1.0838504
330414397198488	-0.8674294	0.5166179	-1.1641356
330414405198488	-0.50265527	0.8011068	-1.176353
330414419198488	-0.08203054	1.0768691	-0.902336
330414429198488	0.28099826	1.0559251	-0.4712393
330414438198488	0.6178471	1.1938063	-0.1815144
330414449198488	0.97389454	1.3107435	0.14311711
330414459198488	0.97913057	1.2060236	0.28972492
330414469198488	1.0995584	1.1623902	0.25307295
330414479198488	1.7505667	1.1658809	0.13439047
330414489198488	2.5464375	1.3857926	-0.09773852
330414498098488	2.850125	1.6179216	-0.1308998
330414509198488	3.2567873	1.3229607	0.25132763
330414519198488	3.630288	0.938988	0.6387911
330414529198488	3.4330657	0.108210504	1.0768691
330414539198488	3.1049435	-1.298526	1.5079658
330414549198488	2.7104986	-2.5464375	1.8744853
330414559198488	2.5761082	-3.2899485	2.2043529
330414569198488	2.6895547	-2.3649232	2.427755
330414579198488	2.8413985	-1.150173	2.5359657
330414653698488	2.7768211	-0.10995584	2.680828
330414653798488	2.7838025	0.94422394	2.5586548
330414653898488	2.7628586	1.6667908	2.052509
330414653998488	2.3701591	0.8290321	1.3089981
330414654098488	2.2148247	-0.71209496	0.9162986
330414654198488	2.1415207	-1.8919386	1.1676263
330414669198488	1.7907094	-2.659884	2.3631778
330414679098488	1.7051882	-3.7838771	2.933901
330414689198488	1.9600065	-4.7315917	3.0997074
330414699198488	2.1677008	-4.4680467	2.8413985
330414753098488	2.2462406	-4.216719	2.5551643
330414753198488	2.1677008	-3.7350078	2.031565
330414753298488	1.9826957	-4.0020432	1.2461661
330414753398488	1.8954293	-3.7664237	1.3177247
330414769998488	1.2618741	-3.8501997	1.2653648
330414814498488	0.5986484	-3.7105732	1.3683393
330414814598488	0.14660779	-3.541276	1.4381526
330414814698488	-0.09250253	-3.3911777	1.4730592
330414829198488	-0.52534455	-3.0264034	1.5219284
330414839198488	-0.82030547	-2.6878095	1.5027298
330414847198488	-1.0629064	-2.2340233	1.5219284
330414859198488	-1.514947	-1.4590966	1.4835311
330414964798488	-1.9111372	-0.7679455	1.366594
330414964898488	-2.6337042	0.36128345	1.0995584
330414964998488	-3.4156122	1.3753207	0.7714362
330414965098488	-3.8589263	2.2305326	0.3124142
330414965198488	-3.371979	2.1519928	-0.72431225
330414965298488	-1.8936839	1.6318842	-1.76802
330414965398488	0.43284202	1.3491406	-1.9931678
330414979198488	1.9303358	-1.2199862	0.2443463
330414989198488	1.6388656	-0.6387911	0.5445432
330414999198488	1.4748045	0.3857181	0.48520195
330415157098488	0.90408134	1.4259353	0.36128345
330415157198488	-0.40142608	2.4207737	-0.15707977
330415157298488	-1.8867025	4.0282235	-1.4381526
330415157398488	-2.26893	1.984441	-2.3247805
330415157498488	-1.1065397	0.7976161	-2.4120471
330415157598488	-1.4067366	-0.54628855	-0.67369765
330415157698488	-1.6196669	2.696536	1.2479115
330415157798488	-2.26893	4.53786	1.6388656
330415157898488	-1.3892833	2.1834087	0.17104241
330415157998488	-0.918044	-0.085521206	-1.4643325
330415176198488	-1.1047944	-1.4154632	-2.6581388
330415184198488	-1.7034428	-1.0960677	-2.6424308
330415199198488	-2.738424	0.7888895	-1.8640132
330415207198488	-2.8064919	2.3090725	-1.3892833
330415219198488	-2.7366786	4.24639	-0.87615603
330415381098488	-2.24275	4.7089024	-0.7295483
330415381198488	-0.93375194	3.3545258	-0.34906614
330415381298488	-0.4764753	1.4940032	-0.21816635
330415381398488	-0.99134785	0.94073325	-0.31590486
330415381498488	-1.2688555	1.8675039	-0.09250253
330415381598488	-0.9930932	1.9530251	-0.05061459
330415381698488	-0.7260576	1.150173	-0.040142607
330415381798488	-0.6003938	0.06283191	-0.059341244
330415381898488	-0.54803383	-0.5497792	-0.099483855
330415381998488	-0.64053637	-0.58294046	-0.13788113
330415400198488	-0.7155856	-0.2391103	-0.36477414
330415408198488	-0.72780293	0.0034906615	-0.46251264
330415419198488	-0.7906348	0.41713405	-0.57595915
330415429198488	-0.9930932	0.71733093	-0.6422817
330415439198488	-1.3159794	0.8691747	-0.675443
330415591098488	-1.2531475	0.928516	-0.73129356
330415591198488	-0.7941255	0.8988453	-0.79936147
330415591298488	-0.15707977	1.1519183	-0.64053637
330415591398488	0.35255682	1.1938063	-0.928516
330415591498488	1.1972969	0.1588251	-0.7731815
330415591598488	1.0629064	-0.15184377	-0.5567605
330415591698488	2.3823764	1.118757	0.087266535
330415591798488	3.223626	3.0525835	0.2722716
330415591898488	3.6372693	1.9216092	1.2548928
330415591998488	2.9635715	0.040142607	1.8936839
330415609198488	2.8693237	-2.9304104	2.1031237
330415619198488	2.801256	-2.9007397	2.3666685
330415629198488	2.8780503	-1.0227638	2.5464375
330415642098488	2.775076	0.7731815	2.6232321
330415655098488	2.7349334	2.099633	2.4836056
330415665098488	2.8832865	2.516767	2.0664716
330415816998488	2.7523866	1.8186346	1.5446178
330415817098488	2.2165701	-0.4817113	1.0716331
330415817198488	1.9704784	-1.9669877	1.4241899
330415817298488	1.8657585	-2.24275	2.537711
330415817398488	2.0071304	-3.5534935	2.816964
330415817498488	2.6319587	-3.8641622	2.2828927
330415817598488	2.6668653	-3.2742405	1.609195
330415817698488	2.1170862	-3.0002236	1.2356942
330415817798488	1.6685362	-2.9408822	1.4381526
330415817898488	1.1362103	-3.207918	1.392774
330415837198488	0.6422817	-3.2951844	1.3281966
330415845198488	0.469494	-3.1939552	1.298526
330415859198488	0.120427825	-3.054329	1.2548928
330415869198488	-0.17453307	-2.816964	1.2025329
330415879198488	-0.49043795	-2.5743628	1.129229
330416041098488	-0.8220508	-2.0874157	1.0524344
330416041198488	-1.3788112	-1.4625871	1.0157825
330416041298488	-2.1659555	-0.5951578	0.9878572
330416041398488	-2.9513543	0.17802374	0.82554144
330416041498488	-3.831001	1.2915448	0.46251264
330416041598488	-4.0386953	2.2497313	-0.040142607
330416041698488	-3.3091471	2.000149	-1.123993
330416041798488	-1.7400948	0.938988	-1.7540574
330416041898488	0.043633267	0.44505933	-1.2793274
330416041998488	0.86044806	-0.93375194	0.1535891
330416059198488	1.0332358	1.3892833	0.22514766
330416070098488	0.62308306	2.6825733	0.2722716
330416079198488	-0.3071782	4.2341723	-0.14486246
330416090098488	-0.7504922	4.869473	-0.9669132
330416099198488	-0.9267706	3.8432183	-1.762784
330416142098488	-1.0018198	2.1572287	-1.9128824
330416142198488	-1.0873411	0.3735008	-1.841324
330416142298488	-1.530655	-0.6195924	-1.2723461
330416142398488	-2.7611132	0.6091204	-0.22863832
330416226598488	-2.4050658	3.1363595	0.26354495
330416226698488	-1.9774598	2.2706754	0.10297451
330416226798488	-1.176353	0.8482307	-0.70162296
330416226898488	-1.0524344	-0.46774864	-1.76802
330416226998488	-1.4817858	-0.9808759	-1.9792051
330416246198488	-2.0245836	0.06283191	-1.4032459
330416254198488	-2.0507636	1.3334327	-1.1362103
330416262198488	-2.0804343	2.6773374	-0.91106266
330416273098488	-2.0071304	3.598872	-0.7155856
330416285098488	-1.6336296	4.1085086	-0.5009099
330416293098488	-1.1588997	3.61458	-0.36477414
330416446998488	-0.65624434	2.131049	-0.21293035
330416447098488	-0.5393072	0.9093173	-0.078539886
330416447198488	-0.7592189	1.3648486	-0.019198637
330416447298488	-0.7871442	1.7208961	-0.06457724
330416447398488	-0.68766034	1.2095143	-0.0907572
330416447498488	-0.6195924	0.50265527	-0.087266535
330416447598488	-0.58294046	-0.1867504	-0.10471985
330416447698488	-0.6422817	-0.42411536	-0.17104241
330416447798488	-0.84648544	-0.27052626	-0.25656363
330416447898488	-0.94422394	0.11693716	-0.4764753
330416466198488	-1.1746076	0.70162296	-0.6684617
330416478098488	-1.3910286	0.86568403	-0.68766034
330416489198488	-1.31947	0.84997606	-0.78190815
330416499198488	-0.9669132	1.0873411	-0.8691747
330416658098488	-0.4886926	1.3683393	-0.912808
330416658198488	-0.06457724	0.88313735	-0.77492684
330416658298488	0.19373171	-0.043633267	-0.459022
330416658398488	0.81332415	0.43982336	-0.017453307
330416658498488	0.9826212	1.0402172	0.23387432
330416658598488	1.7819827	1.4364072	0.25132763
330416658698488	2.7419145	1.5062205	-0.14660779
330416658798488	3.5692015	1.118757	0.35255682
330416658898488	3.4644816	0.5567605	1.0960677
330416658998488	2.9164476	-2.0490184	1.7156601
330416676198488	2.8099825	-3.045602	2.1101048
330416685198488	2.892013	-1.8797212	2.300346
330416693198488	2.9112117	-0.72431225	2.4120471
330416701198488	2.8832865	0.3054329	2.448699
330416712098488	2.8937583	1.123993	2.3771405
330416725098488	2.8832865	1.7750014	2.042037
330416870998488	2.7454052	1.8116534	1.6179216
330416871098488	2.490587	1.0105464	1.2514021
330416871198488	2.1397755	-1.0053105	1.2252222
330416871298488	1.9216092	-2.9600809	2.1275582
330416871398488	1.9250998	-4.120726	2.949609
330416871498488	2.310818	-3.5290587	2.7366786
330416871598488	2.3404884	-3.4766989	1.8657585
330416871698488	2.2357688	-3.6494865	1.4206992
330416871798488	1.7418401	-3.3929229	1.3072528
330416871898488	1.0646517	-3.371979	1.3247061
330416890198488	0.31939554	-3.045602	1.4049913
330416898198488	0.078539886	-2.965317	1.4451338
330416906198488	-0.13439047	-2.9164476	1.4713138
330416917098488	-0.3071782	-2.9007397	1.4905125
330416929198488	-0.73478425	-2.6930454	1.5184377
330417089098488	-1.0541798	-2.495823	1.4538605
330417089198488	-1.6336296	-1.8587773	1.3439047
330417089298488	-2.2043529	-1.0524344	1.1170117
330417089398488	-2.8064919	-0.18500505	0.8674294
330417089498488	-3.2515512	0.47298464	0.5777045
330417089598488	-3.2847126	1.0559251	0.06981323
330417089698488	-2.5516737	1.3212154	-0.8237961
330417089798488	-1.1170117	1.1833342	-1.37183
330417089898488	1.0384718	-0.2600543	-0.66148037
330417089998488	1.2706008	-0.664971	0.15184377
330417107198488	0.7470016	1.4381526	0.29321557
330417116198488	0.2548183	2.19039	0.3176502
330417129198488	-0.72780293	3.5465121	-0.08377588
330417141098488	-1.3089981	4.7246103	-1.0140371
330417274898488	-1.4660778	4.359836	-2.131049
330417274998488	-1.5044751	3.181738	-2.5028043
330417275098488	-0.8272868	-0.2617996	-2.7611132
330417275198488	-1.4643325	-1.1449369	-0.9773852
330417275298488	-1.5446178	2.6371949	0.33684883
330417275398488	-2.2776566	4.026478	0.8674294
330417275498488	-1.7034428	1.392774	0.13788113
330417275598488	-1.1362103	-0.459022	-0.9826212
330417275698488	-1.0576705	-0.33161286	-1.8849572
330417293198488	-1.7767467	1.387538	-1.809908
330417305098488	-1.7523121	2.0228384	-1.3037621
330417319198488	-1.4224446	1.6441016	-0.09599319
330417329198488	-1.2182409	1.5079658	0.23561965
330417481098488	-0.96167725	1.7121694	0.48694727
330417481198488	-0.7836535	1.8849572	0.5637418
330417481298488	-0.6684617	2.0769436	0.3700101
330417481398488	-0.7539829	1.6109403	0.0052359924
330417481498488	-0.84997606	1.1955515	-0.008726654
330417481598488	-0.68766034	1.4329165	-0.034906615
330417481698488	-0.6353004	1.2653648	0.034906615
330417481798488	-0.7400202	0.928516	0.078539886
330417481898488	-0.685915	0.67195237	0.04886926
330417481998488	-0.57595915	0.83950406	-0.06457724
330417502198488	-0.60562974	1.0122918	-0.19373171
330417510198488	-0.63704574	1.0279998	-0.25656363
330417519198488	-0.67718834	0.9756399	-0.32812217
330417529198488	-0.7731815	1.0000745	-0.45727664
330417539198488	-0.81332415	0.9354973	-0.6178471
330417549198488	-0.75223756	0.74176556	-0.7330389
330417707098488	-0.68766034	0.54279786	-0.82554144
330417707198488	-0.5602512	0.6213378	-0.86044806
330417707298488	-0.3124142	0.7574735	-0.7941255
330417707398488	-0.21118502	0.49916458	-0.7260576
330417707498488	-0.108210504	0.34732082	-0.65449905
330417707598488	0.14660779	0.1535891	-0.6684617
330417707698488	0.53581655	0.1361358	-0.6579897
330417707798488	1.4625871	1.0541798	-0.3752461
330417707898488	2.099633	0.24085565	0.0034906615
330417707998488	2.5202577	-0.26529026	0.7609642
330417723198488	2.516767	0.68067896	1.37183
330417731198488	2.5499282	0.90059066	1.6214123
330417742098488	2.5848348	0.73478425	1.7400948
330417755098488	2.6075242	0.21467568	1.7592934
330417763098488	2.4574256	-0.07155856	1.7959453
330417775098488	2.0228384	-0.026179962	1.9181185
330417923998488	1.7592934	-0.10471985	1.8640132
330417924098488	1.7034428	-0.5742138	1.5132017
330417924198488	2.0298197	-1.2601289	0.81332415
330417924298488	2.0071304	-1.2356942	0.54803383
330417924398488	1.6929709	-1.1170117	1.2322035
330417924498488	1.4364072	-1.4852765	1.841324
330417924598488	1.2671101	-2.0228384	2.179918
330417924698488	1.4573512	-2.3317618	2.1572287
330417924798488	1.7261322	-2.485351	2.0298197
330417924898488	1.8273613	-2.3561964	1.6894802
330417944198488	1.5289097	-3.0578194	1.7156601
330417952198488	1.3631033	-3.0595648	1.6667908
330417969198488	1.2548928	-2.8309264	1.3857926
330417979198488	1.2444208	-2.9304104	1.2060236
330417988198488	1.1798435	-3.029894	1.1466823
330418033098488	1.0489438	-3.1101794	0.9599319
330418033198488	0.68766034	-2.9007397	0.8587027
330418033298488	0.15707977	-2.4417176	0.6579897
330418049998488	-0.41189805	-1.8605226	0.48520195
330418128698488	-0.9372426	-1.3089981	0.43982336
330418128798488	-1.4154632	-0.88313735	0.3804821
330418128898488	-1.9460437	-0.5375619	0.30194223
330418128998488	-2.3317618	-0.49567392	0.17802374
330418129098488	-2.5865803	-0.22340234	0.11519183
330418135998488	-2.701772	-0.0680679	0.06981323
330418149098488	-2.7733305	0.22863832	-0.23387432
330418159098488	-2.654648	0.21991168	-0.51312727
330418169198488	-2.2235513	0.5166179	-0.91106266
330418179198488	-1.4276806	0.52534455	-1.0576705
330418223098488	-0.76445484	0.4782206	-0.81332415
330418223198488	-0.23736498	-0.012217315	-0.34557548
330418223298488	0.21642101	-0.31415954	0.06457724
330418223398488	0.67195237	0.17278774	0.58643115
330418239998488	0.15184377	2.057745	0.73478425
330418305598488	-1.0245092	5.028298	-0.28623423
330418305698488	-1.4835311	5.796243	-2.099633
330418305798488	-0.71733093	1.6109403	-2.7087533
330418305898488	-0.7435109	-3.0176768	-2.131049
330418325198488	-2.2549672	0.7888895	0.3054329
330418333198488	-2.237514	2.7977653	0.7190763
330418344098488	-2.3282712	4.2568617	0.83601344
330418355098488	-2.417283	4.885181	0.59341246
330418365098488	-2.4382272	4.232427	-0.019198637
330418375098488	-2.3300166	2.923429	-0.75572824
330418386098488	-1.9704784	1.7697654	-1.4172086
330418394098488	-1.6877348	1.2287128	-1.8325973
330418403098488	-1.4870218	0.6126111	-1.9512798
330418405098488	-1.387538	0.28448892	-1.877976
330418414198488	-1.4521152	0.1815144	-1.6877348
330418472098488	-1.4416432	0.3246315	-1.2636194
330418472198488	-1.2688555	0.8883734	-0.89360934
330418472298488	-1.0192732	1.6755176	-0.5811951
330418472398488	-0.7941255	2.532475	-0.19024105
330418472498488	-0.9162986	2.823945	0.08377588
330418537498488	-1.1623902	3.118906	0.11868249
330418537598488	-0.9930932	2.4347365	0.19722238
330418537698488	-0.8883734	1.7418401	0.23038366
330418537798488	-0.80285215	1.3072528	0.087266535
330418558198488	-0.4886926	0.8063428	-0.031415954
330418569098488	-0.41189805	0.67718834	-0.055850584
330418579198488	-0.46076733	0.66671634	-0.036651947
330418589198488	-0.60388446	0.6998776	-0.02094397
330418599198488	-0.7679455	0.6579897	-0.061086576
330418608198488	-0.9197893	0.5497792	-0.14660779
330418620098488	-1.0471984	0.41713405	-0.3054329
330418779098488	-1.2391849	0.21642101	-0.65624434
330418779198488	-1.2740915	0.2617996	-0.938988
330418779298488	-1.2095143	0.3298675	-1.1082851
330418779398488	-1.118757	-0.226893	-1.3613579
330418779498488	-0.5270899	0.226893	-1.31947
330418779598488	0.078539886	0.5951578	-0.8569574
330418779698488	0.40491673	0.38746342	-0.2617996
330418779798488	0.79238015	0.7103496	0.17627841
330418779898488	1.0175278	0.85346675	0.3106689
330418779998488	2.0926516	1.5952322	0.040142607
330418797198488	3.1485767	2.026329	0.080285214
330418805198488	3.471463	1.8814665	0.33684883
330418819198488	3.3841963	0.8115788	1.082105
330418829198488	2.8989944	-0.35604748	1.6231576
330418839198488	2.7139893	-1.963497	1.9949131
330418849198488	2.71748	-3.5849094	2.1537383
330418858198488	2.8309264	-3.5465121	2.247986
330418867198488	2.9914968	-2.3055818	2.3631778
330418879198488	3.077018	-0.232129	2.359687
330418889098488	3.129378	0.9861119	2.2165701
330418958098488	3.234098	1.5917417	1.862268
330418958198488	3.21839	1.804672	1.4887671
330418958298488	2.808237	0.7871442	0.9773852
330418958398488	2.548183	-0.70685893	0.8883734
330418958498488	2.336998	-2.1013782	1.8186346
330419042598488	2.2287874	-3.2934391	2.5028043
330419042698488	2.4975684	-3.2044272	2.4364817
330419042798488	2.8152184	-3.1834834	1.6371202
330419042898488	2.5464375	-2.8675785	1.0943223
330419042998488	2.1537383	-2.808237	0.9826212
330419061198488	1.4119725	-2.5115309	1.0786144
330419069198488	1.0384718	-2.5569096	1.0716331
330419077198488	0.70162296	-2.4609163	1.1117756
330419089098488	0.41189805	-2.4678977	1.1484276
330419099198488	-0.04188794	-2.279402	1.2671101
330419109198488	-0.36477414	-2.0612357	1.34565
330419119198488	-0.65624434	-1.8535413	1.350886
330419271098488	-0.97389454	-1.6772629	1.350886
330419271198488	-1.3578674	-1.4346619	1.3369234
330419271298488	-1.7383494	-1.3334327	1.2880541
330419271398488	-2.1834087	-0.98436654	1.2932901
330419271498488	-2.6302135	-0.5410525	1.1327196
330419271598488	-2.8937583	0.84997606	0.6981323
330419271698488	-2.680828	1.7488214	-0.10995584
330419271798488	-2.2410047	1.593487	-1.061161
330419271898488	-1.387538	1.31947	-1.4870218
330419271998488	0.017453307	-0.3577928	-0.9651679
330419291198488	0.30368754	-0.18849573	-0.42760605
330419302098488	0.22165701	0.34208483	-0.22863832
330419315098488	-0.13788113	1.2880541	-0.11170117
330419325098488	-0.62657374	2.8326719	-0.19722238
330419335098488	-1.2863088	4.9899006	-0.8779014
330419343098488	-1.567307	5.5780773	-1.5324004
330419430598488	-1.6545736	4.0910554	-2.0228384
330419430698488	-1.377066	0.9756399	-2.1554835
330419430798488	-1.7540574	-0.5916671	-0.659735
330419430898488	-1.9792051	1.7208961	0.09773852
330419430998488	-1.8291066	3.3108923	0.4939286
330419431098488	-1.7139148	1.9146278	0.13788113
330419439198488	-1.6528282	1.0576705	-0.34383017
330419449198488	-1.7139148	0.41189805	-1.0227638
330419459198488	-1.7313681	0.08203054	-1.4189539
330419606098488	-1.7016975	0.226893	-1.5114565
330419606198488	-1.7959453	0.881392	-1.5132017
330419606298488	-1.8814665	1.7942001	-1.3177247
330419606398488	-1.747076	3.3178737	-1.1170117
330419606498488	-1.577779	4.269079	-0.65100837
330419606598488	-1.2863088	3.2009366	-0.029670622
330419606698488	-0.918044	1.7383494	0.061086576
330419606798488	-0.8237961	1.4015006	-0.08203054
330419606898488	-1.0297451	1.6196669	-0.006981323
330419606998488	-0.9826212	1.3491406	0.099483855
330419622098488	-0.6579897	0.99832916	0.12915447
330419630198488	-0.47472996	0.938988	0.10995584
330419637998488	-0.35604748	0.94422394	0.06981323
330419649098488	-0.31415954	0.9930932	0.010471985
330419659098488	-0.41538873	1.0227638	-0.059341244
330419669198488	-0.5637418	0.9965839	-0.14137179
330419680098488	-0.6824243	0.94073325	-0.19722238
330419753098488	-0.902336	0.69464165	-0.3351035
330419753198488	-1.139701	0.34732082	-0.5602512
330419753298488	-1.2409302	0.46251264	-0.65100837
330419753398488	-1.1850796	0.84997606	-0.8237961
330419753498488	-1.1257384	0.6387911	-1.1100304
330419836598488	-0.7190763	0.72780293	-1.0786144
330419836698488	-0.12391848	1.0454531	-0.7504922
330419836798488	0.34383017	0.6894056	-0.16580643
330419836898488	0.6195924	1.0541798	0.2548183
330419836998488	1.0786144	1.2880541	0.3001969
330419857198488	2.2410047	1.6231576	-0.040142607
330419865198488	2.6511574	1.7278775	-0.09773852
330419879198488	3.4121215	1.7051882	0.2094397
330419889198488	3.5796733	1.2636194	0.6143564
330419897198488	3.3196192	0.5550152	1.0332358
330420058098488	2.785548	-0.8272868	1.5498537
330420058198488	2.7820573	-3.249806	1.8954293
330420058298488	3.038621	-2.1991167	2.0717075
330420058398488	3.0368755	0.07504922	2.2514768
330420058498488	3.077018	1.2095143	2.1083596
330420058598488	2.839653	1.3945193	1.3805566
330420058698488	2.5342202	0.3630288	0.7871442
330420058798488	2.300346	-1.535891	1.2060236
330420058898488	2.1659555	-3.3632524	2.5761082
330420058998488	2.3195446	-3.656468	2.8693237
330420076198488	2.8379078	-3.3999043	2.4120471
330420088098488	2.850125	-3.66694	1.9076465
330420099198488	2.4626617	-3.583164	1.1676263
330420109198488	2.1991167	-3.4976428	1.1047944
330420119198488	1.9059012	-3.3266003	1.0855957
330420279098488	1.6109403	-3.0560741	1.1536636
330420279198488	0.9477146	-2.8099825	1.171117
330420279298488	0.3054329	-2.506295	1.1850796
330420279398488	-0.12915447	-2.3160539	1.2932901
330420279498488	-0.52534455	-2.2235513	1.3613579
330420279598488	-0.9424786	-1.9477891	1.3823019
330420279698488	-1.5166924	-1.34565	1.3281966
330420279798488	-2.2340233	-0.7609642	1.2077689
330420279898488	-2.9880064	-0.16231576	0.96865857
330420279998488	-3.5552387	0.7260576	0.65100837
330420297198488	-3.3492897	1.6441016	-0.23038366
330420305198488	-2.965317	1.7819827	-0.78190815
330420319198488	-2.0507636	1.8675039	-1.4590966
330420329198488	-0.91106266	2.2602034	-1.6022136
330420338198488	0.3577928	1.562071	-1.2723461
330420493098488	1.103049	-0.04712393	-0.4031714
330420493198488	1.2514021	-0.5742138	0.226893
330420493298488	0.912808	0.70162296	0.28274357
330420493398488	-0.11170117	2.74366	0.16231576
330420493498488	-1.3578674	5.06495	-1.5899963
330420493598488	-1.7226415	2.4155378	-2.4417176
330420493698488	-1.1170117	-0.5305805	-2.1537383
330420493798488	-2.1554835	-0.066322565	-0.55326986
