linearaccelerometer_timestamp	linearaccelerometer_x_data	linearaccelerometer_y_data	linearaccelerometer_z_data
710254984321659	-0.024686098	-0.087828636	-0.27725697
710254992622441	-0.10707593	-0.03265381	0.11000824
710255000923222	-0.10172963	-0.024704933	0.09449339
710255009224003	-0.2201972	0.08935833	0.01237154
710255017524784	0.09299636	-0.058971405	-0.42169
710255025825566	0.093096256	-0.060302734	-0.4118209
710255034126347	0.09113526	0.02372837	-0.47364187
710255042427128	0.12173724	0.015641212	-0.55668736
710255050727909	0.005973816	0.14439583	-0.66539574
710255059028691	-0.16307664	0.20621109	-0.77845335
710255067329472	-0.21297908	-0.06604481	-0.7459874
710255075630253	-0.20690227	-0.074020386	-0.7213125
710255083931034	-0.2310462	-0.03396511	-0.6968126
710255092231816	-0.1723299	-0.029254913	-0.52812386
710255100532597	-0.14346123	-0.0379858	-0.34539318
710255108833378	-0.15723395	-0.054442406	-0.28578806
710255117134159	-0.15766239	-0.11044884	-0.49472857
710255125434941	-0.15261889	-0.11363125	-0.48117685
710255133735722	-0.13441706	-0.016972542	-0.57040215
710255142036503	-0.07197428	0.0790596	-0.6702695
710255150337284	-0.0061485767	0.13337326	-0.76938105
710255158638066	0.051617384	0.15826797	-0.8025465
710255166938847	0.052784443	0.14636517	-0.7753053
710255175239628	0.0076203346	0.23946571	-0.82446337
710255183540409	-0.075155735	0.1363163	-1.0155869
710255191841191	-0.09740496	0.04155445	-1.0894113
710255200141972	-0.16366053	0.16933727	-1.0122571
710255208442753	-0.18363667	0.54489326	-0.7344122
710255216743534	-0.16582441	0.54046726	-0.73737097
710255225044316	-0.53722215	0.7244129	-0.10240364
710255233345097	-0.42132235	0.49904633	-0.06562185
710255241645878	-0.27528524	0.4573164	-0.11933899
710255249946659	-0.12639093	0.6170931	-0.11190939
710255258247441	-0.06272006	0.91154957	-0.070308685
710255266548222	-0.19329548	1.1622782	-0.17040157
710255274849003	0.26979566	0.7796478	-0.16258192
710255283149784	0.42514873	0.43447495	-0.07319498
710255291450566	0.084834695	0.52211094	0.1801734
710255299751347	-0.2787832	0.62052536	0.23268986
710255308052128	-0.341694	0.46877384	-0.04328966
710255316352909	-0.13616395	0.177948	-0.41432095
710255324653691	-0.1837877	0.15412235	-0.35694075
710255332954472	-0.06363642	0.12204647	0.00218153
710255341255253	-0.025998592	0.12096882	0.28507042
710255349556034	-0.06773591	0.121953964	0.33622646
710255357856816	-0.13686574	0.093491554	0.18568611
710255366157597	-0.13976431	0.13895416	0.11717749
710255374458378	-0.23464704	0.054875374	-0.13975525
710255382759159	-0.31950855	-0.012438297	-0.19704819
710255391059941	-0.3739972	-0.10481882	-0.31307507
710255399360722	-0.38462186	-0.17831945	-0.4708886
710255407661503	-0.34224057	-0.2106781	-0.60531807
710255415962284	-0.3571161	-0.17582464	-0.63775396
710255424263066	-0.17080438	-0.255836	-0.62021923
710255432563847	-0.17189443	-0.28803778	-0.63209105
710255440864628	-0.20896637	-0.3296914	-0.59916306
710255449165409	-0.22174323	-0.29408646	-0.6308675
710255457466191	-0.28089166	-0.4323125	-0.7525611
710255465766972	-0.26026475	-0.50487614	-0.8154526
710255474067753	-0.33449733	-0.6635537	-0.79536486
710255482368534	-0.34669232	-0.8135228	-0.54921246
710255490669316	-0.346622	-0.8968196	-0.35299206
710255498970097	-0.36089313	-0.85258627	-0.38829756
710255507270878	-0.33556557	-0.92407846	-0.34390736
710255515571659	-0.34335136	-0.88211346	-0.37767744
710255523872441	-0.282951	-0.7193947	-0.7382145
710255532173222	-0.2656201	-0.55746126	-0.7465954
710255540474003	-0.23717904	-0.45528078	-0.64620876
710255548774784	-0.20752978	-0.39326143	-0.5501995
710255557075566	-0.17735982	-0.36253977	-0.5086179
710255565376347	-0.15231597	-0.33694506	-0.53701496
710255573677128	-0.07574749	-0.40255785	-0.36712837
710255581977909	-0.020799637	-0.32143307	-0.28555202
710255590278691	0.016655684	-0.29509878	-0.31980658
710255598579472	0.08531642	-0.18896675	-0.3609681
710255606880253	0.29852927	-0.03444481	-0.49916887
710255615181034	0.3340912	-0.0100951195	-0.5307884
710255623481816	0.4278115	-7.247925E-5	-0.4979515
710255631782597	0.47047698	-0.057619095	-0.359519
710255640083378	0.50233746	-0.03195095	-0.3915105
710255648384159	0.5130398	-0.11336374	-0.26889038
710255656684941	0.48046744	-0.16941929	-0.27315187
710255664985722	0.50329506	-0.13717079	-0.3082285
710255673286503	0.53648806	-0.09938049	-0.51370144
710255681587284	0.49580157	-0.07633972	-0.49375534
710255689888066	0.4974283	-0.04159355	-0.52459097
710255698188847	0.47364438	-0.095395565	-0.6133256
710255706489628	0.4570545	-0.35273218	-0.7138696
710255714790409	0.45495796	-0.31495094	-0.742424
710255723091191	0.3845743	-0.51889277	-0.7327533
710255731391972	0.3993293	-0.5617223	-0.5364628
710255739692753	0.39964306	-0.5217905	-0.56646013
710255747993534	0.37318385	-0.5630951	-0.4414978
710255756294316	0.37842786	-0.52303076	-0.47264957
710255764595097	0.38906252	-0.46094704	-0.40484476
710255772895878	0.32778287	-0.27847147	-0.1905961
710255781196659	0.33365607	-0.17555857	-0.10185766
710255789497441	0.3522749	-0.1488924	-0.1274147
710255797798222	0.345757	-0.07526636	-0.072939396
710255806099003	0.36790442	-0.039642334	-0.07340145
710255814399784	0.4421519	-0.040980816	-0.11883783
710255822700566	0.5454383	0.149364	-1.2011032
710255831001347	0.56989336	0.14831781	-1.1985574
710255839302128	0.72678006	0.27317238	-0.6799431
710255847602909	0.6958842	0.27419853	0.48726225
710255855903691	0.64363205	0.20604181	1.2264543
710255864204472	0.68048596	0.12896538	1.0613542
710255872505253	0.43705142	-0.116652966	0.42404842
710255880806034	0.452134	-0.090358734	0.39727402
710255889106816	0.4793228	-0.1445427	0.5214472
710255897407597	0.47486544	-0.23192406	0.7936964
710255905708378	0.4590206	-0.32400084	0.99044466
710255914009159	0.5010723	-0.4749999	0.84505606
710255922309941	0.49308443	-0.43782473	0.81371975
710255930610722	0.5140977	-0.5038681	0.5497551
710255938911503	0.54133916	-0.54907465	0.26397133
710255947212284	0.5923102	-0.610446	0.0639534
710255955513066	0.66238475	-0.66129017	-0.02771473
710255963813847	0.7267264	-0.6739106	-0.075081825
710255972114628	0.72903395	-0.6498046	-0.09097433
710255980415409	0.7562759	-0.6693549	-0.4000392
710255988716191	0.8527472	-0.62093496	-0.3855257
710255997016972	0.92109334	-0.5466199	-0.23463392
710256005317753	0.93933296	-0.48083878	0.014324188
710256013618534	0.9309921	-0.4444189	0.28082705
710256021919316	0.93532825	-0.42552185	0.41362095
710256030220097	0.78728557	-0.4436903	0.4150529
710256038520878	0.75421333	-0.4500413	0.422719
710256046821659	0.7472819	-0.46322346	0.40475702
710256055122441	0.698745	-0.48405838	0.3685751
710256063423222	0.6146139	-0.49899864	0.3131523
710256071724003	0.61392117	-0.48407173	0.18266201
710256080024784	0.6083559	-0.5038476	0.064517975
710256088325566	0.53398633	-0.5320821	-0.003303051
710256096626347	0.46454084	-0.5367265	-0.059387684
710256104927128	0.45888805	-0.52796125	-0.124065876
710256113227909	0.47888458	-0.5381975	-0.117479324
710256121528691	0.4105475	-0.46295023	-0.3055153
710256129829472	0.38972306	-0.40219355	-0.21379042
710256138130253	0.40769744	-0.2964449	-0.14538431
710256146431034	0.43078303	-0.2002616	-0.13278532
710256154731816	0.45033956	-0.09000015	-0.17410326
710256163032597	0.47367954	0.05779648	-0.22407246
710256171333378	0.5142563	0.17011929	-0.17846537
710256179634159	0.49325383	0.20257473	-0.08728075
710256187934941	0.4387654	0.18843746	0.1461215
710256196235722	0.37921184	0.16620684	0.3071189
710256204536503	0.39506018	0.1466341	0.3176918
710256212837284	0.2774672	0.16752863	0.19511652
710256221138066	0.28914028	0.18223476	0.087977886
710256229438847	0.27597094	0.21894312	0.022718906
710256237739628	0.2585712	0.21236897	-0.11181784
710256246040409	0.23784614	0.17296124	-0.2659359
710256254341191	0.25514072	0.15541935	-0.25358534
710256262641972	0.28115082	0.1217742	-0.31557035
710256270942753	0.34368485	0.16901064	-0.20699692
710256279243534	0.34453326	0.2073226	-0.14448404
710256287544316	0.3762672	0.216928	-0.21928501
710256295845097	0.41393787	0.23363829	-0.3017788
710256304145878	0.46525645	0.26405382	-0.31145382
710256312446659	0.5321946	0.30101967	-0.22679329
710256320747441	0.5303319	0.34960318	-0.081460476
710256329048222	0.50805837	0.34228563	0.040700436
710256337349003	0.43683773	0.31716633	0.09000254
710256345649784	0.34719867	0.28482294	0.070605755
710256353950566	0.34881264	0.28304958	0.070397854
710256362251347	0.27089423	0.17064714	0.011873245
710256370552128	0.21953827	0.13068295	0.08499098
710256378852909	0.18124264	0.13859892	0.21164274
710256387153691	0.1552127	0.12938309	0.22577381
710256395454472	0.15355277	0.13202906	0.22226572
710256403755253	0.16129524	0.1369381	0.16105223
710256412056034	0.23288047	0.19214296	0.15441895
710256420356816	0.30433995	0.27082253	0.17413664
710256428657597	0.3683735	0.34064674	0.042779922
710256436958378	0.4242893	0.4311018	-0.03549385
710256445259159	0.42575788	0.43434286	-0.03967333
710256453559941	0.4506616	0.5411587	-0.11688089
710256461860722	0.445719	0.54072094	-0.11763048
710256470161503	0.336964	0.4638362	-0.24849176
710256478462284	0.2945401	0.38527918	-0.21979332
710256486763066	0.30305833	0.3288827	-0.087183475
710256495063847	0.29157853	0.337183	-0.09358692
710256503364628	0.2607659	0.22665215	0.12321329
710256511665409	0.2521295	0.24029064	0.108762264
710256519966191	0.21905357	0.13541842	0.11558914
710256528266972	0.26326942	0.11307144	0.08173561
710256536567753	0.30473042	0.10362625	0.036702633
710256544868534	0.296681	0.12123442	0.02188015
710256553169316	0.3407976	0.09663534	0.05218172
710256561470097	0.35015613	0.050056934	0.13967276
710256569770878	0.2757547	-0.009663105	0.17759562
710256578071659	0.27511996	-0.1015892	0.07292843
710256586372441	0.25349212	-0.07912111	0.057949066
710256594673222	0.25654948	-0.08949566	-0.033888817
710256602974003	0.218611	-0.12874985	-0.18221569
710256611274784	0.17729872	-0.149508	-0.22811985
710256619575566	0.21408588	-0.042572975	0.27729273
710256627876347	0.19945234	-0.020029545	0.25878334
710256636177128	0.23492634	0.081656456	0.33798075
710256644477909	0.29422957	0.13749361	0.12131834
710256652778691	0.2947362	0.14210749	-0.0035500526
710256661079472	0.25451076	0.107534885	0.059746265
710256669380253	0.2524761	0.054146767	0.13633204
710256677681034	0.2325291	0.0045695305	0.060675144
710256685981816	0.26493573	0.0060710907	-0.028499603
710256694282597	0.3452127	0.04812002	-0.13042259
710256702583378	0.39996094	0.08893013	-0.2149229
710256710884159	0.39862472	0.118106365	-0.24138021
710256719184941	0.35669369	0.14504766	-0.1930232
710256727485722	0.30134606	0.13299513	-0.19163275
710256735786503	0.26722974	0.09768057	-0.18651247
710256744087284	0.16826189	0.084605694	-0.20822906
710256752388066	0.07308531	0.0477767	-0.22790384
710256760688847	0.014598131	0.0074567795	-0.24339485
710256768989628	-0.013483703	0.03159523	-0.25811195
710256777290409	0.058356762	0.08622837	-0.13895845
710256785591191	0.045770824	0.1824789	0.049191475
710256793891972	0.06581038	0.24889326	0.07589817
710256802192753	0.08515239	0.24545193	-0.01635456
710256810493534	0.06088227	0.19957161	-0.12813711
710256818794316	-0.011341333	0.17284203	-0.19852352
710256827095097	-0.03458035	0.14217329	-0.2928114
710256835395878	-0.011666	0.12163973	-0.33170986
710256843696659	0.0018905997	0.120492935	-0.35278225
710256851997441	0.01039052	0.13840103	-0.3907895
710256860298222	0.012248337	0.17306137	-0.4280491
710256868599003	-0.0043287873	0.21816397	-0.41859627
710256876899784	-0.024609149	0.23387527	-0.43085623
710256885200566	-0.03518957	0.24477911	-0.32538795
710256893501347	-0.060759127	0.26846504	-0.25320053
710256901802128	-0.070592165	0.2847209	-0.26405144
710256910102909	-0.05951625	0.2986164	-0.2868924
710256918403691	-0.055472076	0.33844233	-0.16389608
710256926704472	-0.016771972	0.30897093	-0.11032057
710256935005253	-0.015271306	0.24460077	-0.14029169
710256943306034	-0.011178434	0.14492226	-0.14028358
710256951606816	-0.028753877	0.04641819	-0.1390047
710256959907597	-0.021624804	0.050680637	-0.14115238
710256968208378	-0.059904277	-0.07678223	-0.24940586
710256976509159	-0.016641438	-0.070495605	-0.24690771
710256984809941	5.8442354E-4	-0.012570858	-0.2168951
710256993110722	0.013431191	0.026051521	-0.17655659
710257001411503	0.013497591	0.01531744	-0.11828852
710257009712284	-0.003262937	-0.022872448	-0.023660183
710257018013066	-1.3780594E-4	-0.017251492	-0.027229786
710257026313847	-0.017981112	-0.037774563	0.18190861
710257034614628	-0.012951791	0.040592194	0.197577
710257042915409	0.04606402	0.06314373	0.19231987
710257051216191	0.10700101	0.048704147	0.14101696
710257059516972	0.12577486	0.024589062	0.0746727
710257067817753	0.09699041	-0.009150028	0.08348751
710257076118534	0.11723024	-0.07778931	0.075286865
710257084419316	0.12404728	-0.15158892	0.048090935
710257092720097	0.1315661	-0.15416622	0.04963684
710257101020878	0.08714461	-0.193995	0.08468914
710257109321659	0.066366315	-0.21086693	0.1140461
710257117622441	0.10349733	-0.19945002	-0.010324478
710257125923222	0.13553095	-0.1512003	0.02507925
710257134224003	0.17676127	-0.03720665	0.10030222
710257142524784	0.20738363	0.053832054	0.22930336
710257150825566	0.21402025	0.03747511	0.23584127
710257159126347	0.21821916	0.0899663	0.3334942
710257167427128	0.18442535	0.011214256	0.338799
710257175727909	0.19290286	-0.1288743	0.38808155
710257184028691	0.21709317	-0.22190523	0.4149537
710257192329472	0.16691548	-0.31085205	0.2719903
710257200630253	0.18526542	-0.3299594	0.28280497
710257208931034	0.35822338	-0.45940542	0.08574009
710257217231816	0.33714616	-0.5176377	0.089141846
710257225532597	0.30805647	-0.6126795	0.15367413
710257233833378	0.38061124	-0.6782055	0.21072769
710257242134159	0.3944131	-0.69740295	0.2269001
710257250434941	0.44375402	-0.6882305	0.174891
710257258735722	0.446988	-0.6297536	0.06138897
710257267036503	0.42852736	-0.5666456	-0.015365601
710257275337284	0.4403959	-0.3863802	0.10133886
710257283638066	0.4252509	-0.34669304	0.1778388
710257291938847	0.42354262	-0.38316393	0.20608425
710257300239628	0.4350649	-0.39309025	0.25944757
710257308540409	0.41591918	-0.43956566	0.32474804
710257316841191	0.34292638	-0.5018883	0.38509417
710257325141972	0.22263598	-0.50723505	0.22364664
710257333442753	0.19145054	-0.49559498	0.3071761
710257341743534	0.18880498	-0.5458827	0.34895658
710257350044316	0.19841796	-0.51007605	0.49099636
710257358345097	0.19828254	-0.4529786	0.51396465
710257366645878	0.19443202	-0.38726807	0.3361659
710257374946659	0.22133774	-0.26336622	-0.3608632
710257383247441	0.22098416	-0.32784176	-0.2965951
710257391548222	0.12859762	-0.34319735	-0.45140457
710257399849003	0.11175293	-0.33694124	-0.30864382
710257408149784	0.098573625	-0.28257513	-0.061439514
710257416450566	0.028870523	-0.199543	0.059840202
710257424751347	-0.055360556	-0.16453218	-0.060802937
710257433052128	-0.022681117	-0.17446947	-0.17142153
710257441352909	-0.062309444	-0.14081192	-0.22898626
710257449653691	-0.088979304	-0.072229385	-0.22862673
710257457954472	-0.07046157	0.024821281	-0.1473608
710257466255253	-0.010572791	0.14978647	-0.024730206
710257474556034	0.06365958	0.30207396	-0.0035057068
710257482856816	0.03943205	0.44753313	-0.07295036
710257491157597	0.032179743	0.56722784	-0.30100298
710257499458378	-0.0428586	0.6348157	-0.51144123
710257507759159	-0.12091145	0.6373253	-0.6328726
710257516059941	-0.16258547	0.60583925	-0.73551226
710257524360722	-0.22891372	0.7023363	-1.2153082
710257532661503	-0.22851151	0.6555457	-1.1587791
710257540962284	-0.1925335	0.74381256	-1.047286
710257549263066	-0.16036007	0.8145466	-0.87345505
710257557563847	-0.15498516	0.86908674	-0.74671125
710257565864628	-0.15640554	0.9625888	-0.56950283
710257574165409	-0.14704674	0.9355092	-0.5378752
710257582466191	-0.08966386	0.8332014	-0.4776144
710257590766972	-0.17714271	0.5616689	-0.5287094
710257599067753	-0.3181473	0.21993399	-0.55909634
710257607368534	-0.38562062	-0.13229656	-0.46803284
710257615669316	-0.36167058	-0.46433353	-0.28187847
710257623970097	-0.45519575	-0.77098083	-0.23799133
710257632270878	-0.5774455	-1.0982118	-0.2199626
710257640571659	-0.6262364	-1.4124656	-0.15761566
710257648872441	-0.5924692	-1.6005526	-0.11821604
710257657173222	-0.47813705	-1.6293101	-0.108388424
710257665474003	-0.3259604	-1.5182714	-0.078359604
710257673774784	-0.25524503	-1.3174529	0.07056141
710257682075566	-0.27979586	-1.1223502	0.17248201
710257690376347	-0.20080635	-0.9783573	0.26068544
710257698677128	-0.14309373	-0.8138037	0.3867345
710257706977909	-0.031931907	-0.63735676	0.6032176
710257715278691	0.015351221	-0.6731186	0.65870523
710257723579472	0.40895653	-0.3730774	1.3844123
710257731880253	0.3371292	-0.2774353	1.2890153
710257740181034	0.63357794	-0.2107029	1.047934
710257748481816	0.88481385	-0.19949245	0.8306074
710257756782597	1.0058337	-0.29782104	0.64677763
710257765083378	1.1096448	-0.52674484	0.4570098
710257773384159	1.2073702	-0.81931305	0.35917902
710257781684941	1.4070472	-1.0780954	0.17842817
710257789985722	1.5228636	-1.1702929	-0.41451216
710257798286503	1.5479844	-1.225215	-0.3008232
710257806587284	2.5889878	-2.170825	-0.2586398
710257814888066	2.629426	-2.2147293	-0.15453005
710257823188847	4.806709	-3.471837	4.2732954
710257831489628	3.2133436	-2.6198606	1.0781121
710257839790409	1.8011463	-1.9765015	-1.2554779
710257848091191	1.9659637	-1.9982967	-1.170815
710257856391972	-0.24409819	-1.5886946	-2.7636948
710257864692753	-0.01629877	-1.5940456	-2.6804426
710257872993534	-2.150548	-2.1980886	0.757771
710257881294316	-1.9087677	-1.8819485	1.7737107
710257889595097	-1.4151942	-1.4207249	2.4616442
710257897895878	-0.6510196	-1.1707067	3.102556
710257906196659	-0.4547181	-1.0872145	3.0175653
710257914497441	-0.061751127	-1.1907587	2.4136415
710257922798222	0.13536644	-0.96536064	0.65383387
710257931099003	0.63516235	-1.0771999	0.12689328
710257939399784	0.7493608	-1.2966824	0.1581099
710257947700566	0.7226136	-1.7929716	0.120684385
710257956001347	0.83903193	-1.7626915	0.15251064
710257964302128	-0.036034107	-2.4113445	-0.85422015
710257972602909	-0.97726655	-2.1829872	-1.3982401
710257980903691	-1.7605731	-2.0045643	-1.6990895
710257989204472	-2.1220584	-1.6936421	-1.4374979
710257997505253	-1.9555969	-1.6197963	-1.4270566
710258005806034	-1.910121	-1.294982	-1.2657094
710258014106816	-1.7340252	-1.0525331	-1.3203518
710258022407597	-1.8650284	-1.0157204	-0.8897946
710258030708378	-1.6397629	-1.0005431	-0.49417877
710258039009159	-1.5836024	-0.7992697	-0.2952149
710258047309941	-1.4753671	-0.7300019	-0.30556965
710258055610722	-1.4355369	-0.6699977	-0.12132645
710258063911503	-1.5020881	-0.83115244	0.13645744
710258072212284	-1.8530755	-1.0541997	0.40636873
710258080513066	-2.4719644	-1.2068872	-0.162076
710258088813847	-2.8594751	-0.9552541	-0.15108395
710258097114628	-2.773622	-0.9164796	-0.11501145
710258105415409	-3.2302008	-0.66376925	-0.06016183
710258113716191	-3.5723963	-0.31794262	-0.38318658
710258122016972	-3.3689718	0.47057152	-0.8906386
710258130317753	-3.3252783	0.49422884	-0.8844838
710258138618534	-3.0931444	0.4728117	-0.048856497
710258146919316	-3.1154823	0.6915941	0.5525477
710258155220097	-2.86438	0.8145561	1.0568118
710258163520878	-2.2585497	0.73920345	1.3212686
710258171821659	-1.7042456	0.62225866	1.035825
710258180122441	-1.5419149	0.39951897	0.59148383
710258188423222	-1.5949697	0.17461061	-0.124465704
710258196724003	-1.5086527	0.041123867	-0.8680315
710258205024784	-1.2765117	-0.0030965805	-1.3792262
710258213325566	-1.1437407	0.024825096	-1.5176854
710258221626347	-1.4082899	0.09781456	-1.3263369
710258229927128	-2.1482105	0.3320365	-0.4942975
710258238227909	-2.0978413	0.35755062	-0.47353387
710258246528691	-2.207697	0.5819669	-0.6073954
710258254829472	-2.1955066	0.8419328	-1.0259714
710258263130253	-2.1262631	1.0801764	-1.3789933
710258271431034	-2.3703594	0.9220476	-0.77502275
710258279731816	-2.7188258	0.7227316	-0.58469915
710258288032597	-2.662085	0.7515273	-0.5561149
710258296333378	-3.002079	0.74862146	-0.9490838
710258304634159	-3.1112533	0.7803807	-1.4189656
710258312934941	-3.031485	0.774848	-1.6445796
710258321235722	-3.127892	0.8370991	-1.7861884
710258329536503	-3.0993848	0.8330655	-1.7339475
710258337837284	-3.1834254	0.95919704	-1.6519756
710258346138066	-2.9821768	1.1207151	-1.4409444
710258354438847	-2.6182046	1.1766167	-1.2838211
710258362739628	-2.2326293	1.083251	-1.0228586
710258371040409	-1.8620749	0.9132991	-0.37454867
710258379341191	-1.5103617	0.78403854	-0.46479416
710258387641972	-1.3400602	0.5286441	-0.39128304
710258395942753	-1.0062642	0.33799314	-0.50030446
710258404243534	-0.719985	0.12545776	-0.35946655
710258412544316	-0.5976081	-0.13146496	-0.2933643
710258420845097	-0.516881	-0.3427	-1.2576115
710258429145878	-0.55723906	-0.60753727	-1.7919223
710258437446659	-0.39386368	-0.4769125	-1.3886709
710258445747441	-0.4348607	-0.27850628	-0.8763592
710258454048222	-0.6089978	-0.095466614	-0.6216872
710258462349003	-0.78606033	0.16971874	-0.5822265
710258470649784	-0.7870364	0.16655302	-0.579345
710258478950566	-0.8974004	0.9044385	-0.35338163
710258487251347	-0.8135481	1.2198892	-0.4896798
710258495552128	-0.47105885	1.2531519	-0.45599937
710258503852909	-0.33611155	1.2790737	-0.2570207
710258512153691	-0.28511763	1.538127	0.41379
710258520454472	-0.3058219	1.5277219	0.38771892
710258528755253	0.9481664	2.540719	0.07730174
710258537056034	1.3597617	3.0570078	-0.7753911
710258545356816	1.6344585	3.0927958	-1.2810504
710258553657597	1.6057806	3.0479655	-1.231251
710258561958378	1.8180866	2.0638247	-1.9754281
710258570259159	1.8022971	2.0193338	-1.8876076
710258578559941	1.3936052	1.234909	-1.8140125
710258586860722	1.5417943	1.8281155	-2.5970018
710258595161503	1.7406311	1.8747659	-1.8836048
710258603462284	1.7556767	1.8625703	-1.8097482
710258611763066	2.0762663	1.210012	-1.7346573
710258620063847	2.1009407	1.2179217	-1.6927152
710258628364628	1.6075745	0.815845	-1.10623
710258636665409	1.6410956	0.84485817	-1.1112716
710258644966191	0.91466	0.49220467	-0.9572923
710258653266972	0.6684027	0.45257664	-0.69019246
710258661567753	0.7124691	0.49983788	-0.7259178
710258669868534	0.552711	0.45979118	-0.12203121
710258678169316	0.07030153	0.35194778	-0.20334768
710258686470097	-0.078650475	0.28437185	-0.51216984
710258694770878	-0.4207182	0.14131594	-0.658422
710258703071659	-0.8174019	-0.07179499	-0.6824949
710258711372441	-0.7689495	-0.02549553	-0.69624376
710258719673222	-1.0966125	-0.23410797	-0.64138913
710258727974003	-1.5062456	-0.43899965	-0.30259132
710258736274784	-1.7288165	-0.48372555	-0.26037502
710258744575566	-1.9451113	-0.52477264	-0.20481253
710258752876347	-1.8863573	-0.45539236	-0.24559236
710258761177128	-2.033279	-0.5371194	-0.18124366
710258769477909	-2.1032953	-0.6669183	-0.13506389
710258777778691	-2.3212156	-0.78552485	0.044300318
710258786079472	-2.2776246	-0.7329111	0.017818928
710258794380253	-2.6741314	-0.6209407	-0.28124022
710258802681034	-2.6408334	-0.5828161	-0.29813313
710258810981816	-2.573742	-0.43698645	-0.2545929
710258819282597	-2.397437	-0.28727913	-0.068491936
710258827583378	-2.3789034	-0.270504	-0.07191682
710258835884159	-2.4526649	-0.25037527	0.1757021
710258844184941	-2.5348153	-0.31319237	0.17894697
710258852485722	-2.542632	-0.33820295	0.07728076
710258860786503	-2.6707368	-0.27518797	-0.11030674
710258869087284	-2.9998627	-0.076631546	-0.2709682
710258877388066	-2.969111	-0.07514143	-0.21037793
710258885688847	-3.3960476	0.94382477	0.13337445
710258893989628	-3.42351	1.4327993	0.43041396
710258902290409	-3.6334314	1.720748	0.4475975
710258910591191	-3.6879334	1.7990007	0.36145687
710258918891972	-3.3787541	1.6405182	0.38802505
710258927192753	-3.075148	1.1718111	0.48915243
710258935493534	-3.1368713	1.4279695	0.12654376
710258943794316	-2.9661698	1.4967437	0.22183287
710258952095097	-2.6381545	1.2212691	0.45175982
710258960395878	-2.40879	0.686748	0.47424304
710258968696659	-2.3645487	0.07882881	0.17541814
710258976997441	-2.3445697	0.060021877	0.3811159
710258985298222	-1.0666213	-0.9414563	-0.7074724
710258993599003	1.3242493	-1.3273773	0.5746581
710259001899784	3.8059359	-1.8886242	2.0594835
710259010200566	3.9274712	-2.108447	2.006781
710259018501347	3.8712473	-2.1618514	2.18261
710259026802128	1.2954006	-1.6968875	0.39930302
710259035102909	1.1074729	-0.8299389	-0.5080161
710259043403691	1.0428252	-1.0370612	-1.4074383
710259051704472	0.9131198	-1.4589438	-1.4673269
710259060005253	1.0999751	-1.8447337	-1.3120085
710259068306034	1.6797738	-2.0985827	-1.7630744
710259076606816	1.8620024	-2.338357	-2.0244231
710259084907597	2.3796062	-2.6901498	-2.4272592
710259093208378	1.9512138	-2.623529	-2.5773437
710259101509159	0.24769115	-1.9978576	-2.1825237
710259109809941	-1.2733746	-1.266716	-1.5239477
710259118110722	-1.3444338	-0.7682171	-1.1004101
710259126411503	-1.0442057	0.05617428	-1.2694584
710259134712284	-1.7546239	0.5041652	-0.9569015
710259143013066	-1.7516851	0.6600361	-0.3613941
710259151313847	-1.6693468	1.0194526	0.27549207
710259159614628	-2.3182182	1.8249598	3.2184982
710259167915409	-3.5211458	2.6754003	7.5470552
710259176216191	-2.5958066	1.9685683	1.6640716
710259184516972	-1.967164	2.689014	1.2733414
710259192817753	-2.9329386	2.2910619	0.028380245
710259201118534	-3.589717	1.0795188	-1.5719533
710259209419316	-3.2992897	-0.20188951	-2.317388
710259217720097	-3.2505522	-0.16000032	-2.2822773
710259226020878	-1.253994	-1.3977141	-0.6660861
710259234321659	-0.9680619	-1.1620631	0.2564737
710259242622441	-0.73505974	-0.8837886	1.1292872
710259250923222	-0.49016142	-1.076108	2.1543362
710259259224003	0.08279562	-1.3066115	2.4604897
710259267524784	0.5570574	-0.815835	1.0854666
710259275825566	-2.6520367	0.7201395	-1.769634
710259284126347	-0.38531637	0.59930134	-0.2637707
710259292427128	1.3908029	1.6867743	2.9192188
710259300727909	-0.88948345	1.7380247	2.9097521
710259309028691	-0.8483877	1.7929554	3.0106144
710259317329472	-0.40634918	1.2811546	2.639845
710259325630253	-0.2798481	1.940125	2.8671627
710259333931034	0.84626436	1.2341394	2.5705764
710259342231816	1.1034708	0.54270697	2.5279093
710259350532597	0.90541077	-0.3899846	2.6726866
710259358833378	0.9362564	-1.3663478	2.637236
710259367134159	1.6231699	-1.9246378	2.221208
710259375434941	2.326517	-1.6715789	2.4054255
710259383735722	2.9321313	-1.4048038	0.65213346
710259392036503	2.890923	-1.3794508	0.8647895
710259400337284	3.316042	-1.4311657	-1.0130699
710259408638066	2.833959	-1.6302748	-1.1711054
710259416938847	2.7998896	-1.5817409	-0.9797504
710259425239628	1.1181989	-2.0440464	-0.24100375
710259433540409	0.70813227	-2.256091	0.61059
710259441841191	0.4431138	-2.0757093	1.2635562
710259450141972	0.4297886	-2.0585647	1.3158004
710259458442753	0.01086092	-1.8712058	1.3122437
710259466743534	-0.22589064	-1.530735	1.233475
710259475044316	0.4306507	-0.33487558	1.7386973
710259483345097	0.35431337	-0.27851343	1.4128225
710259491645878	0.35082674	-0.2833686	1.4063008
710259499946659	0.3177762	-0.49008274	1.0877388
710259508247441	0.30866003	-0.49818277	1.0885596
710259516548222	0.35925102	-0.53669834	0.9178636
710259524849003	0.56216097	-0.5683651	0.9935503
710259533149784	0.6994271	-0.6572504	0.70221806
710259541450566	0.6859379	-0.6673713	0.70754886
710259549751347	0.15741539	-0.7699199	0.015502691
710259558052128	0.15693426	-0.7666483	0.01894927
710259566352909	-0.0061302185	-0.80722857	0.10096598
710259574653691	-0.04730463	-0.8762245	0.7068181
710259582954472	-0.022944927	-0.8529496	0.6879566
710259591255253	-0.27540588	-0.470922	0.7308388
710259599556034	-0.6801181	0.18422174	0.65181637
710259607856816	-1.0952058	0.4961686	0.47221756
710259616157597	-1.2451124	0.36837578	0.44890952
710259624458378	-0.82569695	0.17096853	0.92917156
710259632759159	-0.3932066	0.11430502	1.1151183
710259641059941	-0.060483456	0.042531967	1.9101365
710259649360722	0.016259193	-0.13557816	1.7660308
710259657661503	0.22385645	-0.15783405	1.045512
710259665962284	0.5261035	-0.028418064	0.39193892
710259674263066	0.5283675	-0.039813995	0.3078308
710259682563847	0.69170475	-0.21148348	0.47354817
710259690864628	0.16049671	-0.10274792	0.66969323
710259699165409	-0.3224535	-0.04445839	0.6514802
710259707466191	-0.43429136	-0.04776764	0.45774984
710259715766972	-0.27160788	-0.13564348	0.2707703
710259724067753	-0.18293285	-0.36380482	0.24421072
710259732368534	-0.20155	-0.53795815	-0.11277628
710259740669316	-0.1609602	-0.67685986	-0.073361635
710259748970097	-0.06664801	-0.7738285	-0.18155885
710259757270878	0.009523869	-0.72049665	-0.11370754
710259765571659	-0.0656147	-0.57240486	0.26285934
710259773872441	-0.044580936	-0.55930805	0.22759151
710259782173222	-0.9340663	-0.2518983	1.0032742
710259790474003	-1.1647048	-0.042510033	1.07845
710259798774784	-0.79069376	0.18615818	1.1764603
710259807075566	-0.10245657	0.42561913	1.2324874
710259815376347	0.51758575	0.63469887	1.1735423
710259823677128	0.737391	0.75977945	0.97997665
710259831977909	0.47803164	0.83058214	0.607785
710259840278691	-0.1597786	0.5828533	0.32230926
710259848579472	-0.62230253	0.24767542	0.15866017
710259856880253	-0.93458366	-0.053062916	0.07940531
710259865181034	-1.1950097	-0.26507044	0.055038452
710259873481816	-1.4009199	-0.39067078	0.090691805
710259881782597	-1.5400124	-0.41372156	0.143785
710259890083378	-1.2330894	-0.2959981	-0.044014215
710259898384159	-0.76071215	-0.1321106	0.013368845
710259906684941	-0.33739138	0.025361061	0.19930124
710259914985722	-0.09595394	0.12495327	0.3728342
710259923286503	-0.05461836	0.12218857	0.574929
710259931587284	-0.073301315	-0.0020985603	0.56734395
710259939888066	-0.1483202	-0.06499052	0.59909844
710259948188847	-0.3151431	-0.15346193	0.61594176
710259956489628	-0.50503206	-0.1926527	0.56970143
710259964790409	-0.59408426	-0.15184355	0.45594645
710259973091191	-0.58959484	-0.1498971	0.44762444
710259981391972	-0.2945304	-0.21430206	0.4408524
710259989692753	-0.23121977	-0.2856574	0.45764208
710259997993534	-0.22059679	-0.26763105	0.3906052
710260006294316	-0.2175188	-0.26460838	0.38667655
710260014595097	-0.20364904	-0.191751	0.32559967
710260022895878	-0.22437382	-0.029069424	0.37169957
710260031196659	-0.41525412	0.024247646	0.36544538
710260039497441	-0.5317936	0.030249119	0.3795905
710260047798222	-0.6513858	0.023271084	0.40032482
710260056099003	-0.6546402	0.043540478	0.5390885
710260064399784	-0.6455102	0.049815178	0.5256722
710260072700566	-0.57106066	0.1486721	0.9721222
710260081001347	-0.40546465	0.26253748	0.47117352
710260089302128	-0.28753376	0.29925823	0.23971105
710260097602909	-0.10939741	0.2396512	0.2208488
710260105903691	-0.022325516	0.114706516	0.31335974
710260114204472	-0.061670303	-0.04335594	0.40703344
710260122505253	-0.063028336	-0.044886112	0.40755582
710260130806034	0.05228901	-0.22836208	0.44060636
710260139106816	-0.048187733	-0.17986584	0.27497292
710260147407597	-0.04691553	-0.17896748	0.2713232
710260155708378	0.086318016	-0.07030249	0.23651099
710260164009159	0.062073708	-0.13799953	0.45175004
710260172309941	0.06682825	-0.13379717	0.44246697
710260180610722	-0.405972	0.06518984	0.2523749
710260188911503	-0.49216795	0.12431908	0.22626388
710260197212284	-0.42473078	0.09542465	0.20227551
710260205513066	-0.42795944	0.081196785	0.041814446
710260213813847	-0.4145193	0.08570194	0.02654779
710260222114628	-0.6009903	0.13228035	-0.23454785
710260230415409	-0.41851377	-0.1357789	0.24304461
710260238716191	-0.2870698	-0.12677145	0.24074495
710260247016972	-0.28367758	-0.13008213	0.22548473
710260255317753	-0.13783646	0.07620382	0.28554714
710260263618534	-0.06643772	0.1675148	0.06430328
710260271919316	-0.11214876	0.17527008	-0.12206626
710260280220097	-0.17212057	0.13377762	-0.0076704025
710260288520878	-0.24676943	0.13646936	0.1625905
710260296821659	-0.241467	0.13477659	0.15284991
710260305122441	-0.45310307	0.13113976	0.37837255
710260313423222	-0.442101	0.13309574	0.36379564
710260321724003	-0.5242467	0.2678404	0.5017903
710260330024784	-0.50760746	0.2369399	0.356668
710260338325566	-0.4940319	0.2431202	0.3512478
710260346626347	-0.3977666	-0.026130676	-0.13467562
710260354927128	-0.38847494	-0.015926838	-0.11999345
710260363227909	-0.11293459	-0.082862854	-0.4134432
710260371528691	0.17770433	-0.2864957	-0.37419975
710260379829472	0.17456532	-0.27688646	-0.34983456
710260388130253	0.23042583	-0.19371462	0.11340511
710260396431034	-0.006043434	-0.11900616	0.45071518
710260404731816	-0.025971413	-0.02952385	0.53245485
710260413032597	0.16894484	0.085475445	0.3960954
710260421333378	0.31744432	0.1633215	0.20139122
710260429634159	0.33729124	-0.059696198	0.22308815
710260437934941	0.18639994	-0.15384722	0.28910208
710260446235722	0.02323389	-0.21010828	0.36856902
710260454536503	-0.076909065	-0.15622854	0.36365676
710260462837284	-0.08751297	-0.06255293	0.2728163
710260471138066	-0.04830265	-0.014164448	0.1690712
710260479438847	-0.069775105	0.10490036	0.1491903
710260487739628	-0.06585455	0.053147793	-0.69303787
710260496040409	0.116611004	-0.003955364	-1.599436
710260504341191	-0.339931	-0.2645316	-1.0501207
710260512641972	-0.82712984	-0.43018246	0.4128369
710260520942753	-0.4847803	0.06950617	1.8071179
710260529243534	-0.4767866	0.058550835	1.7470183
710260537544316	-0.4704075	0.04195261	1.2754205
710260545845097	-0.21587181	0.12139845	0.6840919
710260554145878	-0.05334997	0.12589788	0.26427662
710260562446659	-0.112487316	0.11227989	0.15917063
710260570747441	-0.28734016	0.22105455	0.35299218
710260579048222	-0.11587715	0.34354687	0.43614817
710260587349003	0.3882947	0.30594444	-0.007984281
710260595649784	0.39091682	0.20158148	-0.4239037
710260603950566	0.23077822	-0.021517277	-0.5552095
710260612251347	0.16162872	-0.26209545	-0.3569076
710260620552128	0.20486736	-0.35946846	0.015044332
710260628852909	0.12855959	-0.28955936	0.33406484
710260637153691	0.03218794	-0.080899715	0.31049502
710260645454472	0.042668343	0.08480024	0.19331229
710260653755253	0.10854435	0.097002506	0.071097136
710260662056034	0.19453049	0.002682209	0.015419841
710260670356816	0.18710709	-0.18074274	0.059795976
710260678657597	0.18626976	-0.17810535	0.05060911
710260686958378	0.11077976	-0.13750315	-0.054642677
710260695259159	-0.025008202	-0.029414177	-0.07729459
710260703559941	-0.22024345	-0.07446432	-0.1427846
710260711860722	-0.38946724	-0.2396493	-0.21693504
710260720161503	-0.6658735	-0.06136751	-0.123155
710260728462284	-0.6547327	-0.06138563	-0.1341492
710260736763066	-0.6942501	0.13145447	-0.12252307
710260745063847	-0.5867071	0.29024267	0.09922469
710260753364628	-0.5279627	0.42501783	0.7897513
710260761665409	-0.40927792	0.45705605	0.97406256
710260769966191	-0.40043736	0.4529705	0.9514499
710260778266972	0.09385204	0.15400696	-0.9680052
710260786567753	0.0729332	-0.21200037	-0.6033796
710260794868534	0.052581787	-0.44011116	-0.27453327
710260803169316	0.039121628	-0.48898935	-0.13092089
710260811470097	0.08169937	-0.43461227	-0.09421277
710260819770878	0.24186707	-0.3899083	0.005362749
710260828071659	0.45422935	-0.32875824	0.20182633
710260836372441	0.5710726	-0.19783497	0.45561397
710260844673222	0.62907124	-0.06993675	0.5028256
710260852974003	0.5878506	0.021833897	0.4736966
710260861274784	0.45689392	0.05689144	0.47430253
710260869575566	0.30719948	0.026629925	0.48850405
710260877876347	0.48836994	-0.03775406	0.45546794
710260886177128	1.094984	-0.17192793	0.4965576
710260894477909	1.7314873	-0.29114437	0.5256505
710260902778691	2.2089357	-0.38488913	0.43768775
710260911079472	2.4075298	-0.45769358	0.22329044
710260919380253	2.2343988	-0.51005316	-0.021276712
710260927681034	1.6283693	-0.5054798	0.020137072
710260935981816	1.2585135	-0.55386734	0.6597942
710260944282597	0.6726713	-0.598434	1.0407434
710260952583378	0.03511238	-0.57142496	1.288836
710260960884159	-0.21775723	-0.5384507	1.5421914
710260969184941	-0.19994926	-0.51618767	1.3364836
710260977485722	0.7667408	-0.7660394	1.6509424
710260985786503	0.780715	-0.74329805	1.0852745
710260994087284	0.71396446	-0.7307205	0.3929896
710261002388066	0.705101	-0.7213788	0.21623307
710261010688847	-0.28775024	-0.6227846	-1.0130496
710261018989628	-1.5087023	-0.2798605	-1.3129956
710261027290409	-2.563198	-0.054053783	-0.17525804
710261035591191	-2.6749496	0.17026615	1.0975753
710261043891972	-2.0911016	0.3565774	1.7938772
710261052192753	-2.1315994	0.3672781	1.566683
710261060493534	-0.31778812	0.78109694	1.8908608
710261068794316	-0.33047962	0.9900646	1.6248059
710261077095097	-0.7615948	1.0412254	1.3041787
710261085395878	-1.437314	0.9497795	1.0085769
710261093696659	-1.4960704	0.92948294	0.86550164
710261101997441	-2.5484982	0.2835989	0.7358351
710261110298222	-2.5980964	0.27309752	0.61160946
710261118599003	-2.6324139	-0.011054993	0.64798737
710261126899784	-2.338623	-0.06988716	0.575418
710261135200566	-1.4752021	3.2949448E-4	0.11406326
710261143501347	-0.8623557	0.19905424	-0.25346637
710261151802128	-0.55580807	0.3003149	-0.33538246
710261160102909	-0.4911008	0.3219781	-0.17626357
710261168403691	-0.5139036	0.31960773	0.08573294
710261176704472	-0.43787956	0.30750227	0.29933286
710261185005253	-0.05534935	0.28977442	0.36831594
710261193306034	-0.087842464	0.30279207	0.2899623
710261201606816	0.018669605	0.2845726	0.26234245
710261209907597	0.11210632	0.22781038	0.40564537
710261218208378	0.16059542	0.14520597	0.68381023
710261226509159	-0.026726246	0.08632803	0.7530565
710261234809941	-0.055194855	0.09512138	0.6937485
710261243110722	-0.07480192	0.09425783	0.43526173
710261251411503	-0.056662083	0.09991312	0.25882578
710261259712284	-0.007877827	0.05969286	0.1813922
710261268013066	0.058665752	-0.021193981	0.11978388
710261276313847	-0.09088898	-0.069756985	-0.13590717
710261284614628	-0.111558914	-0.07869291	-0.15810823
710261292915409	-0.235713	-0.07808256	-0.16980267
710261301216191	-0.1763959	-0.068247795	0.028788567
710261309516972	-0.07775831	-0.079015255	0.36973715
710261317817753	-0.10977745	-0.11985302	0.6449318
710261326118534	-0.3389101	-0.16545773	0.5640092
710261334419316	-0.48123932	-0.09176779	0.20996094
710261342720097	-0.47854614	-0.054228783	0.1405158
710261351020878	-0.37435913	-0.13174295	0.14491177
710261359321659	-0.28989124	-0.21001625	0.10782051
710261367622441	-0.29674292	-0.19957685	0.018889427
710261375923222	-0.2849598	-0.18764877	0.018698215
710261384224003	-0.28171444	-0.18528366	0.020404816
710261392524784	-0.25652218	-0.16399384	0.0738039
710261400825566	-0.3477931	-0.104547024	0.099453926
710261409126347	-0.49543285	-0.015276432	0.10800362
710261417427128	-0.5953069	0.061047077	0.14062738
710261425727909	-0.43134546	0.002028942	0.33629227
710261434028691	-0.4226508	0.012505531	0.3360486
710261442329472	-0.31390238	-0.057939053	0.26589394
710261450630253	-0.28826094	-0.113574505	0.11625385
710261458931034	-0.2919364	-0.16080713	0.014074802
710261467231816	-0.28754377	-0.20926762	0.007648945
710261475532597	0.21190834	-0.037089825	0.08471537
710261483833378	0.21512413	-0.04624796	0.09960604
710261492134159	0.6341429	0.15506554	0.11195421
710261500434941	0.6994405	0.33695316	0.28204012
710261508735722	0.5077143	0.4073391	0.5797272
710261517036503	0.28872108	0.37188148	0.8971572
710261525337284	0.186625	0.5007868	1.2406988
710261533638066	0.68133974	0.6562257	1.630734
710261541938847	1.2195778	0.6661725	1.9156938
710261550239628	1.7400107	0.65829897	2.019536
710261558540409	2.150158	0.6223521	1.9256048
710261566841191	2.4011912	0.51292753	1.6583948
710261575141972	2.5892992	0.3745489	1.2856588
710261583442753	2.6582642	0.25205564	0.9147301
710261591743534	2.6449037	-0.13024902	0.6654444
710261600044316	2.3768	-0.666687	0.32298708
710261608345097	2.2766657	-1.083919	0.111754894
710261616645878	2.8117037	-1.1948514	0.110880375
710261624946659	3.9101925	-1.1348948	-0.34169745
710261633247441	4.0632467	-1.4448805	-0.42714143
710261641548222	3.6908898	-1.7000556	-0.4269755
710261649849003	3.1570582	-1.8716455	-0.47247696
710261658149784	2.6214776	-1.9990945	-0.5430491
710261666450566	2.5774422	-2.083242	-0.47036505
710261674751347	1.8209214	-2.2741203	-0.60493183
710261683052128	1.604928	-2.429646	-0.3222015
710261691352909	1.6782932	-2.6784978	0.06777096
710261699653691	1.8172226	-2.9471712	0.07186222
710261707954472	1.7820821	-3.0130067	0.1465168
710261716255253	2.0590048	-3.1890254	-0.5849347
710261724556034	1.916986	-3.0549755	-0.385993
710261732856816	1.4668584	-2.7624326	-0.004617691
710261741157597	0.80052423	-2.4490232	0.32775688
710261749458378	0.026092052	-2.146976	0.39792585
710261757759159	0.013748169	-2.178194	0.454566
710261766059941	-1.7211795	-1.4663377	0.036035776
710261774360722	-2.5494137	-1.2012181	0.31381464
710261782661503	-3.173532	-1.1371684	0.777879
710261790962284	-3.3855977	-1.045774	0.8199482
710261799263066	-3.0943356	-0.93866014	0.8253894
710261807563847	-2.6748853	-0.77903175	0.8243556
710261815864628	-2.5570822	-0.5169587	0.6562786
710261824165409	-2.534863	-0.14631319	0.34476423
710261832466191	-2.705741	0.09386873	0.42370105
710261840766972	-2.5223908	0.16338015	0.38514924
710261849067753	-2.3694458	0.10163736	0.37235117
710261857368534	-2.4138217	-0.023066998	0.45807528
710261865669316	-2.574182	-0.1407218	0.61064553
710261873970097	-2.5082817	-0.06647587	0.598315
710261882270878	-2.562728	-0.14517355	0.7128887
710261890571659	-1.9877863	-0.42460012	0.39795876
710261898872441	-1.9275112	-0.34741592	0.38043213
710261907173222	-2.0584402	-0.393178	0.3190658
710261915474003	-2.2842455	-0.506516	0.3299029
710261923774784	-2.6790762	-0.6770191	0.5168321
710261932075566	-3.2024503	-0.69982195	0.04216361
710261940376347	-3.0399017	-0.5159879	-0.13967276
710261948677128	-2.9916568	-0.43872023	-0.17205048
710261956977909	-2.6921277	-0.16059017	-0.27186942
710261965278691	-2.4938455	0.118254185	-0.3486805
710261973579472	-2.2299929	0.30213737	-0.66626525
710261981880253	-2.4047017	0.47219324	-0.13935113
710261990181034	-2.401204	0.4787202	-0.1552577
710261998481816	-2.2248502	0.7410703	-0.09424114
710262006782597	-1.6633425	0.8084192	0.62450814
710262015083378	-1.3192663	0.8073559	1.3578315
710262023384159	-1.2873344	1.4066439	0.48370028
710262031684941	-1.3179617	1.3791466	0.44522405
710262039985722	-1.003623	1.0505128	1.4166121
710262048286503	-0.94993734	1.3704867	0.73262525
710262056587284	-1.025846	1.9084239	-2.2488532
710262064888066	-1.2968173	2.0847964	-4.771837
710262073188847	-1.7874322	1.6799946	-3.0255
710262081489628	-0.89620733	1.3967657	-1.588876
710262089790409	-0.94135714	1.3130274	-1.5480304
710262098091191	-1.1215544	0.96029043	-1.7175539
710262106391972	-1.4824038	0.79390144	-1.6648529
710262114692753	-1.6693258	0.79163647	-1.2172811
710262122993534	-1.6135335	1.6603842	-0.39075685
710262131294316	-1.3236651	2.3673334	-0.6189716
710262139595097	-1.3530912	2.3345757	-0.63550043
710262147895878	-1.1212711	3.109078	-1.050566
710262156196659	-0.66855	3.6861858	-1.66576
710262164497441	-0.33738375	3.4756289	-2.1364384
710262172798222	-0.21289301	0.99877787	-1.1542065
710262181099003	-0.48725605	0.6202507	-1.2344043
710262189399784	-0.49410152	0.5783644	-1.1645107
710262197700566	-0.46911478	0.541832	-1.4606869
710262206001347	-0.278893	0.82791376	-1.6844845
710262214302128	-0.11583996	1.2157907	-1.6455672
710262222602909	0.029469967	1.3308725	-1.3064847
710262230903691	0.4278469	1.2008066	-1.2315085
710262239204472	0.85768557	1.1124406	-0.48628354
710262247505253	1.1313863	1.0300832	-0.30987167
710262255806034	1.3635583	0.9925518	-0.40830088
710262264106816	1.6559734	0.9982343	-0.58496
710262272407597	1.9240808	0.87636137	-0.8161719
710262280708378	1.3761783	-0.26292515	0.44260716
710262289009159	1.8184705	-0.89679384	0.32767653
710262297309941	1.357265	-1.1508551	0.110346556
710262305610722	1.106493	-1.0336447	0.11597633
710262313911503	1.7843833	-0.9541507	0.71615696
710262322212284	2.6310186	-1.219379	1.8902197
710262330513066	1.2288146	1.0911345	0.3543892
710262338813847	0.99527884	1.0935044	-0.77194405
710262347114628	0.4953065	0.51711655	-0.57949924
710262355415409	0.0065841675	-0.43797874	0.12955022
710262363716191	-0.27152443	-1.4193897	0.6242428
710262372016972	-0.2822833	-1.4229393	0.6138053
710262380317753	-0.99736977	-0.7551298	1.0059938
710262388618534	-0.15504265	-1.0137372	-0.13527513
710262396919316	-0.0845027	-0.85775566	-0.34999132
710262405220097	-0.114435196	-0.8878021	-0.32793522
710262413520878	-0.38010025	-0.39448547	0.118863344
710262421821659	-0.32286263	-2.438404	-0.25708675
710262430122441	-0.3641014	-0.9380312	0.08896494
710262438423222	-0.38354158	-0.9676657	0.14080882
710262446724003	-0.54424715	-1.7321792	-0.17196918
710262455024784	-1.3447685	-0.63313293	-0.40885353
710262463325566	-1.3282146	-0.6323242	-0.367378
710262471626347	-2.0257564	-1.3462563	-0.8989415
710262479927128	-2.1041584	-1.4558282	-0.52329993
710262488227909	-2.0743008	-1.435132	-0.5119381
710262496528691	-1.7294331	-0.6812749	-0.9241092
710262504829472	-1.0487642	-0.11240673	-2.2914202
710262513130253	-1.0456858	-0.108345985	-2.2981012
710262521431034	-0.6650524	0.035955906	-2.531629
710262529731816	0.039918423	-1.079751	-2.2173667
710262538032597	0.021938324	-1.0901594	-2.2193313
710262546333378	0.82758045	-0.6803651	-1.9632533
710262554634159	0.9725213	-0.76518583	-1.2892215
710262562934941	0.94491005	-0.7786441	-1.30569
710262571235722	0.8688774	-1.0181284	-0.63269997
710262579536503	0.22318268	-2.2545295	0.5370383
710262587837284	0.07725906	-1.9992819	0.47855973
710262596138066	0.06881714	-1.9795485	0.40343976
710262604438847	0.013358593	-2.0552077	0.7486489
710262612739628	-0.1572237	-2.3290763	1.4578624
710262621040409	-1.1153598	-2.270845	1.6158266
710262629341191	-1.2305932	-2.1917052	1.4908779
710262637641972	-1.2338533	-2.1665015	1.4180858
710262645942753	-1.7414889	-2.1884885	1.156687
710262654243534	-1.9708223	-1.937808	1.0832009
710262662544316	-1.8054242	-1.156704	0.7563963
710262670845097	-1.5036063	-0.2397809	0.06530118
710262679145878	-1.4938421	-0.23920012	0.0788579
710262687446659	-1.6160421	-0.26637745	-0.434175
710262695747441	-1.2586126	-0.92939806	-0.07089925
710262704048222	-1.4855833	-2.231698	0.5549755
710262712349003	-2.0729914	-3.2305827	1.1673651
710262720649784	-2.4451027	-3.5207524	1.5876365
710262728950566	-2.4133792	-3.5260496	1.6858289
710262737251347	-1.457767	-4.1988025	1.5948727
710262745552128	-1.072917	-4.072673	0.39833927
710262753852909	-1.503068	-2.924901	-0.8594935
710262762153691	-2.2259316	-1.5534267	-2.1236687
710262770454472	-2.181301	-1.5580745	-1.9474331
710262778755253	-2.9635015	2.5082073	-6.3909645
710262787056034	-2.4568691	4.396691	-10.037491
710262795356816	-1.6179748	2.777131	-9.666483
710262803657597	-1.4520488	1.1309052	-7.1033306
710262811958378	-1.3540626	-0.72916555	-4.47441
710262820259159	-1.1378698	-3.2931085	-2.7193198
710262828559941	-1.9487429	-5.724513	-0.70521367
710262836860722	-1.7353315	-7.7500176	1.292098
710262845161503	-2.2584147	-6.96784	2.5123105
710262853462284	-1.2407012	-4.8487477	2.4558737
710262861763066	0.7711139	-3.5351696	2.7075522
710262870063847	2.9416866	-3.368184	4.6513577
710262878364628	2.9144158	-3.3800411	4.652113
710262886665409	7.9125347	4.271502	10.082379
710262894966191	6.8422894	7.013465	8.196645
710262903266972	5.887991	8.313734	7.1876674
710262911567753	5.883515	8.299059	7.2101645
710262919868534	4.231755	8.951632	5.345633
710262928169316	-0.12661457	8.606589	-1.1939163
710262936470097	-10.875129	-1.256402	-15.440617
710262944770878	-7.3725576	-3.53716	-7.8689656
710262953071659	-2.4631891	-2.2262793	-3.9803298
710262961376911	-0.15122223	-0.34941673	-3.4238772
710262969677692	-0.17072868	-0.36570978	-3.3923607
710262977978473	-1.8348169	0.50903225	-2.4521234
710262986279254	-1.8255696	0.9165311	-1.6464951
710262994580036	-1.641387	1.0206046	-0.9222649
710263002880817	-1.4604421	0.9491949	-0.29054767
710263011181598	-1.3179426	0.6509404	0.005745381
710263019482379	-1.2010441	0.15489721	-0.17346
710263027783161	-1.2357173	0.12702036	-0.22251555
710263036083942	-1.408637	-0.004430771	-1.0591272
710263044384723	-1.7138934	0.40518522	-0.7347635
710263052685504	-1.7346921	0.38834	-0.7831116
710263060986286	-1.996655	0.9872532	-0.56798804
710263069287067	-2.0084834	0.9762249	-0.61410403
710263077587848	-2.1998997	0.52296495	0.09353292
710263085888629	-2.7425818	-0.28757858	0.87729543
710263094189411	-3.6142077	-0.4134388	1.0555123
710263102490192	-4.0008245	-0.12264013	0.99264973
710263110790973	-3.550456	0.003911495	0.7071515
710263119091754	-3.5485797	-0.0023107529	0.7275315
710263127392536	-3.0790462	-0.7212076	-0.24915916
710263135693317	-3.3353481	-0.7781429	-0.9664739
710263143994098	-3.9247875	-0.99934626	-0.72988963
710263152294879	-3.912444	-1.0000329	-0.6270288
710263160595661	-3.9221234	-1.1550317	-0.41540554
710263168896442	-3.4049091	-0.5313268	-0.8828572
710263177197223	-3.7370176	1.2593594	-2.0566254
710263185498004	-2.13482	3.0339022	-1.9800715
710263193798786	-2.1605973	3.0063376	-1.8553209
710263202099567	0.3424263	3.366015	-2.3232744
710263210400348	3.8034067	1.2439747	-2.9432766
710263218701129	3.7287064	1.2060428	-2.7532036
710263227001911	3.9127064	-0.25632477	0.5538349
710263235302692	3.0809307	-0.62004185	0.93143153
710263243603473	3.035604	-0.624197	1.084655
710263251904254	1.3297963	-0.8065939	0.5168551
710263260205036	1.5431337	-0.7987528	0.044121623
710263268505817	1.5340776	-0.77920055	0.15997541
710263276806598	2.0627055	-0.49569607	-0.10579133
710263285107379	2.0063477	-0.30537605	-0.05546367
710263293408161	1.9826164	-0.29624796	0.04020357
710263301708942	1.5081539	-0.18587923	0.23685253
710263310009723	1.4460106	-0.18756723	0.11719251
710263318310504	1.4231124	-0.17388725	0.21759677
710263326611286	1.5376797	-0.2474289	0.8962195
710263334912067	1.4754691	-0.28044224	0.98175645
710263343212848	1.7161603	-0.5616522	1.0298271
710263351513629	1.6979284	-0.5350609	1.1367435
710263359814411	1.7522569	-1.1030011	1.1713111
710263368115192	1.6456342	-1.6558857	1.1363926
710263376415973	1.629756	-2.2210512	0.24373937
710263384716754	1.6183963	-2.697589	-0.2370739
710263393017536	1.6121545	-2.6604667	-0.15101576
710263401318317	1.3805127	-3.232224	-0.5374284
710263409619098	1.5050817	-3.8441706	-0.518414
710263417919879	1.660191	-4.3014054	0.050266504
710263426220661	1.8148708	-4.131044	2.80866
710263434521442	1.7515101	-4.134029	2.8672795
710263442822223	2.1525679	-3.1423497	2.8414037
710263451123004	1.4609151	-1.9456787	2.2286408
710263459423786	0.7773919	-0.50571346	1.855835
710263467724567	0.31599092	0.6084218	1.6222062
710263476025348	-0.24090576	0.5066228	1.0615027
710263484326129	-0.020721912	-1.2664433	0.97799087
710263492626911	0.93809986	-1.7321048	0.7184372
710263500927692	1.8299646	-1.1395245	0.47006345
710263509228473	1.63484	-0.27797985	-0.009712458
710263517529254	0.8814597	0.22208977	-0.3299868
710263525830036	0.7672634	0.15388107	-0.3497224
710263534130817	2.1019323	-1.1663904	0.5155289
710263542431598	1.1762557	-0.8422346	0.8719022
710263550732379	2.507156	-0.20385551	0.41861796
710263559033161	2.8058145	0.445652	-0.7226944
710263567333942	1.4555686	1.1987171	-1.534059
710263575634723	0.7156415	2.148735	-1.1780875
710263583935504	0.77609324	1.915514	-2.0605328
710263592236286	0.6609738	2.311535	-1.9333577
710263600537067	0.28104568	2.46344	-2.672108
710263608837848	-0.11182022	2.2067223	-3.3056881
710263617138629	-0.9600656	1.6282034	-3.2239468
710263625439411	-0.9661007	1.6197262	-3.2237294
710263633740192	-1.2710979	1.1432238	-2.4652185
710263642040973	-1.0535586	0.65414524	-2.412146
710263650341754	-1.4871676	0.1477251	-2.0886812
710263658642536	-1.7396843	-0.14337349	-2.0417614
710263666943317	-1.4336376	0.057120323	-2.2688093
710263675244098	-1.4097652	0.087067604	-2.2050214
710263683544879	-0.8352637	1.9182005	-2.7885482
710263691845661	-2.2440343	2.1856775	-1.974196
710263700146442	-2.3842783	2.2135897	-0.8659773
710263708447223	-1.7007127	1.8961697	-0.11980152
710263716748004	-0.7091987	1.277605	0.42079663
710263725048786	0.4674542	0.5837507	1.3840761
710263733349567	1.776583	-0.062158585	1.7665234
710263741650348	1.4365044	-0.38915825	1.9906085
710263749951129	0.59209585	-0.42291737	1.7960992
710263758251911	0.17451286	-0.4306612	1.2051044
710263766552692	0.35912752	-0.6499052	0.4554298
710263774853473	0.58154845	-1.1158428	-0.11830115
710263783154254	0.8385446	-1.322628	0.12984109
710263791455036	0.84291434	-1.1948586	1.0249703
710263799755817	0.9692755	-1.4117079	1.7510624
710263808056598	1.3351107	-1.9580526	2.6909435
710263816357379	1.7313871	-2.4266205	3.4431052
710263824658161	1.6568568	-2.4553595	3.4322512
710263832958942	2.3168547	-2.8604898	3.4654665
710263841259723	2.2905476	-2.8111115	3.326141
710263849560504	1.8348169	-1.663557	3.899195
710263857861286	1.147563	-0.5582247	4.0921717
710263866162067	0.5795758	-0.21102428	3.5305405
710263874462848	0.52205396	-0.26471615	3.4358945
710263882763629	1.3627656	-1.4262915	2.723589
710263891064411	1.2597115	-1.353344	2.7338045
710263899365192	1.481297	-1.4881916	2.4632764
710263907665973	1.410316	-1.5534983	2.3112705
710263915966754	1.96405	-3.224475	2.1545565
710263924267536	3.323623	-5.565671	0.08599949
710263932568317	7.186942	-8.49115	-0.2199502
710263940869098	6.6789474	-7.286031	-1.3658086
710263949169879	4.0941663	-4.4644213	3.6486588
710263957470661	3.997178	-4.512352	3.452928
710263965771442	1.6179874	0.6391258	8.562181
710263974072223	1.5147979	0.5895281	8.366017
710263982373004	-4.872394	2.8457966	4.2450204
710263990673786	-0.63980293	0.0015306473	-0.20461667
710263998974567	-0.7890214	-0.03823471	-0.30546373
710264007275348	-0.23636377	-4.1164627	2.1018836
710264015576129	0.9360049	-6.234908	-4.2594376
710264023876911	0.7137128	-6.2601604	-4.370141
710264032177692	1.1839571	-8.209194	2.956315
710264040478473	1.0881239	-8.612945	3.324416
710264048779254	0.844619	-8.613797	3.1794717
710264057080036	0.52291495	-8.66123	2.6685467
710264065380817	-8.901533	10.126438	4.35913
710264073681598	-9.104851	10.110645	4.2143846
710264081982379	10.644083	22.566341	9.416369
710264090283161	11.8267145	3.963935	3.0669484
710264098583942	11.464741	3.992218	2.9580479
710264106884723	6.220298	-9.006709	2.2334232
710264115185504	2.6248832	-12.039312	1.4197465
710264123486286	2.2400055	-6.8664846	-2.7401896
710264131787067	-2.5325065	7.1155233	-7.439306
710264140087848	-2.5767221	7.1054735	-7.3690467
710264148388629	0.26193333	2.3271456	-8.626975
710264156689411	0.58221865	-1.6091671	-5.854661
710264164990192	-1.3504319	-3.4135237	-1.7100713
710264173290973	-2.6697283	-4.2092705	0.87199014
710264181591754	-1.9623663	-2.9098473	0.92449665
710264189892536	-1.3664027	-0.512373	1.9085815
710264198193317	-1.0323921	1.0665369	3.55548
710264206494098	-1.1996484	2.156004	3.7031198
710264214794879	-1.4637177	2.0002327	3.7159472
710264223095661	-1.848664	0.8583164	4.0233746
710264231396442	-3.4424748	1.2000608	1.379094
710264239697223	-3.6484952	2.22542	-5.4984655
710264247998004	-1.6747477	2.1208591	-6.280572
710264256298786	-0.5581784	1.7517242	-4.5518093
710264264599567	-0.065374374	1.532752	-2.7655225
710264272900348	0.4827063	1.6232347	-2.043659
710264281201129	0.51476455	2.0050573	-1.8082242
710264289501911	0.10184312	2.519844	-1.5359273
710264297802692	-0.80458117	3.1184416	-1.8877891
710264306103473	-1.287205	4.0164776	-2.267871
710264314404254	-2.0191817	4.0625496	-2.384048
710264322705036	-3.2458332	2.817996	-2.2944107
710264331005817	-3.3088589	2.0485268	-2.3783498
710264339306598	-3.48882	1.3323755	-2.4411993
710264347607379	-3.7563925	0.32916737	-2.7165499
710264355908161	-4.5361333	0.63979244	-4.623631
710264364208942	-5.4143953	2.5352478	-5.7828326
710264372509723	-5.3288145	2.505083	-5.632785
710264380810504	-5.427082	4.648638	-2.9999533
710264389111286	-3.1238174	3.4079323	7.2831917
710264397412067	-2.3991573	3.7713623	5.2454853
710264405712848	-1.0807693	3.5936975	2.555119
710264414013629	0.71340334	2.8642035	0.6229562
710264422314411	2.5348005	1.9815569	-0.2517462
710264430615192	3.5852327	1.4111843	-0.14412153
710264438915973	3.7973127	0.9806614	0.070037544
710264447216754	3.4226236	0.45695496	0.19016075
710264455517536	3.2980509	-0.19310284	0.09352887
710264463818317	3.349473	-0.47765923	-0.49024963
710264472119098	3.2395647	0.022776604	-1.4474779
710264480419879	3.0215166	1.0043316	-1.6449256
710264488720661	2.2862096	1.1987505	-1.3823589
710264497021442	1.0704569	1.2133865	-0.7153107
710264505322223	-0.028094977	0.7992821	0.29716635
710264513623004	-0.7365377	0.15908337	1.2994326
710264521923786	-0.97467935	-0.36614132	1.8525779
710264530224567	-0.601029	-0.64097977	1.5651705
710264538525348	-0.81203866	-0.48962498	1.929939
710264546826129	-0.74646854	-0.45538998	2.479971
710264555126911	-0.65993744	-0.8680353	3.10656
710264563427692	-0.7046721	-1.5135088	3.5051532
710264571728473	-0.5882856	-1.4845552	3.577814
710264580029254	-0.22351635	-1.377634	3.0945172
710264588330036	-0.030805767	-1.3822231	3.0279055
710264596630817	0.47293037	-1.4881039	2.9207814
710264604931598	0.778792	-1.4945555	2.7407327
710264613232379	0.90047204	-1.468214	2.7699265
710264621533161	1.2376065	-1.2633524	2.51557
710264629833942	1.3981367	-1.5470562	2.8714888
710264638134723	1.6591728	-1.7626743	2.7199183
710264646435504	1.2888098	-1.9487066	2.8051438
710264654736286	1.3546883	-2.2687435	2.9968662
710264663037067	1.4687718	-2.2369032	3.0051432
710264671337848	1.579212	-2.907711	3.4404984
710264679638629	1.5684826	-2.8335238	3.3785133
710264687939411	1.2234952	-3.3357277	3.288026
710264696240192	0.5242417	-3.7224627	3.0883758
710264704540973	-2.0815568	-4.102522	2.5220864
710264712841754	-2.0564349	-4.079838	2.545259
710264721142536	-5.651447	-4.276963	-0.019610167
710264729443317	5.121645	-3.5215187	1.2152054
710264737744098	9.261898	-3.5135508	2.6276004
710264746044879	7.917163	-3.0459604	2.620159
710264754345661	7.6750364	-3.091549	2.5846102
710264762646442	4.4936433	-2.1967402	-0.02322197
710264770947223	4.6967525	-1.3645754	-1.6950393
710264779248004	6.1626954	-0.975399	-3.0984676
710264787548786	6.1372194	0.6005335	-4.105319
710264795849567	5.0168266	2.5267591	-4.395755
710264804150348	3.4616048	4.3331127	-4.145651
710264812451129	3.3644845	4.2922087	-4.230832
710264820751911	0.9004515	5.8942385	-2.552667
710264829052692	-2.8460305	5.0272827	-3.4132464
710264837353473	-5.8501496	5.059038	-4.1343174
710264845654254	-9.25546	5.044586	-4.7317233
710264853955036	-9.263112	5.0307636	-4.732378
710264862255817	-11.202825	3.4244566	-4.785736
710264870556598	-10.758845	1.1438723	-4.203669
710264878857379	-6.601163	-0.4522791	-0.44961452
710264887158161	-5.082656	0.047151566	1.7461698
710264895458942	-4.9813876	0.05989456	1.7637744
710264903759723	-3.4161983	0.9561386	3.5791512
710264912060504	0.54183924	2.273178	4.045612
710264920361286	0.5352458	2.2759333	4.0696373
710264928662067	1.7347201	2.2955427	2.7373881
710264936962848	2.478386	1.8480606	2.3357265
710264945263629	2.795313	1.3792343	3.1721582
710264953564411	3.8105853	1.1132002	3.9933646
710264961865192	5.460004	0.700614	3.728848
710264970165973	7.0556293	-0.15288067	2.3788283
710264978466754	7.7065344	-1.5012703	0.9267006
710264986767536	6.309533	-3.0041761	0.666595
710264995068317	6.334216	-3.001998	0.6393554
710265003369098	5.977616	-2.5508337	-0.87598634
710265011669879	5.610002	-1.6976814	-3.1120563
710265019970661	4.307386	-1.1896973	-3.3831363
710265028271442	1.570126	-1.8379793	1.572253
710265036572223	3.9394631	-0.8613024	2.5607138
710265044873004	-2.7783751	-1.7258892	13.479662
710265053173786	0.27976453	-0.20149136	7.352071
710265061474567	2.6330721	1.1531973	0.034603238
710265069775348	0.37976268	0.63493156	0.8901794
710265078076129	2.0156722	0.6396637	4.4807262
710265086376911	1.9771194	0.62387085	4.4043655
710265094677692	2.027962	1.4417391	2.3132815
710265102978473	1.432706	2.1725092	1.442633
710265111279254	-0.26791888	2.846511	1.3682408
710265119580036	-2.2257557	3.080268	1.3535765
710265127880817	-2.4702764	2.3859081	1.1914915
710265136181598	-0.29256725	1.3825207	0.32252455
710265144482379	0.5175123	0.9616461	-0.09833217
710265152783161	-0.5327122	-0.031965256	0.18260312
710265161083942	-1.7229766	-0.9266243	0.7695215
710265169384723	-2.2706437	-1.3112574	1.2502698
710265177685504	-2.6857922	-1.4516182	1.3320208
710265185986286	-2.2038274	-1.9581833	1.0298219
710265194287067	-1.5081757	-2.4526968	0.48817742
710265202587848	-1.4998763	-2.8563604	0.5090554
710265210888629	-1.682982	-3.0687027	1.0011857
710265219189411	-1.8116634	-3.04494	1.6477251
710265227490192	-2.190857	-2.8611345	2.0524848
710265235790973	-2.1300857	-2.575203	1.9585679
710265244091754	-1.8727422	-2.3489408	1.4523834
710265252392536	-1.6176853	-2.3693047	0.75940377
710265260693317	-1.7575579	-2.39925	0.22589271
710265268994098	-2.0537584	-2.4201498	0.054216236
710265277294879	-1.6311474	-2.7544355	0.18951091
710265285595661	-0.87562156	-2.7626114	0.44834578
710265293896442	-0.9646487	-2.5098715	0.2797066
710265302197223	-1.1336038	-2.3901834	0.27337706
710265310498004	-1.0689566	-2.1970062	0.2927888
710265318798786	-0.86031485	-1.8219738	0.20951128
710265327099567	-0.8717258	-1.463151	0.15651715
710265335400348	-0.4814844	-1.0748892	0.57969105
710265343701129	-0.7877035	-0.8297453	0.61678815
710265352001911	-0.8833449	-0.8483105	0.5505887
710265360302692	-1.5147667	-0.49408627	0.7758739
710265368603473	-1.6190972	-0.5139189	0.71505845
710265376904254	0.06884289	0.13868618	0.65879834
710265385205036	-0.15267992	0.74989414	0.5344608
710265393505817	-2.0045848	1.0508261	-0.31015813
710265401806598	-2.1142051	1.0307827	-0.35545838
710265410107379	-3.760651	1.7782078	-2.5239844
710265418408161	-3.860768	1.7618713	-2.5696418
710265426708942	-3.5920095	2.5760078	-2.2137187
710265435009723	-2.3292093	2.3257751	-0.12875009
710265443310504	-1.6828603	2.1424847	1.1568651
710265451611286	-1.71989	1.8464584	-0.4396584
710265459912067	-1.5240023	1.5413322	-2.6581528
710265468212848	-0.70480764	1.5953922	-3.6996803
710265476513629	-0.76380956	1.5760307	-3.652266
710265484814411	-1.4612306	2.630764	-6.374261
710265493115192	-2.278633	2.7580557	-5.934586
710265501415973	-2.8818455	2.640604	-5.497838
710265509716754	-2.9080653	2.6154852	-5.3911533
710265518017536	-3.0623477	1.9125452	-5.005318
710265526318317	-2.9929104	1.6415815	-4.539571
710265534619098	-3.18218	1.1230307	-3.9776359
710265542919879	-3.1916828	0.7867298	-2.557218
710265551220661	-3.1560974	0.77386093	-2.4085522
710265559521442	-2.7866106	0.88280296	0.17276537
710265567822223	-2.598157	1.7547541	2.7419474
710265576123004	-3.2092845	4.739211	3.6913197
710265584423786	-1.6138014	5.047223	2.681962
710265592724567	-0.22675729	4.756508	2.191546
710265601025348	0.71468997	3.7633047	1.9814761
710265609326129	0.79977095	3.7769346	2.21536
710265617626911	1.1486316	2.4549284	2.1164641
710265625927692	1.0719914	1.3886538	1.8853171
710265634228473	0.7963505	1.3516817	-0.50239825
710265642529254	0.025264144	2.064705	-1.028916
710265650830036	0.04317856	2.0987167	-0.80165803
710265659130817	-0.19819272	2.5757627	-0.64073086
710265667431598	0.45867395	2.0830927	0.072775126
710265675732379	0.8110137	1.2138882	0.40198135
710265684033161	0.83209324	1.2496681	0.5417955
710265692333942	1.0919758	0.59843636	0.92487645
710265700634723	1.3066535	0.0938015	0.86345434
710265708935504	1.4592378	-0.33621502	1.4050889
710265717236286	1.5357847	-0.6249685	2.2981367
710265725537067	1.5027328	-0.7162638	2.7336497
710265733837848	1.275542	-0.7278595	2.1584375
710265742138629	1.5866034	-0.9310198	1.8118052
710265750439411	1.6885722	-0.8811302	1.8621829
710265758740192	1.9411206	-1.2304974	1.6868143
710265767040973	2.055462	-1.622571	1.3152642
710265775341754	2.008443	-1.9439096	1.5654206
710265783642536	2.2139258	-2.9876308	2.3201938
710265791943317	2.2428715	-2.9479074	2.3759115
710265800244098	2.4639819	-3.3226986	2.8742254
710265808544879	2.6128793	-3.6330605	3.4521766
710265816845661	2.6633365	-3.8942623	3.9355986
710265825146442	3.1597013	-4.1565695	4.2751694
710265833447223	3.37272	-4.151719	3.9823296
710265841748004	3.3392777	-4.1445723	3.9926832
710265850048786	3.6679814	-4.0309553	3.9390197
710265858349567	3.3822484	-3.6632318	0.71103287
710265866650348	-4.785109	-4.3775377	10.840264
710265874951129	17.560143	-1.2619953	1.6776326
710265883251911	17.500534	-1.3023338	1.580487
710265891552692	7.494491	-1.7019053	-6.9733024
710265899853473	5.7503085	-1.8722992	-9.574055
710265908154254	4.390735	-1.8042831	-9.983963
710265916455036	3.5820234	-2.3118105	-9.011744
710265924755817	6.7483377	-3.2544937	-6.8496222
710265933056598	4.6224356	-1.1149502	-6.7529097
710265941357379	2.9948354	0.076441765	-7.110821
710265949658161	1.3459985	0.47545242	-6.495357
710265957958942	0.2560526	0.8023205	-5.61637
710265966259723	-0.3290292	1.2715626	-4.805393
710265974560504	-0.9204682	1.7284193	-4.051653
710265982861286	-1.7240525	2.3022432	-3.644663
710265991162067	-2.376494	2.6188545	-3.4869103
710265999462848	-3.3312273	2.6579876	-3.0222235
710266007763629	-3.9984252	2.3638258	-2.5627706
710266016064411	-4.392173	1.978673	-2.2513926
710266024365192	-4.9003425	2.1110687	-2.0469203
710266032665973	-4.7673435	2.104434	-2.1111681
710266040966754	-4.957493	2.555087	-2.3865695
710266049267536	-4.7507086	2.7035656	-2.9254434
710266057568317	-3.7051811	2.9782267	-3.2987618
710266065869098	-2.0918639	3.6345081	-3.2231648
710266074169879	-0.5384288	5.787779	-0.69520736
710266082470661	-0.4872551	5.7798557	-0.7179723
710266090771442	0.19379997	5.5721884	2.0020115
710266099072223	1.1855664	3.348198	4.7123322
710266107373004	1.2526712	3.3474207	4.6646805
710266115673786	3.6541786	-1.1694231	5.150172
710266123974567	3.7229984	-1.1442947	5.141385
710266132275348	6.3112507	-3.4285755	2.8712604
710266140576129	5.8006725	-3.2368507	1.9386678
710266148876911	5.3143206	-2.6719894	1.1146703
710266157177692	4.653802	-2.1327658	0.4669943
710266165478473	3.7212064	-2.0015297	0.67270565
710266173779254	3.6811352	-2.0146856	0.6488831
710266182080036	1.0810463	-2.3096075	5.268243
710266190380817	-0.6047404	-1.3835573	7.3977475
710266198681598	-1.2410858	-0.01280117	8.178053
710266206982379	-1.229845	1.3274012	7.9997387
710266215283161	-1.2065876	2.4483767	7.4632425
710266223583942	-1.8095744	3.4143057	7.094695
710266231884723	-3.3971944	4.1083508	6.959276
710266240185504	-4.228011	3.5275173	5.205782
710266248486286	-3.8348162	2.6937447	2.9414308
710266256787067	-3.8984642	2.6617823	2.8815367
710266265087848	-2.666193	1.9455833	1.208261
710266273388629	-1.7319522	1.4903889	0.23847246
710266281689411	-1.8230686	0.51614857	-0.9319259
710266289990192	-1.4163677	-0.34832954	-0.9840033
710266298290973	-0.78582513	-0.9606428	-0.7594398
710266306591754	-0.8403076	-0.98190403	-0.83216155
710266314892536	-0.35553122	-1.2683372	-0.35913455
710266323193317	-0.28312504	-1.3083658	0.27956462
710266331494098	-0.46193445	-1.7161293	1.3431113
710266339794879	-0.37214708	-1.9042349	1.6170539
710266348095661	-0.34366357	-2.0105886	2.1298203
710266356396442	-0.5077951	-2.1379204	2.3411112
710266364697223	-0.54305506	-2.1494713	2.2513926
710266372998004	-0.5964185	-2.548006	2.0784042
710266381298786	-0.73529357	-2.5033522	1.8406931
710266389599567	-0.8637053	-2.4437313	1.5776336
710266397900348	-0.9543299	-2.3704376	1.3903315
710266406201129	-1.005313	-2.3782463	1.2988396
710266414501911	-1.0634995	-2.3472786	1.0653591
710266422802692	-1.0553534	-2.2957144	0.47520524
710266431103473	-1.0304651	-2.1833458	0.1600458
710266439404254	-1.0911381	-2.187069	0.08529174
710266447705036	-1.1605806	-1.9177265	-0.070091724
710266456005817	-1.3388298	-1.5065327	-0.16181776
710266464306598	-1.5229623	-1.0904303	-0.17385694
710266472607379	-1.5954181	-0.8281317	-0.08666347
710266480908161	-1.493994	-0.8145218	0.1014085
710266489208942	-1.08608	-1.014821	0.9096348
710266497509723	-1.0282077	-0.77093697	0.9707346
710266505810504	-1.0909172	-0.76804066	0.8571011
710266514111286	-1.1848456	-0.23586369	0.726027
710266522412067	-1.3943743	0.5500412	0.50424904
710266530712848	-1.8456832	2.4824228	-0.15957749
710266539013629	-1.9051155	2.4837904	-0.24959457
710266547314411	-2.0698857	2.8506155	-0.81531185
710266555615192	-2.1773868	2.7042322	-1.3336315
710266563915973	-2.7985108	2.347211	-1.7741909
710266572216754	-3.7385826	1.998456	-2.1469417
710266580517536	-3.7842	2.0042057	-2.2167583
710266588818317	-3.2375374	1.8529263	-1.7935195
710266597119098	-3.3506951	2.0867968	-1.6836057
710266605419879	-3.6973672	2.3140163	-2.2439222
710266613720661	-4.092712	2.5118942	-2.9985993
710266622021442	-4.4125075	2.6374884	-3.45993
710266630322223	-4.573625	2.548831	-3.3784556
710266638623004	-4.8401546	1.8765106	-2.9342964
710266646923786	-5.1844196	0.96507454	-2.4415214
710266655224567	-5.5549326	0.11294079	-1.9556117
710266663525348	-5.7304406	-0.31319046	-1.3794395
710266671826129	-5.5548983	-0.028241158	-0.8082041
710266680126911	-5.0359674	1.0832119	-0.56139773
710266688427692	-4.3090367	2.9037342	-0.51559585
710266696728473	-3.6585755	4.350278	-0.12661451
710266705029254	-2.4819703	5.12239	0.13642971
710266713330036	-1.0837402	5.484172	0.392668
710266721630817	0.21547389	5.6365786	0.8173388
710266729931598	0.39288235	5.6406136	1.0238421
710266738232379	2.5546336	4.982538	2.4394093
710266746533161	3.6020901	4.210861	2.9291856
710266754833942	4.272754	3.488927	2.4056752
710266763134723	4.6121073	3.1044254	1.1657658
710266771435504	4.692517	3.1297417	1.3264815
710266779736286	4.8730297	3.0952454	-0.03070867
710266788037067	4.3941283	2.5320807	-1.6607428
710266796337848	2.2473025	1.6703119	-1.6327884
710266804638629	0.985391	0.9254179	-0.81905556
710266812939411	0.3083148	0.26918697	-0.021178842
710266821240192	-0.31985044	-0.26152802	0.298697
710266829540973	-0.70179486	-0.39028358	0.590353
710266837841754	-0.61979306	-0.52047825	1.5932782
710266846142536	-0.26155746	-0.6643934	2.8742874
710266854443317	-0.36871076	-0.64582634	4.1999197
710266862744098	-0.26232743	-0.59985924	4.279755
710266871044879	-2.054202	-0.40487766	3.031424
710266879345661	-1.9182675	-0.3535061	3.0968454
710266887646442	-0.42315674	-1.0515575	0.8444984
710266895947223	0.33828545	-1.5548277	1.61343
710266904248004	1.1495359	-2.1984615	2.9794624
710266912548786	1.7336063	-2.881115	4.628649
710266920849567	1.8167892	-2.8285723	4.6807804
710266929150348	1.9991553	-3.4713001	6.2741337
710266937451129	2.4756114	-4.697117	6.6363015
710266945751911	2.99911	-4.9937944	5.6032453
710266954052692	3.4713855	-5.1330557	4.7876663
710266962353473	3.9134548	-5.1930637	4.299121
710266970654254	4.3009973	-5.2246857	3.9867964
710266978955036	4.2566967	-5.204072	4.033861
710266987255817	4.0449996	-5.291727	2.9595594
710266995556598	4.049466	-5.291296	2.6446152
710267003857379	3.925648	-5.2807693	2.198579
710267012158161	3.871238	-5.286442	2.1871471
710267020458942	3.4172513	-5.2920322	1.6899517
710267028759723	2.6409948	-5.2793055	1.2983608
710267037060504	1.0462158	-4.627409	0.019334078
710267045361286	0.9900129	-4.6610928	-0.05842495
710267053662067	-1.0597422	-1.4225054	-2.1054635
710267061962848	-1.1134803	-1.4705753	-2.2077618
710267070263629	-2.085874	1.7633743	-3.6521854
710267078564411	-2.594737	6.610647	-5.4032373
710267086865192	-0.3229723	18.31413	-6.7868013
710267095165973	-0.41217554	18.229576	-6.8655643
710267103466754	-4.722846	7.75871	-6.573877
710267111767536	-7.3561378	1.7865906	-6.7622786
710267120068317	-7.369983	1.7809	-6.7346077
710267128369098	-6.5424433	-4.042039	-4.537613
710267136669879	-6.311669	-3.7649727	-1.8582599
710267144970661	-5.9506507	-2.8327742	0.72736883
710267153271442	-4.5853376	-1.3867168	2.451944
710267161572223	-4.4976444	-1.3427229	2.5165539
710267169873004	-2.017049	0.12002945	3.0632496
710267178173786	3.4765587	2.6128817	2.6612182
710267186474567	5.561016	4.0510225	2.7974813
710267194775348	5.9649878	4.643798	2.4689302
710267203076129	5.93166	4.62434	2.4505467
710267211376911	4.8535914	4.0937443	2.236227
710267219677692	3.6204557	2.8722677	2.4021206
710267227978473	3.481064	1.7355852	2.9086096
710267236279254	4.240285	1.4243879	3.515868
710267244580036	4.7366896	1.2984943	2.7277277
710267252880817	4.5743275	0.5495548	1.7210813
710267261181598	4.1159077	-0.41895294	0.5612285
710267269482379	3.5796735	-1.0523977	0.07248068
710267277783161	3.0717022	-1.0920601	0.9876542
710267286083942	2.673749	-1.1538811	2.9827135
710267294384723	2.1147585	-1.5664768	4.064183
710267302685504	0.51624775	-1.71591	4.490626
710267310986286	-0.2016139	-1.3235435	5.213067
710267319287067	0.032128334	-0.52630424	6.613511
710267327587848	-0.049147964	-0.56831837	6.5015345
710267335888629	-1.4990702	1.1446791	8.809287
710267344189411	-1.9152712	1.4415398	8.0214
710267352490192	-1.5830442	1.7495985	7.480642
710267360790973	-0.508845	2.048339	7.2492757
710267369091754	0.37967777	2.402278	6.6488614
710267377392536	0.078921914	2.8263493	4.9116297
710267385693317	-1.1471267	3.0157442	2.13188
710267393994098	-1.0334328	2.3647385	1.8574865
710267402294879	-0.84805095	1.4048395	1.926065
710267410595661	-0.83611333	0.2810955	1.2560647
710267418896442	-0.8973561	-1.002737	-0.23641336
710267427197223	-0.754436	-2.376275	-1.8359269
710267435498004	-0.16593987	-3.2991047	-2.3052053
710267443798786	0.07090685	-3.3832216	-1.9734076
710267452099567	0.21834588	-3.1302156	-1.2448959
710267460400348	0.69300663	-2.706604	-0.449222
710267468701129	1.2098032	-2.2486706	0.11339702
710267477001911	1.2021	-2.246395	-0.06154029
710267485302692	1.5665722	-1.9171762	0.037727907
710267493603473	1.3384267	-2.0705824	0.16980855
710267501904254	0.87326175	-2.2529068	0.50873405
710267510205036	0.36008328	-2.4170885	0.7273705
710267518505817	-0.13239682	-2.4935122	0.66771567
710267526806598	-0.59472215	-2.3964949	0.34812003
710267535107379	-0.8577651	-1.9606743	-0.1381292
710267543408161	-1.0534291	-1.2241535	-0.30340698
710267551708942	-1.3071373	-0.5341301	-0.3163839
710267560009723	-1.5333722	-0.111185074	-0.21120566
710267568310504	-1.6462045	-0.026920319	-0.0077334046
710267576611286	-1.6412219	-0.22311306	0.24350864
710267584912067	-1.7615764	-0.552577	0.39860612
710267593212848	-2.1761165	-0.39083672	0.30455893
710267601513629	-2.8123755	0.16047764	-0.056046903
710267609814411	-3.394821	0.8260193	-0.46221483
710267618115192	-3.4749885	0.83261585	-0.50555485
710267626415973	-4.002399	1.6712952	-0.3595786
710267634716754	-4.3000903	1.8165293	0.2901482
710267643017536	-4.7220454	2.0102758	0.61131966
710267651318317	-5.2520437	2.258522	0.23246711
710267659619098	-5.511693	2.742303	-0.55791193
710267667919879	-5.218375	3.2569199	-1.3149474
710267676220661	-5.2464256	3.2533693	-1.3057969
710267684521442	-4.448718	3.2060356	-1.3936126
710267692822223	-4.243107	2.980588	-1.7489288
710267701123004	-3.9000578	2.6026402	-2.37607
710267709423786	-3.611212	2.252367	-2.8439724
710267717724567	-3.6446924	2.1446857	-3.0046391
710267726025348	-4.136099	2.3092213	-3.0831037
710267734326129	-4.6415052	1.9439163	-3.4164438
710267742626911	-4.863085	1.0422344	-3.4901564
710267750927692	-4.737809	-0.019039154	-3.0161905
710267759228473	-4.2605953	-0.8711529	-2.269887
710267767529254	-4.1955996	-0.87972736	-2.1953678
710267775830036	-3.5457532	-1.0636826	-1.2755427
710267784130817	-2.6318562	1.3615351	0.6457172
710267792431598	-1.76532	3.5332527	1.2907549
710267800732379	-1.6144679	3.5158596	1.4903572
710267809033161	0.40338132	6.765731	2.024068
710267817333942	1.372087	6.935938	2.501225
710267825634723	1.5364908	6.935006	2.7332053
710267833935504	4.051303	5.1146193	3.6074
710267842236286	5.153046	4.2171526	3.336907
710267850537067	5.296153	4.2406244	3.5240045
710267858837848	5.6683803	3.4118824	-0.11233914
710267867138629	5.5050464	3.343256	-2.0574183
710267875439411	5.612591	3.378108	-1.883285
710267883740192	4.8775554	2.8087187	-3.1688004
710267892040973	3.5361276	1.9495888	-1.8551921
710267900341754	2.656085	0.9146681	-1.6018671
710267908642536	2.7329464	0.93865204	-1.5411623
710267916943317	1.6447856	0.10383606	-1.2699125
710267925244098	0.22632372	-0.2842617	-0.22067285
710267933544879	-0.7760973	-0.37502003	2.1184297
710267941845661	-0.5616478	-0.6336584	3.6521194
710267950146442	-0.4282782	-0.59224224	3.69169
710267958447223	-0.9111619	-0.9696264	4.2961307
710267966748004	-1.6267631	-1.4131203	3.7564447
710267975048786	-1.6540616	-1.9575729	2.6667187
710267983349567	-0.42791772	-2.6726189	1.9088404
710267991650348	0.10676813	-3.044551	1.6792686
710267999951129	0.7810552	-3.458397	2.4698496
710268008251911	1.2514164	-3.8914747	3.5376
710268016552692	1.408921	-4.298151	4.6372576
710268024853473	1.1457613	-4.7607946	5.6326885
710268033154254	0.5212548	-5.4107666	6.221514
710268041455036	3.3876977	-4.731929	3.373108
710268049755817	3.6586697	-4.926942	3.9858656
710268058056598	3.4049244	-4.8362885	3.6878393
710268066357379	3.448978	-4.715024	3.1568818
710268074658161	3.7657995	-4.783947	3.2080653
710268082958942	3.7522292	-4.735339	3.105163
710268091259723	3.5052376	-4.5493393	3.0984786
710268099560504	3.562367	-4.4245806	2.6396475
710268107861286	3.442667	-4.308264	2.0483074
710268116162067	2.9826894	-4.1742506	1.4690609
710268124462848	2.1339269	-3.98007	0.8478286
710268132763629	0.98010063	-3.6561527	-0.03786397
710268141064411	-0.30890584	-2.5976534	-1.1128078
710268149365192	-1.5162787	-0.634305	-2.0048947
710268157665973	-2.5721662	2.6563063	-3.2431908
710268165966754	-2.6727357	7.3673267	-5.5479593
710268174267536	-1.6180487	12.552387	-8.220892
710268182568317	-0.3698629	16.31707	-8.847114
710268190869098	-1.6311666	13.4539585	-7.379917
710268199169879	-4.7854733	7.555874	-6.1242113
710268207470661	-7.0565686	2.4556818	-5.35553
710268215771442	-7.439906	-0.8097782	-4.401946
710268224072223	-6.43592	-2.5015764	-2.839594
710268232373004	-6.320624	-2.468463	-2.8134303
710268240673786	-5.18862	-2.7333632	0.75051117
710268248974567	-3.777619	-1.8784313	2.063176
710268257275348	-1.4011247	-0.6633253	2.4966006
710268265576129	1.2543862	0.6252718	2.2072809
710268273876911	3.3978977	1.7837496	1.4756212
710268282177692	4.5763936	2.9087582	0.5514009
710268290478473	5.232093	3.0812626	0.76229644
710268298779254	5.4307957	3.1259193	1.6115253
710268307080036	4.5983286	3.0514727	2.5129375
710268315380817	3.4453292	2.9028711	2.9987748
710268323681598	3.0444403	2.8696651	2.851196
710268331982379	3.738848	3.3259392	2.3095722
710268340283161	4.12425	2.6092758	2.6097004
710268348583942	3.6786695	0.6992159	3.9784877
710268356884723	3.2211084	-0.99223614	4.7963033
710268365185504	3.263636	-1.7761269	4.2728634
710268373486286	3.7467766	-1.6742153	2.600246
710268381787067	4.011832	-1.0980816	0.6558442
710268390087848	4.7141504	-0.8543949	0.14249825
710268398388629	4.7183757	-0.9034338	1.332416
710268406689411	3.3611727	-1.3355455	2.7868483
710268414990192	1.5064181	-1.797965	3.7917826
710268423290973	0.32885325	-1.8990593	4.4509287
710268431591754	0.6010475	-1.4318981	5.6464434
710268439892536	0.59129	-1.2327118	7.215303
710268448193317	-0.56115985	-1.1630564	6.7700205
710268456494098	-1.6244715	-0.57975674	6.045888
710268464794879	-1.7700152	-0.61538124	5.9406185
710268473095661	-2.6519594	0.41363335	5.7921085
710268481396442	-3.9643726	2.797058	6.4101934
710268489697223	-2.7611766	3.489252	5.41225
710268497998004	-2.6787663	3.1741428	3.461474
710268506298786	-2.5557032	2.0937595	2.258192
710268514599567	-2.1207533	0.6625786	1.7095392
710268522900348	-2.2205515	0.6503267	1.6382517
710268531201129	-1.4329978	-1.8479862	-0.8390813
710268539501911	-1.4572462	-2.4449387	-2.8146062
710268547802692	-0.61839473	-2.475027	-3.693941
710268556103473	-0.63771355	-2.476017	-3.7929442
710268564404254	0.65031946	-1.6611462	-1.8394825
710268572705036	0.53582734	-1.510293	-0.60931915
710268581005817	0.9324548	-1.444108	0.11674185
710268589306598	0.96999145	-1.7104397	0.21432646
710268597607379	0.7440311	-2.0177956	0.17345935
710268605908161	0.73294973	-2.012209	0.088395804
710268614208942	-0.29598016	-2.1315813	0.36515695
710268622509723	-0.8329331	-2.0424309	0.47241408
710268630810504	-1.3295997	-1.8932562	0.40953964
710268639111286	-1.6346253	-1.7074938	0.20057419
710268647412067	-1.8033669	-1.4582767	-0.015183687
710268655712848	-1.972286	-1.1379423	-0.17650518
710268664013629	-2.1531065	-0.80898	-0.25973982
710268672314411	-2.2085297	-0.80459213	-0.28981394
710268680615192	-2.3027322	-0.6118641	-0.089616
710268688915973	-2.335425	-0.7634487	0.26005572
710268697216754	-2.4977283	-0.7460003	0.56715983
710268705517536	-2.5501726	-0.738101	0.51056683
710268713818317	-2.8349156	0.0469656	0.6552306
710268722119098	-2.8900995	0.054947853	0.59618485
710268730419879	-2.9285376	0.68464375	0.42381203
710268738720661	-2.8897772	1.5382977	0.40650266
710268747021442	-2.9545994	1.544836	0.35992116
710268755322223	-3.0512586	1.7996426	0.24015939
710268763623004	-3.241765	2.0987482	-0.075974345
710268771923786	-3.5247247	2.5499344	-0.61970544
710268780224567	-3.8796163	3.5233374	-1.8752807
710268788525348	-3.9111412	3.5216599	-1.8851936
710268796826129	-3.4817853	3.3629045	-1.895951
710268805126911	-3.0090537	2.9002018	-1.8936791
710268813427692	-2.7665727	2.4804506	-2.2543988
710268821728473	-2.7487686	2.2769985	-2.8730083
710268830029254	-3.4977493	2.2837372	-3.0222228
710268838330036	-3.4782186	2.281725	-3.0465486
710268846630817	-4.069246	1.8632851	-2.742396
710268854931598	-4.844131	1.3916159	-3.0131447
710268863232379	-5.5061426	1.1301165	-3.176219
710268871533161	-5.76764	0.9264231	-2.7177067
710268879833942	-5.463519	0.43405724	-1.6310624
710268888134723	-4.5221467	0.2982273	-0.76269853
710268896435504	-3.496046	1.2543736	-0.77753997
710268904736286	-2.3541124	2.8544788	-0.94297624
710268913037067	-1.0859762	4.5840006	-0.74535626
710268921337848	0.2739806	5.953641	-0.06825939
710268929638629	2.7528744	6.4202423	0.8884643
710268937939411	2.9282563	6.4106026	1.1072611
710268946240192	3.8492563	5.88138	1.81668
710268954540973	4.4987082	5.2051134	2.402609
710268962841754	5.0185914	4.402116	2.25386
710268971142536	5.5367684	3.6231928	1.1931005
710268979443317	6.8087163	2.5797539	-2.1981053
710268987744098	6.8832674	2.6039572	-2.0269432
710268996044879	7.3417435	2.4221296	-2.913565
710269004345661	6.251192	1.8573093	-2.7196739
710269012646442	3.966534	1.0145082	-1.701408
710269020947223	1.4793279	0.20991135	-0.043557405
710269029248004	-0.07154441	-0.18690968	1.9783483
710269037548786	-1.2340786	-0.12449837	2.1163962
710269045849567	-1.1449345	0.10829067	1.514091
710269054150348	-1.7304561	0.6890125	2.7153559
710269062451129	-2.355804	0.7444849	3.9568923
710269070751911	-2.2080116	-0.103170395	3.8273396
710269079052692	-1.2031257	-1.2459259	2.8031075
710269087353473	-0.19635355	-1.8299036	2.25056
710269095654254	0.72926474	-2.419816	2.77949
710269103955036	1.5207207	-3.1562405	3.620722
710269112255817	1.9419699	-3.7835684	4.334121
710269120556598	2.1123157	-4.2384176	4.6965237
710269128857379	2.4447982	-4.7279243	4.6831903
710269137158161	2.7866945	-5.238064	4.374942
710269145458942	3.0781355	-5.672881	4.1338525
710269153759723	3.3246126	-5.979763	3.7968004
710269162060504	3.5128293	-6.15965	3.3859315
710269170361286	3.6484282	-6.2536545	2.929751
710269178662067	3.7517455	-6.305071	2.4083164
710269186962848	3.7133956	-6.2868595	2.0035548
710269195263629	3.45722	-6.1980543	1.7334206
710269203564411	3.0126934	-6.1447525	1.4861851
710269211865192	2.3677084	-6.128072	1.3306928
710269220165973	1.5794787	-6.056656	1.2366533
710269228466754	1.5265293	-6.071295	1.1910787
710269236767536	-0.22351503	-4.9965715	0.38774204
710269245068317	-1.3304148	-3.4506283	-0.48050523
710269253369098	-2.5525877	-1.0799284	-1.2863607
710269261669879	-3.8349574	2.3497543	-2.3449974
710269269970661	-4.4703293	6.9493704	-4.3837814
710269278271442	-3.3105817	12.380244	-7.9332695
710269286572223	-2.9071016	16.959148	-8.740325
710269294873004	-4.274084	15.261444	-7.1672287
710269303173786	-6.231037	9.72113	-6.4350796
710269311474567	-6.26009	9.685351	-6.454673
710269319775348	-7.332248	-0.3511753	-4.729318
710269328076129	-6.3787484	-1.9901237	-2.8911054
710269336376911	-5.696843	-2.8723812	-0.9970162
710269344677692	-4.1526213	-2.9595203	0.74012184
710269352978473	-2.128559	-2.3311205	1.6704881
710269361279254	0.0053174496	-1.0988159	1.8715215
710269369580036	0.051481247	-1.0652533	1.9445117
710269377880817	2.7825744	2.187049	0.7103727
710269386181598	3.6485746	3.6117887	0.38076162
710269394482379	4.271326	4.665571	1.4458683
710269402783161	3.492998	4.8062525	2.8914309
710269411083942	2.7320738	4.079667	3.985973
710269419384723	3.5109944	2.9354658	4.4918046
710269427685504	3.4659047	2.9259367	4.498802
710269435986286	6.6990986	1.5392313	4.272356
710269444287067	7.1731396	0.28558254	1.8843744
710269452587848	7.4896536	-1.1119442	-1.4561152
710269460888629	7.5292253	-1.1058464	-1.4812062
710269469189411	7.413586	-2.2985716	-1.222774
710269477490192	6.2267857	-2.1790829	2.7710617
710269485790973	4.7487297	-2.016306	4.294262
710269494091754	4.0716343	-1.7180119	5.4661293
710269502392536	4.0038137	-1.7387352	5.412015
710269510693317	3.381485	-1.0025625	5.9853897
710269518994098	2.6741955	-0.042517662	6.115847
710269527294879	1.7675428	0.9013586	5.7851586
710269535595661	0.8121929	1.1295662	6.6348433
710269543896442	0.7054738	1.0813303	6.4785395
710269552197223	-1.0902258	1.3656273	7.4338837
710269560498004	-2.4604287	1.588027	7.7753906
710269568798786	-2.8886237	1.7821178	7.388015
710269577099567	-2.495467	2.1144295	6.5971317
710269585400348	-1.6826906	2.8854399	5.8465548
710269593701129	-1.6379743	3.455164	4.839547
710269602001911	-1.9782965	3.2257175	3.3132098
710269610302692	-2.3779995	2.2265387	1.7723497
710269618603473	-2.632616	0.72348213	0.1316483
710269626904254	-2.5973997	-0.9318924	-1.7873373
710269635205036	-1.088632	-3.5046406	-4.379127
710269643505817	-1.1732897	-3.4995127	-4.4421244
710269651806598	-0.13659659	-3.8168259	-3.862238
710269660107379	0.32549268	-3.411212	-2.3274376
710269668408161	0.6475199	-2.690651	-0.5738076
710269676708942	1.8094696	-1.6378126	1.1007167
710269685009723	1.5983105	-1.4153414	0.62182546
710269693310504	1.5847327	-1.4078016	0.51578546
710269701611286	1.2589815	-1.4842491	0.07612896
710269709912067	0.81582385	-1.6111498	-0.15892941
710269718212848	0.26844445	-1.6642132	-0.2598148
710269726513629	-0.75235724	-1.5923948	-0.51779455
710269734814411	-1.1934919	-1.3392601	-0.7607983
710269743115192	-1.261169	-1.3299122	-0.8010974
710269751415973	-1.8280241	-1.1653576	-0.8662194
710269759716754	-2.4711268	-1.033925	-0.71358997
710269768017536	-3.0639446	-0.92135143	-0.40601498
710269776318317	-3.4841843	-0.83327293	-0.063331604
710269784619098	-3.7414508	-0.69529915	0.21077561
710269792919879	-3.8914542	-0.45305157	0.19177854
710269801220661	-4.044106	-0.23193645	0.071216464
710269809521442	-4.2311125	-0.040517807	-0.01962471
710269817822223	-4.487819	0.1653204	-0.08724332
710269826123004	-4.821722	0.46799946	-0.1940763
710269834423786	-5.1867275	1.4058819	-0.13801038
710269842724567	-5.219198	1.4113064	-0.1624
710269851025348	-4.995739	1.6928244	-0.015570283
710269859326129	-3.9444928	1.8985949	0.1323309
710269867626911	-2.4599233	2.1902218	0.19125974
710269875927692	-1.3918337	2.6693802	0.027840972
710269884228473	-0.67878985	3.1251965	-0.4892249
710269892529254	-0.2610495	3.6268253	-1.0645916
710269900830036	-0.0066384077	3.8764477	-1.377934
710269909130817	0.35388064	3.8361492	-1.6363829
710269917431598	0.72891426	3.6345701	-2.074778
710269925732379	0.72524846	3.4303675	-2.8925474
710269934033161	-0.12800205	3.0632	-4.30587
710269942333942	-1.0502527	2.786069	-3.7595024
710269950634723	-2.6690822	2.6246347	-3.139997
710269958935504	-4.6151543	2.1928968	-3.0786772
710269967236286	-6.304497	1.3178749	-3.1199794
710269975537067	-7.260014	0.18663025	-2.2889276
710269983837848	-7.6669593	-0.39300632	-0.9197674
710269992138629	-7.158187	-0.022940636	-0.402601
710270000439411	-6.141132	0.9798813	-0.61339116
710270008740192	-4.912587	2.3432083	-0.95117044
710270017040973	-3.5743332	3.8484163	-0.84695065
710270025341754	-2.1082482	5.2740564	-0.1338349
710270033642536	-0.80881965	6.115697	0.09485775
710270041943317	0.7204943	5.9286795	-0.3641501
710270050244098	2.6128035	5.3583937	-0.59307027
710270058544879	4.169452	4.5761795	-0.56264675
710270066845661	4.975964	3.784834	-0.40699714
710270075146442	5.16673	3.212449	-0.33069837
710270083447223	5.664877	3.1230106	-0.61113656
710270091748004	6.843644	2.7472382	-1.0393322
710270100048786	7.704613	1.9841757	-0.92369723
710270108349567	6.8514595	1.1700916	0.3509953
710270116650348	4.1617675	0.5354719	1.9798436
710270124951129	4.1798697	0.55929756	2.1132226
710270133251911	-0.35637957	0.3227024	2.3908052
710270141552692	-1.2425679	0.43664074	3.0172548
710270149853473	-2.205286	0.29469585	3.318828
710270158154254	-2.8660488	-0.18647003	3.2993374
710270166455036	-2.7029066	-0.14087105	3.389233
710270174755817	-1.6491182	-1.4060097	2.2683702
710270183056598	-0.91508055	-2.1570053	2.7881577
710270191357379	-0.1183126	-3.073783	3.1485565
710270199658161	0.3508761	-3.8155584	3.1163878
710270207958942	0.45892358	-3.7566996	3.2007542
710270216259723	0.5595405	-4.260354	3.2026455
710270224560504	1.1376789	-5.0765553	3.9680843
710270232861286	1.7203121	-5.4630833	4.299329
710270241162067	2.1221	-5.8060656	4.4955463
710270249462848	2.1382666	-5.76311	4.5616903
710270257763629	2.3972754	-5.9508457	4.5254593
710270266064411	2.5926633	-5.9968605	4.296198
710270274365192	2.7540064	-5.9621105	3.9672904
710270282665973	3.0515814	-5.813367	3.245382
710270290966754	3.1535392	-5.770871	2.842359
710270299267536	3.099104	-5.7642317	2.856555
710270307568317	2.9214284	-5.726717	2.2665787
710270315869098	2.4816878	-5.6233225	1.6633978
710270324169879	1.9119279	-5.442336	1.1254287
710270332470661	1.382481	-5.199811	0.54552674
710270340771442	0.76355183	-4.5568924	-0.22256207
710270349072223	0.07070303	-3.041274	-0.96560955
710270357373004	-0.59351194	-0.29697132	-1.4414604
710270365673786	-0.9933083	4.1819477	-2.6222591
710270373974567	-0.22914088	10.687179	-4.842764
710270382275348	2.736058	18.470455	-7.3103623
710270390576129	3.2707052	20.470676	-9.640756
710270398876911	-1.3092492	12.698955	-9.39443
710270407177692	-5.299225	4.258605	-7.9940214
710270415478473	-7.197406	-1.4512968	-6.157526
710270423779254	-7.263281	-3.6133947	-3.8798304
710270432080036	-7.142712	-3.5781975	-3.8225763
710270440380817	-6.056902	-3.9235334	1.6065655
710270448681598	-4.4398723	-2.8729076	2.4134798
710270456982379	-2.6399145	-1.1701832	1.9858427
710270465283161	-0.72240853	0.55913925	1.200794
710270473583942	-0.687891	0.57473946	1.233007
710270481884723	3.2596946	3.96731	1.6659687
710270490185504	4.650774	6.018615	2.0688426
710270498486286	3.8029246	6.7778606	2.1010797
710270506787067	3.135756	6.4634495	2.8066096
710270515087848	3.4623163	5.288292	4.261029
710270523388629	3.4187567	5.2735786	4.258859
710270531689411	4.251564	-0.14657784	6.4525676
710270539990192	4.1820445	-3.0316563	4.7237906
710270548290973	4.332671	-4.4395437	2.5904152
710270556591754	4.8821745	-4.570759	-0.38887548
710270564892536	4.79948	-3.6357574	-2.78988
710270573193317	3.8604689	-2.156086	-2.8342414
710270581494098	3.8727226	-2.170371	-2.9095173
710270589794879	3.2066493	-1.0673227	4.022709
710270598095661	1.8912061	-0.8375988	6.4207172
710270606396442	1.2712415	-0.39859962	7.1689644
710270614697223	1.5851599	-0.057373047	7.4005384
710270622998004	1.4607941	-0.096336365	7.2810535
710270631298786	1.4433175	-0.12599468	7.695813
710270639599567	-2.1619592	-0.2859745	8.167606
710270647900348	-2.1051254	0.9225941	7.821577
710270656201129	-1.1699924	2.5383253	6.695405
710270664501911	-0.5810728	4.1029854	4.500933
710270672802692	-0.75557035	4.0817127	4.4480605
710270681103473	-2.5705378	4.550274	0.7234477
710270689404254	-2.5869625	2.9964285	0.8266084
710270697705036	-2.1796246	1.145257	0.10127556
710270706005817	-2.273802	1.1328592	-4.8959255E-4
710270714306598	-2.1328888	-2.084484	-2.9142437
710270722607379	-1.9115977	-2.9084291	-3.479293
710270730908161	-1.0803244	-3.2240314	-2.504446
710270739208942	-1.5697849	-2.725356	-0.8733587
710270747509723	-1.0978352	-2.3265638	0.12728006
710270755810504	-1.1057322	-2.325863	-0.045313492
710270764111286	-0.48776174	-2.0479374	0.0042765327
710270772412067	-0.3120513	-2.2571487	-0.19790268
710270780712848	-0.32952958	-2.2497568	-0.29358083
710270789013629	-1.0103364	-2.8979025	0.6043101
710270797314411	-1.2471621	-3.0076027	0.81165946
710270805615192	-1.4909604	-2.9090872	0.7369518
710270813915973	-1.5407523	-2.8969307	0.6865814
710270822216754	-1.8657026	-2.5649614	0.38451254
710270830517536	-2.2208524	-1.981183	0.022741199
710270838818317	-2.26598	-0.3945074	-0.093878746
710270847119098	-2.308522	-0.3866911	-0.13343501
710270855419879	-2.133312	0.036581993	-0.064985216
710270863720661	-1.561718	-0.14354801	-0.022487521
710270872021442	-1.6092358	-0.13331795	-0.078219295
710270880322223	-1.918542	-0.41756344	-0.15581101
710270888623004	-2.4564128	0.10475445	-0.39633566
710270896923786	-2.5111036	0.118112564	-0.45673686
710270905224567	-2.756888	0.85684013	-0.85494375
710270913525348	-2.5584853	1.8094263	-0.8790592
710270921826129	-2.6160126	1.8216114	-0.93525684
710270930126911	-2.4669428	2.2554045	0.21987045
710270938427692	-2.341586	2.7397575	0.13549435
710270946728473	-2.378984	2.7490463	0.07607269
710270955029254	-1.9952832	3.3260536	-0.73525906
710270963330036	-1.619892	3.698721	-1.8942856
710270971630817	-1.4799103	3.5873137	-2.8274524
710270979931598	-2.0157337	2.4530172	-2.766595
710270988232379	-2.0167956	2.4510555	-2.7754364
710270996533161	-2.5878556	2.5865536	-2.5654345
710271004833942	-3.0547116	2.6095085	-2.578395
710271013134723	-3.508638	2.3535995	-2.9227743
710271021435504	-4.027392	1.9307451	-3.358827
710271029736286	-4.6378937	1.4349718	-3.5186281
710271038037067	-5.2755823	0.5818424	-3.1543899
710271046337848	-5.398364	-0.20109558	-1.6446722
710271054638629	-5.355671	-0.5512428	-0.81288993
710271062939411	-5.074563	-0.011137962	-0.66360676
710271071240192	-4.577806	1.7788181	-0.74978375
710271079540973	-2.6497936	7.9092655	-0.87554735
710271087841754	-2.5082567	7.8620768	-0.65438896
710271096142536	-1.6271486	9.35435	-0.052161038
710271104443317	-0.39685708	8.888369	0.5069611
710271112744098	1.5712259	7.220442	1.3951083
710271121044879	3.5758522	5.355568	2.5038414
710271129345661	4.6754165	4.107134	3.3951585
710271137646442	4.822103	3.594555	3.5042763
710271145947223	5.1256194	3.7405481	2.5610735
710271154248004	5.432199	3.5459185	1.1143352
710271162548786	5.5885854	2.9384966	-0.5439545
710271170849567	5.2328143	2.1809044	-1.9088094
710271179150348	5.2992935	2.2081985	-1.7404139
710271187451129	2.8429697	1.080102	-1.955451
710271195751911	1.9094412	0.60705185	-0.8383204
710271204052692	0.7353941	0.42308903	1.2210655
710271212353473	-0.121279	0.47241688	2.2910495
710271220654254	-0.607032	0.7941866	2.5282538
710271228955036	-0.5006481	0.82372	2.6071382
710271237255817	-0.69879234	0.76043606	4.163624
710271245556598	-0.16523826	-0.54899883	3.0030887
710271253857379	-0.11791885	-1.1106615	1.981168
710271262158161	-0.25037956	-1.4274092	1.560571
710271270458942	-0.22104108	-1.8294172	1.4658942
710271278759723	0.14498222	-2.387312	1.2726436
710271287060504	0.5692415	-2.9939318	1.5709236
710271295361286	0.97519493	-3.6513853	2.7940454
710271303662067	1.3505366	-4.2598944	4.189686
710271311962848	1.7437351	-4.8224792	5.2872143
710271320263629	2.1031458	-5.360471	5.853094
710271328564411	2.3697865	-5.8398094	5.867395
710271336865192	2.7212477	-6.014926	5.4010935
710271345165973	3.0420403	-5.9743404	4.989059
710271353466754	3.296909	-5.871086	4.760672
710271361767536	3.422982	-5.8413115	4.618368
710271370068317	3.3632293	-5.8260956	4.651572
710271378369098	3.3404043	-5.8740597	4.535735
710271386669879	3.5953562	-6.074643	4.1006966
710271394970661	3.7989786	-6.1612587	3.6002493
710271403271442	3.551395	-6.2782726	2.983034
710271411572223	3.4591255	-6.298525	2.93662
710271419873004	2.1563914	-6.3500986	1.217464
710271428173786	2.0644617	-6.3796825	1.1431031
710271436474567	0.12896895	-4.062763	-1.298589
710271444775348	-1.0060408	-1.1854725	-1.7200131
710271453076129	-1.6302412	3.4373732	-3.5472393
710271461376911	-1.7188457	3.3751373	-3.672759
710271469677692	2.1500106	21.184887	-11.051163
710271477978473	6.6069393	26.692078	-11.220136
710271486279254	3.5225801	16.113815	-9.723927
710271494580036	-4.20343	5.5410585	-8.175259
710271502880817	-8.8722315	-0.9079666	-7.6715384
710271511181598	-8.841088	-0.89998245	-7.6355534
710271519482379	-7.55844	-4.5000696	-2.388901
710271527783161	-7.41752	-4.4603834	-2.3199577
710271536083942	-5.6325235	-0.9159908	2.7074287
710271544384723	-2.5891936	0.39364243	3.3363771
710271552685504	0.6494242	1.0395288	2.5369046
710271560986286	3.479422	1.9464321	1.6114793
710271569287067	5.665264	3.5191555	1.1655829
710271577587848	5.6384153	3.51752	1.1905878
710271585888629	6.3058834	6.2967596	1.1785846
710271594189411	4.732232	5.104335	2.3062124
710271602490192	3.47694	3.3270178	3.6050663
710271610790973	3.4222832	3.3181505	3.6121905
710271619091754	3.150453	-0.09879589	4.133703
710271627392536	3.1349795	-0.093491554	4.145873
710271635693317	3.2378814	-4.0650625	3.984601
710271643994098	3.0533395	-4.1366863	2.490501
710271652294879	3.1003833	-4.1307583	2.4528756
710271660595661	2.904628	-3.5823803	0.92047524
710271668896442	2.3266108	-1.6864996	0.81984115
710271677197223	2.340203	-1.709631	0.710129
710271685498004	0.7361747	-0.14282131	5.2129307
710271693798786	0.27267885	0.0091257095	6.1043053
710271702099567	0.21548319	-0.030446053	5.9482193
710271710400348	0.89530396	0.7948427	7.7375193
710271718701129	0.79382586	0.75669384	7.588048
710271727001911	-0.6748571	0.8937607	7.364497
710271735302692	-1.50087	1.715785	6.500393
710271743603473	-1.6212059	1.688302	6.385574
710271751904254	-0.64494973	2.2553988	5.947503
710271760205036	-0.4644376	3.6288414	2.3025103
710271768505817	-0.5963608	3.6089525	2.2292998
710271776806598	-1.174927	3.5407162	-0.54780203
710271785107379	-1.1808362	0.65741825	-0.6456542
710271793408161	-1.297617	0.6515789	-0.6991567
710271801708942	-1.6572721	-1.167181	-0.21641874
710271810009723	-2.0821893	-2.5831108	-0.21167749
710271818310504	-2.0745404	-3.389083	-0.383803
710271826611286	-1.613066	-3.5133972	-0.40120682
710271834912067	-1.1965244	-2.505251	0.6153145
710271843212848	-1.2222474	-2.5013533	0.487243
710271851513629	-0.8401366	-2.0771713	0.9713897
710271859814411	-0.39699495	-1.813242	0.9383936
710271868115192	0.022973299	-1.681962	0.48386982
710271876415973	0.29148299	-1.7199717	-0.040994793
710271884716754	0.21077675	-2.0663128	-0.3152915
710271893017536	-0.07397729	-2.4896545	-0.33392197
710271901318317	-0.40798193	-2.7314854	-0.32932726
710271909619098	-0.7737654	-2.732273	-0.3454765
710271917919879	-1.1487224	-2.4562368	-0.47184193
710271926220661	-1.4959614	-1.9469395	-0.7318502
710271934521442	-1.5381991	-1.9352007	-0.7839016
710271942822223	-2.0729384	-0.8043232	-1.0490856
710271951123004	-2.32681	-0.6033459	-0.63001823
710271959423786	-2.551389	-0.6029501	-0.16700667
710271967724567	-2.726752	-0.6566143	0.20104545
710271976025348	-2.858956	-0.5675335	0.4018098
710271984326129	-2.9146304	-0.5513582	0.33087122
710271992626911	-3.09054	0.52699375	0.18497086
710272000927692	-3.072809	1.1740131	-0.11655736
710272009228473	-3.1388822	1.5400362	-0.40352213
710272017529254	-3.3640332	1.6730309	-0.44991636
710272025830036	-3.6587024	1.7149906	-0.21869266
710272034130817	-3.7446237	1.7787809	-0.03859639
710272042431598	-3.6402683	2.2072573	-0.41197622
710272050732379	-3.6708732	2.7525845	-1.2211287
710272059033161	-3.6940231	3.1009798	-1.9393392
710272067333942	-3.4636827	3.2668495	-2.1719096
710272075634723	-2.9151087	3.3155127	-1.8778553
710272083935504	-2.3385935	3.1839972	-1.4851631
710272092236286	-2.3929043	2.87498	-1.6486927
710272100537067	-2.3362167	2.6084833	-2.0979352
710272108837848	-2.581758	2.6209269	-2.6200213
710272117138629	-3.1102405	2.8719234	-2.9810324
710272125439411	-3.688498	3.1299744	-3.056735
710272133740192	-3.6623037	3.1179686	-3.0329833
710272142040973	-4.095845	2.4348536	-2.2644827
710272150341754	-4.135928	1.9432793	-1.4772164
710272158642536	-3.991634	2.13064	-1.6710472
710272166943317	-3.4345686	3.0800638	-2.5569181
710272175244098	-2.475662	4.419239	-3.0091681
710272183544879	-1.5862525	5.609276	-1.9213336
710272191845661	-0.46975744	6.2879972	-0.1856038
710272200146442	0.7354165	6.1813154	1.134964
710272208447223	1.8631927	5.5445404	2.07774
710272216748004	2.02408	5.528166	2.3006325
710272225048786	3.1859105	3.8993225	2.9752216
710272233349567	3.4966376	3.2876778	2.8091598
710272241650348	4.1006904	3.1964445	1.774616
710272249951129	5.39792	3.3431387	0.2480923
710272258251911	6.7284884	3.322463	-1.1623594
710272266552692	6.83437	2.8969135	-1.9051422
710272274853473	5.069029	2.0240192	-1.8086963
710272283154254	2.5736992	0.8243017	-1.3470093
710272291455036	1.1018375	0.19155693	0.9246237
710272299755817	-0.4323644	-0.20336914	2.513761
710272308056598	-1.3079071	-0.3286686	2.1033692
710272316357379	-1.9116492	0.048152924	1.3856649
710272324658161	-2.5887663	0.81616974	2.1647336
710272332958942	-1.9350705	0.702281	2.688739
710272341259723	-1.2932434	0.028520584	2.5139153
710272349560504	-0.85260236	-0.7117882	2.2007082
710272357861286	-0.1862104	-1.5314293	2.3836637
710272366162067	-0.027444005	-1.486969	2.435601
710272374462848	1.4204011	-3.2128992	4.0893316
710272382763629	1.6209959	-3.977604	4.7260313
710272391064411	1.9382112	-4.501978	5.1827497
710272399365192	2.3257804	-4.93486	5.268469
710272407665973	2.3563027	-4.887248	5.34838
710272415966754	2.7557445	-5.2859507	5.209063
710272424267536	3.461426	-5.8862877	4.4922132
710272432568317	3.7453098	-5.951129	4.1127806
710272440869098	3.898981	-6.0191593	3.8135743
710272449169879	3.9784055	-6.189378	3.589881
710272457470661	3.9227252	-6.1656103	3.6362724
710272465771442	3.8397164	-6.3826427	3.021797
710272474072223	3.7764251	-6.373975	3.031147
710272482373004	3.5974498	-6.392727	2.0580819
710272490673786	2.763195	-6.38142	1.5861468
710272498974567	2.695011	-6.3910713	1.5513318
710272507275348	1.7460474	-6.2576265	1.0319979
710272515576129	0.8257569	-5.813669	0.27080297
710272523876911	-0.07727635	-4.786726	-0.7067487
710272532177692	-1.0500822	-2.9028473	-1.6932569
710272540478473	-2.1532543	0.33364296	-2.3051586
710272548779254	-2.7037432	5.4067144	-4.6207275
710272557080036	-0.62282085	13.256466	-7.384222
710272565380817	2.835699	20.881233	-9.049832
710272573681598	3.5627086	22.151087	-9.437342
710272581982379	-1.7083681	12.931367	-9.28408
710272590283161	-8.417782	-1.7453537	-7.9887686
710272598583942	-8.384508	-1.7274189	-7.9236197
710272606884723	-8.609119	-3.7605867	-4.510601
710272615185504	-7.8771734	-4.1546392	-0.93502617
710272623486286	-6.858931	-3.747716	1.4948428
710272631787067	-2.9075422	-1.9468098	2.584285
710272640087848	-2.8365903	-1.9195709	2.6271665
710272648388629	0.3868699	-1.5123138	1.4877908
710272656689411	2.7212217	-0.5787668	0.97095776
710272664990192	4.7046356	1.3130646	1.0617378
710272673290973	6.170663	3.662818	1.4698257
710272681591754	6.4070477	5.433317	1.8905978
710272689892536	5.143173	5.951805	2.2206717
710272698193317	4.6938543	5.987232	2.885616
710272706494098	4.797681	5.8965807	2.8768797
710272714794879	4.1507955	4.6149454	2.8877742
710272723095661	2.625073	1.653101	3.349854
710272731396442	1.4893398	-2.2125387	4.0154285
710272739697223	2.26445	-3.8442764	3.4482236
710272747998004	2.7315862	-4.1040344	1.1754639
710272756298786	2.38562	-3.568553	-0.4526255
710272764599567	2.1140761	-3.2489624	-0.13039804
710272772900348	1.8764848	-3.199914	1.874119
710272781201129	0.8853961	-2.6219902	4.3018937
710272789501911	0.4275334	-1.4053078	6.631771
710272797802692	0.96595466	-0.5499973	8.160693
710272806103473	0.58192575	0.02092266	7.997833
710272814404254	-0.17188483	0.66406345	7.323589
710272822705036	-0.6568187	1.5216837	7.0999146
710272831005817	-0.7524114	2.4370747	7.3617663
710272839306598	-0.43896848	3.045745	7.0324373
710272847607379	0.09181297	3.771204	6.770547
710272855908161	-0.05148208	4.321122	5.450839
710272864208942	-0.49891013	4.224577	3.1214564
710272872509723	-0.79395586	3.2306385	0.62851197
710272880810504	-0.7235272	1.3639927	-0.65474087
710272889111286	-1.1646607	-0.40194035	0.43784112
710272897412067	-1.89313	-1.687006	0.82778364
710272905712848	-2.106012	-2.6163597	0.44944167
710272914013629	-1.888891	-3.1398058	-0.36895794
710272922314411	-1.4262261	-3.1680918	-1.1759647
710272930615192	-0.8144909	-2.6880817	-1.4426519
710272938915973	-0.08347374	-2.0472145	-0.7612291
710272947216754	0.44176304	-1.7484179	0.0020514056
710272955517536	0.43590105	-1.7418871	-0.12728226
710272963806919	1.2261447	-1.6772604	0.09811869
710272972107700	1.2182851	-1.6680174	-0.01841706
710272980408481	1.1108031	-2.4217377	-0.02521211
710272988709263	0.8974166	-2.792798	-0.1012252
710272997010044	0.7351763	-3.0051327	-0.25205433
710273005310825	0.48083878	-3.0017204	-0.47082764
710273013611606	0.08488989	-2.6642246	-0.69216955
710273021912388	-0.44891274	-1.9554548	-0.8294031
710273030213169	-0.50841403	-1.9396334	-0.8851211
710273038513950	-1.7244941	-0.13994408	-0.4190067
710273046814731	-2.180592	0.088915825	0.09632671
710273055115513	-2.429277	-0.015917778	0.3034619
710273063416294	-2.575488	-0.16041183	0.18472397
710273071717075	-2.6516814	-0.14390278	0.14211142
710273080017856	-3.03905	0.29888344	-0.54550886
710273088318638	-3.4110508	0.97085094	-0.8364003
710273096619419	-3.5836864	1.6693764	-0.75316477
710273104920200	-3.666028	1.6815519	-0.7576829
710273113220981	-3.70646	2.2916632	-0.34567285
710273121521763	-3.780889	2.7353344	-0.05210805
710273129822544	-4.654295	2.9063606	-0.97185576
710273138123325	-5.7188034	2.8221416	-1.8574617
710273146424106	-6.519523	2.7857141	-2.35733
710273154724888	-6.153112	2.70541	-2.2347465
710273163025669	-6.136862	2.6987677	-2.227979
710273171326450	-4.759236	2.5644073	-1.7643064
710273179627231	-3.5225828	2.428525	-1.8091953
710273187928013	-3.479893	2.4037094	-2.610764
710273196228794	-3.2900267	2.603324	-3.7362378
710273204529575	-3.1487446	2.8101482	-4.705937
710273212830356	-3.0939546	2.793191	-4.6771636
710273221131138	-2.864839	2.291665	-3.465981
710273229431919	-2.5079885	1.6328459	-2.5221167
710273237732700	-1.8062115	1.595787	-2.6342556
710273246033481	-1.0491879	2.3904142	-2.7385998
710273254334263	-0.95079875	2.3568792	-2.582829
710273262635044	-0.36622584	4.0458174	-2.1779482
710273270935825	-0.003720522	6.138898	-0.80082047
710273279236606	0.3048151	7.796625	1.5451686
710273287537388	0.8874002	8.029937	4.1062346
710273295838169	3.040653	5.4676504	5.8194857
710273304138950	3.1791146	5.4598713	6.0368056
710273312439731	3.7524037	4.438902	5.829493
710273320740513	4.201816	3.6430569	4.6132617
710273329041294	4.80001	3.100604	2.4200706
710273337342075	5.902131	3.2529173	-2.9521163
710273345642856	4.0703855	3.8475513	-3.8828444
710273353943638	4.161124	3.868353	-3.7173731
710273362244419	2.3224795	3.484497	-3.2728086
710273370545200	1.3794274	2.2921772	-1.5554808
710273378845981	0.84117216	1.0984373	0.63338065
710273387146763	-2.1277537	0.17057037	0.22531295
710273395447544	-2.0470238	0.18004799	0.24538445
710273403748325	-1.4833437	0.22961235	-0.72476935
710273412049106	-0.8954	0.7339468	0.5942931
710273420349888	-0.21531951	0.74323654	2.998143
710273428650669	-0.5484402	-1.6114883	3.747019
710273436951450	-0.3733927	-1.5666313	3.8018444
710273445252231	0.245175	-2.2896338	2.6887207
710273453553013	0.58102715	-2.663066	2.6901007
710273461853794	0.8371736	-3.1185656	3.1499858
710273470154575	1.0257329	-3.6551437	3.8912823
710273478455356	1.1761675	-4.1776133	4.769975
710273486756138	1.520577	-4.78432	5.237916
710273495056919	1.7506979	-5.171032	5.092551
710273503357700	2.260232	-5.4805984	4.9081016
710273511658481	2.810428	-5.7098894	4.657719
710273519959263	3.3161159	-5.8354883	4.414434
710273528260044	3.7134023	-5.864355	4.217472
710273536560825	3.6556036	-5.8323402	4.2901945
710273544861606	3.6880698	-5.9490366	3.7382226
710273553162388	3.5421276	-6.010071	3.7086074
710273561463169	3.5016515	-6.0424414	3.6302145
710273569763950	3.3897152	-6.0574007	3.3389382
710273578064731	2.2655473	-5.958557	2.0671177
710273586365513	2.1786637	-5.967453	2.045908
710273594666294	1.4003019	-5.6650133	1.1969016
710273602967075	0.68512833	-5.0115128	0.07416296
710273611267856	-0.08690381	-3.7770061	-1.0340707
710273619568638	-0.8396455	-1.7595654	-1.914685
710273627869419	-1.4354204	1.3363905	-2.777028
710273636170200	-1.8446882	6.03755	-4.673527
710273644470981	0.24951953	14.41872	-7.345229
710273652771763	4.8211546	21.087337	-8.159701
710273661072544	4.2771025	19.190277	-8.628922
710273669373325	-1.5899633	11.081144	-8.332788
710273677674106	-8.135376	3.0210543	-6.7915792
710273685974888	-9.691997	-1.5407257	-6.4607897
710273694275669	-8.841426	-2.9317503	-3.7433124
710273702576450	-7.6881137	-3.2616358	-1.4930224
710273710877231	-6.5145025	-2.8803015	0.27047086
710273719178013	-4.889664	-2.096012	1.1978915
710273727478794	-4.796685	-2.072154	1.2307308
710273735779575	0.2875905	-0.45750427	0.34798837
710273744080356	1.7088623	0.7603092	0.46776128
710273752381138	3.571511	2.5093975	1.1011293
710273760681919	5.009515	4.210211	1.9020813
710273768982700	5.2842555	5.0844135	2.8137667
710273777283481	4.43024	4.657275	3.908087
710273785584263	3.6537273	3.197935	4.936644
710273793885044	4.4145594	2.3500538	4.8701134
710273802185825	4.6251206	1.799201	4.264636
710273810486606	4.6117525	1.7996664	4.270642
710273818787388	3.4107506	-1.7794857	3.1189942
710273827088169	3.4463048	-1.772131	3.1111915
710273835388950	3.173654	-3.4200506	-0.41646147
710273843689731	2.802796	-1.9470911	-0.9273653
710273851990513	2.9968214	-0.8495064	0.40542078
710273860291294	2.990057	-0.8669224	0.33844066
710273868592075	2.5910745	-0.41359997	2.5381773
710273876892856	1.2801569	-0.3862877	4.6693573
710273885193638	1.0578427	0.21209526	7.690877
710273893494419	0.4586835	0.0695343	8.83321
710273901795200	-0.4890265	-0.028222084	8.846136
710273910095981	-0.5696231	0.15875721	7.822068
710273918396763	-0.681938	0.12894535	7.681869
710273926697544	0.2685127	1.4767017	5.8582954
710273934998325	-0.18111776	2.5004826	5.2769723
710273943299106	-0.7388828	3.1021223	4.181321
710273951599888	-0.6469934	3.0799208	2.8504753
710273959900669	-0.29535317	2.7449112	1.5860621
710273968201450	-0.41497827	2.7338333	1.5118203
710273976502231	-1.0879998	0.9876976	-0.04205346
710273984803013	-2.1155534	-0.28246593	-0.79413134
710273993103794	-2.0274854	-1.6847811	-1.4308596
710274001404575	-1.6069052	-2.6609306	-1.6683401
710274009705356	-1.6659651	-2.6585398	-1.7732252
710274018006138	-1.3789364	-2.8842726	-1.4768505
710274026306919	-1.2384367	-2.5855894	-0.69840443
710274034607700	-0.12791026	-2.4912186	0.91080326
710274042908481	0.22963166	-2.4248724	0.84906554
710274051209263	0.36979425	-2.34056	0.57596636
710274059510044	0.35907525	-2.3349552	0.48510388
710274067810825	0.14519787	-2.2530212	0.18515629
710274076111606	-0.37319583	-2.163662	-0.039019257
710274084412388	-1.407711	-1.6915998	-0.1345136
710274092713169	-1.9746875	-1.0721331	-0.340483
710274101013950	-2.038443	-1.0611401	-0.37422422
710274109314731	-2.5261204	-0.44202995	-0.5454089
710274117615513	-2.9565992	-0.08106518	-0.49766508
710274125916294	-3.3593035	-0.0499506	-0.21323007
710274134217075	-3.8209734	-0.43416977	0.18310598
710274142517856	-3.8861158	-0.41981792	0.13391423
710274150818638	-3.9638915	-0.7067213	-0.025676668
710274159119419	-4.0337453	-0.9046459	-0.14161909
710274167420200	-4.1852574	-0.8359623	-0.2042073
710274175720981	-4.4660587	-0.46540546	-0.23100859
710274184021763	-4.880897	0.107769966	-0.18026495
710274192322544	-5.263757	0.520792	0.11800206
710274200623325	-5.2519975	0.64724064	0.6486393
710274208924106	-4.845954	0.7312355	1.0329559
710274217224888	-4.300571	0.91807556	0.89528114
710274225525669	-3.933609	1.2618465	0.23184317
710274233826450	-3.9203186	1.7428608	-0.560134
710274242127231	-3.8067155	2.5079098	-0.9030829
710274250428013	-2.9929645	3.1958675	-1.0304856
710274258728794	-2.053702	3.5965996	-1.0406437
710274267029575	-1.4738295	3.705204	-0.88764554
710274275330356	-1.3338293	3.569193	-0.5961709
710274283631138	-1.2914535	3.5525532	-0.57260036
710274291931919	-0.92280924	2.991498	-0.21939862
710274300232700	-1.228521	3.3821125	-0.39637858
710274308533481	-1.7269678	3.7546158	-1.1534092
710274316834263	-2.3629174	3.8678217	-1.7309906
710274325135044	-3.1041641	3.633666	-1.5499288
710274333435825	-3.0585675	3.621439	-1.5694742
710274341736606	-3.8655672	2.2109156	0.12166208
710274350037388	-3.726355	1.8439112	-0.7415077
710274358338169	-3.1055894	1.9781408	-2.3896234
710274366638950	-2.0877347	2.5323505	-3.6319454
710274374939731	-0.9061209	3.4325342	-3.5029163
710274383240513	0.19828945	4.6355333	-1.6826103
710274391541294	1.3621397	5.447789	0.55880725
710274399842075	2.10027	5.370166	1.7660836
710274408142856	2.563007	4.6868544	2.27451
710274416443638	3.1598353	3.6338968	2.461732
710274424744419	4.069649	2.503027	2.4807577
710274433045200	4.18119	2.515215	2.6792889
710274441345981	5.7294097	1.4258518	0.83896387
710274449646763	6.3510804	1.4402752	-0.9435108
710274457947544	5.796159	1.376009	-1.7255013
710274466248325	3.9183176	1.0288572	-1.4239727
710274474549106	3.9502115	1.0577774	-1.2675983
710274482849888	1.3932247	0.467371	0.15579915
710274491150669	-1.2014256	-0.45030403	4.793231
710274499451450	-1.8098214	-0.35273457	3.5635965
710274507752231	-3.183898	0.18243408	2.146226
710274516053013	-4.757443	0.67991257	1.2490621
710274524353794	-5.7086825	0.7862835	1.131489
710274532654575	-5.5228596	0.8049936	1.1652131
710274540955356	-3.5913982	0.065629005	3.3235815
710274549256138	-1.7608447	-0.8296366	4.647316
710274557556919	-0.45791972	-1.8151779	5.5379524
710274565857700	-0.31126845	-1.7825375	5.5522213
710274574158481	0.9424161	-3.5208235	5.263345
710274582459263	1.0255789	-3.4823437	5.3127394
710274590760044	1.9706904	-4.3483286	3.8752787
710274599060825	2.4726028	-4.76462	3.6648295
710274607361606	2.8585029	-5.1173115	3.6333692
710274615662388	3.1536794	-5.3694153	3.6147318
710274623963169	3.13548	-5.338235	3.6799703
710274632263950	3.3535724	-5.4913445	3.5355275
710274640564731	3.8097134	-5.5949144	2.6899424
710274648865513	3.7588587	-5.5791483	2.7217991
710274657166294	3.9774551	-5.557969	1.7278953
710274665467075	3.8974955	-5.5856123	1.4635682
710274673767856	3.8317075	-5.5858	1.4541981
710274682068638	3.5787978	-5.673745	1.3240836
710274690369419	2.5792675	-5.4940977	1.1045997
710274698670200	2.0945997	-4.8742027	0.8849468
710274706970981	2.0211134	-4.8987083	0.80092764
710274715271763	0.79068995	-2.0698195	0.16806173
710274723572544	0.7211617	-2.1062098	0.0522511
710274731873325	0.090414405	0.5511131	-0.20662045
710274740174106	0.8395978	11.185774	-2.1882772
710274748474888	2.2815316	17.286385	-5.721467
710274756775669	1.1071863	17.940037	-8.606559
710274765076450	1.0322741	17.877611	-8.682511
710274773377231	-2.1771307	12.924334	-9.67685
710274781678013	-5.5840116	5.1273737	-9.041991
710274789978794	-9.946311	-2.5337114	-6.030322
710274798279575	-9.845625	-2.506463	-5.9432964
710274806580356	-9.538628	-2.4421597	-2.1358335
710274814881138	-8.428443	-2.2081385	0.87117004
710274823181919	-6.6685634	-1.8652287	2.423609
710274831482700	-4.21899	-1.0259275	2.7069416
710274839783481	-1.5921448	0.52908707	2.386151
710274848084263	0.6304687	2.4496632	2.2058418
710274856385044	2.7683659	4.908352	2.039454
710274864685825	4.8545547	7.413432	2.510003
710274872986606	5.922864	8.877332	3.2260468
710274881287388	5.4055176	8.143681	3.5598218
710274889588169	4.6528006	3.9170609	3.384936
710274897888950	3.8970048	-0.5988312	3.5075915
710274906189731	4.0472813	-4.352806	3.441086
710274914490513	4.475342	-6.6815414	3.2016685
710274922791294	4.9637175	-7.4890995	2.2078152
710274931092075	5.330204	-7.013279	-0.13910604
710274939392856	4.87722	-5.561181	-3.7457716
710274947693638	4.0743027	-2.3807173	-4.429796
710274955994419	4.617465	-0.08607197	-0.4770112
710274964295200	4.739907	0.79949856	4.265925
710274972595981	3.9203863	0.90370846	7.2773223
710274980896763	2.8572905	1.0874567	7.7332163
710274989197544	3.4007607	1.1776066	6.788432
710274997498325	3.612286	0.7244425	5.301799
710275005799106	3.288416	0.73663807	5.3257675
710275014099888	2.6316822	0.9901228	5.954681
710275022400669	1.5992327	1.474823	6.199258
710275030701450	1.448834	1.4513884	6.057672
710275039002231	-1.3817496	3.8128805	5.2943645
710275047303013	-1.0874801	4.843298	4.135561
710275055603794	-1.2839763	4.4833508	1.4196584
710275063904575	-2.3668256	2.7862606	0.11651003
710275072205356	-3.584903	0.5566063	0.67202777
710275080506138	-4.035592	-1.2570515	1.8243802
710275088806919	-4.2295375	-2.2948132	2.0278223
710275097107700	-4.1541047	-2.6420488	1.2943
710275105408481	-3.4186976	-2.5832968	0.43062285
710275113709263	-2.3041234	-2.23491	-0.07625416
710275122010044	-1.3062963	-1.7562838	-0.047916472
710275130310825	-0.80612206	-1.3589239	0.39741498
710275138611606	-0.50001675	-1.3453312	0.8839736
710275146912388	-0.3911447	-1.47647	0.934781
710275155213169	-0.37849045	-1.8284082	0.2879519
710275163513950	-0.15143883	-2.2754326	-0.43225396
710275171814731	0.19903964	-2.676612	-0.9844864
710275180115513	0.40979195	-2.9278717	-1.3428922
710275188416294	0.6297446	-2.987298	-0.8988541
710275196717075	0.63553715	-2.667983	0.1344316
710275205017856	0.23896253	-1.9705925	0.75321966
710275213318638	-0.2573403	-1.0855856	0.77288115
710275221619419	-0.61751497	-0.2564211	0.21558404
710275229920200	-0.6579857	-0.24097061	0.13728726
710275238220981	-0.7736647	0.33865738	-1.6357079
710275246521763	-0.9132837	0.15721989	-1.952022
710275254822544	-1.1307111	-0.002503395	-1.6979569
710275263123325	-1.2181597	0.014793396	-1.719763
710275271424106	-1.5751709	0.13856792	-1.1733155
710275279724888	-2.37692	1.3308048	0.14913654
710275288025669	-2.8912778	1.9025784	0.75330126
710275296326450	-3.4678378	2.0526114	0.6542181
710275304627231	-4.0813427	2.1003656	-0.06249857
710275312928013	-4.673178	2.2155695	-0.9383508
710275321228794	-4.7393208	2.223443	-0.90882444
710275329529575	-5.681617	2.6619625	-2.3670712
710275337830356	-5.8068933	2.9501162	-2.2411184
710275346131138	-4.2956285	3.054778	-1.0414424
710275354431919	-3.4664037	3.0411367	0.025199413
710275362732700	-2.9678583	2.9409914	0.16299665
710275371033481	-2.4830668	2.7734232	-0.619032
710275379334263	-2.4355454	2.75813	-0.6178732
710275387635044	-2.254125	2.6545734	-2.239882
710275395935825	-2.3051543	2.9080982	-2.3549438
710275404236606	-2.2542615	2.8905506	-2.3353333
710275412537388	-3.6091285	2.9581032	-2.7948244
710275420838169	-4.3103304	2.4090214	-2.6805248
710275429138950	-4.261304	2.3959703	-2.6716454
710275437439731	-4.858511	0.7927332	-1.5751783
710275445740513	-4.608717	1.4106388	-2.6236987
710275454041294	-2.9376087	2.4378204	-4.331109
710275462342075	-1.0981867	3.814435	-4.7722063
710275470642856	-0.9421425	3.7668848	-4.5484033
710275478943638	0.44418395	5.3792496	-2.8465033
710275487244419	2.4631577	7.054579	1.6152333
710275495545200	3.4282281	6.341034	2.966299
710275503845981	3.6106784	6.322563	3.2049909
710275512146763	4.2886386	3.7874842	4.011613
710275520447544	4.424893	3.7928867	4.234959
710275528748325	4.903528	2.5830584	3.7636817
710275537049106	8.189051	1.1278048	-0.35227668
710275545349888	8.238641	1.1591778	-0.12236047
710275553650669	9.278544	0.9846573	-2.2738972
710275561951450	4.3834815	0.16715622	0.1793555
710275570252231	4.3814397	0.19898796	0.32956982
710275578553013	0.72190225	0.31988144	3.7795682
710275586853794	-0.97265875	0.5796747	4.2837534
710275595154575	-3.1727903	0.8526058	1.4581959
710275603455356	-5.381344	0.81470394	-0.10777426
710275611756138	-5.8847046	0.53848267	-0.23210788
710275620056919	-4.5507255	0.1378355	0.85020614
710275628357700	-2.47758	-0.34918213	2.4481168
710275636658481	-1.6485057	-0.97464275	3.4615483
710275644959263	-0.46967173	-1.9079914	3.6944828
710275653260044	0.4125507	-2.564248	3.584941
710275661560825	0.861158	-3.0943775	3.6124206
710275669861606	1.0634276	-3.5055094	3.8444304
710275678162388	1.3554316	-3.8564997	4.175911
710275686463169	1.9874865	-4.2639437	4.476959
