gyroscope_timestamp	gyroscope_x_data	gyroscope_y_data	gyroscope_z_data
1443697074704748367	-2.000534	-0.7006836	0.93621826
1443697074709783767	-1.9003601	-0.30361938	0.93621826
1443697074715002273	-1.8062744	-0.30361938	0.9239807
1443697074719854568	-1.7219696	-0.3366089	0.93621826
1443697074724920486	-1.6499023	-0.379364	0.9691925
1443697074729955887	-1.5924835	-0.44656372	1.0119629
1443697074735143875	-1.5497131	-0.5467529	1.0596008
1443697074740453933	-1.5228424	-0.6823578	1.1121368
1443697074745245193	-1.5081787	-0.84239197	1.1707916
1443697074748419021	-1.4983978	-1.0097809	1.2342987
1443697074755193924	-1.4837494	-1.1612701	1.2929535
1443697074760168289	-1.455658	-1.2810059	1.3405914
1443697074765353374	-1.4043274	-1.3555145	1.377243
1443697074770205669	-1.3310242	-1.3653107	1.4078064
1443697074775271587	-1.2442932	-1.284668	1.429779
1443697074780306988	-1.157547	-1.0977325	1.4420166
1443697074785342388	-1.078125	-0.81430054	1.444458
1443697074791384868	-1.0060425	-0.46733093	1.4468994
1443697074795535259	-0.94129944	-0.09593201	1.4603424
1443697074798770122	-0.94129944	0.253479	1.4603424
1443697074805697613	-0.8789978	0.253479	1.5263062
1443697074810519390	-0.8789978	0.7067261	1.5263062
1443697074816775493	-0.9156494	0.7067261	1.582489
1443697074820712261	-0.9156494	0.8411102	1.582489
1443697074826113872	-0.9315338	0.8411102	1.582489
1443697074830783062	-0.9290924	0.89608765	1.5666199
1443697074836154155	-0.91441345	0.97917175	1.5409546
1443697074842959575	-0.87654114	1.091568	1.4762115
1443697074845736675	-0.87654114	1.3725586	1.4762115
1443697074849246196	-0.8655548	1.3725586	1.4383392
1443697074855868511	-0.86187744	1.5130615	1.3955688
1443697074860873394	-0.86065674	1.6352386	1.3503723
1443697074865878277	-0.8484497	1.7341919	1.3051758
1443697074870944195	-0.8215637	1.8184967	1.2575226
1443697074876742534	-0.7824707	1.8966827	1.2037659
1443697074881014995	-0.73361206	1.9700012	1.1451111
1443697074886050396	-0.67007446	2.0347443	1.0864868
1443697074891879253	-0.58699036	2.079956	1.0339508
1443697074896121196	-0.48680115	2.0958252	0.9936371
1443697074899478130	-0.48680115	2.0848389	0.9936371
1443697074906191997	-0.37930298	2.0848389	0.9606323
1443697074911227398	-0.2705841	2.0591888	0.9300995
1443697074916262798	-0.16671753	2.0298615	0.8958893
1443697074921267681	-0.06654358	1.9980927	0.85435486
1443697074930331402	0.12768555	1.9626465	0.74806213
1443697074936404400	0.22543335	1.8942413	0.68940735
1443697074942263775	0.3207245	1.8746948	0.6307831
1443697074946505718	0.40623474	1.8575897	0.5721283
1443697074949801616	0.47709656	1.8392639	0.5147095
1443697074956729107	0.54063416	1.8148346	0.45606995
1443697074961581402	0.60295105	1.783081	0.39865112
1443697074966647320	0.6701355	1.7378693	0.3387909
1443697074971804790	0.7434387	1.6828918	0.2776947
1443697074977328472	0.82164	1.6144714	0.21537781
1443697074981692486	0.90470886	1.5301819	0.15187073
1443697074986727886	0.9890137	1.4263153	0.08711243
1443697074993167095	1.0647583	1.3016968	0.017471313
1443697074996981792	1.1270752	1.1673126	-0.057037354
1443697075000186138	1.1270752	1.0378265	-0.057037354
1443697075006900005	1.171051	1.0378265	-0.13400269
1443697075017764263	1.21138	0.92785645	-0.28793335
1443697075021975689	1.2052612	0.7201538	-0.35391235
1443697075027224712	1.1759338	0.7201538	-0.41134644
1443697075032077007	1.1270752	0.68229675	-0.45896912
1443697075037203960	1.0586548	0.66397095	-0.4992981
1443697075042636089	0.96580505	0.67007446	-0.5273895
1443697075047335796	0.8424072	0.6920624	-0.5396271
1443697075051058941	0.68481445	0.71650696	-0.5261841
1443697075057406597	0.5052185	0.7335968	-0.48464966
1443697075062258892	0.31217957	0.75071716	-0.4174347
1443697075067324810	0.11669922	0.7763672	-0.32582092
1443697075072360210	-0.081207275	0.808136	-0.21463013
1443697075078189068	-0.28279114	0.82766724	-0.090026855
1443697075082431011	-0.4831543	0.8240204	0.045578003
1443697075087435894	-0.6615143	0.80081177	0.18972778
1443697075092898540	-0.7910309	0.7763672	0.3412323
1443697075097537212	-0.7910309	0.76660156	0.49028015
1443697075105410747	-0.8362274	0.7861328	0.6271057
1443697075112796001	-0.7763672	0.84599304	0.7444
1443697075117648296	-0.7067261	0.94862366	0.83969116
1443697075122866802	-0.65296936	1.0891266	0.91545105
1443697075128756695	-0.6236572	1.2467194	0.97042847
1443697075132785015	-0.60653687	1.3957825	1.002182
1443697075137789898	-0.58699036	1.5081787	1.0082855
1443697075143649273	-0.5515747	1.568039	0.9899597
1443697075147891216	-0.49047852	1.5692749	0.9508667
1443697075151248150	-0.39640808	1.5057373	0.89956665
1443697075159274273	-0.2571411	1.3750153	0.83480835
1443697075162997417	-0.072647095	1.1697693	0.75538635
1443697075168734722	0.14356995	0.89242554	0.6491089
1443697075173190288	0.3695984	0.563797	0.50128174
1443697075178103618	0.58584595	0.22903442	0.3058014
1443697075183139019	0.78009033	-0.062942505	0.066345215
1443697075194338970	1.0305481	-0.28407288	-0.46144104
1443697075198123150	1.0305481	-0.65670776	-0.46144104
1443697075201754741	1.0183411	-0.65670776	-0.7008972
1443697075208316021	0.87538147	-0.91937256	-0.8865814
1443697075213351421	0.62127686	-1.2333527	-0.98677063
1443697075218356304	0.31217957	-1.5155792	-0.98065186
1443697075223544292	0.020187378	-1.6731873	-0.8633728
1443697075229067974	-0.19848633	-1.6817322	-0.6556854
1443697075233676128	-0.32188416	-1.6035309	-0.39302063
1443697075238558941	-0.34265137	-1.5302277	-0.12545776
1443697075243594341	-0.26690674	-1.5106812	0.08711243
1443697075248599224	-0.11418152	-1.5265656	0.19584656
1443697075252108745	0.08370972	-1.533905	0.17628479
1443697075258670025	0.28285217	-1.507019	0.03579712
1443697075263705425	0.4392395	-1.4606018	-0.19386292
1443697075268740825	0.53453064	-1.4190521	-0.4724121
1443697075273959331	0.58218384	-1.3897247	-0.7595215
1443697075279299907	0.6224823	-1.3653107	-1.0173035
1443697075283999614	0.6860199	-1.3469849	-1.2299042
1443697075288882427	0.794754	-1.3543091	-1.3936157
1443697075293917827	0.794754	-1.4202881	-1.5133362
1443697075298953228	0.9486847	-1.4202881	-1.5133362
1443697075302462749	1.1392822	-1.5656738	-1.596405
1443697075309176616	1.3445282	-1.7965698	-1.6501617
1443697075315127544	1.5363464	-2.1032104	-1.7198181
1443697075319216900	1.6951752	-2.4611816	-1.7198181
1443697075325381450	1.8100128	-2.8166962	-1.7613525
1443697075330142193	1.8808594	-3.107483	-1.8138733
1443697075334811382	1.9101868	-3.285843	-1.8700867
1443697075339205913	1.9028625	-3.3432617	-1.915268
1443697075344515972	1.8540039	-3.2968445	-1.9372711
1443697075349459820	1.7501526	-3.1661224	-1.9323883
1443697075352664165	1.5876617	-2.9498749	-1.9042969
1443697075364840679	1.184494	-2.6346893	-1.7796783
1443697075369631939	1.0354309	-1.6438599	-1.6794891
1443697075374453716	0.96092224	-0.9890137	-1.5548706
1443697075379397564	0.95236206	-0.30361938	-1.4082642
1443697075384524517	0.98657227	0.32188416	-1.246994
1443697075389743023	1.0354309	0.808136	-1.0722961
1443697075395083599	1.0830841	1.1208954	-0.8878174
1443697075399813823	1.0830841	1.2736053	-0.8878174
1443697075402987652	1.1258392	1.2736053	-0.7008972
1443697075409854107	1.1661682	1.3175812	-0.5225067
1443697075414767437	1.2064667	1.3078156	-0.36003113
1443697075419955425	1.2492371	1.271164	-0.21342468
1443697075424838238	1.3005524	1.2003021	-0.07658386
1443697075429904155	1.3714142	1.0573578	0.05290222
1443697075434909038	1.4630432	0.820343	0.16775513
1443697075440066509	1.5619965	0.5051422	0.25202942
1443697075445620708	1.6499634	0.17527771	0.2911377
1443697075453097515	1.7086182	-0.08616638	0.28503418
1443697075460269146	1.7159424	-0.23641968	0.17628479
1443697075465121441	1.673172	-0.17044067	0.08955383
1443697075470339946	1.6096344	-0.07637024	-0.0155181885
1443697075475192241	1.5326843	0.01524353	-0.13156128
1443697075480288677	1.455719	0.10441589	-0.2525177
1443697075485232525	1.3909454	0.19726563	-0.37223816
1443697075491213970	1.3433075	0.28889465	-0.48464966
1443697075496157818	1.3078766	0.36097717	-0.5884857
1443697075501193218	1.2687836	0.3854065	-0.6825714
1443697075503726177	1.2687836	0.34510803	-0.6825714
1443697075511202984	1.2138214	0.34510803	-0.76319885
1443697075515444927	1.1380463	0.2559204	-0.8291626
1443697075520663433	1.0476532	0.15206909	-0.8780365
1443697075525668316	0.95480347	0.06654358	-0.91223145
1443697075531375103	0.87294006	-0.0018615723	-0.93055725
1443697075540866070	0.7849884	-0.07392883	-0.9220276
1443697075545840435	0.7813263	-0.29507446	-0.8963623
1443697075550662212	0.79597473	-0.42825317	-0.8658142
1443697075554080181	0.81796265	-0.55041504	-0.83406067
1443697075560794048	0.83384705	-0.63838196	-0.8071747
1443697075565707378	0.83872986	-0.68359375	-0.78518677
1443697075570834331	0.83140564	-0.6933594	-0.7705231
1443697075576022320	0.81796265	-0.68847656	-0.76564026
1443697075581423931	0.80085754	-0.68603516	-0.7754059
1443697075586093120	0.7849884	-0.6933594	-0.79985046
1443697075590975933	0.7849884	-0.7055664	-0.79985046
1443697075596041851	0.7727661	-0.7055664	-0.8328247
1443697075601046734	0.76420593	-0.716568	-0.8682556
1443697075604403667	0.755661	-0.7177887	-0.9000244
1443697075611300640	0.7446747	-0.70680237	-0.924469
1443697075616152935	0.7287903	-0.6847992	-0.93911743
1443697075621218853	0.7116699	-0.65182495	-0.93911743
1443697075629092388	0.68725586	-0.61273193	-0.8951416
1443697075631808452	0.68725586	-0.5296478	-0.8951416
1443697075636447124	0.67381287	-0.5296478	-0.845047
1443697075641513042	0.6518097	-0.48809814	-0.7778473
1443697075646395855	0.62127686	-0.44534302	-0.69966125
1443697075651400738	0.5809479	-0.39892578	-0.6226959
1443697075654940777	0.5284271	-0.353714	-0.5506134
1443697075661654644	0.4600067	-0.31828308	-0.48953247
1443697075666842632	0.3757019	-0.29873657	-0.43943787
1443697075671694927	0.27919006	-0.29385376	-0.40644836
1443697075676669292	0.18022156	-0.29873657	-0.38812256
1443697075681643657	0.087371826	-0.3048401	-0.37590027
1443697075686679058	0.087371826	-0.30729675	-0.36247253
1443697075691683941	0.0030670166	-0.30729675	-0.36247253
1443697075697360210	-0.06410217	-0.30117798	-0.32582092
1443697075701937847	-0.109298706	-0.26452637	-0.32582092
1443697075706210308	-0.13006592	-0.26452637	-0.3050537
1443697075716006450	-0.13250732	-0.25720215	-0.25616455
1443697075721896343	-0.14350891	-0.340271	-0.22563171
1443697075726931743	-0.17893982	-0.4270172	-0.1877594
1443697075732791118	-0.24858093	-0.51742554	-0.14256287
1443697075737002544	-0.34753418	-0.58828735	-0.085128784
1443697075742190532	-0.4697113	-0.6261444	-0.017959595
1443697075747561626	-0.60287476	-0.6261444	0.06510925
1443697075752291851	-0.7421417	-0.59928894	0.16407776
1443697075755496196	-0.7421417	-0.55285645	0.16407776
1443697075762362652	-1.0158234	-0.55285645	0.3888855
1443697075767245464	-1.1477661	-0.433136	0.5000458
1443697075772463970	-1.2821503	-0.379364	0.6087799
1443697075777316265	-1.4250946	-0.34638977	0.72117615
1443697075782382183	-1.571701	-0.340271	0.84091187
1443697075787387066	-1.571701	-0.3610382	0.84091187
1443697075792544536	-1.7085266	-0.3610382	0.96307373
1443697075803683452	-2.0286407	-0.40013123	1.2453003
1443697075807559185	-2.0286407	-0.50886536	1.2453003
1443697075812716655	-2.1324768	-0.50886536	1.299057
1443697075817568950	-2.2350922	-0.49665833	1.339386
1443697075823916607	-2.3218536	-0.43678284	1.3723602
1443697075827639751	-2.3841553	-0.32806396	1.4016876
1443697075833529644	-2.415924	-0.19856262	1.429779
1443697075837710552	-2.4122467	-0.08248901	1.4529877
1443697075842898540	-2.3731537	-0.0043029785	1.4627838
1443697075848727398	-2.3096313	0.028686523	1.4505463
1443697075852847271	-2.2314453	0.017684937	1.4126892
1443697075856387310	-2.2314453	-0.03729248	1.4126892
1443697075862918071	-2.0738373	-0.03729248	1.2575226
1443697075867922954	-1.995636	-0.27919006	1.1536713
1443697075872988872	-1.9150085	-0.4404602	1.0510559
1443697075878176861	-1.8319397	-0.58828735	0.9655304
1443697075883670025	-1.7427368	-0.6933594	0.9129791
1443697075890261821	-1.6450195	-0.7434387	0.89956665
1443697075893130474	-1.6450195	-0.74710083	0.89956665
1443697075898318462	-1.5448303	-0.74710083	0.9190979
1443697075903201275	-1.454422	-0.728775	0.9606323
1443697075906527691	-1.3933258	-0.716568	1.0107269
1443697075913302593	-1.3676758	-0.7275696	1.0620422
1443697075918276958	-1.3713531	-0.7654419	1.1121368
1443697075923312359	-1.389679	-0.82896423	1.1585541
1443697075928530864	-1.4055634	-0.92181396	1.1976471
1443697075933901958	-1.4043274	-1.0427551	1.2269745
1443697075938632183	-1.3835602	-1.1710358	1.2440948
1443697075943453960	-1.3469086	-1.2700043	1.2489777
1443697075948397808	-1.2980347	-1.3078918	1.2379761
1443697075953524761	-1.2430573	-1.2724457	1.212326
1443697075956881695	-1.2430573	-1.166153	1.212326
1443697075963717632	-1.1074524	-1.166153	1.1487885
1443697075968630962	-1.0243683	-0.7874298	1.1353455
1443697075977908306	-0.9339752	-0.55163574	1.1451111
1443697075983920269	-0.84355164	-0.062942505	1.1707916
1443697075989718609	-0.7067261	-0.062942505	1.2330933
1443697075993807964	-0.7067261	0.4355011	1.2330933
1443697075999575786	-0.6871643	0.4355011	1.2611847
1443697076003878765	-0.7030487	0.64564514	1.2880707
1443697076007388286	-0.7384949	0.80081177	1.3063965
1443697076014132671	-0.7763672	0.90586853	1.3100586
1443697076018984966	-0.7995758	0.98773193	1.2953949
1443697076024172954	-0.8032379	1.0805664	1.2697449
1443697076029055767	-0.7849121	1.2064209	1.2391968
1443697076034091167	-0.7531433	1.3725586	1.2098846
1443697076039157085	-0.7189331	1.5643768	1.1891174
1443697076044345073	-0.6908417	1.7610779	1.1756744
1443697076049685650	-0.6688385	1.9382324	1.1634369
1443697076054415874	-0.6431885	2.0872803	1.146347
1443697076058139019	-0.6431885	2.2106628	1.146347
1443697076065707378	-0.56744385	2.2106628	1.0986938
1443697076069369488	-0.5173645	2.397583	1.0742645
1443697076074526958	-0.46359253	2.4525604	1.0449371
1443697076079409771	-0.46359253	2.4733276	1.0449371
1443697076084506206	-0.41105652	2.4733276	1.0082855
1443697076089511089	-0.36097717	2.463562	0.9667511
1443697076094668560	-0.31088257	2.436676	0.9215393
1443697076100375347	-0.2571411	2.4012604	0.87023926
1443697076104739361	-0.19972229	2.3609467	0.81404114
1443697076107882671	-0.1398468	2.3132935	0.7566223
1443697076114810161	-0.07998657	2.259552	0.70040894
1443697076119723491	-0.020126343	2.2082214	0.6515503
1443697076124911480	0.043395996	2.163025	0.61001587
1443697076129794292	0.11303711	2.1214905	0.573349
1443697076134829693	0.19366455	2.075058	0.534256
1443697076139865093	0.28529358	2.017624	0.48783875
1443697076145053081	0.38546753	1.9418793	0.43406677
1443697076153872661	0.48809814	1.8417053	0.3204651
1443697076158297710	0.58706665	1.5485077	0.3204651
1443697076166354351	0.7581177	1.5485077	0.20684814
1443697076170077495	0.82774353	1.1893005	0.14575195
1443697076175814800	0.87905884	1.0304718	0.08467102
1443697076180148296	0.87905884	0.90586853	0.08467102
1443697076185519390	0.9095917	0.90586853	0.029693604
1443697076190371685	0.91571045	0.81669617	-0.016723633
1443697076195223980	0.89982605	0.7604828	-0.054595947
1443697076200259380	0.86195374	0.73483276	-0.085128784
1443697076205325298	0.7996521	0.73727417	-0.10835266
1443697076208834820	0.71655273	0.76904297	-0.12545776
1443697076215365581	0.6151581	0.82522583	-0.13522339
1443697076220400982	0.50154114	0.89364624	-0.1376648
1443697076225436382	0.3781433	0.95228577	-0.13156128
1443697076230502300	0.24008179	0.98161316	-0.11201477
1443697076241671734	-0.0921936	0.97673035	-0.025268555
1443697076245577984	-0.29011536	0.91319275	0.045578003
1443697076250765972	-0.4965973	0.88020325	0.13354492
1443697076255648784	-0.69207764	0.86187744	0.23982239
1443697076259036236	-0.69207764	0.87532043	0.23982239
1443697076265750103	-0.965744	0.87532043	0.49028015
1443697076270754986	-1.0146027	1.0708008	0.6124573
1443697076276004009	-1.0060425	1.2565155	0.7126465
1443697076280978374	-1.0060425	1.4690857	0.7126465
1443697076286563091	-0.95718384	1.4690857	0.82136536
1443697076290896587	-0.89242554	1.8307037	0.82136536
1443697076296115093	-0.8313446	1.8307037	0.83724976
1443697076301486187	-0.7775879	1.9272308	0.83847046
1443697076306002788	-0.71772766	1.9626465	0.82624817
1443697076309359722	-0.63464355	1.9455566	0.79571533
1443697076316256695	-0.51856995	1.8795776	0.74194336
1443697076322360210	-0.36341858	1.7659607	0.6674347
1443697076328555279	-0.17160034	1.598587	0.5745697
1443697076331881695	0.0446167	1.3774567	0.46827698
1443697076336398296	0.27308655	1.1123352	0.3571167
1443697076341677837	0.5027771	0.82766724	0.24594116
1443697076346469097	0.7251129	0.54911804	0.13598633
1443697076351290874	0.9413605	0.28645325	0.017471313
1443697076356539898	1.1514893	0.03845215	-0.11567688
1443697076359713726	1.1514893	-0.20344543	-0.11567688
1443697076366641216	1.520462	-0.20344543	-0.43455505
1443697076371493511	1.520462	-0.6432648	-0.6153717
1443697076376681499	1.6560822	-0.81430054	-0.6153717
1443697076381564312	1.7403717	-0.81430054	-0.79985046
1443697076386630230	1.7623596	-0.9450226	-0.9696808
1443697076391635113	1.7073822	-1.0415497	-1.1089478
1443697076396792583	1.5607758	-1.1172943	-1.2042236
1443697076402529888	1.3200989	-1.1881561	-1.2518768
1443697076406863384	0.9890137	-1.259018	-1.2396698
1443697076410189800	0.59194946	-1.3213196	-1.1529236
1443697076416873150	0.16801453	-1.3653107	-0.9794464
1443697076421847515	-0.23146057	-1.3885193	-0.7301941
1443697076427035503	-0.5515747	-1.3982849	-0.43943787
1443697076431887798	-0.74705505	-1.4105072	-0.1535492
1443697076436953716	-0.7910309	-1.4324951	0.08467102
1443697076441989116	-0.6798401	-1.4496002	0.2447052
1443697076447177105	-0.44770813	-1.4178467	0.3119049
1443697076452487163	-0.15206909	-1.2956543	0.2874756
1443697076457247905	0.13380432	-1.0928497	0.19096375
1443697076460421734	0.13380432	-0.8729553	0.19096375
1443697076467349224	0.51130676	-0.8729553	-0.12301636
1443697076472171001	0.51130676	-0.6053772	-0.12301636
1443697076477389507	0.5956116	-0.6053772	-0.31970215
1443697076482272320	0.65060425	-0.57118225	-0.5261841
1443697076487368755	0.7104645	-0.5894928	-0.7216644
1443697076492312603	0.8020935	-0.6664734	-0.89146423
1443697076498995952	1.0855255	-0.8094177	-1.1614838
1443697076506137066	1.2577972	-1.2089233	-1.272644
1443697076510775738	1.4263916	-1.4044037	-1.365509
1443697076518099956	1.5668945	-1.5778809	-1.4290314
1443697076522555523	1.6511993	-1.7318115	-1.4632416
1443697076527499370	1.6634064	-1.8601074	-1.4754486
1443697076532778911	1.6011047	-1.9260864	-1.4766846
1443697076538424663	1.4776917	-1.8735504	-1.4730072
1443697076542697124	1.3139954	-1.6670685	-1.4595642
1443697076547702007	1.1417236	-1.3176575	-1.4339142
1443697076553286724	0.99513245	-0.8839569	-1.3887177
1443697076557803325	0.8985901	-0.44778442	-1.3154144
1443697076561312847	0.8985901	-0.07637024	-1.3154144
1443697076567874126	0.8594971	-0.07637024	-1.0490723
1443697076572909527	0.86927795	0.1899414	-1.0490723
1443697076577914409	0.91815186	0.35243225	-0.8438263
1443697076582980327	0.9938965	0.4477234	-0.5982666
1443697076594058208	1.184494	0.5088196	-0.11201477
1443697076598056011	1.2724457	0.46725464	0.06022644
1443697076603274517	1.3433075	0.46725464	0.16896057
1443697076608126812	1.3970642	0.32066345	0.23249817
1443697076611483745	1.4459229	0.11785889	0.2813568
1443697076618197613	1.493576	-0.11425781	0.33267212
1443697076623263530	1.5326843	-0.3451538	0.38153076
1443697076628451519	1.5583344	-0.5467529	0.40475464
1443697076633334331	1.5644379	-0.6970215	0.3888855
1443697076638430767	1.5510101	-0.7837677	0.33267212
1443697076643557720	1.5155792	-0.7996521	0.2471466
1443697076648440532	1.4593658	-0.74710083	0.13842773
1443697076653506450	1.388504	-0.6444702	0.011367798
1443697076658511333	1.3139954	-0.51986694	-0.12545776
1443697076661990337	1.3139954	-0.39768982	-0.12545776
1443697076668582134	1.245575	-0.39768982	-0.2635193
1443697076674197368	1.1551666	-0.2889557	-0.51885986
1443697076680850200	1.1356049	-0.12890625	-0.62635803
1443697076683840923	1.1356049	-0.08616638	-0.62635803
1443697076688845806	1.1233978	-0.08616638	-0.71798706
1443697076693667583	1.1160736	-0.07272339	-0.79496765
1443697076698916607	1.1075134	-0.08248901	-0.8548279
1443697076704684429	1.0977478	-0.109375	-0.897583
1443697076709048443	1.0843048	-0.1411438	-0.9183502
1443697076712222271	1.0684204	-0.17167664	-0.9159088
1443697076719088726	1.0537567	-0.20344543	-0.8939209
1443697076724002056	1.0452118	-0.23765564	-0.85849
1443697076729159527	1.0366669	-0.27796936	-0.81817627
1443697076734011821	1.0232239	-0.3231659	-0.77908325
1443697076739108257	1.0061188	-0.36836243	-0.7485199
1443697076744113140	0.98657227	-0.4111328	-0.7301941
1443697076749301128	0.96580505	-0.45022583	-0.719223
1443697076754672222	0.9413605	-0.48199463	-0.70578
1443697076759371929	0.91326904	-0.49665833	-0.68621826
1443697076762606792	0.91326904	-0.48687744	-0.68621826
1443697076769168071	0.887619	-0.48687744	-0.66545105
1443697076774325542	0.8717346	-0.45022583	-0.6508026
1443697076779513530	0.86805725	-0.3879242	-0.64590454
1443697076784365825	0.87294006	-0.31217957	-0.6508026
1443697076789431743	0.87905884	-0.23397827	-0.6569061
1443697076794467144	0.88272095	-0.16311646	-0.66056824
1443697076799655132	0.88394165	-0.103256226	-0.66056824
1443697076805178814	0.88394165	-0.05316162	-0.6556854
1443697076809573345	0.88272095	-0.020187378	-0.65444946
1443697076812899761	0.8802643	-0.011627197	-0.65812683
1443697076819827251	0.8717346	-0.03239441	-0.666687
1443697076824649029	0.8558502	-0.07392883	-0.6752167
1443697076829623394	0.83384705	-0.12281799	-0.67889404
1443697076834902935	0.808197	-0.17411804	-0.67767334
1443697076841067486	0.7764282	-0.23153687	-0.67033386
1443697076844821148	0.7385559	-0.29751587	-0.6556854
1443697076850344829	0.6970215	-0.36471558	-0.62635803
1443697076857180767	0.6493683	-0.4221344	-0.5811615
1443697076859927349	0.5968323	-0.4563446	-0.5261841
1443697076863436870	0.5968323	-0.46244812	-0.5261841
1443697076870028667	0.53330994	-0.46244812	-0.47732544
1443697076875033550	0.45877075	-0.43922424	-0.4492035
1443697076880038433	0.3732605	-0.39404297	-0.44309998
1443697076885256939	0.27919006	-0.35247803	-0.4492035
1443697076890719585	0.18266296	-0.34638977	-0.45896912
1443697076895327739	0.091049194	-0.3952484	-0.4650879
1443697076900210552	0.017745972	-0.4746704	-0.45776367
1443697076905245952	-0.03111267	-0.54551697	-0.43211365
1443697076910281353	-0.053100586	-0.58461	-0.38568115
1443697076913638286	-0.05065918	-0.6078186	-0.32337952
1443697076920352154	-0.029891968	-0.6444702	-0.24884033
1443697076925357036	-0.0054626465	-0.7177887	-0.1706543
1443697076930392437	0.015304565	-0.82774353	-0.09613037
1443697076935458355	0.029953003	-0.96214294	-0.03627014
1443697076944613628	0.036071777	-1.0952911	0.004043579
1443697076950564556	-0.012786865	-1.2467957	0.01991272
1443697076955630474	-0.0921936	-1.2345734	0.0016021729
1443697076960635357	-0.0921936	-1.1673889	-0.02406311
1443697076963992290	-0.20704651	-1.1673889	-0.02406311
1443697076970706157	-0.34509277	-1.0696411	-0.042388916
1443697076975741558	-0.49171448	-0.96946716	-0.042388916
1443697076980776958	-0.62976074	-0.8924866	-0.017959595
1443697076985964946	-0.7568207	-0.84851074	0.027252197
1443697076991336040	-0.87532043	-0.8363037	0.08833313
1443697076995974712	-0.99383545	-0.84606934	0.1628418
1443697077000918560	-1.1135559	-0.86683655	0.24958801
1443697077006869488	-1.236969	-0.881485	0.34977722
1443697077010958843	-1.362793	-0.8790436	0.4597473
1443697077014346294	-1.4923096	-0.8570709	0.5794678
1443697077021243267	-1.620575	-0.82406616	0.70040894
1443697077032046489	-1.8795929	-0.7923126	0.92033386
1443697077036074810	-2.0151978	-0.730011	1.0119629
1443697077041354351	-2.1593475	-0.67015076	1.093811
1443697077046237163	-2.3059692	-0.56752014	1.1683197
1443697077051394634	-2.4440155	-0.41601563	1.2355347
1443697077057162456	-2.555191	-0.23641968	1.2892914
1443697077061495952	-2.555191	-0.06416321	1.324707
1443697077065585308	-2.6236115	-0.06416321	1.324707
1443697077071566753	-2.6443787	0.06654358	1.3430328
1443697077076449566	-2.619934	0.13618469	1.3503723
1443697077081637554	-2.5625305	0.14350891	1.3503723
1443697077086489849	-2.486786	0.09953308	1.3418274
1443697077091586284	-2.4036865	0.025009155	1.3198242
1443697077096591167	-2.3218536	-0.058059692	1.2807312
1443697077101779155	-2.2448883	-0.13378906	1.2245331
1443697077107180767	-2.1666718	-0.20220947	1.1622314
1443697077111849956	-2.083603	-0.2718506	1.1023712
1443697077119509868	-1.995636	-0.34883118	1.0608215
1443697077126773052	-1.8160553	-0.53453064	1.0657043
1443697077131808452	-1.737854	-0.6347046	1.1096954
1443697077136996441	-1.6755524	-0.730011	1.1683197
1443697077143008404	-1.6315765	-0.81430054	1.2294159
1443697077146914654	-1.5949249	-0.8924866	1.2819519
1443697077151950054	-1.559494	-0.9841156	1.3161621
1443697077158114605	-1.520401	-1.1075287	1.3320465
1443697077162203960	-1.520401	-1.2639008	1.3320465
1443697077165408306	-1.4715118	-1.2639008	1.3308258
1443697077172030620	-1.4092102	-1.4263763	1.3222656
1443697077177127056	-1.3273621	-1.5522308	1.3137207
1443697077183200054	-1.2320557	-1.6047668	1.3186035
1443697077187380962	-1.1331024	-1.5681152	1.3491516
1443697077192507915	-1.0329285	-1.4398193	1.4016876
1443697077197451763	-0.9241791	-1.218689	1.4639893
1443697077208499126	-0.6737366	-0.9108124	1.5934906
1443697077212313823	-0.56866455	-0.21076965	1.6643524
1443697077215945415	-0.5100403	0.045776367	1.7339935
1443697077222476177	-0.4965973	0.19726563	1.7914124
1443697077227511577	-0.5051422	0.28033447	1.8268433
1443697077232516460	-0.5039215	0.34754944	1.8390656
1443697077237704448	-0.47703552	0.42817688	1.8305054
1443697077243197613	-0.42938232	0.524704	1.806076
1443697077247805767	-0.37930298	0.62242126	1.7657623
1443697077252688579	-0.34631348	0.715271	1.7095642
1443697077257723980	-0.34631348	0.821579	1.7095642
1443697077262728863	-0.33776855	0.821579	1.6325836
1443697077266268902	-0.35243225	0.96817017	1.5336304
1443697077272830181	-0.38052368	1.1758575	1.4200134
1443697077277835064	-0.4086151	1.4397583	1.3063965
1443697077282900982	-0.4244995	1.730545	1.2110901
1443697077288088970	-0.42329407	2.012741	1.1414642
1443697077297244243	-0.3695221	2.2656403	1.0608215
1443697077303012066	-0.33288574	2.6651611	1.0314941
1443697077308200054	-0.30111694	2.8288574	0.9997406
1443697077313113384	-0.27178955	2.968155	0.9581909
1443697077316470318	-0.2363739	3.0707703	0.90444946
1443697077323336773	-0.18260193	3.1257477	0.84091187
1443697077328219585	-0.109298706	3.136734	0.77005005
1443697077333285503	-0.025009155	3.114746	0.69184875
1443697077338351421	0.0617218	3.075653	0.61001587
1443697077344332866	0.14968872	3.0292206	0.52937317
1443697077349429302	0.24008179	2.9754791	0.46095276
1443697077353518657	0.33538818	2.902176	0.4096527
1443697077359164409	0.43191528	2.7970886	0.36810303
1443697077363345318	0.43191528	2.6663666	0.36810303
1443697077366976909	0.5284271	2.6663666	0.33267212
1443697077373538189	0.62371826	2.5197754	0.30336
1443697077378604107	0.7275543	2.3523865	0.2886963
1443697077383731060	0.8399658	2.15448	0.2874756
1443697077388613872	0.9572449	1.9235535	0.2923584
1443697077394320659	1.0598755	1.6767731	0.2911377
1443697077398684673	1.1356049	1.4360962	0.2740326
1443697077403903179	1.184494	1.2149506	0.23616028
1443697077409609966	1.2064667	1.0170593	0.1787262
1443697077413973980	1.2040253	0.8447876	0.110321045
1443697077417575054	1.1771698	0.70062256	0.033355713
1443697077424349956	1.130722	0.58821106	-0.04727173
1443697077428897075	1.0684204	0.51246643	-0.12789917
1443697077434115581	0.99513245	0.48313904	-0.20362854
1443697077438967876	0.9144745	0.49658203	-0.26472473
1443697077444705181	0.8240814	0.5430298	-0.3026123
1443697077449038677	0.8240814	0.59432983	-0.31481934
1443697077454257183	0.7153473	0.6407471	-0.31481934
1443697077459933452	0.40379333	0.6407471	-0.2708435
1443697077464175396	0.40379333	0.7726898	-0.2708435
1443697077467501812	0.18634033	0.7726898	-0.21707153
1443697077474429302	-0.061660767	0.8826599	-0.13522339
1443697077479281597	-0.31455994	0.9913788	-0.019165039
1443697077484469585	-0.5417938	1.0610352	0.12620544
1443697077489321880	-0.71528625	1.079361	0.28625488
1443697077494448833	-0.8252411	1.0708008	0.44630432
1443697077499423198	-0.872879	1.0683594	0.586792
1443697077504641704	-0.8655548	1.0891266	0.7016449
1443697077510317974	-0.820343	1.1221161	0.78593445
1443697077514529400	-0.7531433	1.1502075	0.844574
1443697077517886333	-0.7531433	1.1746521	0.844574
1443697077525851421	-0.60165405	1.1746521	0.8946533
1443697077529605083	-0.5259094	1.2626038	0.8848877
1443697077535311870	-0.44161987	1.3224792	0.8531189
1443697077539675884	-0.33654785	1.3713531	0.80181885
1443697077544680767	-0.19604492	1.388443	0.7334137
1443697077553103618	-0.017684937	1.3579102	0.6478729
1443697077560000591	0.19122314	1.091568	0.54159546
1443697077564883404	0.4111328	1.091568	0.4096527
1443697077568392925	0.62371826	0.8484497	0.25082397
1443697077574984722	0.8094177	0.563797	0.06266785
1443697077579989605	0.95848083	0.28157043	-0.14622498
1443697077584994488	1.065979	0.037246704	-0.36369324
1443697077590182476	1.1295166	-0.16923523	-0.57748413
1443697077595584087	1.130722	-0.3610382	-0.77175903
1443697077600314312	1.0391083	-0.5662842	-0.92811584
1443697077605166607	0.83140564	-0.79597473	-1.0319824
1443697077610232525	0.51742554	-1.0232239	-1.0710754
1443697077615237407	0.14112854	-1.1979218	-1.024643
1443697077618746929	0.14112854	-1.2932129	-1.024643
1443697077625308208	-0.5417938	-1.2932129	-0.63124084
1443697077630343609	-0.7274933	-1.4141693	-0.33926392
1443697077635379009	-0.7421417	-1.5302277	-0.07658386
1443697077640414409	-0.56500244	-1.6438599	0.08833313
1443697077646273784	-0.22781372	-1.6780701	0.13230896
1443697077650637798	-0.22781372	-1.6035309	0.13230896
1443697077655520611	0.18878174	-1.6035309	0.06510925
1443697077660556011	0.5809479	-1.467926	-0.07902527
1443697077665591411	0.86927795	-1.3591919	-0.2659607
1443697077669100933	1.0293274	-1.3311005	-0.4699707
1443697077675814800	1.0855255	-1.3897247	-0.6715698
1443697077681704693	1.092865	-1.4996948	-0.8658142
1443697077685916118	1.105072	-1.6230927	-1.0515137
1443697077691775493	1.1539307	-1.7379303	-1.2225494
1443697077695681743	1.2492371	-1.8454285	-1.3679504
1443697077701296978	1.3775177	-1.9676208	-1.479126
1443697077705874614	1.5192413	-2.128891	-1.557312
1443697077711154155	1.6450806	-2.3500214	-1.6086273
1443697077715945415	1.7293854	-2.6248932	-1.6464996
1443697077719302349	1.7293854	-2.9168854	-1.6464996
1443697077726138286	1.7428131	-2.9168854	-1.7112579
1443697077731051616	1.686615	-3.295639	-1.7540131
1443697077736239605	1.5998688	-3.3102875	-1.7955475
1443697077741122417	1.4886932	-3.228424	-1.8212128
1443697077746188335	1.4886932	-3.081833	-1.8212128
1443697077751193218	1.3616486	-3.081833	-1.8089905
1443697077756228618	1.2321472	-2.8875732	-1.7479095
1443697077765536480	1.0256653	-2.644455	-1.5279846
1443697077769625835	0.97436523	-2.0066986	-1.4082642
1443697077776522808	0.9694519	-1.6145325	-1.2958679
1443697077781375103	1.0097809	-1.1820374	-1.1858978
1443697077786593609	1.0830841	-0.7275696	-1.063736
1443697077791476421	1.1673737	-0.2889557	-0.9195862
1443697077797274761	1.2382355	0.08609009	-0.75219727
1443697077801547222	1.2822266	0.36219788	-0.57748413
1443697077806735210	1.2993317	0.5320282	-0.41622925
1443697077812014751	1.2993317	0.61265564	-0.2818451
1443697077816806011	1.2932129	0.63708496	-0.17921448
1443697077820010357	1.2932129	0.63464355	-0.17921448
1443697077826907329	1.3090973	0.63464355	-0.041152954
1443697077831759624	1.3445282	0.5185852	0.018692017
1443697077836947613	1.401947	0.33898926	0.07366943
1443697077841830425	1.401947	0.07997131	0.11276245
1443697077853366070	1.5693359	-0.19000244	0.082214355
1443697077858035259	1.5754395	-0.44656372	0.01625061
1443697077862094097	1.5754395	-0.419693	0.01625061
1443697077867434673	1.5534515	-0.419693	-0.07292175
1443697077870333843	1.5106964	-0.36471558	-0.18041992
1443697077877871685	1.4606018	-0.32562256	-0.29283142
1443697077882083111	1.4117126	-0.3048401	-0.3991089
1443697077887301616	1.3714142	-0.27919006	-0.49073792
1443697077892337017	1.337204	-0.24009705	-0.5701599
1443697077897860698	1.3017731	-0.20100403	-0.6410217
1443697077902377300	1.2602386	-0.18756104	-0.7008972
1443697077907290630	1.2089386	-0.20344543	-0.7485199
1443697077912295513	1.1490479	-0.23521423	-0.78518677
1443697077917361431	1.0782013	-0.25842285	-0.8120575
1443697077920870952	1.0782013	-0.26696777	-0.8120575
1443697077927462749	0.9095917	-0.26696777	-0.8389435
1443697077932467632	0.81796265	-0.3048401	-0.83406067
1443697077940188579	0.73243713	-0.39404297	-0.81085205
1443697077947543316	0.6603699	-0.53819275	-0.7729645
1443697077952578716	0.60417175	-0.7080078	-0.72654724
1443697077957644634	0.5626221	-0.86683655	-0.68011475
1443697077963442974	0.53330994	-0.9902344	-0.6385803
1443697077967715435	0.51864624	-1.0720825	-0.6080322
1443697077971041851	0.52230835	-1.1197357	-0.5860443
1443697077977755718	0.54919434	-1.1356201	-0.5750427
1443697077982821636	0.59439087	-1.1246185	-0.573822
1443697077988040142	0.65548706	-1.0867462	-0.5811615
1443697077993045025	0.7202301	-1.0244446	-0.5982666
1443697077997958355	0.78009033	-0.9401398	-0.6214752
1443697078002963238	0.82896423	-0.8436279	-0.64956665
1443697078008120708	0.86439514	-0.7446594	-0.68133545
1443697078013491802	0.8900604	-0.65426636	-0.7167816
1443697078018222027	0.90470886	-0.5870514	-0.7546387
1443697078028079204	0.887619	-0.55163574	-0.8255005
1443697078033816509	0.84851074	-0.5894928	-0.8511658
1443697078039248638	0.7874298	-0.6444702	-0.8645935
1443697078043612652	0.7092285	-0.703125	-0.8597107
1443697078048403911	0.7092285	-0.7458954	-0.8597107
1443697078053286724	0.61883545	-0.7458954	-0.83406067
1443697078058505230	0.52230835	-0.7629852	-0.7888489
1443697078064334087	0.42947388	-0.7458954	-0.72898865
1443697078068545513	0.3463745	-0.6970215	-0.6642456
1443697078071780376	0.27064514	-0.62005615	-0.5994873
1443697078078646831	0.19366455	-0.5284271	-0.5432739
1443697078083499126	0.1105957	-0.4380188	-0.4968567
1443697078088717632	0.026290894	-0.3695984	-0.45896912
1443697078093569927	-0.053100586	-0.340271	-0.42111206
1443697078098666363	-0.11785889	-0.35247803	-0.37713623
1443697078103671245	-0.16183472	-0.39768982	-0.32704163
1443697078108828716	-0.18748474	-0.46611023	-0.2708435
1443697078114230327	-0.19972229	-0.54919434	-0.21098328
1443697078118930034	-0.21069336	-0.6432648	-0.14988708
1443697078122134380	-0.21069336	-0.742218	-0.14988708
1443697078129000835	-0.26567078	-0.742218	-0.037490845
1443697078133883648	-0.32798767	-0.89860535	0.011367798
1443697078139071636	-0.32798767	-0.94137573	0.057785034
1443697078143832378	-0.42694092	-0.94137573	0.057785034
1443697078148989849	-0.5588989	-0.96214294	0.10543823
1443697078154025249	-0.71528625	-0.960907	0.16040039
1443697078159182720	-0.87532043	-0.93647766	0.2288208
1443697078164706402	-1.0292511	-0.8888397	0.3106842
1443697078169284038	-1.1758728	-0.82896423	0.40353394
1443697078172457866	-1.3188019	-0.7727661	0.50616455
1443697078179324321	-1.4629822	-0.7373352	0.6148987
1443697078184237652	-1.6059113	-0.7263336	0.7272949
1443697078189334087	-1.7488556	-0.7324524	0.83969116
1443697078196536236	-1.8917999	-0.7495575	0.94718933
1443697078200900249	-2.0371857	-0.7727661	1.0449371
1443697078204348736	-2.188675	-0.80574036	1.1280212
1443697078210543804	-2.3475037	-0.84239197	1.2013245
1443697078215060405	-2.5087738	-0.8631592	1.2709656
1443697078220278911	-2.659027	-0.8448334	1.3430328
1443697078222842388	-2.659027	-0.769104	1.3430328
1443697078229678325	-2.8508606	-0.769104	1.4798737
1443697078234561138	-2.8508606	-0.48809814	1.4798737
1443697078239627056	-2.865509	-0.48809814	1.5287476
1443697078244815044	-2.826416	-0.3561554	1.5556183
1443697078250338726	-2.743332	-0.2718506	1.5592804
1443697078254885845	-2.6321716	-0.24864197	1.5372925
1443697078259738140	-2.5087738	-0.28041077	1.4908752
1443697078264804058	-2.3914795	-0.3561554	1.4248962
1443697078269839458	-2.2961884	-0.4600067	1.351593
1443697078273196392	-2.2204437	-0.57728577	1.2843933
1443697078285250835	-2.0823822	-0.70436096	1.1940002
1443697078289981060	-2.000534	-0.9841156	1.1781158
1443697078295138530	-1.9138031	-1.1172943	1.186676
1443697078300509624	-1.8270416	-1.2296906	1.220871
1443697078305239849	-1.737854	-1.3225403	1.2721863
1443697078310122661	-1.6511078	-1.4166107	1.3308258
1443697078315219097	-1.5668182	-1.5351105	1.3833618
1443697078320193462	-1.4923096	-1.6817322	1.4248962
1443697078323550396	-1.4923096	-1.8368988	1.4248962
1443697078330386333	-1.376236	-1.8368988	1.4762115
1443697078335269146	-1.376236	-2.048233	1.4762115
1443697078340518169	-1.3285828	-2.048233	1.4884338
1443697078345523052	-1.2772675	-2.0506897	1.4994202
1443697078350314312	-1.2112885	-1.9260864	1.5104218
1443697078355624370	-1.1196594	-1.6304169	1.5165253
1443697078360446148	-0.9999542	-1.1698303	1.5140839
1443697078372897320	-0.69207764	-0.623703	1.5727234
1443697078380801372	-0.6798401	0.52223206	1.6338196
1443697078385867290	-0.6847229	0.65419006	1.6900024
1443697078390872173	-0.6749573	0.7384796	1.7230072
1443697078395632915	-0.63830566	0.820343	1.7339935
1443697078400820904	-0.58699036	0.91441345	1.72789
1443697078405795269	-0.5417938	1.0219421	1.7046814
1443697078410983257	-0.5149231	1.130661	1.6643524
1443697078416354351	-0.5051422	1.2283936	1.6081543
1443697078421084575	-0.5039215	1.3065948	1.5434113
1443697078425234966	-0.5039215	1.3786774	1.5434113
1443697078431124859	-0.49047852	1.3786774	1.4151306
1443697078435977154	-0.49047852	1.5961456	1.4151306
1443697078441226177	-0.47583008	1.5961456	1.3552704
1443697078446047954	-0.45870972	1.7500763	1.2941742
1443697078451174907	-0.4379425	1.908905	1.2306519
1443697078459963970	-0.35975647	2.0493927	1.1121368
1443697078466220073	-0.30355835	2.23143	1.0657043
1443697078471255474	-0.24246216	2.2815247	1.0290527
1443697078474612407	-0.18260193	2.3267365	0.9924011
1443697078481417827	-0.1227417	2.3792725	0.95210266
1443697078486361675	-0.05921936	2.425705	0.9032135
1443697078491549663	0.010421753	2.4464722	0.84947205
1443697078496432476	0.0947113	2.425705	0.79081726
1443697078501467876	0.1924591	2.3743744	0.7297363
1443697078506533794	0.29873657	2.30719	0.6674347
1443697078511660747	0.4074707	2.246109	0.6026764
1443697078517184429	0.5101013	2.1996613	0.5354767
1443697078521792583	0.60783386	2.166687	0.47195435
1443697078524935894	0.60783386	2.123932	0.47195435
1443697078531619243	0.7019043	2.123932	0.41453552
1443697078536715679	0.794754	2.0481873	0.36444092
1443697078542819195	0.97068787	1.9296722	0.26182556
1443697078546969585	0.97068787	1.6010284	0.26182556
1443697078552310161	1.0488739	1.6010284	0.20440674
1443697078556857280	1.1209564	1.4189911	0.14331055
1443697078562075786	1.1869354	1.2406311	0.07977295
1443697078567385845	1.2431335	1.0708008	0.01625061
1443697078571932964	1.2883301	0.91807556	-0.05091858
1443697078575473003	1.3213196	0.7910156	-0.121795654
1443697078582003765	1.337204	0.7055054	-0.19754028
1443697078587069683	1.3298798	0.68229675	-0.27450562
1443697078592105083	1.298111	0.728714	-0.35025024
1443697078597109966	1.2431335	0.84355164	-0.4174347
1443697078602664165	1.1686096	1.0084991	-0.47364807
1443697078607211284	1.0647583	1.2015228	-0.5127411
1443697078612246685	0.9218292	1.401886	-0.5273895
1443697078618106060	0.7287903	1.5900421	-0.5017395
1443697078622286968	0.48321533	1.7341919	-0.42477417
1443697078625674419	0.48321533	1.8001709	-0.42477417
1443697078632357769	0.18878174	1.8001709	-0.29283142
1443697078637423687	-0.1374054	1.7647552	-0.109573364
1443697078642459087	-0.46603394	1.6352386	0.11642456
1443697078647463970	-0.7555847	1.4446411	0.36566162
1443697078653018169	-0.97306824	1.2381897	0.6173401
1443697078657717876	-1.1074524	1.0720215	0.84091187
1443697078662600689	-1.1660919	0.9962616	1.0156097
1443697078672396831	-1.1379852	1.0292664	1.1891174
1443697078675997905	-1.0744629	1.3432465	1.198883
1443697078682894878	-0.9791565	1.5460663	1.1658783
1443697078687777691	-0.8484497	1.7317505	1.0974731
1443697078692996196	-0.68107605	1.8795776	1.002182
1443697078697940044	-0.47827148	1.9797668	0.88612366
1443697078703707866	-0.24125671	2.026184	0.75538635
1443697078709048443	0.02507019	1.9992981	0.6087799
1443697078713046245	0.30117798	1.8759155	0.44630432
1443697078718417339	0.56507874	1.6523438	0.26426697
1443697078723025493	0.56507874	1.362793	0.06510925
1443697078726565532	0.79719543	1.052475	0.06510925
1443697078733248882	0.9902344	1.052475	-0.14500427
1443697078738223247	1.1405029	0.75071716	-0.36003113
1443697078743350200	1.2321472	0.44648743	-0.57748413
1443697078748171978	1.2321472	0.11418152	-0.78274536
1443697078753268413	1.1001892	-0.26208496	-0.9525604
1443697078758242779	0.81552124	-0.6554718	-1.063736
1443697078763461284	0.40014648	-1.0085602	-1.0894012
1443697078769168071	-0.0897522	-1.2663422	-1.0050964
1443697078773532085	-0.58821106	-1.4227295	-0.79008484
1443697078777590923	-1.0170441	-1.5363464	-0.4516449
1443697078783602886	-1.276062	-1.6707458	-0.053375244
1443697078789096050	-1.262619	-1.817337	0.30336
1443697078793704204	-0.9364166	-1.8723145	0.51960754
1443697078798556499	-0.38664246	-1.7293701	0.5501404
1443697078803652935	0.20710754	-1.3921661	0.39985657
1443697078808627300	0.6701355	-0.9841156	0.110321045
1443697078813815288	0.9218292	-0.6554718	-0.25616455
1443697078819125347	0.9902344	-0.47587585	-0.6410217
1443697078823886089	0.9731293	-0.41357422	-0.99409485
1443697078827090435	0.9731293	-0.4013672	-0.99409485
1443697078833956890	0.97436523	-0.4013672	-1.2946472
1443697078841983013	1.2260284	-0.40501404	-1.7344666
1443697078849063091	1.4496002	-0.5479584	-1.8835144
1443697078854403667	1.6829376	-0.7764282	-1.9910431
1443697078858950786	1.8833008	-1.1319427	-2.0618896
1443697078864016704	2.0262604	-1.5815582	-2.1022034
1443697078870028667	2.1007843	-2.0421448	-2.13031
1443697078873995952	2.1093445	-2.4208832	-2.157196
1443697078877444439	2.066574	-2.6554565	-2.1889343
1443697078885440044	1.9871674	-2.731186	-2.2121735
1443697078889193706	1.8820953	-2.6652222	-2.2060547
1443697078894442730	1.7538147	-2.481964	-2.15596
1443697078899417095	1.6059875	-2.2082977	-2.0570068
1443697078904238872	1.4508362	-1.8771973	-1.9165039
1443697078909487896	1.3127747	-1.5106812	-1.7430267
1443697078914248638	1.2150269	-1.113617	-1.5487671
1443697078920108013	1.1734924	-0.68847656	-1.3532867
1443697078928683452	1.1881409	-0.25108337	-1.168808
1443697078934512310	1.2480164	0.16183472	-0.99409485
1443697078939669780	1.3359833	0.5027008	-0.8144989
1443697078944552593	1.4337158	0.7445984	-0.62757874
1443697078949801616	1.5241241	0.8838806	-0.44309998
1443697078955569439	1.5901031	0.9376373	-0.27816772
1443697078959872417	1.6243134	0.9351959	-0.14622498
1443697078964694195	1.6328583	0.899765	-0.04359436
1443697078969821148	1.635315	0.8423462	0.037017822
1443697078974795513	1.6487274	0.7592468	0.110321045
1443697078978152446	1.6780548	0.62731934	0.18240356
1443697078984835796	1.7159424	0.42817688	0.25448608
1443697078989901714	1.7464752	0.16061401	0.3119049
1443697078994937114	1.7574768	-0.13623047	0.33267212
1443697078999941997	1.7428131	-0.40745544	0.3070221
1443697079005984478	1.7098236	-0.6078186	0.23493958
1443697079016940288	1.621872	-0.7214508	0.028457642
1443697079020083599	1.621872	-0.7055664	0.028457642
1443697079025241070	1.5668945	-0.7055664	-0.08392334
1443697079028506450	1.4984741	-0.61761475	-0.2048645
1443697079035372905	1.4117126	-0.51986694	-0.34046936
1443697079041384868	1.3066559	-0.4404602	-0.4858551
1443697079045474224	1.1930542	-0.4013672	-0.6251373
1443697079051699810	1.0769806	-0.4013672	-0.74243164
1443697079055239849	0.9694519	-0.42945862	-0.8291626
1443697079060702495	0.8778229	-0.46366882	-0.89146423
1443697079065554790	0.81185913	-0.48687744	-0.9354706
1443697079070529155	0.7727661	-0.50032043	-0.96720886
1443697079075503521	0.755661	-0.51864624	-0.9794464
1443697079078829937	0.7532196	-0.56018066	-0.97088623
1443697079085574321	0.7581177	-0.62249756	-0.93911743
1443697079090609722	0.76664734	-0.69091797	-0.8927002
1443697079095797710	0.7752075	-0.755661	-0.8401642
1443697079103671245	0.78009033	-0.8106384	-0.7864075
1443697079106509380	0.7788849	-0.8497467	-0.7387543
1443697079110751323	0.7764282	-0.8607178	-0.69966125
1443697079115878277	0.7813263	-0.83506775	-0.67277527
1443697079121279888	0.80085754	-0.7776489	-0.6556854
1443697079126010113	0.80085754	-0.7055664	-0.6556854
1443697079129336529	0.83506775	-0.7055664	-0.64956665
1443697079136080913	0.87905884	-0.6420288	-0.653244
1443697079140933208	0.9254761	-0.5956116	-0.66056824
1443697079146121196	0.9694519	-0.55773926	-0.6691284
1443697079151004009	1.0036621	-0.51986694	-0.68011475
1443697079156069927	1.0256653	-0.48443604	-0.6959839
1443697079161074810	1.0317688	-0.46366882	-0.71554565
1443697079166293316	1.0232239	-0.46366882	-0.7351074
1443697079171816997	0.99757385	-0.48199463	-0.7534332
1443697079176364116	0.9572449	-0.5125427	-0.7693176
1443697079179568462	0.90226746	-0.55407715	-0.7778473
1443697079186434917	0.83628845	-0.6078186	-0.7705231
1443697079191317730	0.7630005	-0.6664734	-0.74487305
1443697079196505718	0.68481445	-0.716568	-0.6984558
1443697079201388530	0.60417175	-0.742218	-0.639801
1443697079206484966	0.51742554	-0.7361145	-0.5811615
1443697079211459331	0.4233551	-0.7055664	-0.5298462
1443697079217684917	0.3243866	-0.6530304	-0.49317932
1443697079222018413	0.22543335	-0.58461	-0.4675293
1443697079233218364	0.05316162	-0.50886536	-0.42233276
1443697079236788921	0.05316162	-0.4221344	-0.42233276
1443697079241793804	-0.017684937	-0.4221344	-0.39546204
1443697079246585064	-0.072647095	-0.42333984	-0.36125183
1443697079251864605	-0.109298706	-0.4380188	-0.3184967
1443697079257449321	-0.12640381	-0.458786	-0.2659607
1443697079261813335	-0.13128662	-0.49909973	-0.21098328
1443697079266879253	-0.13618469	-0.57118225	-0.15965271
1443697079272555523	-0.15327454	-0.676239	-0.118118286
1443697079276919536	-0.19236755	-0.79841614	-0.086364746
1443697079280398540	-0.25346375	-0.9071655	-0.06315613
1443697079287020855	-0.33288574	-0.9780121	-0.04359436
1443697079292056255	-0.42694092	-0.9963379	-0.020385742
1443697079297061138	-0.53445435	-0.9682312	0.012573242
1443697079302066021	-0.6615143	-0.90960693	0.06022644
1443697079307986431	-0.8105774	-0.8448334	0.12620544
1443697079312319927	-0.98039246	-0.7898712	0.21417236
1443697079317202739	-0.98039246	-0.755661	0.21417236
1443697079322268657	-1.1551056	-0.755661	0.31678772
1443697079327273540	-1.3188019	-0.74710083	0.4255371
1443697079330783062	-1.4617462	-0.7581024	0.5354767
1443697079337466411	-1.5778198	-0.7727661	0.6454315
1443697079342349224	-1.671875	-0.7666626	0.7566223
1443697079347415142	-1.7537384	-0.7275696	0.86535645
1443697079352603130	-1.8356018	-0.664032	0.9655304
1443697079357943706	-1.930893	-0.59439087	1.0485992
1443697079362643413	-2.0457306	-0.5296478	1.1133575
1443697079367526226	-2.1727905	-0.45755005	1.1658783
1443697079372561626	-2.2998505	-0.36227417	1.2135315
1443697079377627544	-2.4110413	-0.23765564	1.259964
1443697079381167583	-2.4110413	-0.10203552	1.3039398
1443697079387698345	-2.5490875	-0.10203552	1.33815
1443697079393313579	-2.5747375	0.084869385	1.3613586
1443697079397921734	-2.5796356	0.09465027	1.3723602
1443697079403445415	-2.564972	0.058013916	1.3662415
1443697079408511333	-2.529541	-0.0067443848	1.3405914
1443697079413241558	-2.4647827	-0.08248901	1.2917328
1443697079418032818	-2.4647827	-0.16555786	1.2917328
1443697079422854595	-2.3670502	-0.16555786	1.2282104
1443697079428134136	-2.2460938	-0.25842285	1.1671143
1443697079431307964	-2.117813	-0.3573761	1.1231384
1443697079444613628	-1.8807983	-0.4539032	1.132904
1443697079448123150	-1.7830658	-0.67015076	1.1829987
1443697079453158550	-1.7012024	-0.67015076	1.2514191
1443697079459201030	-1.6364594	-0.7275696	1.3271637
1443697079463229351	-1.5863647	-0.7739868	1.404129
1443697079468417339	-1.5423889	-0.81430054	1.4762115
1443697079473757915	-1.493515	-0.87171936	1.5324097
1443697079478518657	-1.4348602	-0.97190857	1.570282
1443697079481692486	-1.4348602	-1.1197357	1.570282
1443697079488528423	-1.3151398	-1.1197357	1.6069336
1443697079493441753	-1.261383	-1.4373779	1.621582
1443697079498629741	-1.2039642	-1.5265656	1.6399078
1443697079503482036	-1.1294403	-1.5314636	1.6655884
1443697079508547954	-1.1294403	-1.4263763	1.6997986
1443697079513583355	-1.0341492	-1.4263763	1.6997986
1443697079518771343	-0.92297363	-1.1954803	1.7376556
1443697079524264507	-0.8032379	-0.8472748	1.775528
1443697079531344585	-0.61021423	-0.42945862	1.8488312
1443697079538943462	-0.57110596	0.32188416	1.8879242
1443697079543795757	-0.57722473	0.5576782	1.919693
1443697079548922710	-0.61021423	0.7079468	1.933136
1443697079553866558	-0.64442444	0.8105774	1.9221344
1443697079559848003	-0.6663971	0.90953064	1.8952484
1443697079563937359	-0.6798401	1.0304718	1.8634949
1443697079569400005	-0.69207764	1.1783142	1.8329468
1443697079574496441	-0.7067261	1.335907	1.8036346
1443697079579623394	-0.7091675	1.4849701	1.775528
1443697079582400493	-0.7091675	1.620575	1.775528
1443697079589297466	-0.65419006	1.620575	1.714447
1443697079594119243	-0.61631775	1.9247894	1.6643524
1443697079599185161	-0.58943176	2.1202698	1.5898285
1443697079604342632	-0.57722473	2.3194122	1.4969788
1443697079609866314	-0.56744385	2.489212	1.4078064
1443697079619174175	-0.55278015	2.6126251	1.3405914
1443697079624514751	-0.5283661	2.7799988	1.299057
1443697079629794292	-0.49536133	2.7799988	1.2673035
1443697079632723980	-0.45259094	2.8545227	1.2318573
1443697079639498882	-0.39518738	2.9156036	1.1829987
1443697079644412212	-0.31944275	2.9510345	1.120697
1443697079649539165	-0.22537231	2.9608002	1.0461578
1443697079654544048	-0.11541748	2.9522705	0.9667511
1443697079660464458	6.2561035E-4	2.9375916	0.88368225
1443697079664797954	0.11791992	2.9205017	0.80059814
1443697079669680767	0.23031616	2.8984985	0.71873474
1443697079674716167	0.33538818	2.8630676	0.639328
1443697079679751568	0.43191528	2.8019867	0.5648041
1443697079683261089	0.43191528	2.709137	0.5648041
1443697079689974956	0.60661316	2.709137	0.42185974
1443697079694827251	0.6823425	2.4330292	0.34733582
1443697079699893169	0.7519989	2.2803192	0.27037048
1443697079705081157	0.8204193	2.1349182	0.1946106
1443697079710482769	0.8937073	1.9907684	0.122543335
1443697079715151958	0.8937073	1.8282623	0.122543335
1443697079720004253	0.97436523	1.8282623	0.05656433
1443697079726107769	1.0623169	1.6401215	-0.009399414
1443697079730105571	1.1514893	1.4397583	-0.08148193
1443697079733462505	1.2345886	1.2528381	-0.16333008
1443697079740298443	1.3029938	1.1062317	-0.2500763
1443697079745425396	1.3469696	1.0109406	-0.33926392
1443697079750369243	1.3665314	0.973053	-0.42967224
1443697079755221538	1.3616486	0.9938202	-0.51885986
1443697079760317974	1.3384247	1.0695801	-0.6055908
1443697079765231304	1.2932129	1.1819763	-0.67767334
1443697079770358257	1.2174683	1.3016968	-0.72898865
1443697079776126079	1.1026306	1.3982239	-0.75219727
1443697079780581646	0.9303589	1.4556427	-0.74487305
1443697079790042095	0.38058472	1.4666443	-0.5970459
1443697079795565777	0.017745972	1.3212585	-0.4357605
1443697079800570659	0.017745972	1.1636505	-0.21342468
1443697079805606060	-0.35731506	0.97917175	-0.21342468
1443697079811099224	-0.6847229	0.97917175	0.35099792
1443697079815707378	-0.91929626	0.808136	0.35099792
1443697079820864849	-1.0414886	0.68717957	0.6307831
1443697079826632671	-1.0683594	0.63464355	0.8641205
1443697079830813579	-1.0463715	0.6578522	1.0388336
1443697079834139995	-1.0207214	0.76416016	1.1585541
1443697079841006450	-1.0146027	0.95228577	1.2379761
1443697079845889263	-1.0194855	1.2064209	1.2843933
1443697079851107769	-1.0072784	1.4861755	1.2978363
1443697079855960064	-0.9498596	1.7464294	1.2758484
1443697079861056499	-0.8325653	1.9528809	1.2159729
1443697079866061382	-0.65296936	2.0823975	1.1243439
1443697079877383404	-0.16551208	2.1117096	0.8531189
1443697079881167583	0.10203552	1.7842865	0.6723175
1443697079884493999	0.10203552	1.4336548	0.6723175
1443697079891299419	0.56874084	1.4336548	0.21905518
1443697079896243267	0.74832153	0.6419678	-0.02406311
1443697079902499370	0.89494324	0.31210327	-0.2525177
1443697079906527691	0.89494324	0.016479492	-0.2525177
1443697079911746196	1.0048981	0.016479492	-0.45896912
1443697079916567974	1.052536	-0.29507446	-0.64468384
1443697079921481304	1.0000153	-0.6530304	-0.8083954
1443697079926486187	0.8240814	-1.0317688	-0.936676
1443697079931521587	0.53086853	-1.3750763	-1.0050964
1443697079935000591	0.15457153	-1.6291809	-0.9794464
1443697079941592388	-0.2522583	-1.7745819	-0.8401642
1443697079946627788	-0.62242126	-1.8356628	-0.614151
1443697079951632671	-0.86431885	-1.85643	-0.37101746
1443697079956820659	-0.8875427	-1.8637543	-0.19386292
1443697079962313823	-0.6615143	-1.8405457	-0.13156128
1443697079966921978	-0.24490356	-1.7599182	-0.1865387
1443697079971804790	0.22787476	-1.6230927	-0.32826233
1443697079976870708	0.6224823	-1.481369	-0.5115204
1443697079981875591	0.86683655	-1.3921661	-0.69966125
1443697079985385113	0.86683655	-1.3713989	-0.69966125
1443697079991946392	0.99757385	-1.3713989	-1.0209808
1443697079996951275	0.99757385	-1.3824005	-1.1590424
1443697080001986675	1.0122223	-1.3653107	-1.1590424
1443697080007205181	1.0635376	-1.3653107	-1.2934265
1443697080012911968	1.1661682	-1.3604279	-1.519455
1443697080017275982	1.3078766	-1.5106812	-1.519455
1443697080022128277	1.4569244	-1.5106812	-1.5854187
1443697080027865581	1.5925446	-1.700058	-1.6159515
1443697080032229595	1.7012787	-1.9651642	-1.6208344
1443697080035586529	1.7806854	-2.2828064	-1.6159515
1443697080042452984	1.8271179	-2.6090088	-1.6147461
1443697080047305279	1.8344421	-2.8985596	-1.6147461
1443697080052371196	1.80513	-3.1172485	-1.6049652
1443697080057528667	1.7501526	-3.2540894	-1.5817566
1443697080063235454	1.6817322	-3.3139648	-1.5487671
1443697080068606548	1.607193	-3.30661	-1.5108948
1443697080072482280	1.5265656	-3.2333221	-1.4705658
1443697080078097515	1.4471588	-3.075714	-1.4204712
1443697080082553081	1.3726196	-2.8179321	-1.3630524
1443697080086062603	1.3726196	-2.4538574	-1.3630524
1443697080092745952	1.2822266	-2.4538574	-1.233551
1443697080097567730	1.2822266	-1.5094604	-1.233551
1443697080102877788	1.2773438	-1.5094604	-1.1529236
1443697080107730083	1.2944489	-1.0085602	-1.0478668
1443697080112796001	1.3225403	-0.54185486	-0.91223145
1443697080117800884	1.3555298	-0.1387024	-0.7595215
1443697080128909282	1.416626	0.1899414	-0.4809723
1443697080132907085	1.44104	0.754364	-0.38812256
1443697080136691265	1.4569244	0.754364	-0.32214355
1443697080143130474	1.4667206	0.80081177	-0.2732849
1443697080148043804	1.4764862	0.7714844	-0.23295593
1443697080153262310	1.4911346	0.6749573	-0.19998169
1443697080158084087	1.5094604	0.5393524	-0.17677307
1443697080163027935	1.5302277	0.3878479	-0.16699219
1443697080168185405	1.5546722	0.22415161	-0.17189026
1443697080173342876	1.5766602	0.048233032	-0.19386292
1443697080178652935	1.5827789	-0.11669922	-0.2390747
1443697080183413677	1.5656586	-0.22665405	-0.3050537
1443697080186648540	1.5656586	-0.25598145	-0.3050537
1443697080193545513	1.481369	-0.25598145	-0.46264648
1443697080198397808	1.481369	-0.18388367	-0.46264648
1443697080203616314	1.4361572	-0.18388367	-0.5335083
1443697080208438091	1.3933868	-0.16067505	-0.5909271
1443697080216647320	1.2907715	-0.17167664	-0.6691284
1443697080223727398	1.2297058	-0.31462097	-0.69233704
1443697080229220562	1.1649323	-0.4270172	-0.71554565
1443697080233615093	1.1026306	-0.52230835	-0.7460785
1443697080236972027	1.0439911	-0.55895996	-0.7802887
1443697080245059185	0.9926758	-0.53086853	-0.81085205
1443697080248721294	0.9535675	-0.46122742	-0.8328247
1443697080254519634	0.9328003	-0.39160156	-0.8438263
1443697080258792095	0.92915344	-0.35491943	-0.8413849
1443697080264224224	0.9352417	-0.36592102	-0.8255005
1443697080268893413	0.94259644	-0.42333984	-0.79740906
1443697080273898296	0.9438019	-0.51008606	-0.7619629
1443697080279513530	0.9377136	-0.60417175	-0.7228699
1443697080284365825	0.92427063	-0.68603516	-0.68377686
1443697080287326030	0.92427063	-0.7385559	-0.68377686
1443697080294070415	0.9095917	-0.7385559	-0.6508026
1443697080303256206	0.9059448	-0.7568817	-0.62635803
1443697080309329204	0.92427063	-0.60417175	-0.6349182
1443697080314212017	0.94992065	-0.60417175	-0.6508026
1443697080319400005	0.9780121	-0.52474976	-0.67277527
1443697080324252300	1.0061188	-0.458786	-0.6959839
1443697080329348736	1.0342102	-0.41601563	-0.719223
1443697080334353618	1.0549774	-0.39648438	-0.73999023
1443697080337710552	1.0562134	-0.39404297	-0.76075745
1443697080344393902	1.0305481	-0.40013123	-0.7802887
1443697080349429302	0.97924805	-0.41357422	-0.80229187
1443697080354464702	0.90838623	-0.43678284	-0.8255005
1443697080359652691	0.82896423	-0.47343445	-0.8462677
1443697080365054302	0.74832153	-0.52108765	-0.8609314
1443697080369601421	0.67137146	-0.56752014	-0.8633728
1443697080374728374	0.6017151	-0.598053	-0.8548279
1443697080380526714	0.5443115	-0.61273193	-0.8303833
1443697080389987163	0.48077393	-0.62249756	-0.7167816
1443697080394747905	0.48077393	-0.6530304	-0.7167816
1443697080399966411	0.4526825	-0.6530304	-0.6349182
1443697080404849224	0.4074707	-0.6579132	-0.5542755
1443697080411288433	0.25964355	-0.6347046	-0.4333191
1443697080415560894	0.25964355	-0.52352905	-0.4333191
1443697080420321636	0.16801453	-0.52352905	-0.3991089
1443697080424990825	0.075164795	-0.48077393	-0.37957764
1443697080431491070	-0.0054626465	-0.46488953	-0.36003113
1443697080435031109	-0.06286621	-0.46733093	-0.32704163
1443697080438540630	-0.08609009	-0.48077393	-0.2659607
1443697080445315532	-0.07142639	-0.51008606	-0.17677307
1443697080450076275	-0.022567749	-0.56996155	-0.07170105
1443697080455355816	0.04095459	-0.6664734	0.03579712
1443697080460208111	0.08615112	-0.794754	0.12620544
1443697080465274029	0.08982849	-0.93525696	0.18972778
1443697080470339946	0.04095459	-1.0598755	0.22149658
1443697080475497417	-0.053100586	-1.1392975	0.2263794
1443697080480929546	-0.17893982	-1.1539459	0.21661377
1443697080485568218	-0.31822205	-1.1062927	0.20805359
1443697080488925152	-0.31822205	-1.0171051	0.20805359
1443697080495639019	-0.4562683	-1.0171051	0.21417236
1443697080500521831	-0.59555054	-0.9230499	0.2471466
1443697080505740337	-0.74461365	-0.84851074	0.3082428
1443697080510592632	-0.9205322	-0.8094177	0.39253235
1443697080515658550	-1.1282196	-0.808197	0.49150085
1443697080520663433	-1.362793	-0.8411865	0.6014557
1443697080525851421	-1.6010284	-0.8998108	0.7150879
1443697080531680279	-1.817276	-0.9682312	0.8299103
1443697080535922222	-1.9993134	-1.0281067	0.9435425
1443697080539126568	-2.144699	-1.065979	1.0510559
1443697080545962505	-2.268097	-1.0794067	1.1426697
1443697080550875835	-2.380478	-1.0720825	1.2098846
1443697080556094341	-2.4928894	-1.0403137	1.2538605
1443697080560946636	-2.6101685	-0.96946716	1.2856293
1443697080566043071	-2.7299042	-0.8411865	1.3161621
1443697080570986919	-2.8361816	-0.6554718	1.3491516
1443697080576022320	-2.9021606	-0.44166565	1.3821259
1443697080581698589	-2.9082794	-0.24864197	1.404129
1443697080587222271	-2.852066	-0.11425781	1.404129
1443697080602847271	-2.5051117	-0.04949951	1.2367554
1443697080606295757	-2.5051117	-0.13746643	1.2367554
1443697080611270122	-2.390274	-0.13746643	1.1487885
1443697080616854839	-2.2851868	-0.20832825	1.0657043
1443697080621340923	-2.1923523	-0.2901764	0.9985199
1443697080626376323	-2.1068115	-0.37080383	0.9557495
1443697080632052593	-2.022522	-0.43434143	0.9447479
1443697080636447124	-1.9357758	-0.46733093	0.96798706
1443697080639956646	-1.8527069	-0.47587585	1.0180664
1443697080646517925	-1.776947	-0.47955322	1.0791473
1443697080651583843	-1.71344	-0.50154114	1.1414642
1443697080656588726	-1.659668	-0.55041504	1.198883
1443697080661654644	-1.6144562	-0.623703	1.2453003
1443697080667483501	-1.5802612	-0.7080078	1.2807312
1443697080671878032	-1.5509338	-0.7862091	1.2978363
1443697080676760845	-1.5179596	-0.84851074	1.3014984
1443697080681857280	-1.4751892	-0.8912811	1.3014984
1443697080689944439	-1.4250946	-0.9132538	1.3112793
1443697080696902446	-1.3701172	-0.8998108	1.3320465
1443697080701937847	-1.3065948	-0.8179779	1.3552704
1443697080707125835	-1.2284088	-0.64082336	1.3711395
1443697080712130718	-1.1294403	-0.3769226	1.3858032
1443697080717715435	-1.0182648	-0.06782532	1.4114532
1443697080722048931	-0.9156494	0.23023987	1.4578857
1443697080727267437	-0.84355164	0.48069763	1.5214081
1443697080732638530	-0.8130188	0.6737366	1.5910492
1443697080737155132	-0.8166809	0.8264618	1.6557922
1443697080740512066	-0.8350067	0.96328735	1.7046814
1443697080747409038	-0.8508911	1.091568	1.7376556
1443697080753085308	-0.85821533	1.2076263	1.7584229
1443697080757479839	-0.85821533	1.3078156	1.7706451
1443697080762881450	-0.8496704	1.3970032	1.7730865
1443697080767398052	-0.833786	1.4837341	1.7682037
1443697080777346782	-0.7800293	1.5704803	1.7474365
1443697080784152202	-0.74949646	1.7794037	1.7327728
1443697080788241558	-0.72016907	1.9199066	1.7095642
1443697080790896587	-0.72016907	2.0848389	1.7095642
1443697080797763042	-0.6908417	2.0848389	1.6777954
1443697080802645855	-0.6590729	2.2571106	1.6387024
1443697080807803325	-0.61997986	2.4134674	1.597168
1443697080812686138	-0.56500244	2.5368652	1.5543976
1443697080817752056	-0.48927307	2.6248322	1.5165253
1443697080822787456	-0.4000702	2.682251	1.4859924
1443697080827975445	-0.31332397	2.7164612	1.4627838
1443697080833346538	-0.2363739	2.7250214	1.4346619
1443697080838046245	-0.16427612	2.7115784	1.390686
1443697080841128521	-0.08609009	2.6871338	1.3186035
1443697080848117046	0.0018615723	2.6590424	1.2233276
1443697080852969341	0.0922699	2.6236115	1.1170197
1443697080858218364	0.18145752	2.5674133	1.0180664
1443697080866305523	0.26696777	2.4855652	0.93377686
1443697080873141460	0.41479492	2.271759	0.79815674
1443697080878359966	0.4758911	2.1581268	0.7309723
1443697080884158306	0.53086853	2.0457458	0.6564331
1443697080888369732	0.53086853	1.930893	0.6564331
1443697080891574077	0.58462524	1.930893	0.5745697
1443697080898440532	0.64204407	1.8099365	0.49394226
1443697080903353863	0.70558167	1.6694489	0.41818237
1443697080908602886	0.7752075	1.5069427	0.34855652
1443697080913394146	0.84484863	1.3322601	0.2789154
1443697080920169048	0.90715027	1.1685333	0.20072937
1443697080923495464	0.9572449	1.0365906	0.11154175
1443697080929751568	0.99513245	0.94496155	0.010131836
1443697080934085064	1.0195465	0.89730835	-0.09979248
1443697080939273052	1.0305481	0.89120483	-0.21218872
1443697080941958599	1.0281067	0.93151855	-0.32214355
1443697080949282818	1.0097809	1.0170593	-0.42355347
1443697080953677349	0.97068787	1.1465454	-0.5127411
1443697080958743267	0.90715027	1.3053741	-0.5836029
1443697080963900738	0.81796265	1.4715271	-0.62757874
1443697080969729595	0.70314026	1.6230164	-0.6349182
1443697080974002056	0.55651855	1.7464294	-0.6043701
1443697080978854351	0.55651855	1.8270569	-0.6043701
1443697080983920269	0.36349487	1.8270569	-0.5322876
1443697080988955669	0.115478516	1.8527069	-0.41378784
1443697080992465191	-0.17404175	1.8148346	-0.23783875
1443697080999026470	-0.4672699	1.7085419	-0.0020751953
1443697081004031353	-0.7140503	1.5521545	0.2776947
1443697081009066753	-0.87532043	1.376236	0.55870056
1443697081014102154	-0.9376221	1.2259521	0.78959656
1443697081019961529	-0.9217377	1.1380005	0.9411011
1443697081024356060	-0.872879	1.130661	1.0156097
1443697081029238872	-0.8289032	1.2076263	1.0437164
1443697081034304790	-0.8007965	1.34935	1.0583801
1443697081039309673	-0.7751465	1.5155029	1.0718231
1443697081042666607	-0.7751465	1.6633301	1.0742645
1443697081049380474	-0.62609863	1.7610779	1.0522766
1443697081054415874	-0.47583008	1.8001709	1.002182
1443697081059634380	-0.2730255	1.7806244	0.9300995
1443697081064639263	-0.023773193	1.6767731	0.844574
1443697081069400005	0.25720215	1.4446411	0.7382965
1443697081074557476	0.25720215	1.0671234	0.59413147
1443697081079714946	0.54185486	0.59432983	0.59413147
1443697081084994488	0.79719543	0.59432983	0.39497375
1443697081089663677	1.0073395	0.13496399	0.14451599
1443697081093020611	1.1734924	-0.21688843	-0.13644409
1443697081099887066	1.2883301	-0.4514618	-0.42967224
1443697081105654888	1.3188782	-0.63594055	-0.7216644
1443697081109927349	1.2138214	-0.8411865	-0.9977722
1443697081115359478	0.9462433	-1.0855255	-1.2372284
1443697081120852642	0.53941345	-1.323761	-1.4021454
1443697081124789409	0.0446167	-1.4923553	-1.4436798
1443697081130068950	-0.47338867	-1.5509949	-1.312973
1443697081135440044	-0.93273926	-1.5131378	-1.0099792
1443697081140200786	-1.2064056	-1.4483795	-0.6153717
1443697081144625835	-1.17099	-1.4251709	-0.26716614
1443697081150241070	-0.8044739	-1.4471588	-0.07170105
1443697081155245952	-0.2339325	-1.4544983	-0.042388916
1443697081160311870	0.3439331	-1.3897247	-0.11933899
1443697081165164165	0.7849884	-1.2663422	-0.23539734
1443697081170260601	1.0427704	-1.166153	-0.36247253
1443697081175265484	1.0427704	-1.1490631	-0.36247253
1443697081180453472	1.1527252	-1.1490631	-0.5078583
1443697081185733013	1.1783752	-1.2138062	-0.6874542
1443697081190524273	1.184494	-1.3115387	-0.9049072
1443697081193698101	1.2162628	-1.4105072	-1.1382599
1443697081200595073	1.2907715	-1.5119019	-1.3532867
1443697081205447368	1.4068298	-1.6291809	-1.5231018
1443697081210635357	1.5546722	-1.7599182	-1.6379547
1443697081215548687	1.7232666	-1.9004059	-1.7051392
1443697081220584087	1.8979797	-2.0567932	-1.7381439
1443697081225588970	2.0543518	-2.2449493	-1.7540131
1443697081230654888	2.1704102	-2.468521	-1.7747803
1443697081241519146	2.1997375	-2.6994324	-1.9018402
1443697081245730571	2.1081085	-2.993866	-1.9934845
1443697081250949077	1.9737244	-2.9926453	-2.060669
1443697081255831890	1.8283386	-2.8790283	-2.064331
1443697081260806255	1.6890564	-2.6529999	-1.9971313
1443697081266024761	1.5644379	-2.3218994	-1.8712921
1443697081272250347	1.4532776	-1.9040833	-1.7161407
1443697081275973491	1.4532776	-1.4178467	-1.7161407
1443697081281497173	1.36409	-1.4178467	-1.387497
1443697081287661724	1.2797852	-0.89372253	-1.2262268
1443697081291079693	1.2797852	0.097091675	-1.2262268
1443697081294436626	1.2895508	0.097091675	-1.0539551
1443697081301181011	1.323761	0.4819336	-0.8560486
1443697081306185894	1.3701782	0.767807	-0.6324768
1443697081311221294	1.416626	0.9571686	-0.40766907
1443697081316256695	1.454483	1.0597992	-0.21098328
1443697081322085552	1.4789276	1.0830078	-0.06071472
1443697081328463726	1.494812	1.025589	0.04801941
1443697081331332378	1.5143585	0.89120483	0.13354492
1443697081336520366	1.5485687	0.6908417	0.2129364
1443697081341433696	1.6035461	0.4232788	0.289917
1443697081344973736	1.6035461	0.09220886	0.289917
1443697081351473980	1.7159424	0.09220886	0.40109253
1443697081356509380	1.7305908	-0.61026	0.40109253
1443697081361544780	1.7061768	-0.8546295	0.35221863
1443697081366610698	1.6572876	-0.9914551	0.2605896
1443697081372134380	1.5974274	-1.0476532	0.14451599
1443697081376834087	1.5974274	-1.0586395	0.14451599
1443697081381716900	1.5326843	-1.0586395	0.01991272
1443697081386782818	1.467926	-1.0464325	-0.10835266
1443697081391787700	1.4056244	-1.0256653	-0.24151611
1443697081395144634	1.3469696	-1.0085602	-0.37713623
1443697081401980571	1.2895508	-0.9975586	-0.5090637
1443697081406893902	1.2309113	-0.98291016	-0.62635803
1443697081415866070	1.1062927	-0.95602417	-0.7961731
1443697081421969585	1.0500946	-0.8595123	-0.8511658
1443697081427066021	1.0061188	-0.80574036	-0.8927002
1443697081432192974	0.9755707	-0.7666626	-0.9220276
1443697081438662700	0.9572449	-0.7507782	-0.9403534
1443697081442294292	0.9413605	-0.7666626	-0.94644165
1443697081445468120	0.9413605	-0.8106384	-0.94644165
1443697081452212505	0.88516235	-0.8106384	-0.9171295
1443697081457400493	0.84729004	-0.92793274	-0.8878174
1443697081462435894	0.81674194	-0.9657898	-0.8523865
1443697081467471294	0.8020935	-0.9755707	-0.8144989
1443697081472384624	0.8020935	-0.9572449	-0.8144989
1443697081477358989	0.8094177	-0.9572449	-0.77175903
1443697081482577495	0.8375244	-0.9156952	-0.72898865
1443697081487918071	0.87905884	-0.86439514	-0.68621826
1443697081492648296	0.9254761	-0.80574036	-0.6483612
1443697081496554546	0.9670105	-0.7373352	-0.6239166
1443697081503115825	0.99513245	-0.662796	-0.6165924
1443697081507601909	1.0012207	-0.5956116	-0.6239166
1443697081512637310	0.9804535	-0.55285645	-0.6349182
1443697081517642193	0.93403625	-0.53697205	-0.64346313
1443697081523501568	0.87049866	-0.5479584	-0.64956665
1443697081527712993	0.7996521	-0.5821686	-0.6569061
1443697081532748394	0.7287903	-0.6395874	-0.6642456
1443697081538516216	0.6628113	-0.7128906	-0.66545105
1443697081542849712	0.6017151	-0.7874298	-0.653244
1443697081546176128	0.6017151	-0.83750916	-0.653244
1443697081553042583	0.4758911	-0.83750916	-0.59458923
1443697081557955913	0.39526367	-0.8020935	-0.5689392
1443697081563143902	0.29629517	-0.7214508	-0.5591583
1443697081567996196	0.29629517	-0.6212616	-0.5591583
1443697081573092632	0.18634033	-0.6212616	-0.5677185
1443697081578097515	0.07394409	-0.52597046	-0.5909271
1443697081583132915	-0.023773193	-0.44656372	-0.6153717
1443697081591250591	-0.11907959	-0.38424683	-0.6190338
1443697081596560650	-0.112960815	-0.28407288	-0.5823822
1443697081603182964	-0.08364868	-0.24864197	-0.5200653
1443697081608279400	-0.044540405	-0.23521423	-0.4406433
1443697081614230327	6.2561035E-4	-0.25354004	-0.35025024
1443697081618502788	0.04827881	-0.3109436	-0.25863647
1443697081623629741	0.0934906	-0.40992737	-0.1706543
1443697081628421001	0.12158203	-0.5443115	-0.09124756
1443697081633792095	0.119140625	-0.6982422	-0.027709961
1443697081639071636	0.0776062	-0.8387451	0.013809204
1443697081643557720	-0.004257202	-0.93281555	0.03579712
1443697081646914654	-0.004257202	-0.95602417	0.03579712
1443697081653628521	-0.2546997	-0.95602417	0.055343628
1443697081658572368	-0.39396667	-0.8020935	0.07733154
1443697081663699321	-0.39396667	-0.68603516	0.11520386
1443697081668856792	-0.52957153	-0.68603516	0.11520386
1443697081674288921	-0.6590729	-0.5870514	0.23616028
1443697081678958111	-0.7934723	-0.52230835	0.23616028
1443697081683840923	-0.93885803	-0.49543762	0.3094635
1443697081688876323	-1.1025696	-0.50276184	0.38642883
1443697081693911724	-1.274826	-0.54185486	0.46707153
1443697081697421245	-1.4446564	-0.59928894	0.5525818
1443697081703952007	-1.598587	-0.6579132	0.6429901
1443697081708987407	-1.7305298	-0.6982422	0.7382965
1443697081714053325	-1.8441467	-0.7141266	0.83602905
1443697081719241314	-1.9480133	-0.703125	0.93377686
1443697081724948101	-2.049408	-0.6689148	1.0253906
1443697081729312114	-2.1520233	-0.6053772	1.1096954
1443697081734164409	-2.258316	-0.50276184	1.1891174
1443697081739230327	-2.3585052	-0.3585968	1.2611847
1443697081744265728	-2.4391327	-0.19367981	1.3210449
1443697081747775249	-2.4391327	-0.042175293	1.3210449
1443697081754489116	-2.5136566	-0.042175293	1.3833618
1443697081759371929	-2.5148773	0.10441589	1.3821259
1443697081764529400	-2.5148773	0.09220886	1.3662415
1443697081769381695	-2.4953308	0.09220886	1.3662415
1443697081775149517	-2.4525757	0.045776367	1.3186035
1443697081780459575	-2.389038	-0.020187378	1.2953949
1443697081784518413	-2.30719	-0.0934906	1.2953949
1443697081791598491	-2.1300354	-0.17167664	1.2477417
1443697081794589214	-2.1300354	-0.35247803	1.2477417
1443697081802279644	-1.9846649	-0.35247803	1.2086487
1443697081809695415	-1.9284515	-0.53941345	1.212326
1443697081814730816	-1.8795929	-0.6029358	1.2318573
1443697081819766216	-1.830719	-0.63594055	1.2709656
1443697081825228863	-1.776947	-0.6444702	1.324707
1443697081829867534	-1.7158813	-0.6444702	1.3894806
1443697081835025005	-1.646225	-0.64938354	1.4505463
1443697081840762310	-1.5704803	-0.676239	1.4933167
1443697081845095806	-1.4983978	-0.7361145	1.5079803
1443697081848666363	-1.4983978	-0.82650757	1.5079803
1443697081855136089	-1.3957672	-0.82650757	1.4908752
1443697081860049419	-1.3957672	-0.9804535	1.4798737
1443697081865267925	-1.3688965	-0.9804535	1.4798737
1443697081870150738	-1.3456879	-0.97435	1.4737549
1443697081875186138	-1.3114777	-0.89616394	1.4713135
1443697081880221538	-1.2503815	-0.7581024	1.478653
1443697081885409527	-1.1526642	-0.5687256	1.4981995
1443697081890933208	-1.0231628	-0.32806396	1.5336304
1443697081895510845	-0.886322	-0.04095459	1.5886078
1443697081898654155	-0.7763672	0.25468445	1.6655884
1443697081905551128	-0.71284485	0.5051422	1.75354
1443697081910403423	-0.6932831	0.6737366	1.8317413
1443697081915621929	-0.69207764	0.7653656	1.8818359
1443697081920474224	-0.6847229	0.8105774	1.9001617
1443697081931948833	-0.61875916	0.8374634	1.879364
1443697081937075786	-0.57110596	0.9205322	1.8561554
1443697081940768413	-0.5259094	1.0182648	1.8292847
1443697081946627788	-0.49047852	1.1648712	1.8011932
1443697081956912212	-0.45259094	1.3481293	1.7449799
1443697081960787945	-0.45259094	1.7904053	1.7449799
1443697081966677837	-0.4025116	1.7904053	1.6692352
1443697081970858745	-0.4025116	2.3035278	1.6692352
1443697081975863628	-0.37442017	2.3035278	1.6142578
1443697081980929546	-0.35975647	2.5539856	1.5409546
1443697081985964946	-0.35609436	2.765335	1.4505463
1443697081991610698	-0.3511963	2.914383	1.3528137
1443697081996066265	-0.33654785	2.993805	1.2636261
1443697081999392681	-0.30111694	3.0157776	1.1854401
1443697082006106548	-0.24369812	3.0035706	1.0986938
1443697082011141948	-0.16427612	2.988922	0.9887543
1443697082018801861	-0.0738678	2.9852448	0.8641205
1443697082026248150	0.0763855	2.965683	0.6967621
1443697082031283550	0.13012695	2.922943	0.66864014
1443697082036349468	0.18266296	2.8691711	0.6429901
1443697082042117290	0.24375916	2.8105316	0.5953369
1443697082046420269	0.31095886	2.7396698	0.52693176
1443697082049899273	0.31095886	2.6419373	0.52693176
1443697082056582622	0.44779968	2.6419373	0.38153076
1443697082061495952	0.44779968	2.3670502	0.38153076
1443697082066531353	0.51986694	2.3670502	0.3265686
1443697082071566753	0.59806824	2.1886902	0.28503418
1443697082077395611	0.68481445	1.988327	0.2471466
1443697082081637554	0.7813263	1.7806244	0.19828796
1443697082086825542	0.88638306	1.5802612	0.13230896
1443697082092654400	0.99513245	1.388443	0.054122925
1443697082096743755	1.0965118	1.2051849	-0.03138733
1443697082107119732	1.2321472	1.0317078	-0.20362854
1443697082111758404	1.2467957	0.7702484	-0.2891693
1443697082117007427	1.2223511	0.7079468	-0.37101746
1443697082122531109	1.1624908	0.6908417	-0.44555664
1443697082126956157	1.065979	0.7055054	-0.5115204
1443697082132540874	0.9328003	0.7384796	-0.5701599
1443697082137026958	0.7568817	0.7763672	-0.6178131
1443697082142398052	0.53453064	0.808136	-0.64468384
1443697082147250347	0.25964355	0.8227844	-0.63124084
1443697082150485210	0.25964355	0.808136	-0.63124084
1443697082157290630	-0.061660767	0.808136	-0.5579529
1443697082162173443	-0.41105652	0.76904297	-0.40522766
1443697082167422466	-0.7482605	0.7250519	-0.16577148
1443697082172244243	-1.0268097	0.70428467	0.14819336
1443697082177188091	-1.2112885	0.7128296	0.5000458
1443697082182376079	-1.2931519	0.73239136	0.83724976
1443697082187533550	-1.2931519	0.7470398	1.1084595
1443697082192935161	-1.2479401	0.7726898	1.2843933
1443697082197604351	-1.169754	0.8508911	1.3638
1443697082200747661	-1.0610199	1.0011749	1.3711395
1443697082207644634	-0.93029785	1.1905365	1.3442688
1443697082212557964	-0.7873535	1.3615723	1.3039398
1443697082217745952	-0.63586426	1.4861755	1.2440948
1443697082222628765	-0.4721527	1.5753632	1.1402283
1443697082227664165	-0.29255676	1.6499023	0.98139954
1443697082235720806	-0.1056366	1.7061005	0.78593445
1443697082242922954	0.24987793	1.664566	0.3888855
1443697082247775249	0.41479492	1.5277405	0.20928955
1443697082251132183	0.41479492	1.3224792	0.20928955
1443697082258029155	0.57362366	1.3224792	0.029693604
1443697082262911968	0.72146606	1.0842438	-0.16699219
1443697082268130474	0.84729004	0.8496704	-0.37834167
1443697082272982769	0.9377136	0.63952637	-0.587265
1443697082278079204	0.98413086	0.44404602	-0.77908325
1443697082283053570	0.97680664	0.23023987	-0.95500183
1443697082290164165	0.76664734	-0.029953003	-1.2812042
1443697082293612652	0.76664734	-0.6298218	-1.2812042
1443697082298678570	0.55041504	-0.6298218	-1.4107056
1443697082301486187	0.26086426	-0.8863983	-1.465683
1443697082308993511	-0.088531494	-1.0867462	-1.3948212
1443697082313235454	-0.45014954	-1.2480164	-1.1700134
1443697082323580913	-0.8166809	-1.3970795	-0.42599487
1443697082328341655	-0.65296936	-1.6829529	-0.105911255
1443697082333560161	-0.27423096	-1.7758026	0.06756592
1443697082338442974	0.20954895	-1.7868042	0.08833313
1443697082343630962	0.6799011	-1.7073822	0.0016021729
1443697082348544292	1.0464325	-1.5668793	-0.14378357
1443697082351870708	1.0464325	-1.4227295	-0.14378357
1443697082358615093	1.2687836	-1.4227295	-0.31359863
1443697082363619976	1.3567505	-1.3262177	-0.48953247
1443697082368655376	1.3567505	-1.2907715	-0.67033386
1443697082373843364	1.3298798	-1.3054352	-0.8621521
1443697082379244976	1.3310852	-1.3457489	-1.0625153
1443697082383914165	1.3848572	-1.4007263	-1.2506714
1443697082388766460	1.4874878	-1.4752655	-1.3972626
1443697082394503765	1.6181946	-1.5803223	-1.4950104
1443697082398867779	1.7440338	-1.7305908	-1.5536499
1443697082402224712	1.8368835	-1.9260864	-1.5976257
1443697082408908062	1.878418	-2.1496582	-1.6464996
1443697082413973980	1.8747711	-2.3659058	-1.7075806
1443697082419161968	1.8417664	-2.5369415	-1.776001
1443697082424197368	1.7965698	-2.6346893	-1.8370972
1443697082429110698	1.7440338	-2.6554565	-1.8859711
1443697082434115581	1.6804962	-2.6138916	-1.915268
1443697082439273052	1.6059875	-2.5369415	-1.9201813
1443697082444583111	1.5277863	-2.4306488	-1.8896179
1443697082449404888	1.4593658	-2.2730408	-1.8163147
1443697082452548198	1.4593658	-2.0274658	-1.8163147
1443697082459475689	1.4068298	-2.0274658	-1.710022
1443697082464877300	1.3701782	-1.6682892	-1.5854187
1443697082469546489	1.3433075	-1.2015991	-1.4559174
1443697082474581890	1.3274231	-0.6737976	-1.321518
1443697082479525738	1.3200989	-0.14846802	-1.1736908
1443697082484378032	1.3249817	0.30845642	-1.0014191
1443697082491885357	1.3726196	0.6590729	-0.61047363
1443697082495272808	1.3726196	0.99749756	-0.61047363
1443697082499728374	1.4092712	0.99749756	-0.4382019
1443697082504092388	1.4496002	1.013382	-0.3026123
1443697082509799175	1.4911346	0.96572876	-0.19998169
1443697082514681988	1.5351257	0.8814392	-0.11933899
1443697082519900493	1.5839844	0.7629242	-0.04727173
1443697082524722271	1.6401978	0.59065247	0.01991272
1443697082529818706	1.698822	0.34143066	0.08467102
1443697082534823589	1.7501526	0.025009155	0.13842773
1443697082539981060	1.7868042	-0.31217957	0.16775513
1443697082545291118	1.80513	-0.6053772	0.15551758
1443697082550082378	1.80513	-0.81430054	0.15551758
1443697082553256206	1.8014526	-0.81430054	0.09687805
1443697082560153179	1.7758026	-0.9315796	0.0028076172
1443697082565035991	1.7281494	-0.9682312	-0.10101318
1443697082570193462	1.660965	-0.947464	-0.19874573
1443697082579165630	1.4850311	-0.89616394	-0.38323975
1443697082585177593	1.3836212	-0.8179779	-0.48464966
1443697082590365581	1.284668	-0.81307983	-0.5860443
1443697082595828228	1.1918182	-0.81552124	-0.67645264
1443697082600405864	1.1038513	-0.8106384	-0.74975586
1443697082603640728	1.0232239	-0.7862091	-0.81329346
1443697082610507183	0.9535675	-0.7495575	-0.8658142
1443697082615389995	0.8961487	-0.7263336	-0.90734863
1443697082620364361	0.85461426	-0.7397766	-0.9269104
1443697082625430279	0.8265228	-0.7996521	-0.924469
1443697082631442241	0.808197	-0.89616394	-0.9012451
1443697082635531597	0.79719543	-1.0122223	-0.8682556
1443697082641207866	0.7923126	-1.1270599	-0.8279419
1443697082646426372	0.7923126	-1.2174835	-0.78518677
1443697082650851421	0.7923126	-1.26268	-0.78518677
1443697082653994732	0.79719543	-1.26268	-0.73999023
1443697082660617046	0.8069763	-1.2553406	-0.6984558
1443697082667391948	0.84851074	-1.2040405	-0.64224243
1443697082670779400	0.84851074	-1.0561981	-0.64224243
1443697082675784282	0.88150024	-1.0561981	-0.6251373
1443697082681368999	0.91815186	-0.9926758	-0.6153717
1443697082686068706	0.94992065	-0.9401398	-0.614151
1443697082690921001	0.97190857	-0.8924866	-0.62635803
1443697082695986919	0.97680664	-0.8472748	-0.64346313
1443697082700991802	0.96336365	-0.7996521	-0.66178894
1443697082704348736	0.9303589	-0.7532196	-0.67889404
1443697082711032085	0.8802643	-0.7153473	-0.69233704
1443697082716067486	0.8204193	-0.69091797	-0.70578
1443697082721102886	0.7532196	-0.6872406	-0.7167816
1443697082726321392	0.6835785	-0.7019043	-0.7216644
1443697082731692486	0.6175995	-0.7312317	-0.71554565
1443697082736422710	0.55895996	-0.7654419	-0.6911011
1443697082741244488	0.55895996	-0.7862091	-0.64590454
1443697082746188335	0.5076599	-0.7862091	-0.64590454
1443697082754367046	0.39891052	-0.7752075	-0.5298462
1443697082761599712	0.33172607	-0.6737976	-0.4882965
1443697082766452007	0.2559662	-0.6163788	-0.4724121
1443697082771639995	0.17166138	-0.5662842	-0.48220825
1443697082776675396	0.08615112	-0.51620483	-0.5017395
1443697082783114605	0.009185791	-0.46244812	-0.5115204
1443697082788302593	-0.048217773	-0.4111328	-0.4968567
1443697082791629009	-0.077545166	-0.3720398	-0.46144104
1443697082797702007	-0.07510376	-0.35247803	-0.41011047
1443697082801882915	-0.042099	-0.3561554	-0.35147095
1443697082805026226	0.0067443848	-0.38180542	-0.2867279
1443697082811953716	0.05316162	-0.43069458	-0.2207489
1443697082816867046	0.0763855	-0.50398254	-0.1572113
1443697082821993999	0.062942505	-0.598053	-0.09857178
1443697082826846294	0.0055236816	-0.689682	-0.04727173
1443697082831942730	-0.08731079	-0.7507782	0.0016021729
1443697082836917095	-0.20092773	-0.7581024	0.05290222
1443697082842135601	-0.20092773	-0.7116852	0.11276245
1443697082847476177	-0.42573547	-0.63105774	0.18240356
1443697082852175884	-0.42573547	-0.54063416	0.18240356
1443697082856143169	-0.52957153	-0.54063416	0.2605896
1443697082862277202	-0.64198303	-0.46611023	0.3436737
1443697082867129497	-0.7824707	-0.41481018	0.42797852
1443697082872317486	-0.96450806	-0.379364	0.51226807
1443697082877230816	-1.183197	-0.35127258	0.6026764
1443697082882266216	-1.4165344	-0.32806396	0.70285034
1443697082887301616	-1.6389008	-0.31462097	0.81648254
1443697082892489605	-1.8343811	-0.3109436	0.93865967
1443697082898348980	-1.996872	-0.3085022	1.0644836
1443697082902560405	-2.1300354	-0.29751587	1.1829987
1443697082905734234	-2.1300354	-0.27308655	1.1829987
1443697082912600689	-2.3792725	-0.27308655	1.3699188
1443697082917483501	-2.525879	-0.18023682	1.4407806
1443697082925326519	-2.6847076	-0.10203552	1.5018768
1443697082932772808	-2.9278107	0.11785889	1.5788422
1443697082937655620	-2.9278107	0.22047424	1.5764008
1443697082942813091	-2.9522552	0.22047424	1.5764008
1443697082948245220	-2.9009552	0.29745483	1.495758
1443697082952883892	-2.7922058	0.3536377	1.495758
1443697082956118755	-2.6541443	0.39152527	1.431015
1443697082963931255	-2.5112152	0.41107178	1.3625946
1443697082967837505	-2.3817139	0.3988495	1.3014984
1443697082973422222	-2.2742004	0.34875488	1.2563019
1443697082977908306	-2.189911	0.25712585	1.2330933
1443697082983920269	-2.1202545	0.13006592	1.2269745
1443697082988009624	-2.05307	-0.018966675	1.2294159
1443697082993197613	-1.9809875	-0.17167664	1.2367554
1443697082998721294	-1.8991241	-0.30973816	1.2550812
1443697083003085308	-1.8099365	-0.4221344	1.2917328
1443697083013400249	-1.634018	-0.50886536	1.4028931
1443697083018374614	-1.5619354	-0.677475	1.4493408
1443697083023196392	-1.5045166	-0.79719543	1.4774323
1443697083028262310	-1.4568634	-0.93891907	1.4933167
1443697083033358745	-1.414093	-1.0794067	1.5067596
1443697083038485698	-1.414093	-1.1869202	1.5189667
1443697083043368511	-1.3664551	-1.1869202	1.5189667
1443697083048403911	-1.3078156	-1.2284698	1.5324097
1443697083053439312	-1.2332916	-1.166153	1.5482941
1443697083056826763	-1.1379852	-0.97190857	1.5678406
1443697083063540630	-1.0268097	-0.6395874	1.5910492
1443697083068576030	-0.9180908	-0.21321106	1.6203766
1443697083073641948	-0.8325653	0.22415161	1.663147
1443697083078829937	-0.78370667	0.57722473	1.7181244
1443697083084170513	-0.7727051	0.79345703	1.7791901
1443697083088900738	-0.7800293	0.8838806	1.8317413
1443697083093753032	-0.7800293	0.9009857	1.8622742
1443697083098849468	-0.7543793	0.90830994	1.867157
1443697083103823833	-0.7079315	0.94129944	1.8573914
1443697083107150249	-0.7079315	1.0072632	1.8573914
1443697083113894634	-0.62976074	1.0072632	1.8317413
1443697083118838482	-0.61875916	1.1612091	1.8121796
1443697083124118023	-0.62120056	1.244278	1.775528
1443697083128939800	-0.6273041	1.3566895	1.7181244
1443697083134707622	-0.63098145	1.5081787	1.648468
1443697083141940288	-0.6236572	1.6889801	1.5739441
1443697083149752788	-0.60043335	1.8795776	1.5067596
1443697083154147320	-0.5588989	2.0689545	1.4493408
1443697083157687359	-0.50268555	2.2485504	1.3943634
1443697083164370708	-0.43917847	2.4085846	1.3344879
1443697083169406109	-0.3695221	2.5381012	1.2636261
1443697083174472027	-0.29988098	2.6321564	1.186676
1443697083179354839	-0.2339325	2.694458	1.115799
1443697083184390239	-0.17404175	2.7299042	1.0534973
1443697083189425640	-0.11418152	2.7433472	0.9911957
1443697083194583111	-0.044540405	2.7457886	0.9215393
1443697083199984722	0.034835815	2.7409058	0.84091187
1443697083204684429	0.1105957	2.7262268	0.7566223
1443697083208224468	0.1105957	2.69693	0.7566223
1443697083214755230	0.22666931	2.69693	0.59169006
1443697083219638042	0.27308655	2.5661926	0.50982666
1443697083224795513	0.3219452	2.4721222	0.42797852
1443697083229739361	0.3769226	2.371933	0.3436737
1443697083234744243	0.3769226	2.271759	0.3436737
1443697083239810161	0.4441223	2.271759	0.263031
1443697083244967632	0.5284271	2.1691284	0.18608093
1443697083250521831	0.62493896	2.0481873	0.11276245
1443697083254885845	0.7251129	1.9015808	0.045578003
1443697083258242779	0.8253021	1.730545	-0.0155181885
1443697083265109234	0.92059326	1.5472717	-0.074142456
1443697083269961529	1.0000153	1.3615723	-0.13034058
1443697083275180034	1.052536	1.1880951	-0.18286133
1443697083280032329	1.0684204	1.039032	-0.23295593
1443697083286471538	1.0464325	0.92663574	-0.28060913
1443697083290133648	0.98168945	0.85943604	-0.32704163
1443697083295260601	0.87294006	0.8411102	-0.37834167
1443697083300906353	0.71655273	0.8704376	-0.4308777
1443697083306521587	0.5259857	0.94252014	-0.48220825
1443697083316470318	0.12524414	1.040268	-0.5298462
1443697083320346050	-0.056777954	1.2320709	-0.49565125
1443697083325503521	-0.2363739	1.2894897	-0.40400696
1443697083330569439	-0.4244995	1.2992554	-0.25128174
1443697083336154155	-0.61753845	1.2455139	-0.038711548
1443697083340640239	-0.61753845	1.1392212	-0.038711548
1443697083345523052	-0.7897949	1.1392212	0.21537781
1443697083352420025	-0.9425049	1.025589	0.7089691
1443697083355593853	-0.9425049	0.99017334	0.7089691
1443697083359103374	-0.90953064	0.99017334	0.8800049
1443697083365664654	-0.833786	1.1098938	0.9850769
1443697083370730571	-0.74705505	1.2956085	1.0400543
1443697083375735454	-0.66519165	1.5045013	1.0657043
1443697083380740337	-0.58699036	1.6950989	1.0742645
1443697083386294536	-0.50268555	1.8368225	1.066925
1443697083390994243	-0.4037323	1.9174652	1.0351715
1443697083395877056	-0.29011536	1.9418793	0.9753113
1443697083400942974	-0.16183472	1.9272308	0.8897705
1443697083405917339	-0.0262146	1.8795776	0.78715515
1443697083409304790	-0.0262146	1.7757263	0.78715515
1443697083415988140	0.28041077	1.7757263	0.5538025
1443697083421054058	0.4526825	1.2455139	0.41453552
1443697083426119976	0.6310425	0.8154602	0.25082397
1443697083431277446	0.6310425	0.35243225	0.25082397
1443697083437045269	0.9413605	0.35243225	-0.16209412
1443697083441348247	0.9413605	-0.4355774	-0.16209412
1443697083446231060	1.0146637	-0.4355774	-0.40522766
1443697083451266460	0.98168945	-0.7519989	-0.65444946
1443697083456301861	0.82774353	-1.0671997	-0.8927002
1443697083459780864	0.5638428	-1.4031677	-1.0918427
1443697083466372661	0.22666931	-1.739151	-1.2140198
1443697083472384624	-0.14839172	-2.010376	-1.2005768
1443697083480319195	-0.7885895	-2.1606445	-0.66545105
1443697083486666851	-0.89486694	-2.0995636	-0.2818451
1443697083492251568	-0.7727051	-1.9676208	-0.0020751953
1443697083496737652	-0.44526672	-1.803894	0.094436646
1443697083501650982	-0.012786865	-1.6157684	0.026016235
1443697083506808452	0.40379333	-1.4190521	-0.13034058
1443697083510012798	0.40379333	-1.2467957	-0.13034058
1443697083516726665	0.90715027	-1.2467957	-0.49197388
1443697083521792583	1.0024567	-1.1209412	-0.67033386
1443697083526919536	1.0537567	-1.1893768	-0.8548279
1443697083531832866	1.0537567	-1.3200989	-0.8548279
1443697083536868267	1.1099548	-1.3200989	-1.041748
1443697083541903667	1.2052612	-1.4862518	-1.2127838
1443697083547061138	1.350647	-1.6768341	-1.3422852
1443697083552462749	1.5461121	-1.896759	-1.413147
1443697083557162456	1.7745819	-2.1484222	-1.4314728
1443697083560244732	2.0079346	-2.4282074	-1.4217072
1443697083567538433	2.2082977	-2.726303	-1.413147
1443697083572085552	2.3451233	-3.0390625	-1.4302673
1443697083577304058	2.402542	-3.3506165	-1.47789
1443697083582156353	2.3842163	-3.6242828	-1.5463257
1443697083587252788	2.3035889	-3.8148499	-1.609848
1443697083592257671	2.171646	-3.889389	-1.6501617
1443697083597415142	1.9993744	-3.850296	-1.6672821
1443697083602938823	1.7977905	-3.7256775	-1.6733704
1443697083607516460	1.581543	-3.5411835	-1.670929
1443697083610720806	1.581543	-3.2931976	-1.670929
1443697083617617779	1.2382355	-3.2931976	-1.6061859
1443697083622439556	1.2382355	-2.4049988	-1.5353241
1443697083627719097	1.1686096	-2.4049988	-1.438797
1443697083632540874	1.1649323	-1.7281494	-1.438797
1443697083637576275	1.197937	-0.98535156	-1.3141937
1443697083642611675	1.245575	-0.3085022	-1.1590424
1443697083648501568	1.2932129	0.19238281	-0.98065186
1443697083655368023	1.36409	0.47581482	-0.614151
1443697083658480816	1.36409	0.550354	-0.614151
1443697083661044292	1.3799744	0.550354	-0.4565277
1443697083668185405	1.3848572	0.484375	-0.32826233
1443697083672793560	1.3836212	0.4147339	-0.23175049
1443697083677828960	1.3787384	0.34631348	-0.16209412
1443697083683047466	1.3775177	0.27545166	-0.10713196
1443697083688510113	1.3824158	0.19604492	-0.06680298
1443697083693087749	1.3933868	0.11174011	-0.038711548
1443697083698031597	1.4141846	0.01524353	-0.017959595
1443697083703005962	1.4459229	-0.12158203	0.0052490234
1443697083708071880	1.4899292	-0.3243866	0.03213501
1443697083711581402	1.4899292	-0.58584595	0.03213501
1443697083718142681	1.5717773	-0.58584595	0.04801941
1443697083723147564	1.5717773	-1.0782013	0.04801941
1443697083728182964	1.5876617	-1.0782013	0.011367798
1443697083733401470	1.581543	-1.2431335	-0.05215454
1443697083743014507	1.5180206	-1.3726349	-0.23295593
1443697083748324566	1.4654846	-1.5302277	-0.33802795
1443697083753512554	1.3970642	-1.4862518	-0.4382019
1443697083758303814	1.3078766	-1.342102	-0.5273895
1443697083761965923	1.1991425	-1.1453857	-0.6068115
1443697083768496685	1.0855255	-0.9657898	-0.6752167
1443697083773501568	0.98657227	-0.8497467	-0.72898865
1443697083778567486	0.9193573	-0.8045349	-0.76319885
1443697083783724956	0.8937073	-0.81552124	-0.7802887
1443697083789248638	0.9010315	-0.85827637	-0.79252625
1443697083793856792	0.9279175	-0.92181396	-0.805954
1443697083798831157	0.9572449	-1.0061188	-0.8242798
1443697083803805523	0.9804535	-1.1234131	-0.8499298
1443697083808779888	0.99757385	-1.271225	-0.8780365
1443697083812319927	0.99757385	-1.4337311	-0.8780365
1443697083818850689	1.0122223	-1.4337311	-0.92811584
1443697083824374370	1.0562134	-1.6609497	-0.94644165
1443697083829074077	1.0562134	-1.6743927	-0.94644165
1443697083834323101	1.0830841	-1.6743927	-0.9586792
1443697083839663677	1.105072	-1.6169739	-0.9660034
1443697083844088726	1.1148376	-1.507019	-0.96720886
1443697083849185161	1.1075134	-1.3713989	-0.9684448
1443697083854647808	1.0843048	-1.2345734	-0.97088623
1443697083859316997	1.0439911	-1.1038513	-0.9721222
1443697083863558941	0.9877777	-0.9804535	-0.96476746
1443697083869357280	0.9218292	-0.8607178	-0.94888306
1443697083874148540	0.8558502	-0.7568817	-0.9293518
1443697083879275493	0.794754	-0.689682	-0.90979004
1443697083884280376	0.7422333	-0.676239	-0.8878174
1443697083890200786	0.6945801	-0.7128906	-0.8548279
1443697083894381695	0.6469269	-0.7776489	-0.8047333
1443697083899569683	0.5956116	-0.84239197	-0.7375488
1443697083904940777	0.5443115	-0.88272095	-0.66178894
1443697083912844829	0.49298096	-0.88272095	-0.5897064
1443697083919711284	0.4441223	-0.8411865	-0.4882965
1443697083924594097	0.3940277	-0.6737976	-0.4882965
1443697083929812603	0.340271	-0.6737976	-0.46144104
1443697083934634380	0.28407288	-0.5785217	-0.43943787
1443697083939730816	0.23155212	-0.49543762	-0.41378784
1443697083944735698	0.18634033	-0.42333984	-0.37957764
1443697083949893169	0.15701294	-0.3585968	-0.34170532
1443697083955416851	0.14601135	-0.3109436	-0.3050537
1443697083959994488	0.15457153	-0.29629517	-0.26960754
1443697083963198833	0.1765747	-0.32806396	-0.2341919
1443697083970065288	0.20466614	-0.40013123	-0.19874573
1443697083974948101	0.22787476	-0.49299622	-0.16209412
1443697083979891948	0.23155212	-0.59439087	-0.121795654
1443697083984988384	0.20466614	-0.689682	-0.07902527
1443697083990481548	0.14601135	-0.7703247	-0.033828735
1443697083999240093	0.05683899	-0.82650757	0.01625061
1443697084005160503	-0.17893982	-0.8338623	0.13230896
1443697084010897808	-0.30722046	-0.7923126	0.19828796
1443697084013522320	-0.30722046	-0.7373352	0.19828796
1443697084020297222	-0.43917847	-0.7373352	0.27037048
1443697084025210552	-0.58332825	-0.68847656	0.34977722
1443697084030337505	-0.7507019	-0.65670776	0.43774414
1443697084035525493	-0.94618225	-0.6481476	0.5330353
1443697084040927105	-1.1636353	-0.66526794	0.6319885
1443697084045626812	-1.388443	-0.7080078	0.7334137
1443697084050509624	-1.6034698	-0.7727661	0.83847046
1443697084055575542	-1.7989502	-0.8497467	0.9508667
1443697084060549907	-1.9748688	-0.9206085	1.068161
1443697084064028911	-2.1410217	-0.97068787	1.1829987
1443697084070590191	-2.3035278	-0.9890137	1.2905121
1443697084075656109	-2.4599	-0.9682312	1.3833618
1443697084080722027	-2.604065	-0.89860535	1.4627838
1443697084087435894	-2.7201233	-0.7752075	1.5263062
1443697084091311626	-2.7922058	-0.6029358	1.5739441
1443697084095980816	-2.8068695	-0.4038086	1.6069336
1443697084100833111	-2.7689972	-0.21688843	1.6252594
1443697084105899029	-2.700592	-0.066604614	1.6289368
1443697084110903911	-2.6248322	0.03112793	1.6203766
1443697084114413433	-2.6248322	0.07876587	1.6203766
1443697084121157818	-2.5539703	0.07876587	1.6032562
1443697084126010113	-2.490448	0.08364868	1.5788422
1443697084131198101	-2.429367	0.049453735	1.5495148
1443697084136050396	-2.3658295	-0.023849487	1.5153046
1443697084141116314	-2.2949677	-0.1435852	1.483551
1443697084147128277	-2.215561	-0.313385	1.4639893
1443697084151156597	-2.1288147	-0.51620483	1.4713135
1443697084157778911	-2.0420685	-0.7226715	1.5140839
1443697084161379986	-1.9589844	-0.8973694	1.5886078
1443697084164614849	-1.8844757	-1.0232239	1.6826782
1443697084175540142	-1.7671814	-1.100174	1.8610535
1443697084181399517	-1.7329712	-1.1612701	1.9099274
1443697084186373882	-1.7232056	-1.1759491	1.9184875
1443697084192446880	-1.7329712	-1.1869202	1.8867188
1443697084196505718	-1.752533	-1.1783905	1.8305054
1443697084201663189	-1.7586212	-1.1221771	1.766983
1443697084207064800	-1.725647	-0.98535156	1.7095642
1443697084211764507	-1.6474609	-0.7336731	1.6643524
1443697084215670757	-1.6474609	-0.3561554	1.6643524
1443697084221835308	-1.5436096	-0.3561554	1.6313782
1443697084226718120	-1.4434204	0.10809326	1.6191406
1443697084231906109	-1.376236	0.5711212	1.6338196
1443697084236788921	-1.3505707	0.92297363	1.6716766
1443697084241854839	-1.3603516	1.0891266	1.7193298
1443697084246829204	-1.3835602	1.0805664	1.7596588
1443697084252047710	-1.3945618	0.96817017	1.7828674
1443697084257846050	-1.375	0.833786	1.7828674
1443697084262087993	-1.3249207	0.7262726	1.7645416
1443697084265322857	-1.2540588	0.66641235	1.7315521
1443697084272189312	-1.1770782	0.66519165	1.6900024
1443697084277041607	-1.1037903	0.7177124	1.6460266
1443697084282229595	-1.0414886	0.8044586	1.6008148
1443697084287142925	-0.99383545	0.9022064	1.5592804
1443697084292147808	-0.9608307	1.0097046	1.5214081
1443697084297213726	-0.93273926	1.144104	1.4823151
1443697084304843120	-0.899765	1.3200226	1.4383392
1443697084307681255	-0.8569946	1.5265045	1.3894806
1443697084312411480	-0.8569946	1.7317505	1.3894806
1443697084315585308	-0.8081207	1.7317505	1.3332672
1443697084323428325	-0.69451904	1.9027863	1.212326
1443697084327395611	-0.69451904	2.1190338	1.212326
1443697084333285503	-0.61875916	2.1190338	1.1536713
1443697084337466411	-0.5332489	2.1911316	1.0950317
1443697084342593364	-0.44770813	2.2619934	1.0314941
1443697084347567730	-0.3670807	2.3389435	0.9606323
1443697084352725200	-0.29135132	2.4098206	0.88368225
1443697084358248882	-0.20948792	2.4586792	0.80303955
1443697084362673931	-0.11418152	2.4855652	0.71629333
1443697084366030864	-0.009140015	2.503891	0.6234436
1443697084372775249	0.10081482	2.5356598	0.52693176
1443697084377688579	0.20954895	2.5881805	0.43530273
1443697084382815532	0.31095886	2.6480408	0.34977722
1443697084391757183	0.4050293	2.695694	0.26914978
1443697084398074321	0.56996155	2.709137	0.12742615
1443697084402957134	0.65304565	2.6736908	0.06390381
1443697084408023052	0.65304565	2.6052856	-0.006958008
1443697084413027935	0.7532196	2.6052856	-0.006958008
1443697084416537456	0.88272095	2.5002136	-0.093688965
1443697084423068218	1.0415497	2.3658295	-0.19630432
1443697084428134136	1.2162628	2.217987	-0.30871582
1443697084433322124	1.3824158	2.0689545	-0.41622925
1443697084438327007	1.5119019	1.9235535	-0.5115204
1443697084443850689	1.5791016	1.7916107	-0.587265
1443697084448245220	1.5619965	1.6889801	-0.64468384
1443697084453433208	1.4385986	1.6279144	-0.6874542
1443697084458834820	1.2028198	1.6022491	-0.7228699
1443697084463534527	0.88272095	1.5876007	-0.74975586
1443697084466708355	0.52963257	1.5594788	-0.75831604
1443697084473605327	0.19610596	1.5069427	-0.73143005
1443697084478457622	-0.09953308	1.4348755	-0.6569061
1443697084483676128	-0.36586	1.3456879	-0.5286255
1443697084489566021	-0.61021423	1.2418365	-0.35269165
1443697084494265728	-0.8191223	1.1294403	-0.1413269
1443697084499453716	-0.96939087	1.0414734	0.08345032
1443697084503634624	-1.0500336	1.0145874	0.2972412
1443697084509219341	-1.0671387	1.0805664	0.48539734
1443697084513888530	-1.0671387	1.2516022	0.48539734
1443697084517092876	-1.0329285	1.2516022	0.6429901
1443697084523928814	-0.95962524	1.5069427	0.77005005
1443697084528842144	-0.8533325	1.7989502	0.86779785
1443697084534030132	-0.7226105	2.0591888	0.9349823
1443697084538912945	-0.58210754	2.2363129	0.9728699
1443697084543978863	-0.44406128	2.3169708	0.98139954
1443697084549014263	-0.31822205	2.3267365	0.9569855
1443697084554171734	-0.2180481	2.3035278	0.89956665
1443697084559603863	-0.14717102	2.2742004	0.81526184
1443697084564242534	-0.10197449	2.2375488	0.7150879
1443697084567629986	-0.061660767	2.166687	0.6087799
1443697084574282818	-5.79834E-4	2.017624	0.5024872
1443697084579196148	0.10081482	1.7476349	0.39985657
1443697084584384136	0.24864197	1.340805	0.2984619
1443697084589297466	0.4367981	0.8227844	0.19340515
1443697084594302349	0.6408081	0.25712585	0.07244873
1443697084602053814	0.82774353	-0.27552795	-0.07292175
1443697084609378032	0.95236206	-0.7141266	-0.24763489
1443697084614443950	0.97068787	-1.0317688	-0.43943787
1443697084617800884	0.8558502	-1.2553406	-0.6373596
1443697084624636821	0.62371826	-1.4312744	-0.8218384
1443697084629550152	0.33050537	-1.5962067	-0.96232605
1443697084634768657	0.029953003	-1.7440338	-1.0087738
1443697084639590435	-0.24246216	-1.857666	-0.9220276
1443697084644717388	-0.4562683	-1.9517365	-0.7143097
1443697084649691753	-0.5540161	-2.0677948	-0.45288086
1443697084654666118	-0.47947693	-2.215622	-0.23295593
1443697084660342388	-0.2363739	-2.3268127	-0.121795654
1443697084665835552	0.08615112	-2.2974854	-0.13278198
1443697084675906353	0.58340454	-1.8503113	-0.37590027
1443697084679904155	0.7104645	-1.6548615	-0.5335083
1443697084685305767	0.8057556	-1.5913239	-0.6959839
1443697084690097027	0.9059448	-1.6499786	-0.8609314
1443697084694949321	1.0244446	-1.791687	-1.0197449
1443697084700015239	1.0244446	-1.9786072	-1.1602478
1443697084705050640	1.1600494	-2.1777496	-1.1602478
1443697084710910015	1.4862518	-2.1777496	-1.3202972
1443697084715151958	1.4862518	-2.5296173	-1.3202972
1443697084718508892	1.673172	-2.5296173	-1.3276367
1443697084725222759	1.8686523	-2.6823273	-1.3080902
1443697084730258159	2.0616913	-2.8216095	-1.2922058
1443697084735293560	2.2315063	-2.9376678	-1.3105316
1443697084740451030	2.350006	-3.0268555	-1.3764954
1443697084745852642	2.3964233	-3.0854797	-1.4815674
1443697084750582866	2.3707733	-3.1136017	-1.5939636
1443697084755404644	2.2889252	-3.106247	-1.6721649
1443697084760501079	2.1692047	-3.0525055	-1.6990509
1443697084765486443	2.027481	-2.927887	-1.6782532
1443697084768873894	2.027481	-2.700653	-1.6782532
1443697084775557243	1.7196045	-2.700653	-1.609848
1443697084780592644	1.572998	-1.8955231	-1.596405
1443697084785658562	1.4434814	-1.3750763	-1.5890808
1443697084790846550	1.3420868	-0.82650757	-1.5585327
1443697084796217644	1.2797852	-0.26818848	-1.4803619
1443697084800947868	1.2590027	0.27056885	-1.3459625
1443697084805769646	1.2590027	0.7384796	-1.3459625
1443697084814314568	1.311554	0.7384796	-0.95744324
1443697084819349968	1.3530884	1.2772827	-0.7509918
1443697084826094353	1.3921814	1.3347015	-0.5677185
1443697084831740105	1.4312744	1.2870483	-0.42233276
1443697084836134636	1.4752502	1.1758575	-0.31604004
1443697084841749870	1.5314636	1.0292664	-0.24031067
1443697084846052849	1.6047516	0.847229	-0.18165588
1443697084851149284	1.6939392	0.6089783	-0.12667847
1443697084856306755	1.7892456	0.29745483	-0.069244385
1443697084861891472	1.8662109	-0.06538391	-0.016723633
1443697084866347038	1.9016266	-0.4245758	0.012573242
1443697084869551384	1.9016266	-0.7116852	0.012573242
1443697084876448357	1.8381195	-0.7116852	-0.053375244
1443697084881331169	1.7721405	-0.94869995	-0.14012146
1443697084886519157	1.712265	-0.9242554	-0.24151611
1443697084891371452	1.660965	-0.8497467	-0.34292603
1443697084901900017	1.5485687	-0.7568817	-0.5396271
1443697084906660759	1.5485687	-0.5894928	-0.5396271
1443697084911574089	1.467926	-0.5894928	-0.64224243
1443697084916731560	1.3738556	-0.51742554	-0.7436371
1443697084919874870	1.2797852	-0.458786	-0.8352814
1443697084926802361	1.2003784	-0.4270172	-0.9085846
1443697084931685173	1.1478424	-0.4355774	-0.96232605
1443697084936903679	1.1209564	-0.47343445	-1.0002136
1443697084941664421	1.1148376	-0.52474976	-1.024643
1443697084946852409	1.1197357	-0.58584595	-1.041748
1443697084951826775	1.1295166	-0.66770935	-1.0527496
1443697084957014763	1.1392822	-0.7752075	-1.0564117
1443697084962538444	1.144165	-0.89372253	-1.0515137
1443697084967085564	1.1417236	-1.0036774	-1.041748
1443697084970289909	1.1417236	-1.0830841	-1.041748
1443697084977186882	1.1233978	-1.0830841	-1.0429688
1443697084982069694	1.1209564	-1.0928497	-1.063736
1443697084989699089	1.1282806	-1.0048981	-1.0894012
1443697084998213493	1.1539307	-0.7153473	-1.1333771
1443697085002180778	1.1539307	-0.56018066	-1.1333771
1443697085008253777	1.1673737	-0.56018066	-1.1468048
1443697085012678825	1.1673737	-0.31706238	-1.1468048
1443697085017744743	1.1612854	-0.31706238	-1.1455994
1443697085020643913	1.1405029	-0.24986267	-1.141922
1443697085027418816	1.1014099	-0.22421265	-1.1370392
1443697085032362663	1.0464325	-0.24253845	-1.1309357
1443697085037398064	0.9804535	-0.29751587	-1.1174927
1443697085042463982	0.91326904	-0.37815857	-1.094284
1443697085048292839	0.85095215	-0.46855164	-1.0539551
1443697085052534782	0.7923126	-0.55651855	-0.98921204
1443697085057539665	0.73243713	-0.6273804	-0.8951416
1443697085063429558	0.66648865	-0.6689148	-0.7754059
1443697085067610466	0.59072876	-0.676239	-0.64224243
1443697085077406609	0.41358948	-0.65670776	-0.40278625
1443697085082899773	0.3085022	-0.59072876	-0.32214355
1443697085088087761	0.19854736	-0.54919434	-0.2708435
1443697085092940056	0.0922699	-0.50154114	-0.2390747
1443697085097853386	0.0922699	-0.4563446	-0.2390747
1443697085103010857	-0.0018157959	-0.4563446	-0.21218872
1443697085107893669	-0.077545166	-0.43069458	-0.185318
1443697085112929069	-0.13494873	-0.43190002	-0.16333008
1443697085117964470	-0.17160034	-0.4490204	-0.15232849
1443697085121351921	-0.19360352	-0.46488953	-0.14866638
1443697085128035271	-0.2046051	-0.472229	-0.14378357
1443697085133070671	-0.21557617	-0.49176025	-0.121795654
1443697085138289177	-0.23269653	-0.54307556	-0.07292175
1443697085143324577	-0.26202393	-0.6322632	0.0016021729
1443697085149000847	-0.31088257	-0.7324524	0.090774536
1443697085153425896	-0.3902893	-0.80574036	0.18484497
1443697085158278191	-0.5112457	-0.8253021	0.28503418
1443697085166304314	-0.67863464	-0.80085754	0.39741516
1443697085171858513	-0.8875427	-0.7568817	0.5318146
1443697085178541862	-1.3542328	-0.7568817	0.8482361
1443697085183729851	-1.5619354	-0.8387451	1.0046234
1443697085188673698	-1.7293243	-0.89616394	1.1487885
1443697085193464958	-1.7293243	-0.9266968	1.1487885
1443697085198622429	-1.8575897	-0.9266968	1.2795105
1443697085203505241	-1.9602203	-0.9132538	1.3968048
1443697085208754265	-2.05307	-0.84851074	1.5018768
1443697085214338982	-2.1471405	-0.7409973	1.595932
1443697085218825066	-2.2436523	-0.598053	1.6802368
1443697085223067009	-2.3401794	-0.419693	1.75354
1443697085228926384	-2.429367	-0.20832825	1.8134155
1443697085233778679	-2.5038757	0.020126343	1.8512726
1443697085238966667	-2.5503082	0.2375946	1.8659515
1443697085243879997	-2.5613098	0.4147339	1.8561554
1443697085253706657	-2.490448	0.54055786	1.7779694
1443697085259108269	-2.4232483	0.6248627	1.7132263
1443697085264052116	-2.3438263	0.576004	1.6338196
1443697085269056999	-2.254654	0.4489441	1.5458527
1443697085272413933	-2.254654	0.2375946	1.5458527
1443697085279249870	-2.0542908	0.2375946	1.4126892
1443697085284193718	-1.956543	-0.37815857	1.4065704
1443697085289381706	-1.8722534	-0.6994629	1.4481049
1443697085294234001	-1.8722534	-0.9657898	1.4481049
1443697085299330437	-1.8001709	-0.9657898	1.5263062
1443697085304304802	-1.7329712	-1.1405029	1.6191406
1443697085309309685	-1.6645508	-1.2125854	1.7034454
1443697085315046989	-1.5973663	-1.2077026	1.7584229
1443697085319594109	-1.5411682	-1.1685944	1.7791901
1443697085322767937	-1.5020752	-1.1343842	1.7682037
1443697085329481804	-1.4788666	-1.1319427	1.7388916
1443697085340956413	-1.440979	-1.1734924	1.6704712
1443697085344557487	-1.415329	-1.3934021	1.6448212
1443697085350172722	-1.3786774	-1.5009155	1.6277008
1443697085354658806	-1.3237	-1.507019	1.6154938
1443697085359938347	-1.2345123	-1.3384247	1.6069336
1443697085365156853	-1.1074524	-0.96214294	1.6057129
1443697085369765007	-0.9633026	-0.41357422	1.6289368
1443697085373274528	-0.9633026	0.2058258	1.6289368
1443697085379805290	-0.8081207	0.2058258	1.7840881
1443697085384901726	-0.833786	1.1392212	1.879364
1443697085389876091	-0.833786	1.3420258	1.879364
1443697085394942009	-0.89120483	1.3420258	1.9490204
1443697085400404655	-0.9474182	1.4324341	1.9832306
1443697085405134880	-0.99139404	1.4959717	1.9942322
1443697085410048210	-1.0268097	1.5961456	1.9929962
1443697085415083611	-1.0610199	1.7598419	1.9844513
1443697085420088493	-1.091568	1.9809723	1.9661255
1443697085427351677	-1.1221008	2.219223	1.8732758
1443697085430189812	-1.1221008	2.6419373	1.8732758
1443697085435377800	-1.1208954	2.6419373	1.8048553
1443697085440169060	-1.1098938	2.8337555	1.7230072
1443697085445448601	-1.0879059	3.0157776	1.6289368
1443697085451002800	-1.0500336	3.1636047	1.5275269
1443697085455519402	-0.9999542	3.2662354	1.4371033
1443697085460371696	-0.952301	3.3383179	1.3711395
1443697085465437614	-0.9156494	3.4091797	1.3283844
1443697085470442497	-0.8887634	3.4849243	1.299057
1443697085473829948	-0.8887634	3.5362396	1.299057
1443697085480696403	-0.8276825	3.5362396	1.2233276
1443697085485487663	-0.8276825	3.4605103	1.2233276
1443697085490614616	-0.7775879	3.4605103	1.1622314
1443697085495741569	-0.7006073	3.3383179	1.0925903
1443697085501295769	-0.58821106	3.1880493	1.0192871
1443697085506697380	-0.44526672	3.023117	0.9459839
1443697085510908806	-0.27790833	2.856964	0.86779785
1443697085516157829	-0.09953308	2.7066956	0.78105164
1443697085520827019	0.078826904	2.5869598	0.6955261
1443697085524336540	0.24499512	2.4941254	0.6185608
1443697085530897819	0.39646912	2.397583	0.5574646
1443697085535933220	0.53575134	2.2729797	0.50372314
1443697085541151726	0.66648865	2.1129303	0.45118713
1443697085545973503	0.7923126	1.9333496	0.3937683
1443697085558119499	1.040329	1.7513123	0.26914978
1443697085561079704	1.1612854	1.3921204	0.20196533
1443697085566115105	1.2700043	1.2198486	0.12864685
1443697085571150505	1.3567505	1.0708008	0.05168152
1443697085575239861	1.3567505	0.95596313	0.05168152
1443697085581404411	1.4581604	0.95596313	-0.09857178
1443697085586256706	1.4581604	0.8130188	-0.09857178
1443697085591475212	1.4593658	0.8130188	-0.1694336
1443697085596358025	1.4105072	0.76660156	-0.2341919
1443697085601393425	1.2993317	0.73483276	-0.2891693
1443697085606428825	1.1160736	0.7238312	-0.33680725
1443697085611616814	0.86561584	0.7335968	-0.38079834
1443697085617109978	0.5626221	0.754364	-0.42111206
1443697085621687614	0.22666931	0.7739258	-0.44799805
1443697085624861443	-0.121520996	0.7873688	-0.44555664
1443697085631727898	-0.46603394	0.794693	-0.39790344
1443697085636610710	-0.7873535	0.79589844	-0.29649353
1443697085644728386	-1.0488129	0.7922516	-0.14012146
1443697085651716911	-1.2540588	0.7702484	0.2654724
1443697085656752312	-1.1856384	0.7519226	0.43774414
1443697085661818230	-1.0488129	0.7556	0.5574646
1443697085667799675	-0.8973236	0.8142395	0.6307831
1443697085671766960	-0.7690277	0.9571686	0.6747589
1443697085675245964	-0.7690277	1.1722107	0.6747589
1443697085683180534	-0.61387634	1.1722107	0.7089691
1443697085686964714	-0.61387634	1.63768	0.7089691
1443697085692244255	-0.56134033	1.63768	0.7040863
1443697085697157585	-0.51368713	1.8074951	0.6833191
1443697085703169548	-0.4721527	1.9247894	0.6405487
1443697085707228386	-0.4367218	1.9980927	0.5745697
1443697085712141716	-0.39762878	2.017624	0.49639893
1443697085717817986	-0.33164978	1.9577637	0.42430115
1443697085722212517	-0.20948792	1.7904053	0.37054443
1443697085725722038	-0.004257202	1.4935303	0.33633423
1443697085732832634	0.28897095	1.064682	0.3082428
1443697085737318718	0.6457062	0.5295868	0.26182556
1443697085742354118	1.0232239	-0.04095459	0.16896057
1443697085747389519	1.3836212	-0.55773926	0.008926392
1443697085752913200	1.6976166	-0.96946716	-0.22442627
1443697085757612907	1.9419556	-1.2797852	-0.5298462
1443697085762495720	2.0824585	-1.5216827	-0.8988037
1443697085767470085	2.0775757	-1.7342682	-1.312973
1443697085772566521	1.8820953	-1.9334106	-1.7515717
1443697085776045525	1.8820953	-2.1105652	-1.7515717
1443697085782637321	1.4776917	-2.1105652	-2.187729
1443697085787703239	0.88394165	-2.2351685	-2.56279
1443697085792708122	0.17166138	-2.2583923	-2.764389
1443697085797835075	-0.5430145	-2.1484222	-2.659317
1443697085803541862	-1.1013336	-1.9370728	-2.2023773
1443697085807905876	-1.3517914	-1.7428131	-1.5206604
1443697085812849724	-1.235733	-1.700058	-0.8609314
1443697085820936882	-0.31700134	-1.8258972	-0.24519348
1443697085826307976	0.15945435	-1.9529572	-0.22930908
1443697085833143913	0.5137634	-1.7232666	-0.26107788
1443697085838942253	0.7299957	-1.4141693	-0.2867279
1443697085843184196	0.83384705	-1.2125854	-0.31115723
1443697085849318230	0.8717346	-1.2199249	-0.35881042
1443697085853682243	0.90226746	-1.4214935	-0.4333191
1443697085858870232	0.9731293	-1.7428131	-0.52130127
1443697085863203728	1.1111908	-2.1117706	-0.5921478
1443697085868330681	1.3152161	-2.477066	-0.6300354
1443697085873396599	1.5644379	-2.8118134	-0.6349182
1443697085876753532	1.5644379	-3.107483	-0.6349182
1443697085883375847	1.8466644	-3.107483	-0.6239166
1443697085888380730	2.145996	-3.333496	-0.6226959
1443697085893416130	2.4355469	-3.448349	-0.66056824
1443697085898421013	2.660324	-3.426361	-0.75587463
1443697085906904900	2.739746	-3.2919617	-1.0710754
1443697085913649284	2.6016998	-2.9657593	-1.2237854
1443697085919050896	2.395218	-2.8570251	-1.3398438
1443697085923811638	2.1557617	-2.7825012	-1.4204712
1443697085926924431	1.9114227	-2.7177582	-1.47789
1443697085933821403	1.6817322	-2.6395721	-1.5255432
1443697085938734734	1.4838104	-2.5161743	-1.5609894
1443697085943892204	1.3286438	-2.3133698	-1.5719757
1443697085948805534	1.2223511	-1.9993744	-1.543869
1443697085953779900	1.1722565	-1.5668793	-1.4681244
1443697085958876335	1.183258	-1.0537567	-1.3435211
1443697085964003288	1.2553558	-0.53819275	-1.1798096
1443697085969801628	1.3701782	-0.11790466	-0.98921204
1443697085974074089	1.5009155	0.14350891	-0.78518677
1443697085977339470	1.5009155	0.24003601	-0.78518677
1443697085984175407	1.6230774	0.24003601	-0.5811615
1443697085989088737	1.725708	0.21192932	-0.40034485
1443697085994276726	1.8063507	0.09953308	-0.2635193
1443697085999159538	1.8674316	-0.08248901	-0.18286133
1443697086004164421	1.9089813	-0.32806396	-0.14500427
1443697086009230339	1.930954	-0.611496	-0.12667847
1443697086015333855	1.930954	-0.8790436	-0.11689758
1443697086020003044	1.905304	-1.0818481	-0.11201477
1443697086025191032	1.8540039	-1.1942596	-0.11933899
1443697086027693474	1.7819061	-1.223587	-0.14500427
1443697086035139763	1.6976166	-1.1893768	-0.19265747
1443697086039412224	1.6194305	-1.1184998	-0.2635193
1443697086044478142	1.5571136	-1.0329895	-0.35269165
1443697086049605095	1.5119019	-0.9572449	-0.4516449
1443697086055281364	1.480133	-0.9071655	-0.5518341
1443697086059675896	1.4520416	-0.89004517	-0.64468384
1443697086064619743	1.4251556	-0.8863983	-0.73143005
1443697086070479118	1.3995056	-0.87171936	-0.8083954
1443697086077315056	1.3701782	-0.8338623	-0.871933
1443697086084791862	1.3286438	-0.7874298	-0.9146881
1443697086089796745	1.2724457	-0.755661	-0.9342346
1443697086094832146	1.2015839	-0.7519989	-0.9317932
1443697086099867546	1.1233978	-0.7788696	-0.9171295
1443697086105635368	1.0488739	-0.8253021	-0.8988037
1443697086110029900	0.9890137	-0.87783813	-0.8816986
1443697086114973747	0.94992065	-0.92181396	-0.8755951
1443697086120802605	0.9352417	-0.9584656	-0.88414
1443697086125075066	0.93891907	-1.0048981	-0.9037018
1443697086128584587	0.9560394	-1.0745239	-0.9207916
1443697086135145866	0.9828949	-1.1588287	-0.9207916
1443697086140150749	1.013443	-1.2211304	-0.9061432
1443697086145247185	1.0378723	-1.2272491	-0.8816986
1443697086150404655	1.0513153	-1.1734924	-0.8536072
1443697086156233513	1.052536	-1.0867462	-0.8230591
1443697086165053093	1.0452118	-0.9890137	-0.77175903
1443697086170515739	1.0097809	-0.81185913	-0.7619629
1443697086175673210	1.0097809	-0.7434387	-0.7644043
1443697086178786003	0.9780121	-0.7434387	-0.7644043
1443697086185621941	0.9303589	-0.6958008	-0.7778473
1443697086191176140	0.86561584	-0.6689148	-0.7961731
1443697086195570671	0.7886505	-0.66526794	-0.81329346
1443697086201124870	0.7129059	-0.6847992	-0.81817627
1443697086206160271	0.6493683	-0.7226715	-0.79985046
1443697086210890495	0.60295105	-0.7703247	-0.7546387
1443697086215681755	0.56996155	-0.8094177	-0.68377686
1443697086220656120	0.53697205	-0.82406616	-0.5994873
1443697086225935661	0.49542236	-0.8045349	-0.5176239
1443697086229140007	0.43800354	-0.7519989	-0.4492035
1443697086236006462	0.36105347	-0.677475	-0.40034485
1443697086240858757	0.26696777	-0.59194946	-0.36857605
1443697086246138298	0.15945435	-0.5125427	-0.34658813
1443697086254103386	0.051956177	-0.44778442	-0.32826233
1443697086261030876	-0.10197449	-0.36592102	-0.28060913
1443697086266157829	-0.13128662	-0.33415222	-0.2525177
1443697086271528923	-0.13006592	-0.3085022	-0.2183075
1443697086276259148	-0.13006592	-0.3109436	-0.2183075
1443697086279463493	-0.108078	-0.3109436	-0.17553711
1443697086286329948	-0.076309204	-0.35983276	-0.12667847
1443697086291273796	-0.049438477	-0.46855164	-0.07170105
1443697086296400749	-0.044540405	-0.6212616	-0.014282227
1443697086301314079	-0.072647095	-0.7862091	0.038238525
1443697086306318962	-0.1374054	-0.9206085	0.082214355
1443697086311384880	-0.23513794	-0.9951172	0.11766052
1443697086316572868	-0.35487366	-1.0012207	0.14697266
1443697086322066032	-0.49171448	-0.9584656	0.1787262
1443697086326613152	-0.64442444	-0.8924866	0.22273254
1443697086329848015	-0.8130188	-0.82406616	0.28015137
1443697086336744987	-0.9901581	-0.769104	0.35343933
1443697086341566765	-1.17099	-0.7397766	0.4389801
1443697086346693718	-1.34935	-0.7434387	0.54037476
1443697086351668083	-1.5216064	-0.78009033	0.6601105
1443697086357557976	-1.6841125	-0.8363037	0.7932739
1443697086361738884	-1.8331604	-0.89616394	0.9325409
1443697086367171013	-1.9712219	-0.947464	1.0657043
1443697086372603142	-2.1080475	-0.9890137	1.1854401
1443697086377669060	-2.2509766	-1.0183258	1.2868347
1443697086380171501	-2.2509766	-1.0281067	1.2868347
1443697086387068474	-2.3963623	-1.0281067	1.3735962
1443697086391829216	-2.5368652	-1.0048981	1.456665
1443697086396956169	-2.660263	-0.93647766	1.5397339
1443697086402144157	-2.74823	-0.8228607	1.622818
1443697086407973015	-2.783661	-0.67503357	1.6949005
1443697086412245476	-2.7555695	-0.5125427	1.7437744
1443697086417158806	-2.673706	-0.35983276	1.7608643
1443697086422163689	-2.5588684	-0.24375916	1.7462158
1443697086427199089	-2.4403687	-0.19000244	1.7058868
1443697086430678093	-2.3389435	-0.20710754	1.6533508
1443697086437269890	-2.2595367	-0.28529358	1.6020508
1443697086442305290	-2.200882	-0.4013672	1.5617218
1443697086447340691	-2.1544647	-0.53453064	1.5348511
1443697086452498161	-2.1117096	-0.6737976	1.5250854
1443697086458265984	-2.0677338	-0.8204193	1.5324097
1443697086462629997	-2.0176392	-0.9731293	1.5556183
1443697086467451775	-2.0176392	-1.1331787	1.5556183
1443697086473219597	-1.8722534	-1.1331787	1.6399078
1443697086477553093	-1.8722534	-1.4496002	1.6399078
1443697086481062614	-1.7745056	-1.4496002	1.6912384
1443697086487776482	-1.6706696	-1.5803223	1.7425385
1443697086492628777	-1.5753784	-1.6670685	1.7914124
1443697086497694694	-1.4983978	-1.700058	1.8317413
1443697086505781853	-1.3970032	-1.686615	1.8647156
1443697086508619987	-1.3970032	-1.586441	1.8647156
1443697086512922966	-1.3566742	-1.586441	1.8622742
1443697086517988884	-1.3029327	-1.5021362	1.8512726
1443697086523939812	-1.22229	-1.3433075	1.8341827
1443697086527876579	-1.1233368	-1.0500946	1.814621
1443697086531416618	-1.0378113	-0.6029358	1.8048553
1443697086538099968	-1.0023956	-0.07637024	1.8158569
1443697086543104851	-1.0292511	0.4000702	1.8427277
1443697086548170769	-1.0891266	0.7335968	1.8647156
1443697086552962028	-1.1343384	0.91319275	1.868393
1443697086558150017	-1.1379852	0.99017334	1.8561554
1443697086563154900	-1.1379852	1.0158234	1.8561554
1443697086568190300	-1.0964508	1.0158234	1.8402863
1443697086573683464	-1.0280457	1.0317078	1.8268433
1443697086578383171	-0.952301	1.0671234	1.8121796
1443697086582442009	-0.8789978	1.1428833	1.7877502
1443697086593519890	-0.76293945	1.257721	1.70224
1443697086598585808	-0.7189331	1.554596	1.6521454
1443697086603407585	-0.6847229	1.7329865	1.597168
1443697086608351433	-0.66519165	1.9418793	1.5287476
1443697086613508903	-0.6615143	2.1752472	1.4358978
1443697086618696892	-0.66763306	2.402481	1.3198242
1443697086624006950	-0.6688385	2.5845184	1.1976471
1443697086628737175	-0.65541077	2.7018127	1.0889282
1443697086631972038	-0.65541077	2.7689972	1.0889282
1443697086638807976	-0.5735626	2.7689972	0.9325409
1443697086643690788	-0.51856995	2.8667297	0.8763428
1443697086648878777	-0.45994568	2.927826	0.8286896
1443697086653792107	-0.39518738	2.9864807	0.78349304
1443697086658858025	-0.31700134	3.0206757	0.73706055
1443697086663832390	-0.31700134	3.019455	0.73706055
1443697086669050896	-0.22413635	3.019455	0.68696594
