accelerometer_timestamp	accelerometer_x_data	accelerometer_y_data	accelerometer_z_data
924003394606468	-0.14552307	4.473831	11.019791
924003402998802	-0.7572479	4.51947	11.038864
924003411391136	-1.1032104	4.452667	10.769669
924003419783470	-1.149765	4.3801727	10.230316
924003428175804	-0.8249512	4.333267	9.488495
924003436568138	-0.38960266	4.2782288	8.707993
924003444960472	-0.036895752	4.177292	8.047028
924003453352806	0.32398987	4.023117	7.582062
924003461745140	0.6569824	3.8655853	7.2121887
924003470137474	0.8496704	3.8359222	6.816559
924003478529808	1.0276947	3.909912	6.5448303
924003486922142	1.1393738	4.06102	6.568924
924003495314476	1.1125946	4.220566	6.9385223
924003503706810	0.9505615	4.263153	7.482086
924003512099144	0.72125244	4.1714325	8.048386
924003520491478	0.5161896	4.1313934	8.448288
924003528883812	0.35572815	4.0964203	8.807785
924003537276146	0.197052	4.1047363	9.109695
924003545668480	-0.01449585	4.196808	9.282028
924003554060814	-0.3008728	4.3519135	9.261612
924003562453148	-0.47483826	4.490082	9.135376
924003570845482	-0.39260864	4.4298096	9.10022
924003579237816	-0.09524536	4.2417603	8.997345
924003587630150	0.37643433	4.01033	8.824768
924003596022484	0.94085693	3.8594208	8.652222
924003604414818	1.4469299	3.9620514	8.558868
924003612807152	1.5639343	4.2340546	8.611862
924003621199486	1.362793	4.4797516	8.67186
924003629591820	1.0380096	4.6412354	8.57811
924003637984154	0.6728058	4.72937	8.37384
924003646376488	0.33055115	4.7778015	8.2247925
924003654768822	0.13075256	4.8046417	8.356995
924003663161156	-0.27130127	4.9001007	8.411118
924003671553490	-0.27789307	4.9179993	8.508636
924003679945824	-0.20172119	4.7968597	8.727966
924003688338158	-0.08892822	4.5256042	8.958939
924003696730492	0.13000488	4.124344	9.075592
924003705122826	0.47792053	3.6263275	9.121323
924003713515160	0.60873413	3.4216003	8.873413
924003721907494	0.24653625	3.3372345	8.334457
924003730299828	-0.36463928	3.4271698	7.942322
924003738692162	-0.5996704	3.5047455	7.9054565
924003747084496	-0.20695496	3.5036316	8.160461
924003755476830	-0.34568787	3.9971466	8.317032
924003763869164	-0.792099	4.7539673	8.398056
924003772261498	-0.71203613	5.2757874	8.452225
924003780653832	-0.23538208	5.435257	8.494461
924003789046166	0.43901062	5.2218323	8.636902
924003797438500	1.0927429	4.7248535	8.964645
924003805830834	1.4706268	4.1416016	9.326569
924003814223168	1.4240265	3.9077454	9.946045
924003822615502	1.3304291	4.1297607	10.263245
924003831007836	1.3713989	4.6497498	9.745865
924003839400170	1.441452	5.3429565	8.806351
924003847792504	1.321991	6.105591	8.061996
924003856184838	1.026474	6.773773	6.72258
924003864577171	1.1521606	7.063843	5.9825134
924003872969505	1.5493011	7.312149	5.6835938
924003881361839	1.7019348	6.554062	5.8435974
924003889754173	1.7852478	5.134796	6.8415375
924003898146507	2.183136	4.0518646	8.864731
924003906538841	2.6270142	3.9068298	10.924438
924003914931175	2.3094177	4.0470734	12.364822
924003923323509	1.4807739	4.2434235	13.230164
924003931715843	1.0172119	4.24028	13.737579
924003940108177	1.3370972	4.014145	13.70137
924003948500511	2.2489624	3.7525177	12.761047
924003956892845	2.8463593	3.8330383	10.914169
924003965285179	3.128708	4.239334	8.496323
924003973677513	3.193039	4.508316	5.934372
924003982069847	3.0829773	4.7374725	3.7119293
924003990462181	2.96521	5.093994	2.0829773
924003998854515	2.9922638	5.673065	1.0458832
924004007246849	2.8799438	6.205841	0.4842682
924004015639183	2.4764404	6.4339447	0.7394562
924004024031517	1.9155121	6.503311	1.8945618
924004032423851	1.3284149	6.470047	4.0602417
924004040816185	0.8217468	6.2540894	6.969116
924004049208519	0.47816467	5.7660217	9.960968
924004057600853	0.5328369	5.3042297	12.074661
924004065993187	1.5935364	4.9323273	12.793106
924004074385521	2.8461914	4.718521	12.12088
924004082777855	3.6620483	4.651062	10.604584
924004091170189	3.791153	4.7978973	8.802246
924004099562523	3.3937683	5.2433777	7.1704865
924004107954857	3.152481	5.909363	6.029907
924004116347191	2.8246918	6.333679	5.6500854
924004124739525	2.2665405	6.5502167	6.155594
924004133131859	1.8367615	6.531708	7.2371826
924004141524193	1.8139496	6.323166	8.358749
924004149916527	2.2682343	5.9998474	8.935364
924004158308861	2.708908	5.5820923	8.6063385
924004166701195	2.8816986	5.500763	7.903885
924004175093529	2.794876	5.5770264	7.3891907
924004183485863	2.451477	5.6708984	7.286789
924004191878197	2.0626068	5.7829742	7.6299744
924004200270531	1.9544525	6.013626	8.191788
924004208662865	2.0003052	6.0186005	8.362274
924004217055199	2.111908	5.89093	7.9664307
924004225447533	2.4289856	5.841675	6.8943634
924004233839867	2.8816376	5.8153687	6.0835266
924004242232201	3.1139069	5.7736664	6.0849304
924004250624535	2.7379303	5.7626953	6.663452
924004259016869	2.4945831	5.8853455	7.0820007
924004267409203	2.4119415	5.924225	7.0824127
924004275801537	2.4166412	5.784424	7.0101624
924004284193871	2.4265442	5.638321	7.006241
924004292586205	2.3963623	5.6484375	7.1118927
924004300978539	2.3274384	5.858963	7.30719
924004309370873	2.1664886	5.928238	7.441635
924004317763207	2.325882	5.8789825	7.292816
924004326155541	2.8169708	5.905182	7.0634613
924004334547875	2.8595123	5.882019	6.7519226
924004342940209	2.0567627	5.774536	6.5269012
924004351332543	1.0182037	5.7782135	6.816681
924004359724877	1.4748383	5.8589783	7.494644
924004368117211	1.9609833	5.809967	8.413132
924004376509545	2.141098	5.7227325	9.22406
924004384901879	2.1768188	5.5643463	9.489288
924004393294213	2.3094177	5.3438873	9.07309
924004401686546	2.6262665	5.183197	8.40181
924004410078880	2.922943	5.3339996	7.9503937
924004418471214	2.995224	5.4585876	7.700409
924004426863548	2.87294	5.544098	7.7675476
924004435255882	2.746399	5.5497437	8.075958
924004443648216	2.7458801	5.466873	8.373474
924004452040550	2.8503723	5.3499146	8.273102
924004460432884	3.0080261	5.341095	7.7100525
924004468825218	2.7281494	5.5903015	6.8606415
924004477217552	2.27182	6.0659027	5.6952972
924004485609886	2.0549774	6.4099884	5.746933
924004494002220	2.1541443	6.3813477	7.347809
924004502394554	2.1093597	6.1237183	8.280136
924004510786888	2.780304	5.90802	8.555481
924004519179222	3.3149261	5.629776	8.138397
924004527571556	3.6345825	5.426407	7.599304
924004535963890	3.7326508	5.4121094	7.061737
924004544356224	3.6070404	5.5906677	6.387253
924004552748558	3.2052612	5.762848	5.3070374
924004561140892	1.6349792	6.3012238	4.9969788
924004569533226	1.2524567	6.5720673	5.3573303
924004577925560	1.3650208	6.5529327	5.798126
924004586317894	1.6064606	6.3473053	5.9705353
924004594710228	1.8291779	6.1197357	5.83815
924004603102562	2.1470032	5.9647064	5.756439
924004611494896	2.3818817	5.844345	6.082535
924004619887230	2.5034943	5.700821	6.51178
924004628279564	2.5212402	5.488098	7.0975494
924004636671898	2.306549	5.333542	7.784149
924004645064232	1.7738953	5.378723	8.477921
924004653456566	1.0452881	5.61232	9.139923
924004661848900	0.6983185	5.807724	9.548706
924004670241234	0.74172974	5.779434	9.357849
924004678633568	1.1332245	5.512268	8.844162
924004687025902	1.7732849	5.1326904	8.2378845
924004695418236	2.4985352	4.825775	7.866623
924004703810570	3.1545715	4.686615	8.262238
924004712202904	3.2425995	4.8635864	9.313812
924004720595238	2.8692627	5.115036	9.418503
924004728987572	2.7156372	5.1363983	8.610565
924004737379906	2.4985657	5.0725555	7.419052
924004745772240	1.7398071	5.1355743	6.643036
924004754164574	1.1245117	4.9218597	6.748398
924004762556908	1.1917877	4.7596893	7.465332
924004770949242	1.1929474	4.952423	7.955429
924004779341576	0.58566284	5.2061157	8.02739
924004787733910	-0.11407471	5.3129425	7.906479
924004796126244	-0.07797241	5.1771393	7.959488
924004804518578	0.08404541	4.8848877	8.0529175
924004812910912	-0.16165161	4.7266235	8.665939
924004821303246	-0.5011139	4.6504364	9.543732
924004829695580	-0.9871826	4.648575	10.121048
924004838087914	-1.3379974	4.720337	10.225449
924004846480248	-1.2446442	4.83609	10.035217
924004854872582	-0.9844208	4.8759766	9.647385
924004863264916	-0.82762146	4.595398	8.910843
924004871657250	-0.48649597	4.2240295	7.7473755
924004880049584	-0.1776123	4.052414	6.52269
924004888441918	0.051071167	4.083832	5.660248
924004896834252	0.30274963	4.089432	5.5188293
924004905226586	0.6347351	3.9298706	6.019287
924004913618920	0.30194092	3.8811493	7.408066
924004922011254	-0.8336792	4.154846	9.166504
924004930403588	-1.7799988	4.302368	10.210144
924004938795921	-1.9518738	4.164444	10.480469
924004947188255	-1.4459381	3.9298553	10.721176
924004955580589	-1.4389496	3.9458008	10.617493
924004963972923	-0.9613342	3.7351532	10.119537
924004972365257	0.06288147	3.4424896	9.545914
924004980757591	0.32107544	3.442749	9.036301
924004989149925	-0.12664795	3.692398	8.469772
924004997542259	-0.20158386	3.832489	7.7118835
924005005934593	-0.6976776	3.7689514	8.252045
924005014326927	-0.88601685	3.9277496	9.4782715
924005022719261	-1.2542114	3.9786682	10.440567
924005031111595	-1.50531	3.9741669	10.936813
924005039503929	-1.5911407	3.9632568	10.92131
924005047896263	-1.7776947	3.9457855	10.41243
924005056288597	-1.740921	4.0312653	9.505905
924005064680931	-1.6161194	4.175888	8.131012
924005073073265	-1.5427399	4.3687744	6.915344
924005081465599	-1.6413727	4.6580505	5.9352264
924005089857933	-1.844635	5.035446	5.2415466
924005098250267	-1.9748535	5.396103	4.889389
924005106642601	-2.7074432	5.5521545	4.763153
924005115034935	-3.3132477	5.515381	5.006531
924005123427269	-4.2798004	5.534073	5.7486877
924005131819603	-5.055847	4.6613007	6.4370728
924005140211937	-5.229355	2.9791107	6.8173523
924005148604271	-4.9030304	1.9111328	7.132477
924005156996605	-4.395752	1.358017	7.192581
924005165388939	-3.5491638	1.2447052	9.624573
924005173781273	-3.6273499	1.6167297	10.70726
924005182173607	-3.7393951	2.1716614	10.342102
924005190565941	-3.4240875	2.6765747	9.366348
924005198958275	-3.3732605	3.168106	8.454239
924005207350609	-4.018326	3.7014923	7.4023895
924005215742943	-5.323715	4.3815765	6.363785
924005224135277	-6.8513184	5.3038177	6.2326813
924005232527611	-7.9147797	5.6206055	6.571335
924005240919945	-8.607162	4.7960205	6.7168427
924005249312279	-10.005936	3.2930908	6.27388
924005257704613	-10.62709	2.1873932	6.318741
924005266096947	-10.097168	1.5752716	6.744995
924005274489281	-9.203186	1.3190308	6.9407654
924005282881615	-8.266708	1.3953705	6.9296265
924005291273949	-7.431656	1.7967987	6.86911
924005299666283	-6.717987	2.4481964	6.887192
924005308058617	-6.3453217	3.1915436	7.0364685
924005316450951	-6.084259	3.806244	7.12825
924005324843285	-6.0173035	4.3882294	7.0377655
924005333235619	-6.087845	4.9095306	6.631256
924005341627953	-6.228134	5.278763	5.832199
924005350020287	-6.43042	5.3822174	4.665756
924005358412621	-6.7289734	5.089752	3.4217834
924005366804955	-7.194092	4.612152	2.5287476
924005375197289	-7.9051056	4.076721	2.0754395
924005383589623	-8.70108	3.6427765	2.0420074
924005391981957	-9.406448	3.4325867	2.38591
924005400374291	-9.958923	3.524292	3.324707
924005408766625	-11.446457	3.1863098	8.569962
924005417158959	-10.244308	3.2266083	5.2599945
924005425551293	-9.270584	3.9075928	3.4116974
924005433943627	-8.246292	4.712036	3.3464508
924005442335961	-6.722763	5.2464905	2.9236298
924005450728295	-5.8917694	5.8123627	1.5708923
924005459120629	-5.4102173	6.2071686	0.66760254
924005467512963	-5.3497314	6.5242157	0.1953888
924005475905296	-5.4329987	6.7312775	-0.3424225
924005484297630	-5.655945	6.7920074	-1.0903625
924005492689964	-6.07547	6.7151337	-1.8185272
924005501082298	-6.68425	6.582138	-1.8451233
924005509473494	-7.401779	6.645462	-0.93807983
924005517865828	-7.7610474	6.632187	0.10574341
924005526258162	-7.809845	6.662079	1.14151
924005534650496	-7.7292633	6.8204346	2.1080933
924005543042830	-7.6994476	7.078827	3.024475
924005551435164	-7.7707214	7.224289	4.0027313
924005559827498	-7.8636475	7.1450195	4.1184387
924005568219832	-8.05542	6.9144135	3.2627716
924005576612166	-8.699585	6.8146973	2.4817505
924005585004500	-9.557663	6.8179474	2.2133636
924005593396834	-10.249466	6.8417206	2.31279
924005601789168	-10.699768	7.006729	2.0125885
924005610181502	-10.649612	7.1137238	1.5934448
924005618573836	-10.024506	6.856201	1.2925873
924005626966170	-8.852997	6.5126953	1.0359192
924005635358504	-7.3022003	6.3553467	0.91085815
924005643750838	-5.6506042	6.4904785	0.84532166
924005652143172	-4.292694	6.6549835	0.14834595
924005660535506	-3.4463043	6.970398	-0.59788513
924005668927840	-3.063858	7.507675	-0.6649475
924005677320174	-3.2069397	8.124283	-0.40231323
924005685712508	-3.596634	8.603012	-0.21281433
924005694104842	-3.941391	8.857727	-0.31451416
924005702497176	-4.4781036	9.255661	-0.42417908
924005710889510	-4.7003937	9.600647	-0.02456665
924005719281844	-4.5086823	9.414078	0.07070923
924005727674178	-4.6012115	9.142593	0.10444641
924005736066512	-4.641388	8.802078	0.16098022
924005744458846	-4.0565186	8.213165	0.14073181
924005752851180	-3.609726	7.531784	-0.17951965
924005761243514	-2.8894806	7.328232	-0.4955902
924005769635848	-2.1143646	7.3985596	-0.64320374
924005778028182	-1.9456482	7.6076355	-0.5758972
924005786420516	-2.3453674	7.907608	-0.32925415
924005794812850	-2.8650513	8.384628	-0.08592224
924005803205184	-3.3495789	9.445435	-0.37705994
924005811597518	-3.2421875	10.238129	-0.6003723
924005819989852	-3.5248566	10.656982	-0.5960846
924005828382186	-4.1167755	10.707001	-0.43521118
924005836774520	-4.8961945	10.468964	-0.15283203
924005845166854	-5.685425	10.068527	0.21302795
924005853559188	-5.953293	9.652176	0.44595337
924005861951522	-5.412674	9.371796	0.31713867
924005870343856	-4.5130157	9.201553	0.013946533
924005878736190	-3.5951233	9.167236	-0.32235718
924005887128524	-2.7930145	9.227188	-0.5994873
924005895520858	-2.0669556	9.3151245	-0.783371
924005903913192	-1.4848633	9.424149	-0.83106995
924005912305526	-1.3353119	9.598312	-0.9716644
924005920697860	-1.5724945	9.719299	-1.0209198
924005929090194	-2.0958862	9.808487	-1.0779114
924005937482528	-2.8408813	9.887878	-1.074707
924005945874862	-3.7748566	9.954636	-0.8259735
924005954267196	-4.472336	10.021027	-0.5056305
924005962659530	-4.632019	9.986572	-0.29852295
924005971051864	-4.447159	9.765427	-0.28295898
924005979444198	-4.126526	9.482773	-0.3191681
924005987836532	-3.6623688	9.2608795	-0.31422424
924005996228866	-2.902359	9.118225	-0.3151245
924006004621200	-2.1372528	8.895309	-0.5175934
924006013013533	-1.5361023	8.65654	-0.48216248
924006021405867	-1.1301575	8.461334	-0.2784729
924006029798201	-1.021637	8.304993	0.027679443
924006038190535	-1.095993	8.163925	0.25160217
924006046582869	-1.1084747	8.031998	0.19876099
924006054975203	-1.244751	8.025177	0.21920776
924006063367537	-1.7603302	8.122238	0.45222473
924006071759871	-2.2983246	8.293472	0.6739807
924006080152205	-2.5237885	8.454971	0.61550903
924006088544539	-2.4452515	8.569931	0.2653656
924006096936873	-2.380249	8.655823	-0.12782288
924006105329207	-2.3842316	8.628906	-0.3461609
924006113721541	-2.7657318	8.697845	-0.35665894
924006122113875	-3.1182709	8.778168	-0.3469391
924006130506209	-3.188202	8.840225	-0.44232178
924006138898543	-3.061905	8.920624	-0.60157776
924006147290877	-3.0948944	9.093903	-0.6201477
924006155683211	-3.0209198	9.160095	-0.38653564
924006164075545	-2.7963562	9.070648	-0.44224548
924006172467879	-2.5319061	8.944489	-0.528183
924006180860213	-2.3352203	8.8910675	-0.50172424
924006189252547	-2.2727966	8.971741	-0.4243164
924006197644881	-2.3292084	9.149918	-0.5568085
924006206037215	-2.5326385	9.301773	-0.7086487
924006214429549	-2.762848	9.353653	-0.6090698
924006222821883	-3.043106	9.314194	-0.40089417
924006231214217	-3.346756	9.257065	-0.24281311
924006239606551	-3.6193085	9.252182	-0.14579773
924006247998885	-3.801529	9.306778	0.06478882
924006256391219	-3.8044434	9.21167	0.19871521
924006264783553	-3.642456	9.043518	0.08140564
924006273175887	-3.391983	8.9913025	0.015197754
924006281568221	-3.0639343	9.024109	0.021240234
924006289960555	-2.722168	9.071594	0.030548096
924006298352889	-2.556656	9.11734	-0.008895874
924006306745223	-2.445694	9.137787	-0.07119751
924006315137557	-2.3753662	9.160187	-0.16825867
924006323529891	-2.2670746	9.196335	-0.2924652
924006331922225	-2.1455994	9.230331	-0.36024475
924006340314559	-2.0895386	9.246445	-0.31550598
924006348706893	-2.1846771	9.255356	-0.22828674
924006357099227	-2.3082123	9.254364	-0.21168518
924006365491561	-2.5162048	9.320084	-0.33015442
924006373883895	-2.6115112	9.403275	-0.3788147
924006382276229	-2.5957336	9.450394	-0.34954834
924006390668563	-2.5599518	9.42363	-0.2897644
924006399060897	-2.5784454	9.344788	-0.18365479
924006407453231	-2.5756989	9.234802	-0.072387695
924006415845565	-2.6398468	9.252502	-0.13673401
924006424237899	-2.6315613	9.334564	-0.23661804
924006432630233	-2.5603027	9.429657	-0.34362793
924006441022567	-2.5330658	9.49559	-0.42634583
924006449414901	-2.6935883	9.480637	-0.29074097
924006457807235	-2.9077454	9.355484	-0.21951294
924006466199569	-3.0924225	9.311707	-0.14756775
924006474591903	-3.136261	9.346558	-0.14479065
924006482984237	-3.0735016	9.399567	-0.16828918
924006491376571	-3.0009766	9.402466	-0.14904785
924006499768905	-2.9449463	9.325058	-0.10726929
924006508161239	-2.924942	9.240601	-0.18141174
924006516553573	-2.8197327	9.178329	-0.2585907
924006524945907	-2.7041473	9.125122	-0.25167847
924006533338241	-2.6522522	9.050751	-0.13240051
924006541730575	-2.736786	8.94455	0.051651
924006550122908	-2.9910736	8.882416	0.15744019
924006558515242	-3.1356354	8.850479	0.2059021
924006566907576	-3.1911926	8.832397	0.24862671
924006575299910	-3.0608673	8.8089905	0.18289185
924006583692244	-2.8377686	8.79715	0.035476685
924006592084578	-2.6618805	8.819458	-0.07772827
924006600476912	-2.4105072	8.857315	-0.07383728
924006608869246	-2.1875305	8.9027405	-0.15187073
924006617261580	-2.0993042	8.934158	-0.22001648
924006625653914	-2.2108917	8.960281	-0.21022034
924006634046248	-2.4292755	8.9709015	-0.12251282
924006642438582	-2.6205292	8.955826	-0.0065612793
924006650830916	-2.7417908	8.943909	0.03717041
924006659223250	-2.7664948	8.960831	-0.0065612793
924006667615584	-2.7574005	8.992142	-0.05630493
924006676007918	-2.7350159	8.999191	-0.043914795
924006684400252	-2.7372894	8.978394	0.011108398
924006692792586	-2.7848663	8.952759	0.040283203
924006701184920	-2.798111	8.92424	0.04232788
924006709577254	-2.6731415	8.934784	-7.6293945E-5
924006717969588	-2.5823975	8.927597	-0.025497437
924006726361922	-2.54068	8.954361	-0.059890747
924006734754256	-2.5496216	9.02803	-0.086242676
924006743146590	-2.6243134	9.131012	-0.053375244
924006751538924	-2.8366852	9.308472	0.03036499
924006759931258	-2.822525	9.345306	-0.00680542
924006768323592	-2.831253	9.318253	-0.12269592
924006776715926	-2.8384094	9.264755	-0.175354
924006785108260	-2.824295	9.207062	-0.11428833
924006793500594	-2.7983398	9.149078	-0.013336182
924006801892928	-2.758438	9.095535	0.045059204
924006810285262	-2.6340332	8.998581	0.040008545
924006818677596	-2.4848175	8.879608	0.035720825
924006827069930	-2.4158783	8.82988	0.052597046
924006835462264	-2.4384766	8.863647	0.06452942
924006843854598	-2.5052643	8.935059	0.03425598
924006852246932	-2.7205505	9.072144	0.011917114
924006860639266	-2.8805847	9.20256	0.0011291504
924006869031600	-2.899002	9.282272	-0.086761475
924006877423934	-2.819992	9.282745	-0.15390015
924006885816268	-2.7076569	9.236984	-0.1300354
924006894208602	-2.601059	9.218292	-0.02947998
924006902600936	-2.419159	9.149719	0.010269165
924006910993270	-2.2270813	9.066849	-0.06880188
924006919385604	-2.1319122	9.036636	-0.07836914
924006927777938	-2.1194153	9.050751	-0.06906128
924006936170272	-2.1553802	9.085236	-0.09649658
924006944562606	-2.2276459	9.123901	-0.14762878
924006952954940	-2.4275818	9.204468	-0.07772827
924006961347274	-2.6696777	9.307816	-0.041870117
924006969739608	-2.7990723	9.351425	-0.022399902
924006978131942	-2.8824615	9.327225	-0.032211304
924006986524276	-2.9155884	9.252701	-0.040222168
924006994916610	-2.7885284	9.162674	0.014984131
924007003308944	-2.5835114	9.116791	0.015975952
924007011701278	-2.403244	9.112335	0.03755188
924007020093612	-2.2062225	9.13591	-0.0043640137
924007028485946	-2.09198	9.145142	-0.07119751
924007036878280	-2.0979462	9.138306	-0.11567688
924007045270614	-2.1214905	9.166641	-0.13200378
924007053662948	-2.095581	9.162659	-0.12701416
924007062055282	-2.1889648	9.124863	-0.061157227
924007070447616	-2.2996368	9.087494	-0.0031738281
924007078839950	-2.4592896	9.065628	0.055740356
924007087232283	-2.6877441	9.077988	0.121292114
924007095624617	-2.9135284	9.149689	0.15203857
924007104016951	-2.8600006	9.212967	0.007003784
924007112409285	-2.8205414	9.269836	0.007171631
924007120801619	-2.7426453	9.245163	-0.014968872
924007129193953	-2.64003	9.165344	-8.392334E-4
924007137586287	-2.5539856	9.07872	0.08169556
924007145978621	-2.5193481	9.011597	0.115448
924007154370955	-2.4872284	9.016464	0.11643982
924007162763289	-2.4133453	9.0156555	0.19076538
924007171155623	-2.3643494	9.032379	0.21055603
924007179547957	-2.3403778	9.060974	0.17932129
924007187940291	-2.3354645	9.096054	0.1277008
924007196332625	-2.36763	9.146912	0.052505493
924007204724959	-2.4024353	9.165802	-0.033981323
924007213117293	-2.2766113	9.121933	-0.11578369
924007221509627	-2.2438202	9.061142	-0.10115051
924007229901961	-2.235733	9.023254	-0.030059814
924007238294295	-2.1684875	9.026779	0.023910522
924007246686629	-2.1699982	9.05484	0.027542114
924007255078963	-2.2177124	9.095596	0.090164185
924007263471297	-2.2261047	9.1154785	0.008361816
924007271863631	-2.3111572	9.1671295	-0.06542969
924007280255965	-2.3466492	9.216736	-0.049438477
924007288648299	-2.2316437	9.223831	0.01008606
924007297040633	-2.1456604	9.213425	-0.11659241
924007305432967	-2.1912994	9.128006	-0.07194519
924007313825301	-2.276001	9.109024	-0.023162842
924007322217635	-2.3687744	9.146759	0.0592041
924007330609969	-2.4219055	9.167587	0.14778137
924007339002303	-2.4014587	9.111816	0.18991089
924007347394637	-2.3308563	9.026169	0.15376282
924007355786971	-2.3240662	9.053345	0.15763855
924007364179305	-2.2734375	9.027176	0.19750977
924007372571639	-2.2430878	8.955429	0.1784668
924007380963973	-2.2927856	8.933136	0.12097168
924007389356307	-2.3939667	9.011276	0.08303833
924007397748641	-2.3803406	9.080399	0.059677124
924007406140975	-2.3979797	9.169586	-0.08232117
924007414533309	-2.3968964	9.2612915	-0.11773682
924007422925643	-2.3421936	9.334335	-0.15951538
924007431317977	-2.2868958	9.326401	-0.20970154
924007439710311	-2.3163147	9.23526	-0.2146759
924007448102645	-2.4574585	9.300858	-0.1351471
924007456494979	-2.4694824	9.37709	-0.048553467
924007464887313	-2.4655762	9.346817	-0.13056946
924007473279647	-2.508377	9.322311	-0.19670105
924007481671981	-2.5830536	9.332382	-0.18902588
924007490064315	-2.6403046	9.347137	-0.13647461
924007498456649	-2.6761017	9.319305	-0.09472656
924007506848983	-2.511322	9.219925	-0.12528992
924007515241317	-2.4571075	9.200241	-0.22406006
924007523633651	-2.4347076	9.23465	-0.17658997
924007532025985	-2.3406525	9.259354	-0.09857178
924007540418319	-2.1306458	9.226883	-0.18838501
924007548810653	-1.928772	9.200668	-0.25631714
924007557202987	-1.8250122	9.167236	-0.28656006
924007565595321	-1.8123169	9.146683	-0.2930298
924007573987655	-1.839447	9.143097	-0.30651855
924007582379989	-1.8297882	9.136688	-0.32437134
924007590772323	-1.7352295	9.094971	-0.32702637
924007599164657	-1.6624298	9.006653	-0.33285522
924007607556991	-1.7763062	8.986298	-0.19532776
924007615949325	-1.9080048	8.974487	-0.12878418
924007624341658	-2.0279999	8.995651	-0.15249634
924007632733992	-2.1411743	9.050827	-0.20152283
924007641126326	-2.263855	9.118622	-0.18943787
924007649518660	-2.3823853	9.195251	-0.22723389
924007657910994	-2.3742218	9.283371	-0.28878784
924007666303328	-2.1957703	9.295486	-0.41181946
924007674695662	-2.02948	9.25412	-0.51942444
924007683087996	-1.9934082	9.2153015	-0.5328369
924007691480330	-2.0903778	9.236313	-0.41932678
924007699872664	-2.0781097	9.226105	-0.35292053
924007708264998	-2.0928345	9.239136	-0.3706665
924007716657332	-2.1736603	9.234283	-0.34376526
924007725049666	-2.230423	9.197723	-0.3351593
924007733442000	-2.2125244	9.140717	-0.35014343
924007741834334	-2.1355896	9.096756	-0.33239746
924007750226668	-2.047989	9.100647	-0.32557678
924007758619002	-1.9774628	9.096588	-0.34986877
924007767011336	-1.9620361	9.056412	-0.3335266
924007775403670	-1.9626617	8.956116	-0.2624359
924007783796004	-1.9796906	8.851913	-0.20516968
924007792188338	-2.0406342	8.861801	-0.28141785
924007800580672	-1.9488983	8.985413	-0.4688568
924007808973006	-1.657486	8.938797	-1.1524658
924007817365340	-1.724884	8.618988	-1.9424744
924007825757674	-2.1496277	8.711029	-1.5546112
924007834150008	-2.621521	9.141159	-0.29496765
924007842542342	-2.6315002	9.005463	-0.13072205
924007850934676	-2.5088806	8.928833	0.18704224
924007859327010	-2.3663483	8.92247	0.3726349
924007867719344	-2.274887	9.071228	0.31451416
924007876111678	-2.045166	9.33107	0.5380707
924007884504012	-1.8685913	9.425079	1.2284851
924007892896346	-2.3228455	8.990189	1.7446289
924007901288680	-2.3447113	9.3072815	-1.0753784
924007909681014	-1.8183441	10.298538	-0.26234436
924007918073348	-1.8301544	10.426956	0.04147339
924007926465682	-2.1457367	10.251526	-0.12664795
924007934858016	-2.3552399	10.351517	-0.2584839
924007943250350	-2.3385162	10.543457	-0.6062012
924007951642684	-2.4985504	10.381439	-0.8288727
924007960035018	-2.7119446	10.204269	-0.5951538
924007968427352	-2.836029	10.069504	-0.31526184
924007976819686	-2.8064728	10.024963	-0.11911011
924007985212020	-2.6483307	10.04808	-0.079711914
924007993604354	-2.4923859	10.012543	-0.25578308
924008001996688	-2.2110596	9.927841	-0.2927704
924008010389022	-1.9425049	9.806107	-0.13117981
924008018781356	-1.9029846	9.567825	-0.004470825
924008027173690	-1.9260712	9.396759	0.14764404
924008035566024	-1.8709564	9.398056	0.28201294
924008043958358	-1.8101349	9.44014	0.107162476
924008052350692	-1.6795197	9.428177	-0.13708496
924008060743026	-1.5536346	9.368988	-0.27993774
924008069135360	-1.4897461	9.303925	-0.28883362
924008077527694	-1.5669708	9.204529	-0.14672852
924008085920028	-1.8013763	9.14061	0.06704712
924008094312362	-2.1005707	9.316559	0.15150452
924008102704696	-2.161377	9.370407	-0.19845581
924008111097030	-2.2388763	9.294403	-0.27548218
924008119489364	-2.096756	9.149582	-0.30906677
924008127881698	-1.8930359	8.934113	-0.15821838
924008136274032	-1.8617249	8.667175	0.23265076
924008144666366	-2.1279144	8.419464	0.6217041
924008153058700	-2.2352753	8.133194	0.85827637
924008161451033	-2.2457733	8.072876	0.7107849
924008169843367	-2.2361908	8.051041	0.41923523
924008178235701	-2.1068115	8.101929	0.09675598
924008186628035	-1.8122101	8.230774	-0.29058838
924008195020369	-1.4958038	8.276398	-0.93989563
924008203412703	-2.4550934	8.329468	-0.94055176
924008211805037	-2.7522278	8.736328	-0.53097534
924008220197371	-2.8009033	8.849976	-0.47323608
924008228589705	-2.8285522	8.693329	-0.70957947
924008236982039	-2.860199	8.501038	-0.689209
924008245374373	-2.6947174	8.408997	0.4065094
924008253766707	-2.2794495	7.567154	-0.79348755
924008262159041	-2.6315002	7.5581207	-0.25956726
924008270551375	-2.8759155	7.50679	0.3638916
924008278943709	-2.6869507	7.304413	0.8207855
924008287336043	-2.2206879	7.1676636	1.6141663
924008295728377	-2.0962067	7.2852325	3.5161133
924008304120711	-1.7905884	6.850937	2.477417
924008312513045	-1.8081512	6.464966	1.402359
924008320905379	-1.8876038	6.268692	0.6296997
924008329297713	-1.8588562	6.1984406	0.07531738
924008337690047	-1.6743622	6.194031	-0.323761
924008346082381	-1.4457397	6.4127197	-0.16273499
924008354474715	-1.59906	6.7829285	-0.14125061
924008362867049	-1.5044403	7.1139374	-0.10017395
924008371259383	-1.4752045	7.151474	0.13865662
924008379651717	-1.6311188	6.9389496	0.6751709
924008388044051	-1.9197083	6.6423798	1.4539795
924008396436385	-2.1516113	6.326248	2.1635437
924008404828719	-1.9684448	6.424423	1.8015289
924008413221053	-1.7606506	6.8283997	1.4674835
924008421613387	-1.7608032	7.22908	1.0785828
924008430005721	-1.7058563	7.6177673	0.6372528
924008438398055	-1.2976837	8.064789	0.19459534
924008446790389	-0.9209595	8.357025	-0.2546997
924008455182723	-1.4049225	8.435867	0.049850464
924008463575057	-2.2101288	8.479919	0.66519165
924008471967391	-2.9021301	8.512375	1.1414185
924008480359725	-3.2198944	8.564865	1.4059601
924008488752059	-3.2263336	8.672943	1.5367432
924008497144393	-3.6600342	8.862396	1.262558
924008505536727	-3.4475708	9.11377	0.8963623
924008513929061	-3.2879333	9.154541	0.8122711
924008522321395	-3.3202057	9.064392	0.8291168
924008530713729	-3.3686829	8.984711	0.8737335
924008539106063	-3.1575928	8.997314	0.9769287
924008547498397	-2.7518158	8.881668	1.1633759
924008555890731	-2.2900848	8.710159	1.1377258
924008564283065	-2.1307526	8.65921	1.108429
924008572675399	-2.4191437	8.733551	1.0697174
924008581067733	-3.1223297	8.984756	0.99142456
924008589460067	-4.0865936	9.495605	0.84651184
924008597852401	-5.150406	10.316132	0.637146
924008606244735	-6.3008423	11.162338	0.4717865
924008614637069	-6.750473	11.861404	0.12567139
924008623029403	-6.6557617	12.274918	-0.5702057
924008631421737	-6.324356	12.297974	-1.3115997
924008639814071	-5.990814	11.878403	-1.5955963
924008648206405	-6.090515	11.144623	-1.5567017
924008656598739	-6.1058044	10.298538	-1.1283722
924008664991073	-5.7406464	9.562347	-0.489563
924008673383407	-5.395401	9.11557	0.1157074
924008681775741	-5.0234985	8.918594	0.43902588
924008690168075	-4.239212	8.75975	0.35513306
924008698560408	-3.498169	8.52504	0.312088
924008706952742	-3.9291077	8.4207	0.15637207
924008715345076	-4.5968323	8.728394	0.027374268
924008723737410	-5.3511963	9.443909	-0.31666565
924008732129744	-6.0007324	10.391586	-0.9252167
924008740522078	-6.214432	11.188507	-1.59198
924008748914412	-5.616028	11.319717	-2.5681
924008757306746	-5.082733	10.966095	-3.04982
924008765699080	-4.876358	10.410446	-2.918991
924008774091414	-5.0462494	9.725006	-2.3996887
924008782483748	-5.426468	9.080673	-1.7378998
924008790876082	-5.774292	8.741089	-1.0504761
924008799268416	-6.131134	8.989578	-0.83776855
924008807660750	-6.0035706	9.410156	-1.7007141
924008816053084	-5.8907166	9.895187	-2.9089813
924008824445418	-5.668976	10.240997	-3.8277283
924008832837752	-5.3277435	10.296051	-4.050644
924008841230086	-5.114334	10.045746	-3.5715942
924008849622420	-5.2416687	9.684158	-2.8361511
924008858014754	-5.156372	8.934723	-1.7521667
924008866407088	-5.4170837	8.338211	-1.0037079
924008874799422	-5.5316772	7.993286	-0.8186188
924008883191756	-5.309433	7.8238373	-1.0946655
924008891584090	-5.224243	7.714325	-1.4625092
924008899976424	-5.924164	8.169952	-1.5332947
924008908368758	-6.641144	8.527191	-1.3690643
924008916761092	-6.761139	8.5425415	-1.1460876
924008925153426	-6.672287	8.455002	-0.8565674
924008933545760	-6.6294556	8.4449005	-0.6295929
924008941938094	-6.371689	8.434006	-0.76831055
924008950330428	-5.782242	8.278946	-0.925354
924008958722762	-5.2306824	7.8962097	-0.9548645
924008967115096	-4.5875397	7.3318787	-0.6073761
924008975507430	-4.138077	6.7289734	-0.27241516
924008983899764	-3.9581146	6.316223	-0.2842102
924008992292098	-3.6878052	6.321472	-0.48529053
924009000684432	-3.9175262	6.593048	-0.056991577
924009009076766	-3.676773	6.5057526	0.22756958
924009017469100	-3.335556	6.3022766	0.27920532
924009025861434	-3.2422485	6.132721	0.22036743
924009034253768	-3.4360504	6.098938	0.14581299
924009042646102	-3.5505066	6.2775726	0.015289307
924009051038436	-3.8051605	6.5026855	-0.38909912
924009059430770	-4.0239105	6.6492615	-0.64816284
924009067823104	-4.159546	7.014435	-1.046051
924009076215438	-4.3041534	7.122055	-1.3577576
924009084607772	-4.4269104	6.8291016	-1.359024
924009093000106	-4.253586	6.953171	-1.144104
924009101392440	-4.6753235	7.222351	-1.2258606
924009109784774	-4.842148	7.517624	-1.0006866
924009118177108	-5.0335083	7.639038	-0.98747253
924009126569442	-5.221817	7.620163	-1.1095734
924009134961776	-5.2877655	7.5338593	-1.1629181
924009143354110	-5.199173	7.2794037	-1.2296143
924009151746444	-5.5496063	5.989624	-1.5060425
924009160138778	-5.151474	6.4657593	-1.9687347
924009168531112	-5.272354	7.592972	-2.3091278
924009176923446	-5.8901978	8.639038	-2.409439
924009185315780	-6.288498	9.192856	-2.4047241
924009193708114	-5.890381	9.009872	-2.651001
924009202100448	-5.5493317	8.480881	-2.9080353
924009210492782	-5.480713	8.123505	-3.0856323
924009218885116	-5.215927	7.775345	-3.2732086
924009227277450	-4.7549133	7.413315	-3.3585815
924009235669783	-4.4162903	7.1628876	-3.2465057
924009244062117	-4.6732483	7.282608	-3.0849152
924009252454451	-5.2453003	7.69722	-2.66716
924009260846785	-5.3463593	7.8658905	-2.408432
924009269239119	-4.910904	7.9664764	-2.3829803
924009277631453	-4.527771	8.024033	-2.5284576
924009286023787	-4.6654816	8.052322	-2.7114716
924009294416121	-4.8821716	8.282944	-2.7671356
924009302808455	-5.422516	8.839783	-3.0605164
924009311200789	-5.848648	9.14856	-3.4835052
924009319593123	-5.7314606	8.989532	-3.6468048
924009327985457	-5.2976837	8.51506	-3.1809387
924009336377791	-5.0411377	8.024887	-2.1600494
924009344770125	-4.9487	7.5179443	-1.5348206
924009353162459	-4.5724335	7.354706	-1.0127411
924009361554793	-4.710434	7.533554	-0.17042542
924009369947127	-5.3597717	7.853409	0.25906372
924009378339461	-5.621765	7.9431915	0.28179932
924009386731795	-4.912613	7.649399	0.32229614
924009395124129	-4.7753754	7.575409	0.5792694
924009403516463	-5.254257	8.108871	-0.0718689
924009411908797	-5.1121063	8.587021	-0.64801025
924009420301131	-5.1506195	8.77832	-0.7641144
924009428693465	-5.5421906	8.668808	-0.4874878
924009437085799	-5.846878	8.326843	-0.104904175
924009445478133	-4.9301147	7.6402893	0.16809082
924009453870467	-4.324112	7.1467285	0.6538391
924009462262801	-3.967865	6.544098	1.1134491
924009470655135	-3.74057	6.063019	1.0975342
924009479047469	-3.5660095	6.0968323	0.35050964
924009487439803	-3.4797058	6.9341736	-1.1724701
924009495832137	-3.6894379	8.369507	-3.3831635
924009504224471	-3.5328827	9.027466	-3.4455872
924009512616805	-4.009857	8.887848	-4.239929
924009521009139	-4.246399	9.283051	-5.3799744
924009529401473	-3.7204285	10.358841	-4.186325
924009537793807	-2.8460693	11.009674	0.80581665
924009546186141	-3.3874512	10.1462555	1.317276
924009554578475	-2.7478638	9.141296	-0.2574768
924009562970809	-1.7200775	8.976944	-1.9596558
924009571363143	-0.8354645	9.333221	-2.8562775
924009579755477	-0.49751282	9.902679	-2.3452759
924009588147811	-0.7505188	10.537048	-0.48924255
924009596540145	-0.7505188	10.749603	0.76856995
924009604932479	-1.0979767	9.859634	0.14265442
924009613324813	-1.5454254	8.835724	-0.21455383
924009621717147	-2.001648	7.818863	0.31681824
924009630109481	-2.2468872	6.849457	0.96958923
924009638501815	-2.0089264	5.9796143	0.45780945
924009646894149	-1.0850372	5.3083344	-1.1322479
924009655286483	-0.5213623	5.4498444	-2.099594
924009663678817	-0.25405884	6.4031677	-1.8991394
924009672071151	-0.45796204	7.9974213	0.17149353
924009680463485	-0.8265991	9.757019	2.4251556
924009688855819	-0.8445282	10.976349	1.5517273
924009697248153	-2.0025482	11.3650055	-0.877655
924009705640487	-3.3274536	12.90538	1.2318268
924009714032821	-4.3667755	13.574997	3.4273987
924009722425155	-5.090973	13.346466	4.0561676
924009730817489	-5.2595825	12.693695	3.089386
924009739209823	-4.5182495	12.07222	2.1017456
924009747602157	-3.3871613	10.834045	2.5923462
924009755994491	-3.388092	10.56102	3.6980743
924009764386825	-3.4339752	10.136963	3.7284546
924009772779158	-3.39682	9.700073	3.3680573
924009781171492	-3.4923248	9.529068	2.981781
924009789563826	-3.9652252	9.633163	2.015686
924009797956160	-4.457733	9.175522	0.33572388
924009806348494	-4.8526	9.055176	-0.48686218
924009814740828	-5.11145	9.210876	-1.0527802
924009823133162	-5.5112762	9.64949	-1.2748413
924009831525496	-6.2484436	10.201782	-1.009201
924009839917830	-7.262192	10.560364	-0.29438782
924009848310164	-7.835663	10.4778595	0.09777832
924009856702498	-7.9424896	9.996307	0.7870331
924009865094832	-6.7553406	9.131165	2.6677551
924009873487166	-5.084915	8.185013	3.4223328
924009881879500	-4.158386	7.6652985	1.6104889
924009890271834	-4.8569336	8.024841	-1.2127686
924009898664168	-5.465271	8.051666	-1.0139618
924009907056502	-6.4328003	8.338089	0.43966675
924009915448836	-7.0595245	8.595673	0.8843994
924009923841170	-7.2197266	8.7530365	0.2975464
924009932233504	-7.041565	8.811935	-0.7752228
924009940625838	-6.694031	8.787094	-2.0879974
924009949018172	-6.2420044	8.7070465	-3.3025055
924009957410506	-5.7528534	8.126114	-2.9098053
924009965802840	-5.3856506	7.51799	-2.0145721
924009974195174	-5.010025	7.209671	-1.0726318
924009982587508	-4.522171	7.299423	-0.2962036
924009990979842	-4.028488	7.6536255	0.15911865
924009999372176	-3.6945038	8.015442	0.31121826
924010007764510	-3.291916	8.329254	0.17037964
924010016156844	-2.8640594	8.373367	0.018798828
924010024549178	-2.744629	8.228302	-0.2290802
924010032941512	-3.1119385	8.061752	-0.59036255
924010041333846	-3.7101746	7.927994	-0.7802429
924010049726180	-4.071106	7.9080505	-0.8051605
924010058118514	-3.8479004	7.7609863	-0.9046478
924010066510848	-3.4820251	7.5330353	-0.9172058
924010074903182	-3.2078094	7.4553986	-0.8464508
924010083295516	-3.1089325	7.6105804	-0.7433319
924010091687850	-3.0615387	7.5818787	-0.6081543
924010100080184	-3.29982	7.3994293	-0.5274048
924010108472518	-3.5836792	7.1193542	-0.7165985
924010116864852	-3.837677	6.9317627	-0.8585968
924010125257186	-4.048767	6.8714294	-0.8662262
924010133649520	-4.2147827	6.883011	-0.7972107
924010142041854	-4.2907104	6.9138336	-0.7585449
924010150434188	-4.291687	7.117279	-0.9201355
924010158826522	-4.318329	7.2883453	-0.92430115
924010167218856	-4.3585052	7.3437195	-0.6454468
924010175611190	-4.501526	7.414871	-0.16748047
924010184003524	-4.785843	7.632614	0.24343872
924010192395858	-5.0552063	7.8831177	0.24938965
924010200788192	-5.4490356	7.907028	-1.1523895
924010209180526	-5.6266937	7.8635406	-1.9007721
924010217572860	-5.6735077	7.7388916	-1.9310455
924010225965194	-5.8173523	7.636566	-1.4207764
924010234357528	-6.2257385	7.6738434	-0.74461365
924010242749862	-6.6253357	7.7861633	-0.26550293
924010251142196	-6.7825317	7.9362946	-0.13798523
924010259534530	-6.961838	8.21846	-0.15722656
924010267926864	-7.0844116	8.609894	-0.27183533
924010276319198	-7.16864	9.101639	-0.4857788
924010284711532	-7.299347	9.637222	-0.7494507
924010293103866	-7.5476227	10.033035	-0.80130005
924010301496200	-7.7642975	10.463608	-0.92552185
924010309888533	-8.152786	11.313965	-1.6451111
924010318280867	-7.9578094	11.814667	-0.92292786
924010326673201	-7.242935	11.887573	0.41160583
924010335065535	-6.566345	11.843765	0.71868896
924010343457869	-6.503723	11.818924	0.7554779
924010351850203	-6.538498	12.061737	-0.16404724
924010360242537	-6.1759644	12.350937	-0.7320404
924010368634871	-5.608261	12.598328	-1.1800079
924010377027205	-5.1642914	12.429794	-1.0415497
924010385419539	-5.0891113	11.421539	0.0953064
924010393811873	-5.0990753	9.795425	0.32859802
924010402204207	-4.439163	7.8992004	1.1690674
924010410596541	-3.734726	6.3408356	2.1080933
924010418988875	-3.1621857	5.1290436	3.0298767
924010427381209	-2.9242706	4.515335	3.6053467
924010435773543	-3.1212463	4.753296	3.4853973
924010444165877	-3.2977295	5.2548065	3.0447083
924010452558211	-2.9623108	5.4290924	3.1725464
924010460950545	-2.4561462	5.608017	3.3291016
924010469342879	-2.0329895	5.7928314	3.2696838
924010477735213	-1.7898407	6.128845	2.8501434
924010486127547	-1.6721039	6.8703003	2.0157776
924010494519881	-1.6323547	8.291748	0.5426636
924010502912215	-1.4338837	9.508957	-0.75834656
924010511304549	-1.7734222	10.279846	-1.014801
924010519696883	-2.5599365	10.665466	-0.14700317
924010528089217	-3.3829193	10.687042	1.5204926
924010536481551	-3.7860565	10.369583	3.276062
924010544873885	-3.7969818	9.924271	4.06929
924010553266219	-3.5944061	8.83519	4.888748
924010561658553	-3.5402374	7.900696	4.5825806
924010570050887	-3.4792786	7.511444	3.077774
924010578443221	-3.3180237	7.7960663	0.816803
924010586835555	-3.081192	8.546448	-1.1311493
924010595227889	-2.8349304	9.157608	-1.1610565
924010603620223	-2.5201263	9.599487	-0.16618347
924010612012557	-2.5141754	9.940475	0.6753235
924010620404891	-2.4343414	10.039047	1.4151611
924010628797225	-2.0032043	9.816986	1.9771423
924010637189559	-1.2495117	9.342758	2.07695
924010645581893	-0.8887329	8.931747	1.9375458
924010653974227	-1.1481323	8.674942	2.2372284
924010662366561	-1.7023773	8.355591	2.2128296
924010670758895	-2.273407	8.094131	1.9756317
924010679151229	-2.7241058	7.9256287	1.7928162
924010687543563	-3.1131897	7.7499237	1.8649445
924010695935897	-3.6318207	7.569519	2.219574
924010704328231	-3.9607544	7.653549	2.4526062
924010712720565	-3.9448395	7.754013	2.2922363
924010721112899	-3.823532	7.894272	1.905899
924010729505233	-3.7203522	8.126343	1.5475311
924010737897567	-3.5283813	8.431305	1.3804169
924010746289901	-3.5532227	8.557556	1.357544
924010754682235	-3.478592	8.538757	1.2200928
924010763074569	-3.3683167	8.508148	1.1146088
924010771466903	-3.229309	8.46225	1.1064453
924010779859237	-3.0714111	8.403931	1.220398
924010788251571	-2.9080353	8.372269	1.4159546
924010796643905	-2.584015	8.354324	1.6203308
924010805036239	-2.410675	8.24147	1.7910767
924010813428573	-2.3438263	8.249405	1.9445801
924010821820907	-2.365219	8.272629	2.0328827
924010830213241	-2.4495697	8.291306	1.9803619
924010838605575	-2.5279388	8.45903	1.7273102
924010846997908	-2.1276245	8.47023	1.0774231
924010855390242	-1.5085297	8.35614	0.23435974
924010863782576	-1.1246338	8.261337	-0.46362305
924010872174910	-1.3813934	8.248978	-0.538147
924010880567244	-2.2942505	8.297348	0.079193115
924010888959578	-3.4372406	8.321503	0.923172
924010897351912	-3.9113464	8.729202	1.4800262
924010905744246	-4.025879	9.15596	1.877594
924010914136580	-4.035904	9.479919	1.9907074
924010922528914	-4.128952	9.579117	1.8907776
924010930921248	-4.3688507	9.484238	1.7758636
924010939313582	-4.6372986	9.437012	1.8953552
924010947705916	-4.6293335	9.482742	2.192566
924010956098250	-4.377365	9.833694	2.3002472
924010964490584	-4.2052917	10.18396	2.163025
924010972882918	-4.2432404	10.269791	1.7716675
924010981275252	-4.423828	10.046356	1.2563171
924010989667586	-4.4924927	9.786377	0.9017639
924010998059920	-4.7654877	10.57988	0.78053284
924011006452254	-4.896408	11.20015	0.5285034
924011014844588	-5.1269226	11.375916	0.103515625
924011023236922	-5.45784	11.366653	-0.05606079
924011031629256	-5.8133698	11.450241	0.25286865
924011040021590	-6.1344147	11.605759	0.562912
924011048413924	-6.6136017	11.692596	-0.32400513
924011056806258	-7.0227356	11.446655	-2.034668
924011065198592	-7.203186	10.938232	-3.021988
924011073590926	-7.105072	10.332275	-2.6233673
924011081983260	-6.4772644	9.976013	-1.2304688
924011090375594	-4.6681824	10.44075	-0.46603394
924011098767928	-2.5995026	11.740463	-0.9036255
924011107160262	-1.3370361	12.655792	-1.2152557
924011115552596	-0.7546692	12.956192	-1.2825928
924011123944930	-0.76878357	12.684586	-1.1909637
924011132337264	-1.1425018	12.247757	-0.9727478
924011140729598	-1.3103485	12.50882	-0.40359497
924011149121932	-0.622406	12.943497	0.32421875
924011157514266	0.30828857	13.429855	0.7531128
924011165906600	1.2637329	13.697449	0.8101654
924011174298934	1.9059753	13.647308	0.5224457
924011182691268	1.9745941	13.231796	0.08918762
924011191083602	1.503891	12.339874	-0.03211975
924011199475936	0.06498718	11.318893	-0.012908936
924011207868270	-1.142273	10.041718	0.16867065
924011216260604	-1.9667358	8.906097	0.44345093
924011224652938	-2.6260376	8.381226	0.75761414
924011233045272	-3.2780914	8.57225	1.0490875
924011241437606	-3.527298	8.643311	1.2194214
924011249829940	-3.459259	8.5012665	1.2346649
924011258222274	-3.4055176	8.217133	1.1245422
924011266614608	-3.3205109	7.9128113	0.9407959
924011275006942	-3.09758	7.6552277	0.6637726
924011283399276	-2.699356	7.4664	0.29179382
924011291791610	-2.32164	7.3342133	-0.034240723
924011300183944	-1.9931488	7.20549	-0.2557068
924011308576278	-1.7427521	7.1223907	-0.30343628
924011316968612	-1.5169983	7.0707855	-0.2501068
924011325360946	-1.2892609	7.041336	-0.10847473
924011333753280	-1.0374451	7.0177765	0.0717926
924011342145614	-0.6924896	6.9499817	0.009979248
924011350537948	-0.32937622	6.7511597	0.12745667
924011358930282	0.20574951	6.4969025	0.36717224
924011367322616	0.51623535	6.272812	0.53933716
924011375714950	0.63142395	6.0867157	0.6096039
924011384107283	0.80145264	5.8777924	0.60969543
924011392499617	1.0379944	5.5244446	0.42279053
924011400891951	1.2159882	5.211441	0.008666992
924011409284285	1.319931	4.953018	-0.37405396
924011417676619	1.2766571	4.7732697	-0.66947937
924011426068953	1.0380554	4.740341	-0.8852539
924011434461287	0.6196289	4.88768	-1.0466766
924011442853621	0.18548584	5.0220184	-1.1313477
924011451245955	-0.050582886	5.1900635	-1.1048279
924011459638289	-0.13993835	5.3974457	-1.0497894
924011468030623	-0.29273987	5.7265167	-1.0559387
924011476422957	-0.6972351	6.2031097	-1.137619
924011484815291	-1.4591522	6.784851	-1.270752
924011493207625	-2.5379486	7.381073	-1.5249939
924011501599959	-3.6820068	8.012436	-2.2045135
924011509992293	-4.9184723	8.781479	-3.201828
924011518384627	-6.4001007	9.6575165	-4.4139557
924011526776961	-8.005127	10.4522705	-5.7470703
924011535169295	-9.266159	10.803955	-7.094742
924011543561629	-9.3823395	9.890137	-8.136459
924011551953963	-10.248108	9.986404	-8.625366
924011560346297	-11.402817	11.127747	-7.5635834
924011568738631	-12.20784	12.402359	-5.7486877
924011577130965	-12.898483	13.094177	-3.9859467
924011585523299	-14.107819	13.008972	-2.50914
924011593915633	-14.367523	12.354843	-0.80744934
924011602307967	-12.74617	11.772949	0.30070496
924011610700301	-9.988663	11.820541	0.66052246
924011619092635	-6.109268	12.075119	0.67381287
924011627484969	-2.6125336	12.505142	0.6181793
924011635877303	-1.7433014	13.44751	0.54003906
924011644269637	-1.7636871	14.467529	0.28964233
924011652661971	-2.0699463	16.106125	-1.9636078
924011661054305	-2.859848	17.305176	-3.9140167
924011669446639	-2.7181854	16.823349	-3.6048126
924011677838973	-1.0716248	14.492783	-0.97906494
924011686231307	1.1312866	11.447052	1.8788147
924011694623641	2.5909424	8.496872	4.418228
924011703015975	2.5472412	6.7094574	5.178299
924011711408309	1.4056854	6.463684	4.5881195
924011719800643	0.88108826	6.295273	3.4545746
924011728192977	1.6585083	5.4057465	2.306076
924011736585311	2.368042	4.6808777	1.0394287
924011744977645	2.5355682	4.5456543	0.4510498
924011753369979	1.9687653	4.905655	0.33062744
924011761762313	0.9235077	5.610031	0.83062744
924011770154647	-0.60705566	6.6554413	2.129486
924011778546981	-2.3417816	7.9158936	4.073227
924011786939315	-3.6198273	9.08931	6.108307
924011795331649	-3.260559	9.4388275	6.594513
924011803723983	-2.1142426	9.46077	4.8768616
924011812116317	-1.1255493	9.755814	2.4190369
924011820508651	-0.5175934	10.072205	0.55537415
924011828900985	-0.37374878	10.088211	-0.2526245
924011837293319	-0.86172485	9.796631	-0.62106323
924011845685653	-1.4443665	9.518555	-1.2627716
924011854077987	-1.5996704	9.313721	-1.5024872
924011862470321	-1.4830627	9.259796	-1.2117615
924011870862655	-1.19841	9.286621	-0.53271484
924011879254989	-0.9065399	9.244293	0.15188599
924011887647323	-0.8223572	8.999542	0.3993225
924011896039657	-1.4056244	8.750275	0.6854553
924011904431991	-2.167694	8.610764	1.4268951
924011912824325	-2.8488617	8.453323	2.2460327
924011921216658	-3.5140686	8.359116	2.6440125
924011929608992	-4.2304077	8.422928	2.3077087
924011938001326	-4.8307343	8.613007	1.3583221
924011946393660	-3.974121	8.196396	1.0254059
924011954785994	-2.5450592	8.043259	0.63124084
924011963178328	-1.5404053	8.135162	0.56303406
924011971570662	-1.3397522	8.455933	0.76730347
924011979962996	-1.7393188	8.800308	1.2171631
924011988355330	-2.00148	8.612778	2.2131348
924011996747664	-2.1929016	8.243881	2.6607819
924012005139998	-2.2432709	7.915024	2.715149
924012013532332	-2.1115112	7.7049866	2.3125458
924012021924666	-1.884613	7.602356	1.7318573
924012030317000	-1.6914673	7.5640717	1.3145142
924012038709334	-1.6173096	7.5702057	1.166748
924012047101668	-1.6435852	7.76001	1.153122
924012055494002	-1.7098999	8.03093	1.1163177
924012063886336	-1.7888794	8.280121	1.0587921
924012072278670	-1.815155	8.40918	1.0131531
924012080671004	-1.7329254	8.38887	0.9603882
924012089063338	-1.5621338	8.342667	0.7531738
924012097455672	-1.2730255	8.355316	0.6509552
924012105848006	-0.96987915	8.67688	0.68244934
924012114240340	-0.85917664	9.207214	0.86660767
924012122632674	-0.9920349	9.8307495	1.1389465
924012131025008	-1.2845306	10.344055	1.1416473
924012139417342	-1.6096497	10.396622	0.05921936
924012147809676	-1.7403412	10.025833	0.011245728
924012156202010	-1.7104645	9.467819	0.5665283
924012164594344	-1.5737152	9.200485	0.87324524
924012172986678	-1.332489	9.25676	0.75671387
924012181379012	-1.0377197	9.5026245	0.4768982
924012189771346	-0.95214844	9.993591	0.4565277
924012198163680	-1.0075684	10.452301	0.3587799
924012206556014	-1.1696777	10.8984375	0.29151917
924012214948348	-1.3810272	11.217026	0.2158966
924012223340682	-1.678833	11.49144	0.09120178
924012231733016	-2.100296	11.897949	-0.031906128
924012240125350	-2.4843292	12.508102	0.18914795
924012248517684	-2.812378	13.329208	0.37565613
924012256910018	-3.1455078	13.81839	0.49362183
924012265302352	-3.4838867	13.9534	0.4563446
924012273694686	-3.8634644	13.839447	0.121154785
924012282087020	-4.3919067	13.676544	-0.8574066
924012290479354	-5.321213	13.596695	-3.3942566
924012298871688	-7.7953796	13.246506	-10.041672
924012307264022	-8.320221	12.184448	-10.880127
924012315656356	-7.1200104	11.012283	-2.1189575
924012324048690	-4.6320343	9.544495	9.544601
924012332441024	-1.3956757	7.669052	13.51178
924012340833358	1.0154419	7.2456207	3.1596832
924012349225692	0.3391266	10.327011	-10.171936
924012357618026	-1.3555908	13.235001	-10.244904
924012366010360	-2.3980103	15.311722	-4.8581543
924012374402694	-2.1048126	16.209167	-0.06150818
924012382795028	-0.8568115	15.924179	2.5315094
924012391187362	0.6678009	14.842987	3.0154266
924012399579696	1.3147125	14.18103	2.375
924012407972030	1.9011383	13.370926	1.9429779
924012416364364	2.4210205	12.432709	1.3887634
924012424756698	2.80307	11.360489	0.7102814
924012433149032	2.9240265	10.136612	0.33461
924012441541366	2.5132446	9.069748	0.56433105
924012449933700	0.7872009	8.8741	0.6107025
924012458326033	-0.55815125	8.529663	1.5317688
924012466718367	-1.3135986	8.153549	2.2355194
924012475110701	-1.4441223	7.8716583	2.3180847
924012483503035	-1.0558319	7.6572266	2.2573242
924012491895369	-0.6645355	7.448929	2.0314941
924012500287703	-0.28457642	7.1649323	1.6184845
924012508680037	-0.14033508	6.876251	1.0331268
924012517072371	-0.23632813	6.6257477	0.436615
924012525464705	-0.46305847	6.5050354	-0.054718018
924012533857039	-0.63301086	6.5789948	-0.37789917
924012542249373	-0.43260193	6.5919647	-0.10571289
924012550641707	-0.55862427	6.4561157	0.6014252
924012559034041	-0.48173523	6.1948395	1.3880768
924012567426375	-0.15605164	5.879883	1.9418945
924012575818709	0.34916687	5.581314	2.0975342
924012584211043	0.92378235	5.33403	1.8750763
924012592603377	1.3164215	5.053726	1.3999329
924012600995711	1.5795898	4.881012	0.93530273
924012609388045	1.7521057	4.4589844	0.82180786
924012617780379	1.8851471	4.0484314	0.71813965
924012626172713	2.0615082	3.9024048	0.48796082
924012634565047	2.3175812	4.0927734	0.38757324
924012642957381	2.054779	4.4451447	0.27174377
924012651349715	1.8890533	4.6363983	0.2522583
924012659742049	1.8418274	4.6969147	0.19885254
924012668134383	1.8425903	4.781006	-0.005783081
924012676526717	1.8176422	4.989395	-0.48173523
924012684919051	1.7328796	5.2999268	-1.282135
924012693311385	1.5645142	5.7508545	-2.2159576
924012701703719	0.83439636	6.9669495	-3.1080017
924012710096053	-0.6010895	8.595428	-3.7867126
924012718488387	-2.041687	10.374496	-4.492218
924012726880721	-2.9150238	11.969513	-5.482559
924012735273055	-3.2359009	13.078506	-6.893326
924012743665389	-4.3492584	14.265198	-9.434784
924012752057723	-6.100052	15.165161	-11.603561
924012760450057	-7.968994	16.31308	-12.72818
924012768842391	-9.622299	16.803268	-12.187286
924012777234725	-10.884125	16.15944	-10.073547
924012785627059	-11.658112	15.057541	-7.3810425
924012794019393	-10.288696	13.094147	-4.5199127
924012802411727	-6.3272705	11.74971	-1.8928528
924012810804061	-3.2898407	11.636917	-0.04208374
924012819196395	-1.2857971	11.921066	1.0844269
924012827588729	0.19151306	12.08316	1.683197
924012835981063	0.9299774	12.79393	1.9557648
924012844373397	1.0662537	13.567795	2.7831573
924012852765731	1.3170013	13.947281	3.0292358
924012861158065	1.8708191	14.071716	1.5557861
924012869550399	2.2375946	14.191696	-1.6368561
924012877942733	1.7800751	14.361191	-4.5105286
924012886335067	0.20036316	14.212738	-3.4379425
924012894727401	-0.43922424	12.132889	1.8504791
924012903119735	-0.12644958	9.139481	6.390686
924012911512069	-0.5394287	6.6194305	8.516693
924012919904403	-1.1299286	5.1352386	8.001816
924012928296737	-1.0807037	4.7816925	5.774185
924012936689071	-0.79267883	5.242813	3.7186737
924012945081405	0.28012085	5.5887756	1.1632996
924012953473739	1.3397827	6.1023407	-1.171341
924012961866073	1.8283997	6.7660675	-1.3123322
924012970258407	1.8488007	7.428879	0.61657715
924012978650741	1.7536316	7.9744415	3.2633972
924012987043075	1.7933807	8.478165	4.708618
924012995435408	1.969574	8.863632	4.3455505
924013003827742	2.042984	9.13237	3.4157104
924013012220076	2.0140686	9.22966	2.5057526
924013020612410	1.9122009	9.132858	1.8312988
924013029004744	1.774765	8.836761	1.3719635
924013037397078	1.6217041	8.366348	0.99502563
924013045789412	1.2787323	8.22876	0.61416626
924013054181746	0.59436035	8.40683	-0.9451904
924013062574080	-0.087509155	8.266403	-3.7353973
924013070966414	-0.40345764	7.672714	-4.9741974
924013079358748	-0.30819702	7.032913	-2.5321045
924013087751082	-0.5311279	7.307419	0.39593506
924013096143416	-0.7576904	7.817932	1.871109
924013104535750	-1.1439056	8.3107605	2.5702057
924013112928084	-1.536911	8.706238	2.7572021
924013121320418	-1.8487396	8.9956665	2.6113434
924013129712752	-2.0572052	9.191818	2.1741333
924013138105086	-2.1953583	9.259415	1.2675934
924013146497420	-2.5796204	9.163895	-0.032669067
924013154889754	-2.679184	8.982941	-0.90411377
924013163282088	-2.1843414	8.696716	-1.3214874
924013171674422	-1.2809448	8.365128	-1.1618347
924013180066756	-0.53663635	8.1423645	-0.36579895
924013188459090	-0.80877686	8.330215	0.70755005
924013196851424	-1.4227142	8.528259	1.6891174
924013205243758	-1.7695007	8.499985	2.583664
924013213636092	-1.8223267	8.341324	3.262558
924013222028426	-1.5535889	8.121872	3.4167633
924013230420760	-1.0598602	7.9150543	2.9440613
924013238813094	-0.8527069	7.904892	2.7582245
924013247205428	-0.83410645	7.8323364	2.738266
924013255597762	-0.8895111	7.770523	2.4908752
924013263990096	-0.83221436	7.7927246	2.0162811
924013272382430	-0.6946564	7.973938	1.3301239
924013280774764	-0.6029358	8.359802	0.53926086
924013289167098	-0.42871094	8.892258	0.047698975
924013297559432	-0.17137146	9.303619	-0.016143799
924013305951766	0.069885254	9.564728	0.30247498
924013314344100	0.18281555	9.704132	1.1546936
924013322736434	0.16950989	9.778839	2.3638153
924013331128768	0.0884552	9.877213	3.480774
924013339521102	-0.17436218	10.094177	4.146942
924013347913436	-0.75183105	10.232101	3.8269196
924013356305770	-1.0325165	10.273087	3.2647095
924013364698104	-1.0855865	10.325516	2.6943665
924013373090438	-1.0883789	10.526291	2.1529083
924013381482772	-1.2290955	10.970963	1.5075378
924013389875106	-1.5581055	11.546249	0.6321411
924013398267440	-1.963501	11.824265	0.29449463
924013406659774	-2.2892456	12.274796	0.82966614
924013415052108	-2.6280518	13.154816	1.7159882
924013423444442	-3.0136414	14.247253	2.1416168
924013431836776	-3.4356842	14.9583435	1.3312073
924013440229110	-4.130493	14.966293	-0.9917908
924013448621444	-5.2993317	14.359512	-2.925705
924013457013778	-6.923874	13.842819	-3.5542297
924013465406112	-8.143417	13.182236	-2.7392273
924013473798446	-8.436691	12.25412	-1.0787506
924013482190780	-7.8481903	11.242126	0.22189331
924013490583114	-6.720581	10.749603	-0.4361267
924013498975448	-3.3605042	11.0815735	-1.6217957
924013507367782	-0.528595	11.8758545	-1.948883
924013515760116	0.71717834	12.629868	-1.266159
924013524152450	0.5057678	13.21051	0.118881226
924013532544783	-0.042526245	13.965622	1.479187
924013540937117	-1.261795	15.3815	1.3202667
924013549329451	-0.91404724	16.143784	2.6653748
924013557721785	0.19677734	15.745438	3.2459106
924013566114119	1.3254242	14.615356	3.2784576
924013574506453	2.184723	13.165161	3.1138916
924013582898787	2.9958801	11.734772	2.9187927
924013591291121	3.5970306	10.7061	2.4983978
924013599683455	3.890625	10.000687	1.4454193
924013608075789	4.19133	9.528671	0.5372467
924013616468123	4.2400208	9.1801605	0.15594482
924013624860457	3.6875458	8.86087	0.5700531
924013633252791	2.4629364	8.547058	1.6177673
924013641645125	1.1817627	8.436371	1.5579529
924013650037459	0.5491638	8.157394	1.2771912
924013658429793	0.45680237	7.684494	1.1936646
924013666822127	0.6275635	7.1927032	1.1992645
924013675214461	0.77241516	6.8148956	1.1313629
924013683606795	0.6957855	6.5386505	0.95454407
924013691999129	0.3419037	6.281204	0.83128357
924013700391463	-0.15962219	6.0858765	0.82562256
924013708783797	-0.54948425	6.1127167	0.6581116
924013717176131	-0.75942993	6.3034515	0.4877777
924013725568465	-0.8325348	6.5658875	0.5670166
924013733960799	-0.8979645	6.8627625	1.0602112
924013742353133	-1.0923615	7.2466125	1.7132568
924013750745467	-1.314682	7.7160187	2.3112488
924013759137801	-0.9358368	7.4045105	2.8000793
924013767530135	-0.2597351	6.5732574	3.3608704
924013775922469	0.32815552	5.682602	3.4789886
924013784314803	0.7774658	4.9913635	1.7567749
924013792707137	1.070694	5.455551	0.39994812
924013801099471	1.6803589	5.4901123	0.6936035
924013809491805	2.2709198	5.1359863	1.2996674
924013817884139	2.699768	4.542877	1.7836456
924013826276473	2.8998108	3.950531	2.051941
924013834668807	2.8675842	3.6075745	2.1808472
924013843061141	2.7532806	3.6165314	1.7663422
924013851453475	2.636139	3.7268677	1.0475311
924013859845809	2.5965729	3.9414368	0.31782532
924013868238143	2.6720886	4.2598267	-0.37338257
924013876630477	2.8364105	4.774887	-1.0666199
924013885022811	2.9762268	5.713455	-1.8112946
924013893415145	2.645218	7.5745544	-2.2523193
924013901807479	1.6955109	9.988922	-3.6195526
924013910199813	0.69944763	12.242401	-6.9184875
924013918592147	-0.050827026	13.79599	-10.875
924013926984481	-0.66830444	14.648483	-13.89534
924013935376815	-1.7583313	15.558136	-15.330566
924013943769149	-3.6658325	16.506424	-17.028336
924013952161483	-4.936157	17.07109	-15.4483185
924013960553817	-5.744461	16.948196	-11.688019
924013968946151	-6.402542	15.788223	-7.0034027
924013977338485	-6.961334	13.800903	-2.622345
924013985730819	-6.951599	12.151932	0.53152466
924013994123153	-4.615631	12.376556	1.5151367
924014002515487	-2.1107483	13.10141	0.9445038
924014010907821	-0.58135986	14.176727	0.5075989
924014019300155	-0.046722412	15.189072	1.023941
924014027692489	0.14277649	15.8315735	2.392624
924014036084823	0.9520569	16.226395	3.4896698
924014044477157	2.2774506	17.395477	3.2271423
924014052869491	3.001236	17.753082	1.7339478
924014061261825	2.9534912	15.375305	0.7185669
924014069654158	2.3818665	11.085327	1.7918854
924014078046492	1.4707794	6.8783417	4.948807
924014086438826	-0.09875488	4.594101	7.0362244
924014094831160	-0.8345947	3.3579865	6.536209
924014103223494	-0.6822357	2.7444916	4.450363
924014111615828	0.07531738	3.166504	2.5092926
924014120008162	1.1959991	4.294159	1.3172455
924014128400496	2.4379425	5.494583	0.53900146
924014136792830	3.507492	6.3146515	-0.9728699
924014145185164	3.567276	6.9995728	0.31282043
924014153577498	3.07724	7.887024	3.280136
924014161969832	2.473587	8.644058	5.5164795
924014170362166	2.2146912	9.051285	5.9404755
924014178754500	2.4527283	9.068375	4.5861206
924014187146834	2.5829468	8.898392	2.2342987
924014195539168	2.579483	8.375824	0.6652069
924014203931502	0.23446655	8.532227	0.5871124
924014212323836	-1.6646881	8.622406	0.6611023
924014220716170	-2.0352783	8.417786	0.6020813
924014229108504	-1.3052216	8.139008	0.78271484
924014237500838	-0.8519592	8.2742	1.4606476
924014245893172	-0.62409973	8.555817	1.6899414
924014254285506	-0.77568054	8.824829	1.336319
924014262677840	-1.093338	9.002701	0.8272705
924014271070174	-1.3742981	9.034897	0.49710083
924014279462508	-1.512207	8.926147	0.43045044
924014287854842	-1.6165771	8.809845	0.21871948
924014296247176	-1.7635651	8.763611	-0.35095215
924014304639510	-1.6971741	8.659531	-0.6671448
924014313031844	-1.1401978	8.401947	-0.60827637
924014321424178	-0.2676239	8.090927	-0.2751007
924014329816512	0.4083557	7.914978	0.16349792
924014338208846	0.24085999	7.911972	0.7657013
924014346601180	-0.1761322	7.8967743	1.7683868
924014354993514	-0.42245483	7.7975616	2.7713318
924014363385848	-0.5594177	7.634018	3.6523895
924014371778182	-0.6542511	7.4897003	4.1602783
924014380170516	-0.7324524	7.472061	4.0464783
924014388562850	-0.74935913	7.636078	3.4570313
924014396955184	-0.7061157	7.8111877	2.5511322
924014405347518	-0.8801727	8.008545	1.8684082
924014413739852	-0.991272	8.2276	1.5347137
924014422132186	-0.8695221	8.44339	1.4109497
924014430524520	-0.55848694	8.628586	1.1874542
924014438916854	-0.3889923	8.822983	0.54937744
924014447309188	-0.35357666	9.025742	-0.18803406
924014455701522	-0.14654541	8.93132	-0.44119263
924014464093856	-0.030731201	8.82074	-0.3487091
924014472486190	-0.17837524	8.9841	0.11758423
924014480878524	-0.51968384	9.526199	1.1329346
924014489270858	-0.63697815	10.220032	2.167694
924014497663192	-0.58106995	10.947876	2.3132324
924014506055526	-0.6939697	11.60408	1.9000549
924014514447860	-1.051651	11.956131	1.6313934
924014522840194	-1.5448914	11.918015	1.924942
924014531232528	-1.9545441	11.566605	2.6647491
924014539624862	-1.8781433	10.954422	2.9581146
924014548017196	-1.848877	10.800735	2.4426422
924014556409530	-2.1185455	11.157974	1.8457642
924014564801864	-2.5407257	12.061661	1.2267761
924014573194198	-2.9741974	13.295212	0.61016846
924014581586532	-3.3620758	14.434784	0.075912476
924014589978866	-3.614685	15.1315155	-0.30810547
924014598371200	-3.6688232	15.105698	-0.42262268
924014606763533	-3.8440552	14.907379	-0.4628296
924014615155867	-4.06633	14.681213	-0.5943756
924014623548201	-4.276825	14.294678	-1.0441589
924014631940535	-4.510681	13.43573	-1.9568176
924014640332869	-4.696472	12.136124	-2.7251587
924014648725203	-4.9259033	11.322357	-3.3384857
924014657117537	-3.4049988	11.520889	-3.0815887
924014665509871	-0.38871765	12.130463	-2.3784332
924014673902205	2.495102	12.7747345	-1.4203186
924014682294539	3.2538605	13.7603	0.26211548
924014690686873	2.1451263	14.390106	1.8838196
924014699079207	1.3253479	14.730728	3.081131
924014707471541	1.6471558	14.422684	4.1497345
924014715863875	2.6870575	13.552124	4.671982
924014724256209	3.7179413	12.521042	4.505722
924014732648543	4.4624023	11.748138	4.084244
924014741040877	5.167282	11.234741	3.2734222
924014749433211	5.2935944	11.008026	2.2695618
924014757825545	5.0509796	10.969849	1.3977966
924014766217879	4.56514	10.814484	0.6647339
924014774610213	3.809723	10.223618	0.07783508
924014783002547	2.6020966	9.043045	-0.23381042
924014791394881	1.3746338	8.152374	-0.120895386
924014799787215	0.8408203	7.6486816	0.092544556
924014808179549	0.31427002	7.6065674	0.11781311
924014816571883	-0.430542	7.653839	0.19000244
924014824964217	-1.3518219	7.6157074	0.45010376
924014833356551	-2.2679138	7.800171	0.64541626
924014841748885	-2.6437836	7.8250885	1.4131012
924014850141219	-2.7625885	7.750641	2.5863647
924014858533553	-2.428894	7.573639	3.376999
924014866925887	-1.9149475	7.4113464	3.2973938
924014875318221	-1.6232758	7.349045	2.448227
924014883710555	-1.7227631	7.3198853	1.5536194
924014892102889	-2.0809784	7.4727173	1.1827545
924014900495223	-1.7394104	7.3156586	1.3749084
924014908887557	-0.77552795	6.573593	1.7338104
924014917279891	0.22903442	5.5842896	1.9652863
924014925672225	0.9260864	4.7278595	1.9437256
924014934064559	1.6629639	4.0464783	1.7198486
924014942456893	2.4760132	3.8355103	1.3315277
924014950849227	3.1499634	3.704239	1.019516
924014959241561	3.7664795	3.4264984	0.8045349
924014967633895	4.1588593	3.0324554	0.6095886
924014976026229	4.1312256	2.6413422	0.3634491
924014984418563	3.6366425	2.3303528	0.08883667
924014992810897	3.1336823	2.302536	-0.10997009
924015001203231	2.7876587	2.3984528	-0.31825256
924015009595565	2.683075	2.6363373	-0.46229553
924015017987899	2.70195	3.0624542	-0.60139465
924015026380233	2.632431	3.7725372	-0.8450775
924015034772567	2.3802032	5.004837	-1.2398834
924015043164901	1.1601715	7.048935	-1.7999573
924015051557235	-0.055038452	9.076614	-2.729721
924015059949569	-0.8150177	11.365494	-4.1620483
924015068341903	-1.1862183	14.001862	-6.352188
924015076734237	-1.6030121	16.62767	-9.085083
924015085126571	-2.4732513	18.260086	-11.078629
924015093518905	-5.062256	18.624619	-14.913406
924015101911239	-7.274948	18.845291	-16.822968
924015110303573	-8.202499	18.51358	-15.065033
924015118695907	-8.086151	17.291565	-10.881943
924015127088241	-7.216873	15.149673	-6.52713
924015135480575	-4.428543	12.582001	-2.7400513
924015143872908	-0.7257843	11.550186	-0.25743103
924015152265242	0.85372925	11.610367	0.13217163
924015160657576	1.473526	11.849014	-0.51919556
924015169049910	1.8186951	12.057632	-0.9853363
924015177442244	2.024994	12.4474945	-0.19029236
924015185834578	1.7737579	13.2491	2.4597626
924015194226912	1.9530029	14.39447	4.797287
924015202619246	1.8996582	15.147324	4.8068085
924015211011580	1.7670135	16.118195	2.4272308
924015219403914	2.0294647	16.280304	-0.4764862
924015227796248	2.6558075	14.001282	-0.89559937
924015236188582	1.4324799	9.132904	3.358612
924015244580916	-0.18113708	6.15184	6.3324127
924015252973250	-1.0138245	4.5092773	7.038208
924015261365584	-1.091629	3.8993835	4.960022
924015269757918	-0.4019928	3.850174	1.6123657
924015278150252	0.91871643	4.034363	-0.67401123
924015286542586	1.6361237	4.512314	-0.40924072
924015294934920	2.0751038	5.2990265	0.6471405
924015303327254	2.5664673	6.1905975	2.313446
924015311719588	3.1000366	7.08992	3.9037933
924015320111922	3.4854736	7.8408813	4.5693665
924015328504256	3.4685822	8.343338	3.8119354
924015336896590	2.8751526	8.886063	2.614151
924015345288924	2.5042114	9.332153	1.8386688
924015353681258	1.8701477	9.515411	1.2227783
924015362073592	1.1526184	9.287231	0.9122162
924015370465926	0.5705261	8.827835	0.82110596
924015378858260	0.22898865	8.4888	0.5905609
924015387250594	-0.14971924	8.359573	-0.54559326
924015395642928	-0.5420532	8.2378845	-3.1987305
924015404035262	-0.5879364	8.005646	-3.9020233
924015412427596	-0.21580505	7.772278	-2.4479523
924015420819930	0.16073608	7.762085	-0.2624817
924015429212264	-0.079208374	8.124451	0.6376648
924015437604598	-0.7621765	8.489365	0.51304626
924015445996932	-1.256424	8.659348	0.4790802
924015454389266	-1.6711884	8.970367	0.3900299
924015462781600	-1.8592682	9.100891	0.28811646
924015471173934	-1.7324829	8.900696	0.32614136
924015479566268	-1.2719269	8.52533	0.6363678
924015487958602	-0.32783508	8.330063	0.91363525
924015496350936	0.4275055	8.428223	1.3886414
924015504743270	0.29367065	8.682373	1.7253876
924015513156432	-0.0657959	8.794144	2.0604095
924015521548766	-0.19752502	8.689041	2.4340973
924015529941100	-0.21228027	8.536255	2.6918793
924015538333434	-0.14830017	8.469238	2.7660065
924015546725768	-0.13807678	8.352463	2.5901031
924015555118102	-0.06578064	8.284225	2.2739258
924015563510436	-0.050811768	8.328537	1.8808746
924015571902770	-0.073410034	8.46022	1.4273071
924015580295104	0.074539185	8.557114	0.8985748
924015588687438	0.2474823	8.562088	0.52282715
924015597079772	0.31246948	8.647202	0.34365845
924015605472106	0.14402771	8.796356	0.5078125
924015613864440	-0.19551086	8.927032	0.96328735
924015622256774	-0.6545868	9.096298	1.4944916
924015630649108	-1.2211761	9.538666	1.812027
924015639041442	-1.4779358	10.303116	1.9545746
924015647433776	-1.4404297	11.028687	1.6631317
924015655826110	-1.3896027	11.510712	1.1692963
924015664218444	-1.4118347	11.78743	0.8953705
924015672610778	-1.4933777	11.873077	0.97328186
924015681003111	-1.5687103	11.707794	1.1384583
924015689395445	-1.6245728	11.581863	1.2613373
924015697787779	-1.8462219	11.662415	1.3745422
924015706180113	-2.2137146	12.456039	0.6439667
924015714572447	-2.4580688	13.538788	-0.44955444
924015722964781	-2.4952545	14.438522	-1.1726837
924015731357115	-2.5748444	14.962799	-1.0030365
924015739749449	-2.8342743	14.994614	-0.6919098
924015748141783	-3.1673431	14.749954	-1.2045746
924015756534117	-3.3293	14.332092	-1.8470459
924015764926451	-3.3349457	13.68959	-2.060196
924015773318785	-3.4815369	12.872894	-1.5821991
924015781711119	-4.2888794	12.217911	-0.8115082
924015790103453	-4.9050293	12.304642	-1.1883698
924015798495787	-2.2019958	13.086212	-1.8392792
924015806888121	1.0586243	14.342712	-1.4408875
924015815280455	3.0863647	15.626373	-0.30628967
924015823672789	3.2248535	16.477463	1.0445862
924015832065123	2.259735	16.70076	2.9219055
924015840457457	1.530838	15.826294	4.0836487
924015848849791	1.4967194	13.948547	4.758667
924015857242125	1.9651489	12.34729	4.78627
924015865634459	2.7543945	11.377945	4.1519775
924015874026793	3.5427856	10.912857	2.92482
924015882419127	3.8587494	10.895767	1.1009674
924015890811461	3.9799957	10.758591	-0.085876465
924015899203795	4.32428	10.107605	0.16090393
924015907596129	4.355606	9.116028	0.49795532
924015915988463	3.7775116	8.070709	0.83950806
924015924380797	2.4583588	7.235031	1.1790314
924015932773131	0.43603516	6.716629	0.78030396
924015941165465	-0.7359009	6.4711	0.1829071
924015949557799	-1.3142853	6.6480713	0.2980652
924015957950133	-1.9124603	7.2232666	0.38438416
924015966342467	-2.4750366	7.9671326	0.3065033
924015974734801	-2.6160278	8.535889	0.7211304
924015983127135	-2.0534058	8.71582	3.214096
924015991519469	-1.2216339	8.278442	3.6573334
924015999911803	-0.9530029	8.08638	2.6336975
924016008304137	-0.9411316	7.9673615	1.4663391
924016016696471	-1.0220795	7.9227448	0.70887756
924016025088805	-1.1584015	7.997299	0.44230652
924016033481139	-1.371109	8.103668	0.93733215
924016041873473	-1.216629	8.051132	2.1659698
924016050265807	-0.45010376	7.3816986	3.1694489
924016058658141	0.63053894	6.223892	3.6585999
924016067050475	1.7565308	4.935974	3.4594727
924016075442809	2.6761475	3.8561401	2.6888428
924016083835143	3.0769348	2.9538574	1.7466583
924016092227477	3.112152	2.2756195	1.2275238
924016100619811	2.9805145	1.795578	1.085846
924016109012145	2.7655182	1.4552002	1.0396271
924016117404479	2.514618	1.2415466	0.91355896
924016125796813	2.3012085	1.1804199	0.611145
924016134189147	2.3061829	1.3259888	0.116622925
924016142581481	2.4958954	1.7598877	-0.31420898
924016150973815	2.6099243	2.4807434	-0.66282654
924016159366149	2.704361	3.5690765	-1.0146332
924016167758483	2.748764	5.1666107	-1.4858856
924016176150817	2.626892	7.4136505	-2.219513
924016184543151	2.1855469	10.28833	-3.3298187
924016192935485	1.5600433	13.787018	-5.5420685
924016201327819	0.9585266	16.939575	-8.160492
924016209720153	0.30004883	19.133331	-11.134247
924016218112486	-1.354126	19.984924	-14.5837555
924016226504820	-4.436508	19.46643	-17.687439
924016234897154	-6.349762	18.193268	-16.200912
924016243289488	-6.825165	16.658508	-12.406586
924016251681822	-6.5985413	15.141037	-8.480606
924016260074156	-5.2276306	13.8802185	-4.9257355
924016268466490	-2.4530182	13.069962	-2.5467682
924016276858824	1.0919495	12.835892	-1.7538605
924016285251158	3.144577	13.476044	-1.3652039
924016293643492	3.9890442	14.058395	-0.23452759
924016302035826	3.9885254	14.463333	1.7610626
924016310428160	3.3759308	14.902054	4.0161133
924016318820494	2.916275	15.519577	5.54776
924016327212828	3.4896393	16.180313	5.3323364
924016335605162	4.0808716	15.877213	3.8009338
924016343997496	3.4178314	12.77681	0.5017395
924016352389830	2.6663513	9.094467	-0.509964
924016360782164	1.6994324	6.058716	1.1206055
924016369174498	0.67707825	4.2487183	4.1154785
924016377566832	0.050109863	3.5975647	6.020172
924016385959166	-0.19490051	3.66156	6.1791687
924016394351500	-0.28826904	3.4738007	4.87236
924016402743834	-0.31965637	3.4546814	3.5982056
924016411136168	0.03703308	3.7128448	2.6099854
924016419528502	0.8483429	4.2496185	1.9092712
924016427920836	1.8553467	5.035248	1.3313904
924016436313170	2.7366943	6.2416077	0.6285095
924016444705504	2.9977264	7.801773	0.0524292
924016453097838	3.132141	9.254623	-0.12767029
924016461490172	3.3197632	10.341675	0.05177307
924016469882506	3.494278	10.907623	0.47198486
924016478274840	3.356369	10.919586	0.95996094
924016486667174	2.652481	10.346313	1.5322571
924016495059508	1.9342041	9.633072	1.9015503
924016503451842	1.25	9.058319	2.0535736
924016511844176	0.5911102	8.659851	2.0878296
924016520236510	0.05055237	8.388489	2.0172272
924016528628844	-0.18939209	8.1137085	1.776123
924016537021178	-0.13711548	7.7283173	1.5178375
924016545413512	0.10432434	7.422653	1.2386475
924016553805846	0.441864	7.29303	0.88401794
924016562198180	0.71925354	7.4449463	0.40177917
924016570590514	0.8353882	7.8733826	-0.16595459
924016578982848	0.8092041	8.434097	-0.68818665
924016587375182	0.4923706	9.120575	-1.1756134
924016595767516	0.15953064	9.579971	-1.4176788
924016604159850	-0.075408936	9.843979	-1.4929352
924016612552184	-0.34120178	9.974991	-2.073944
924016620944518	-0.88627625	9.966522	-3.623764
924016629336852	-1.8140564	9.720062	-5.572983
924016637729186	-1.8428802	9.142548	-3.7261047
924016646121520	-1.5161743	8.826492	-0.68518066
924016654513854	-1.6977081	8.606445	2.1152954
924016662906188	-2.1243439	8.467651	3.8812866
924016671298522	-2.3905334	8.342255	4.26326
924016679690856	-2.340561	8.0789795	3.7756805
924016688083190	-2.7848816	7.827484	4.012253
924016696475524	-3.2456207	7.53627	4.2427673
924016704867858	-3.75766	7.326721	4.595215
924016713260192	-3.3354187	7.298172	4.3657074
924016721652526	-1.674942	7.603607	2.8318481
924016730044860	-7.7819824E-4	8.3593445	0.0332489
924016738437194	0.3799286	9.134659	-1.0830078
924016746829528	0.19975281	9.811859	-0.677475
924016755221861	0.13139343	10.6345825	-0.54022217
924016763614195	0.24179077	11.528839	-0.5434418
924016772006529	0.45643616	12.294083	-0.4970398
924016780398863	0.71565247	12.740173	-0.83638
924016788791197	-0.1743164	13.115158	-0.21310425
924016797183531	-1.7385864	12.764816	1.2203217
924016805575865	-2.6319885	12.320648	2.2118683
924016813968199	-2.7328186	12.324066	2.30719
924016822360533	-2.4390564	13.018906	1.663269
924016830752867	-2.325943	14.205765	0.9738617
924016839145201	-2.7384644	15.124237	1.019577
924016847537535	-2.9827423	14.981018	1.4456635
924016855929869	-3.1903076	14.4207	1.2983856
924016864322203	-3.4887848	13.95282	0.4678192
924016872714537	-3.9210358	13.61969	-0.7320862
924016881106871	-4.40773	12.715012	-1.7853088
924016889499205	-4.6756287	11.282837	-2.010437
924016897891539	-3.3806763	10.858673	-4.617157
924016906283873	-1.9748383	12.032761	-7.500107
924016914676207	-0.006134033	14.0954895	-8.15477
924016923068541	2.5866394	16.021835	-5.40773
924016931460875	3.9046783	16.98793	-0.30107117
924016939853209	2.7918396	16.795776	4.399826
924016948245543	1.2069855	16.222534	7.1496887
924016956637877	0.58410645	15.089188	7.169113
924016965030211	0.9629364	13.626511	5.364975
924016973422545	1.7267609	12.194962	3.1406555
924016981814879	2.1207428	11.078629	1.4186859
924016990207213	2.4398193	10.631317	-0.30194092
924016998599547	2.6526337	10.274689	-0.9313507
924017006991881	2.7431488	10.041107	-0.5788574
924017015384215	2.7093506	9.899719	0.19241333
924017023776549	2.4984436	9.766846	0.7918091
924017032168883	1.9354248	9.507843	0.97680664
924017040561217	1.3618774	9.228516	0.9310913
924017048953551	0.772522	9.053696	1.2795715
924017057345885	-0.028198242	8.876953	1.565979
924017065738219	-0.8406677	8.475052	1.9685974
924017074130553	-1.3245087	7.7535706	2.7098694
924017082522887	-1.2659149	7.024292	3.3903656
924017090915221	-1.0230713	6.718872	3.0530548
924017099307555	-0.84846497	6.501419	2.7038574
924017107699889	-0.36753845	6.2493134	2.2493591
924017116092223	0.12963867	6.0367126	1.9430542
924017124484557	0.21717834	5.9711456	2.0643463
924017132876891	0.048294067	5.997513	2.447052
924017141269225	0.11383057	5.9813538	2.8173065
924017149661559	0.37834167	5.7826233	2.9979553
924017158053893	0.9435425	5.456421	3.094223
924017166446227	1.7293701	4.9593353	3.0994568
924017174838561	2.5489655	4.2773438	2.9814148
924017183230895	3.2129822	3.649231	2.8348541
924017191623229	3.5915375	3.1146545	2.5735474
924017200015563	3.7872162	2.7156525	2.2204895
924017208407897	3.903061	2.3815002	1.8176422
924017216800231	3.9311523	2.1275177	1.4483337
924017225192565	3.815216	1.9843292	1.1790924
924017233584899	3.555008	1.8616791	0.96273804
924017241977233	3.3981476	1.8893127	0.90431213
924017250369567	3.2485657	2.1844177	0.8594818
924017258761901	2.8310394	2.9275055	0.6525116
924017267154235	2.2225647	4.1528473	0.107803345
924017275546569	1.6947021	5.9731293	-1.0439606
924017283938903	1.3481293	9.235931	-3.5159607
924017292331236	0.87194824	17.183914	-7.6402283
924017300723570	0.2762146	23.459885	-16.140244
924017309115904	-4.5979767	25.785004	-19.844376
924017317508238	-10.321243	24.395538	-18.760376
924017325900572	-9.99147	20.985336	-18.273453
924017334292906	-4.3291016	16.96318	-16.830856
924017342685240	-2.7198792	12.553467	-11.061371
924017351077574	-2.6013794	8.771057	-6.745514
924017359469908	-1.4167328	6.5802307	-3.41951
924017367862242	0.55496216	6.628662	-0.43052673
924017376254576	1.4667053	8.8810425	1.9369812
924017384646910	1.8983917	11.505157	1.0187378
924017393039244	2.701126	12.92601	0.5634308
924017401431578	3.8328857	13.3472595	2.549408
924017409823912	4.2778473	13.477127	6.1039886
924017418216246	3.4166107	13.984024	8.507599
924017426608580	1.9161835	15.048416	7.0893097
924017435000914	2.7231598	16.155197	3.390335
924017443393248	2.4523468	16.643661	-6.7296143
924017451785582	3.4623108	14.070129	-7.323868
924017460177916	3.9398804	10.837021	-3.261856
924017468570250	3.1074524	8.37262	0.58862305
924017476962584	1.9059448	6.2292175	3.6057892
924017485354918	1.3396912	4.4484863	4.3448486
924017493747252	1.4889221	3.11792	5.003311
924017502139586	1.9029846	3.031433	5.745056
924017510531920	1.4919434	3.7436981	6.080765
924017518924254	0.48472595	4.6322327	5.74234
924017527316588	0.27259827	5.190384	4.8660126
924017535708922	0.6152344	5.828949	4.7686768
924017544101256	1.3198547	7.0648346	4.7406616
924017552493590	2.0930023	8.577484	4.323639
924017560885924	2.7171326	10.036118	3.084137
924017569278258	3.055359	11.140015	1.148941
924017577670592	3.125183	11.681137	-0.5506592
924017586062926	3.0257874	11.042984	-0.69181824
924017594455260	2.3776703	10.128891	-0.5883026
924017602847594	1.6822052	9.300217	-0.38230896
924017611239928	1.0401001	8.736221	-0.4294281
924017619632262	0.48783875	8.459412	-0.75650024
924017628024596	0.027877808	8.284912	-0.91851807
924017636416930	-0.51626587	8.133057	-0.8912506
924017644809264	-1.4311981	7.9925537	-2.5877533
924017653201598	-2.738922	7.787903	-4.852951
924017661593932	-3.5087128	7.646164	-5.2706757
924017669986266	-3.2162323	7.7731934	-3.4313202
924017678378600	-2.1531677	8.345139	-1.3431702
924017686770934	-1.6422424	9.035965	1.1766357
924017695163268	-1.9515991	9.710968	2.3838043
924017703555602	-1.8917694	9.879456	2.515213
924017711947936	-1.3952484	9.480911	2.9766235
924017720340270	-0.71066284	8.743652	4.037735
924017728732604	-0.0028686523	8.013489	3.9665222
924017737124938	-0.10127258	7.780899	2.7061157
924017745517272	-0.7091675	7.920822	1.2960663
924017753909606	-1.327774	7.9993286	0.28593445
924017762301940	-1.802185	8.031067	-0.1325531
924017770694274	-2.1170502	8.127045	-0.062408447
924017779086608	-2.2897186	8.2895355	0.11630249
924017787478942	-1.2201691	8.024139	0.39263916
924017795871276	-0.11463928	7.6808624	1.0510864
924017804263610	0.4252472	7.476898	1.3482666
924017812655944	0.39004517	7.5174713	1.3078918
924017821048278	0.0962677	7.7855835	1.1716614
924017829440611	-0.110061646	8.170242	1.03125
924017837832945	0.08178711	8.499252	0.7429962
924017846225279	0.4484558	8.743195	0.29447937
924017854617613	0.7837982	9.059433	-0.20578003
924017863009947	1.0264587	9.521362	-0.5675659
924017871402281	1.1636505	10.142273	-0.5908356
924017879794615	1.1509857	10.911255	-0.043014526
924017888186949	0.933609	11.585114	0.81559753
924017896579283	0.69215393	12.050003	1.0961456
924017904971617	0.32325745	12.142334	0.92836
924017913363951	-0.34884644	12.099396	0.5159607
924017921756285	-1.3330841	12.22406	-0.05064392
924017930148619	-2.2248535	12.574158	-0.9795227
924017938540953	-2.889801	13.352463	-1.6739502
924017946933287	-2.9826813	14.528824	-1.7180176
924017955325621	-2.574585	15.749084	-0.44403076
924017963717955	-2.5313568	16.187302	1.5938568
924017972110289	-4.091034	15.307083	1.9664612
924017980502623	-7.9718475	13.907059	-3.5691833
924017988894957	-8.584671	13.255875	-10.317383
924017997287291	-5.8815155	13.080353	-6.0677185
924018005679625	-1.6637573	14.863144	-4.141571
924018014071959	1.6937866	16.781448	-3.0673065
924018022464293	2.7204285	16.801117	1.9574585
924018030856627	2.1044006	16.20752	4.934189
924018039248961	0.7919922	14.557312	6.027649
924018047641295	0.050598145	12.80249	6.7466736
924018056033629	-0.10192871	11.486786	6.405533
924018064425963	-0.10107422	10.76683	5.2968903
924018072818297	-0.1365509	10.6298065	4.0464478
924018081210631	0.5942383	11.186127	3.0644073
924018089602965	1.3248444	12.299438	2.0679016
924018097995299	2.1606598	12.7634735	2.3469238
924018106387633	2.592102	12.739441	2.6996765
924018114779967	2.4911194	12.312912	2.6687012
924018123172301	2.054306	11.5312805	2.2199402
924018131564635	1.6825409	10.655563	1.0072479
924018139956969	1.1434631	9.964905	0.6946564
924018148349303	0.31822205	9.595352	1.1077728
924018156741637	-0.35542297	9.289246	1.80719
924018165133971	-0.6625061	8.804657	2.3576508
924018173526305	-0.7698822	7.988571	2.5533752
924018181918639	-1.2440186	6.7351227	2.5653076
924018190310973	-0.6729431	6.695816	2.251892
924018198703307	0.106399536	6.701126	2.3778076
924018207095641	0.4092865	6.6871033	2.4618988
924018215487975	0.18836975	6.736389	2.2026672
924018223880309	-0.16992188	6.9211426	1.6355438
924018232272643	-0.23222351	7.092453	1.2033386
924018240664977	0.02583313	7.239609	1.0381775
924018249057311	0.18013	7.4020844	1.1421967
924018257449645	0.18359375	7.390259	1.464859
924018265841979	0.19413757	7.3503876	1.9284058
924018274234313	0.49835205	7.4539948	2.4590302
924018282626647	1.539093	6.9361267	3.1160736
924018291018981	2.5226288	6.248535	3.686203
924018299411315	3.0245972	5.88678	4.2540436
924018307803649	3.3084717	5.7849426	4.2930603
924018316195983	3.5733337	5.7379456	3.7810059
924018324588317	3.8681335	5.532013	3.1107178
924018332980651	4.134842	5.2020264	2.3504791
924018341372985	4.2549133	4.8665314	1.8547516
924018349765319	4.317917	4.608185	1.3165436
924018358157653	4.387726	4.5458374	0.69725037
924018366549986	4.3735504	4.763962	0.17578125
924018374942320	4.1055756	5.33696	-0.05545044
924018383334654	3.5591736	6.617096	-0.30488586
924018391726988	3.1798096	8.591446	-0.82496643
924018400119322	2.8368988	10.947037	-1.5478668
924018408511656	3.280014	12.833572	-3.3820343
924018416903990	4.437195	13.662598	-6.259659
924018425296324	5.3598175	13.507202	-9.0980835
924018433688658	5.4565887	12.788055	-11.635468
924018442080992	5.093567	12.084076	-12.411209
924018450473326	4.719803	11.474991	-11.559219
924018458865660	3.993225	10.911331	-9.765335
924018467257994	2.84227	10.450821	-7.6463165
924018475650328	1.638916	10.272644	-5.553787
924018484042662	1.1935883	10.526123	-4.2307587
924018492434996	1.1354218	10.051361	-3.131546
924018500827330	0.8853302	9.3103485	-2.1593018
924018509219664	0.8171692	8.911972	-1.3790588
924018517611998	1.1286774	9.196701	-0.8829651
924018526004332	1.5991364	10.098984	-0.685791
924018534396666	1.9602661	11.240784	-0.30906677
924018542789000	1.8837738	12.230652	0.7131958
924018551181334	1.5781708	13.196442	2.4991302
924018559573668	1.3733368	14.043823	4.5334167
924018567966002	1.4685211	14.622314	6.0157013
924018576358336	1.7653198	14.829346	6.213196
924018584750670	1.8120575	14.621048	4.7355804
924018593143004	1.98143	13.425842	2.908554
924018601535338	2.3660583	11.303665	0.36167908
924018609927672	2.732315	8.419266	-3.4978943
924018618320006	2.5919037	5.6418915	-5.9509735
924018626712340	1.5463104	4.305298	-2.0579834
924018635104674	0.76742554	4.7612457	2.9249725
924018643497008	0.120285034	5.2985687	5.565735
924018651889342	-0.43495178	5.856781	6.341507
924018660281676	-0.921875	6.476898	5.998123
924018668674010	-1.1743317	7.1302032	5.2825165
924018677066344	-0.8060303	7.682556	4.5318146
924018685458678	-0.12269592	8.299713	3.7073212
924018693851012	0.7059479	9.021393	2.9110413
924018702243346	1.3464661	9.789429	1.8805542
924018710635680	1.5307007	10.418091	0.7653961
924018719028014	1.138382	10.792511	-0.20672607
924018727420348	0.3310089	10.987076	-0.93811035
924018735812682	-0.60150146	10.884888	-1.4783325
924018744205016	-1.3875885	10.573029	-2.1253967
924018752597350	-2.3767242	9.818909	-5.835251
924018760989684	-1.9437103	8.633682	-8.744125
924018769382018	0.2736206	7.5562286	-6.6242676
924018777774352	1.637207	7.565094	0.17352295
924018786166686	1.2147522	7.7450256	3.5869446
924018794559020	0.40216064	7.801651	5.0591583
924018802951354	-0.10775757	7.7710266	5.6931
924018811343688	-0.23226929	7.728256	5.5483246
924018819736022	-0.13690186	7.779175	4.4605255
924018828128356	-0.04762268	8.002487	2.4935913
924018836520690	0.117370605	8.317596	0.1725769
924018844913024	0.04727173	8.544952	-1.3664093
924018853305358	-0.0064849854	8.644424	-1.6765747
924018861697692	0.024536133	8.648834	-1.020401
924018870090026	0.059661865	8.625793	0.054901123
924018878482360	-0.10612488	8.646881	1.0341644
924018886874694	-0.18473816	8.659485	1.5912476
924018895267028	-0.15209961	8.65155	1.9001617
924018903659361	-0.045944214	8.670486	1.9281464
924018912051695	0.063797	8.777878	1.7610168
924018920444029	0.1405487	9.007553	1.5007782
924018928836363	0.24363708	9.313171	1.1720886
924018937228697	0.47627258	9.562378	0.6649475
924018945621031	0.7793274	9.712067	0.059814453
924018954013365	1.018158	9.717392	-0.57058716
924018962405699	1.1317291	9.616821	-1.0550842
924018970798033	1.1296539	9.490051	-1.1964264
924018979190367	1.0544739	9.390472	-0.82543945
924018987582701	0.9189606	9.297943	0.059524536
924018995975035	0.9232178	9.127106	1.1130371
924019004367369	0.97068787	8.862137	2.040512
924019012759703	0.99272156	8.536133	2.781723
924019021152037	0.94104004	8.242126	3.3402405
924019029544371	0.76556396	8.1553955	3.5177155
924019037936705	0.7069397	8.3667145	2.9655914
924019046329039	0.7819824	8.788925	2.4049683
924019054721373	0.80119324	9.365555	1.9490051
924019063113707	0.7121887	9.972244	1.619278
924019071506041	0.5492554	10.498383	1.3966064
924019079898375	0.3767395	11.016968	1.2932892
924019088290709	0.22116089	11.3042145	1.0953369
924019096683043	0.022125244	11.286835	0.8275299
924019105075377	-0.2530365	11.0130005	0.6413727
924019113467711	-0.56993103	10.605179	0.58110046
924019121860045	-0.8642578	10.204239	0.5661011
924019130252379	-1.0964966	9.905792	0.34709167
924019138644713	-1.2249451	9.771576	0.053359985
924019147037047	-1.334732	9.772415	-0.2878418
924019155429381	-1.5110016	9.909164	-0.8361511
924019163821715	-1.8939362	10.155441	-2.001419
924019172214049	-2.5383606	10.484222	-4.052536
924019180606383	-3.124771	10.901306	-6.266617
924019188998717	-2.7367096	11.196701	-5.5191193
924019197391051	-2.056488	11.596649	-3.248642
924019205783385	-1.8591614	12.206284	-1.5980835
924019214175719	-2.574829	12.917923	-2.0796204
924019222568053	-3.8432007	13.509598	-4.0638275
924019230960387	-3.1761932	13.897614	-0.09069824
924019239352721	-1.9612122	13.794525	2.4957123
924019247745055	-1.5410004	12.837112	-0.12503052
924019256137389	-1.4075012	12.052887	-2.9974976
924019264529723	-1.3088074	11.944321	-4.337372
924019272922057	-1.0686646	12.438644	-4.6078796
924019281314391	0.1326294	12.880371	-3.1039886
924019289706725	0.37834167	12.970612	-0.11029053
924019298099059	0.3814392	12.728439	2.3499756
924019306491393	0.5105133	12.346085	3.9754944
924019314883727	0.8492279	12.053635	4.8426056
924019323276061	1.2741547	12.018356	5.258972
924019331668395	1.9351807	12.17688	5.279907
924019340060729	2.5741577	12.708618	4.722397
924019348453063	3.174408	13.019806	4.1637726
924019356845397	3.7010193	12.9596405	3.6482391
924019365237731	3.97023	12.438507	2.9280548
924019373630065	3.660141	11.4648285	1.7633057
924019382022399	2.2366943	10.289612	0.9752197
924019390414733	1.3556213	9.623459	1.0330505
924019398807067	0.9466095	9.14621	0.9075165
924019407199401	0.6651001	8.740982	0.53733826
924019415591735	0.31985474	8.463211	-0.014480591
924019423984069	-0.06265259	8.435501	-0.63453674
924019432376403	-0.256073	8.409576	-0.8139801
924019440768736	-0.4885559	8.216324	-0.49795532
924019449161070	-0.7293091	7.9623566	0.2855835
924019457553404	-0.8286743	7.698532	1.5204163
924019465945738	-1.0064545	7.492676	2.5067902
924019474338072	-1.6438293	7.431366	2.156311
924019482730406	-1.8242798	7.5709534	1.0905151
924019491122740	-1.1997223	7.835144	0.28897095
924019499515074	-0.63446045	7.8831024	0.3027649
924019507907408	-0.16244507	7.755966	0.8124695
924019516299742	0.26202393	7.5652924	1.5586548
924019524692076	0.64923096	7.398041	2.477829
924019533084410	0.9058838	7.136566	3.1522522
924019541476744	1.620636	6.6269073	3.1609192
924019549869078	2.3068695	6.1046295	2.6664429
924019558261412	2.8552094	5.669983	1.8513947
924019566653746	3.2440033	5.337982	0.96131897
924019575046080	3.470459	5.050888	0.2769165
924019583438414	3.502365	4.7178955	-0.0052490234
924019591830748	3.3355713	4.462433	-0.3824768
924019600223082	3.2570496	4.3139954	-0.7584839
924019608615416	3.2214508	4.2287903	-1.0467834
924019617007750	3.1503143	4.194046	-1.2227936
924019625400084	3.0349884	4.2616425	-1.3378906
924019633792418	3.0533295	4.5570374	-1.4366913
924019642184752	3.1910858	4.9913483	-1.8006287
924019650577086	3.285019	5.7153473	-2.1358643
924019658969420	3.1012878	6.7513733	-2.2679596
924019667361754	2.518982	8.01915	-2.2133179
924019675754088	1.6195221	9.362045	-2.218979
924019684146422	0.7477875	10.507156	-2.6285095
924019692538756	-0.16300964	11.52858	-3.085312
924019700931090	-1.0979767	12.527603	-4.0289307
924019709323424	-2.1232758	13.308365	-5.564026
924019717715758	-3.3352966	13.643112	-7.2979584
924019726108092	-4.8009186	13.411652	-8.3337555
924019734500426	-6.123749	13.037033	-8.290085
924019742892760	-7.3208923	12.729782	-7.003647
924019751285094	-8.1449585	11.794495	-3.8192139
924019759677428	-9.218643	11.091827	-2.3927002
924019768069762	-10.160721	10.676987	-3.4176788
924019776462096	-8.981781	8.982666	-1.9478455
924019784854430	-6.9548798	7.719467	-1.6627045
924019793246764	-5.475113	7.9259796	-1.834732
924019801639098	-3.8567963	9.259811	-1.3098602
924019810031432	-2.060318	11.039078	-0.1448822
924019818423766	-0.14505005	12.605286	1.4581757
924019826816100	1.887558	13.681808	3.542572
924019835208434	3.430252	14.540649	5.240326
924019843600768	3.4039917	15.42688	5.608383
924019851993102	2.9653168	16.596176	3.3107147
924019860385436	2.784439	17.574585	-1.879303
924019868777770	3.2084045	16.84346	-6.400131
924019877170104	4.099701	12.311752	-3.1371307
924019885562438	3.5586243	8.165421	-1.1055908
924019893954772	2.9642944	5.4319153	-1.4767609
924019902347106	2.8176422	3.5519562	-2.7174835
924019910739440	2.7200012	2.3355103	-2.600937
924019919131774	2.3954315	1.7754974	-0.339859
924019927524108	2.1635742	1.9601898	2.3894043
924019935916442	2.7844543	3.6492767	4.9561005
924019944308776	3.1759033	6.123764	6.8911285
924019952701110	3.5566254	8.314438	7.6542664
924019961093444	3.8585052	10.074921	7.3352966
924019969485778	3.8657227	11.502884	6.2602997
924019977878111	3.3280487	12.616119	4.780197
924019986270445	1.8337555	12.653793	3.4488983
924019994662779	0.7795563	11.612732	2.355667
924020003055113	0.5718689	10.497009	0.83795166
924020011447447	0.5326843	9.677948	-0.60313416
924020019839781	0.17311096	9.207001	-1.3987732
924020028232115	0.049118042	8.972687	-1.666275
924020036624449	0.013366699	8.745911	-1.7711487
924020045016783	-0.23602295	8.551971	-1.2829132
924020053409117	-0.5525055	8.453842	-0.4117279
924020061801451	-0.8731537	8.388519	0.5278778
924020070193785	-1.1559296	8.304794	1.3690643
924020078586119	-1.3366394	8.273376	2.3099365
924020086978453	-1.1546173	8.494553	2.5933228
924020095370787	-0.8083496	8.729889	2.3524323
924020103763121	-0.54312134	8.822281	1.9598236
924020112155455	-0.44754028	8.776566	1.5460968
924020120547789	-0.47019958	8.636597	1.12146
924020128940123	-0.4205017	8.378159	0.6721802
924020137332457	-0.42726135	8.172592	0.2791443
924020145724791	-0.33738708	8.079941	-0.025543213
924020154117125	-0.33615112	8.140137	-0.2271576
924020162509459	-0.3921814	8.296768	-0.35554504
924020170901793	-0.42276	8.48053	-0.4069214
924020179294127	-0.4736023	8.697876	-0.25238037
924020187686461	-0.36109924	8.783813	0.067840576
924020196078795	-0.22537231	8.815262	0.31077576
924020204471129	-0.09663391	8.8602295	0.49534607
924020212863463	-0.044952393	8.92189	0.6406555
924020221255797	-0.117507935	8.977829	0.75027466
924020229648131	-0.2616272	9.030502	0.79400635
924020238040465	-0.30769348	8.952667	0.8544464
924020246432799	-0.19444275	8.795517	0.85401917
924020254825133	-0.05101013	8.644928	0.78512573
924020263217467	0.014801025	8.596252	0.67222595
924020271609801	-0.096710205	8.747681	0.49693298
924020280002135	-0.52742004	9.214294	0.06921387
924020288394469	-0.514801	9.537628	-0.5733795
924020296786803	-0.19621277	9.664352	-0.6347351
924020305179137	-0.06427002	9.725006	0.12295532
924020313571471	-0.1696167	9.854797	1.078659
924020321963805	-0.34207153	10.140732	1.3863983
924020330356139	-0.60827637	10.559479	0.94770813
924020338748473	-0.74142456	10.810715	0.66503906
924020347140807	-0.7199402	10.978134	0.73472595
924020355533141	-0.6131897	11.094177	1.0701599
924020363925475	-0.54304504	11.234772	1.4485779
924020372317809	-0.6088257	11.455826	1.5945129
924020380710143	-0.7464142	11.653244	1.2834473
924020389102477	-0.56352234	11.771469	0.5982666
924020397494811	-0.13349915	11.98761	0.15879822
924020405887145	0.113342285	12.56929	-0.2166748
924020414279479	-0.042556763	13.395782	-0.41914368
924020422671813	-0.53956604	14.081711	-0.22665405
924020431064147	-0.93992615	14.246216	0.13604736
924020439456481	-1.1748505	14.207596	0.10404968
924020447848815	-1.6752319	14.333115	-0.10720825
924020456241149	-2.4714508	14.383408	-0.3399353
924020464633483	-3.2983246	14.127655	-0.8097534
924020473025817	-3.756485	13.490631	-1.8229218
924020481418151	-3.645172	12.75209	-2.9978333
924020489810485	-1.1751556	12.072708	-3.8113098
924020498202819	1.6972351	11.680389	-4.2256775
924020506595153	3.798111	11.64296	-3.745407
924020514987486	4.67276	11.868271	-2.001175
924020523379820	4.5918884	12.192322	0.88357544
924020531772154	4.430847	12.6644745	3.3328247
924020540164488	4.4842377	12.831207	4.7789307
924020548556822	4.5726624	12.01947	5.09198
924020556949156	4.362076	10.915344	4.273712
924020565341490	3.7620544	10.248535	2.9384308
924020573733824	3.016098	10.294571	1.854248
924020582126158	2.8441467	10.629547	0.96362305
924020590518492	3.0994873	11.09697	0.4486084
924020598910826	3.5056458	11.247925	0.42552185
924020607303160	4.0004425	11.047165	0.75909424
924020615695494	4.3841095	10.604965	1.1660919
924020624087828	4.361923	10.083267	1.3285065
924020632480162	3.6590729	9.408936	1.0769043
924020640872496	2.867157	8.709747	0.27534485
924020649264830	1.9626617	8.219818	-0.47669983
924020657657164	1.0724335	7.8364105	-0.96824646
924020666049498	0.36895752	7.494461	-0.9775543
924020674441832	4.7302246E-4	7.206772	-0.348526
924020682834166	0.110824585	6.924469	0.9834595
924020691226500	-0.115356445	6.6076355	2.5518494
924020699618834	-0.74687195	6.3506927	3.1316833
924020708011168	-1.6660919	6.2216644	2.829071
924020716403502	-2.6088867	6.2419586	2.065277
924020724795836	-3.198883	6.3460693	1.401947
924020733188170	-3.2350006	6.4700623	0.88352966
924020741580504	-2.4734802	6.2299347	0.70077515
924020749972838	-1.2371674	5.775711	1.0463257
924020758365172	0.0647583	5.1818695	1.5924988
924020766757506	1.1067657	4.548523	2.009018
924020775149840	1.7763062	3.9904938	2.2024841
924020783542174	2.0069275	3.5436096	1.855011
924020791934508	2.171875	3.2466736	1.3119354
924020800326842	2.3226013	3.0042877	0.94721985
924020808719176	2.4163666	2.756073	0.77619934
924020817111510	2.4270935	2.5023956	0.7007904
924020825503844	2.3760834	2.3148193	0.59562683
924020833896178	2.1895142	2.4080963	0.2134552
924020842288512	1.9415283	2.8305206	-0.18518066
924020850680846	1.7802429	3.591751	-0.47427368
924020859073180	1.7046509	4.712906	-0.7378235
924020867465514	1.6320801	6.1997223	-1.138855
924020875857848	1.4478302	8.011093	-1.8519745
924020884250182	1.2942963	10.032028	-3.0364227
924020892642516	1.0601959	12.403229	-4.655884
924020901034850	0.51698303	15.140305	-6.7267456
924020909427184	-0.44145203	17.885086	-9.683975
924020917819518	-1.9448853	19.988556	-13.370697
924020926211852	-4.138397	20.793076	-16.328735
924020934604186	-6.7314453	19.793335	-15.657028
924020942996520	-9.031616	17.714172	-13.174774
924020951388854	-10.448288	15.193497	-9.861862
924020959781188	-10.472504	12.818924	-6.3466187
924020968173522	-8.807861	11.115143	-3.2176666
924020976565856	-5.2893677	10.469711	-1.0887604
924020984958190	-2.2077637	11.031067	0.028045654
924020993350524	0.088012695	11.941162	1.1709595
924021001742858	1.4591827	13.01889	2.8223114
924021010135192	2.0330963	14.137802	4.807892
924021018527526	2.1357574	15.229172	6.6383057
924021026919860	2.2119446	16.27681	7.716095
924021035312194	2.932602	16.152557	6.559067
924021043704528	4.0620728	14.350876	3.897461
924021052096861	5.383972	11.664337	-1.4567566
924021060489195	5.754486	8.84407	-4.5937653
924021068881529	4.578171	6.517868	-2.3479004
924021077273863	2.9861755	5.059662	0.59150696
924021085666197	1.8748779	4.08255	1.2425842
924021094058531	1.3137817	3.3140106	1.3735657
924021102450865	1.1338196	2.7142334	1.3998718
924021110843199	1.2670135	2.4015656	1.5204926
924021119235533	1.6003876	2.6153717	1.7950134
924021127627867	1.9353943	3.7489624	2.2207336
924021136020201	2.2799377	5.8217926	2.514206
924021144412535	2.7446594	8.163559	2.6621094
924021152804869	3.1785583	10.159943	2.6655426
924021161197203	3.5747223	11.476883	2.6177368
924021169589537	3.9030457	12.009369	2.6028137
924021177981871	3.8747406	11.763351	2.6096497
924021186374205	3.2004242	10.86911	2.424179
924021194766539	2.3522034	9.837082	1.9832611
924021203158873	1.608902	8.870209	1.4496155
924021211551207	1.0783386	8.091644	0.95739746
924021219943541	0.7029419	7.5730286	0.6171417
924021228335875	0.29241943	7.4040527	0.6330414
924021236728209	-0.2980957	7.455139	1.0036469
924021245120543	-0.8114624	7.6483307	1.2519989
924021253512877	-1.1951904	7.976593	1.5964966
924021261905211	-1.4016724	8.39772	2.0255432
924021270297545	-1.4065857	8.84819	2.4120026
924021278689879	-1.2231293	9.274918	2.7380219
924021287082213	-0.7787323	9.702881	2.7102203
924021295474547	-0.29516602	9.985672	2.4682312
924021303866881	0.18470764	10.090164	1.9991608
924021312259215	0.56884766	9.993088	1.3732147
924021320651549	0.71751404	9.704681	0.7341156
924021329043883	0.404068	9.280273	0.24546814
924021337436217	-0.2836609	8.826263	-0.0073242188
924021345828551	-0.85528564	8.412643	-0.17149353
924021354220885	-1.2836609	8.23793	-0.16343689
924021362613219	-1.4940948	8.190292	-0.033309937
924021371005553	-1.4442444	8.061188	0.1118927
924021379397887	-1.3934784	8.084625	0.35108948
924021387790221	-1.3656311	8.143188	0.5439911
924021396182555	-1.2288208	8.168671	0.6899414
924021404574889	-1.0922852	8.1302185	0.7883911
924021412967223	-1.0341492	8.081985	0.86569214
924021421359557	-1.0771484	8.13002	0.95529175
924021429751891	-1.2197571	8.375504	1.0541077
924021438144225	-1.2845764	8.784561	1.0596466
924021446536559	-1.3308258	9.361404	1.0762024
924021454928893	-1.3271179	10.047531	1.0860901
924021463321227	-1.2697906	10.709717	1.0879059
924021471713561	-1.195343	11.178467	1.0941162
924021480105895	-1.1545868	11.385208	1.0364685
924021488498229	-1.0183868	11.329895	0.88723755
924021496890563	-0.80511475	11.139664	0.74464417
924021505282897	-0.5911255	10.851685	0.583313
924021513675231	-0.4632721	10.548386	0.4147339
924021522067565	-0.47325134	10.346054	0.2976532
924021530459899	-0.62945557	10.35289	0.26835632
924021538852233	-0.934845	10.489822	0.26231384
924021547244567	-1.1385956	10.716446	0.23780823
924021555636901	-1.1352844	11.002686	0.13024902
924021564029235	-0.95388794	11.381363	-0.035324097
924021572421569	-0.68904114	11.960266	-0.15673828
924021580813903	-0.29096985	13.07019	-0.11714172
924021589206236	0.17573547	14.25914	-0.5366516
924021597598570	1.3693848	15.335709	-4.437271
924021605990904	2.0001373	16.074661	-8.987854
924021614383238	1.1686859	16.27118	-11.232422
924021622775572	-0.73706055	15.873199	-9.200226
924021631167906	-0.48358154	15.812561	4.7616425
924021639560240	-0.9479065	13.865372	6.498398
924021647952574	-2.4902496	12.452164	3.0193787
924021656344908	-3.9844208	12.365921	-2.2289429
924021664737242	-3.9692535	13.498199	-6.6376343
924021673129576	-1.6868286	14.8190155	-8.564987
924021681521910	1.355835	14.852814	-3.2003174
924021689914244	1.8565674	14.229141	1.3989563
924021698306578	1.9581299	13.330963	3.8739166
924021706698912	1.9825897	12.459198	4.5967255
924021715091246	1.8391876	11.801193	4.4703827
924021723483580	1.4191742	11.368546	4.032074
924021731875914	1.0989227	11.320847	3.714737
924021740268248	0.97753906	11.352463	3.1705017
924021748660582	1.459259	11.3526	2.5394287
924021757052916	2.3174133	11.162979	2.1464539
924021765445250	3.0794983	10.756989	2.1839752
924021773837584	3.3596497	10.272278	2.5833893
924021782229918	3.2035828	9.736511	3.0734406
924021790622252	2.6305084	9.291367	3.3687897
924021799014586	1.9423676	8.831024	3.43396
924021807406920	1.3664703	8.313156	3.3857422
924021815799254	1.0562897	7.7436523	3.2714386
924021824191588	0.9976654	7.1931915	2.9867096
924021832583922	1.1040344	6.721039	2.5294647
924021840976256	0.89564514	6.3433685	2.3093262
924021849368590	0.48864746	6.1507874	2.3006744
924021857760924	-0.05117798	6.110977	2.6546478
924021866153258	-0.64982605	6.109192	3.3421936
924021874545592	-1.2293243	6.007187	3.9083557
924021882937926	-1.762146	5.8441315	4.312088
924021891330260	-2.107956	5.766449	4.511566
924021899722594	-2.0822449	5.7745667	3.8665314
924021908114928	-1.6298065	5.8580475	2.1849213
924021916507262	-1.0422516	5.86322	0.06402588
924021924899596	-0.9798584	5.4535065	-1.1648407
924021933291930	-1.0176086	5.303528	-1.8267212
924021941684264	-1.0745544	5.1728516	-1.7150574
924021950076598	-0.73091125	4.9658966	-0.7685394
924021958468932	0.08607483	4.67305	0.66630554
924021966861266	1.1003265	4.3162994	2.1058502
924021975253600	1.823883	3.8814697	3.24794
924021983645934	1.9103699	3.5852509	3.9377747
924021992038268	2.033905	3.315216	4.1689606
924022000430602	2.1995087	3.1315308	4.032364
924022008822936	2.3358154	3.1218567	3.5795593
924022017215270	2.3494415	3.4136658	2.8931427
924022025607604	2.2301636	4.1392975	2.125763
924022033999938	2.1168365	5.5234985	1.3019562
924022042392272	2.412796	7.8997345	-0.73080444
924022050784606	3.7608948	11.771118	-5.601776
924022059176940	5.8797607	16.429413	-12.998169
924022067569274	7.30867	20.305328	-20.32489
924022075961608	5.406372	22.053085	-22.942032
924022084353942	1.9512787	21.808975	-21.79161
924022092746276	-1.5131378	20.07933	-17.499634
924022101138610	-4.277466	17.539154	-11.188004
924022109530944	-6.126648	14.880737	-4.766205
924022117923278	-7.0787964	12.574875	0.15118408
924022126315611	-6.526123	10.707123	3.550705
924022134707945	-3.6843262	9.528488	5.738022
924022143100279	-1.3362274	9.329178	6.8503113
924022151492613	-0.13928223	10.188232	7.222885
924022159884947	0.17912292	11.874817	6.960602
924022168277281	0.49398804	13.816345	6.1136475
924022176669615	1.1310577	15.545151	4.681946
924022185061949	2.4142303	16.673508	3.5750122
924022193454283	4.1416016	16.409927	2.5901184
924022201846617	5.694153	14.8116	1.6294556
924022210238951	6.36499	12.283188	0.61557007
924022218631285	5.5802765	9.514008	-0.67015076
924022227023619	3.6261597	7.0115356	-2.9941711
924022235415953	2.106842	5.3350677	-2.5908203
924022243808287	1.398056	4.1896057	-0.8037262
924022252200621	0.9948425	3.248932	0.47743225
924022260592955	0.6754608	2.4256287	0.8195038
924022268985289	0.47436523	1.8546906	0.98651123
924022277377623	0.33422852	1.7443695	1.0133362
924022285769957	0.4701233	2.7316437	1.0972137
924022294162291	0.7175598	4.6038055	1.2877045
924022302554625	0.9183655	7.0420685	1.6519165
924022310946959	0.97966003	9.563187	2.127182
924022319339293	0.9297943	11.676926	2.597519
924022327731627	0.90592957	13.030762	3.2804108
924022336123961	1.2704163	13.245239	3.8723907
924022344516295	1.7976074	12.458618	3.967865
924022352908629	2.0425568	11.126663	3.4972382
924022361300963	1.821991	9.667206	2.6196594
924022369693297	1.2891998	8.408112	1.7239227
924022378085631	0.7017517	7.388275	1.111618
924022386477965	0.21549988	6.5758057	0.68052673
924022394870299	-0.20916748	6.0188446	0.432312
924022403262633	-0.59332275	5.711136	0.38578796
924022411654967	-0.9603424	5.6773376	0.5530243
924022420047301	-1.3219604	5.9393616	0.89901733
924022428439635	-1.4803314	6.47171	1.3097687
924022436831969	-1.2887268	7.141098	1.5783386
924022445224303	-0.8392792	7.7855835	1.6088562
924022453616637	-0.31851196	8.308334	1.4221802
924022462008971	0.12272644	8.654037	1.1287231
924022470401305	0.43959045	8.811478	0.87757874
924022478793639	0.5703888	8.766205	0.65423584
924022487185973	0.4207611	8.581757	0.45555115
924022495578307	0.12171936	8.415604	0.27227783
924022503970641	-0.2402649	8.326218	0.12388611
924022512362975	-0.5632019	8.333252	0.06906128
924022520755309	-0.74194336	8.429184	0.18913269
924022529147643	-0.7250366	8.649841	0.34121704
924022537539977	-0.58218384	8.790909	0.5002899
924022545932311	-0.3342743	8.81456	0.68614197
924022554324645	-0.102249146	8.825195	0.8508148
924022562716979	0.0051116943	8.95166	0.95751953
924022571109313	-0.023742676	9.280136	1.0094299
924022579501647	0.049804688	9.817886	0.9477997
924022587893981	0.026351929	10.428772	0.8905182
924022596286315	0.0037994385	11.16954	0.8087311
924022604678649	0.04573059	12.005127	0.7348938
924022613070983	0.1429596	12.858688	0.67826843
924022621463317	0.19317627	13.652069	0.5930939
924022629855651	0.11167908	14.232666	0.529953
924022638247985	-0.15000916	14.293808	0.39549255
924022646640319	-0.36283875	13.78392	0.011932373
924022655032653	-0.5397339	12.872055	-0.5693512
924022663424986	-0.6521301	11.855606	-1.9734039
924022671817320	-0.55155945	11.062683	-5.5392914
924022680209654	-0.69924927	11.205292	-7.3707733
924022688601988	-1.1698456	12.174515	-5.2334595
924022696994322	-1.8067627	13.420074	-4.3338776
924022705386656	-1.8256683	14.601868	-1.0204468
924022713778990	-1.1979675	15.23645	5.8434906
924022722171324	-1.3524628	14.627579	9.559601
924022730563658	-3.7263641	13.286606	6.7539825
924022738955992	-6.2397156	13.007294	-0.27514648
924022747348326	-8.155228	13.823761	-8.304245
924022755740660	-7.675354	15.113495	-11.8385315
924022764132994	-4.2365417	16.083832	-8.578751
924022772525328	0.24369812	15.976837	-2.539444
924022780917662	0.7071533	15.223068	0.76286316
924022789309996	-0.015197754	13.978912	1.9785004
924022797702330	-0.6088867	12.976288	2.7672882
924022806094664	-0.7308502	12.328308	3.3023682
924022814486998	-0.47756958	11.973145	3.3905945
924022822879332	-0.035888672	12.014008	3.1144257
924022831271666	1.249527	12.713043	3.959793
924022839664000	2.4944305	13.550186	4.7420197
924022848056334	3.5536652	14.369919	5.239624
924022856448668	4.426285	14.932541	5.498581
924022864841002	5.1147766	15.032776	5.5025635
924022873233336	5.5255585	14.623947	4.928238
924022881625670	6.1170807	13.145386	4.1767273
924022890018004	6.535034	11.558289	4.105072
924022898410338	6.4811554	9.881454	4.4398193
924022906802672	5.917877	8.319397	4.6183014
924022915195006	5.0271454	7.0750275	4.1632843
924022923587340	4.171509	6.172241	3.0107117
924022931979674	3.5413208	5.4486084	2.2691956
924022940372008	2.918335	4.939987	1.8680878
924022948764342	2.4365387	4.6327667	1.8772583
924022957156676	2.193222	4.4695587	2.2314148
924022965549010	2.1844482	4.402649	2.7422638
924022973941344	2.2107391	4.446457	3.0751648
924022982333678	2.3545532	4.3846436	3.8923035
924022990726012	2.0827637	4.5859222	4.570816
924022999118346	1.8937988	5.015625	4.9594116
924023007510680	1.8690033	5.558655	5.2612457
924023015903014	1.7934418	6.2003784	5.2033386
924023024295348	1.3189697	7.2850494	2.8104248
924023032687682	0.0697937	6.6426697	-1.9146576
924023041080016	-0.4052887	5.4969177	-3.8960266
924023049472350	-0.5383911	4.6127014	-3.7060547
924023057864684	-0.6264496	4.06398	-2.1117096
924023066257018	-0.6400604	3.5555573	0.17842102
924023074649352	0.0059814453	2.8466797	2.5722198
924023083041686	1.2174225	2.032196	3.949524
924023091434020	1.8493805	1.2861023	4.340027
924023099826354	1.8795776	0.8531494	3.9868317
924023108218688	1.4123688	0.85580444	3.173706
924023116611022	0.6860504	1.3022461	2.2079315
924023125003356	0.24021912	2.124771	1.4963684
924023133395690	0.5081482	3.5560455	0.58322144
924023141788024	0.8905182	5.2101746	-0.3789978
924023150180358	1.1958771	7.204422	-1.625824
924023158572692	1.4073792	9.898575	-3.6565857
924023166965026	1.6003113	13.887878	-7.116226
924023175357360	1.8463287	20.361725	-12.845169
924023183749694	0.75709534	24.273743	-21.67044
924023192142028	-1.127243	24.645706	-23.463913
924023200534361	-2.3595428	23.073181	-19.486526
924023208926695	-2.9572754	20.605484	-13.206665
924023217319029	-3.6789856	17.894455	-7.9499664
924023225711363	-3.7297668	16.478806	-3.8797607
924023234103697	-1.6896667	16.354553	-1.9323425
924023242496031	1.9158936	15.9844055	-1.2850952
924023250888365	5.673279	15.279587	-0.59417725
924023259280699	8.533356	14.443176	1.1804657
924023267673033	10.127563	13.651337	4.2223816
924023276065367	9.655991	12.918533	7.5972443
924023284457701	6.455261	11.730652	8.83136
924023292850035	3.3375702	10.164185	7.891983
924023301242369	1.3346252	8.302795	5.6656036
924023309634703	0.6696167	6.4207	3.196518
924023318027037	0.6793518	4.883499	1.2552643
924023326419371	0.7630615	3.8020172	0.24485779
924023334811705	0.66537476	3.30159	0.33538818
924023343204039	0.6886444	3.0077515	0.4421692
924023351596373	0.8605652	2.934311	0.5866089
924023359988707	1.1336975	3.081009	0.877594
924023368381041	1.4503632	3.4094086	1.321991
924023376773375	1.7979279	4.099655	1.9624329
924023385165709	2.1185303	5.324936	2.5084991
924023393558043	2.5087738	6.770355	2.8103485
924023401950377	2.9183044	8.281677	2.8645477
924023410342711	3.2259216	9.761032	2.7324524
924023418735045	3.262207	11.069336	2.484192
924023427127379	3.1733704	11.742004	2.103424
924023435519713	2.8801117	11.621017	1.573288
924023443912047	2.3685608	10.89093	0.98721313
924023452304381	1.7832489	9.907974	0.4725952
924023460696715	1.2216797	9.076767	0.22436523
924023469089049	0.6717377	8.647446	0.40994263
924023477481383	0.2821808	8.273529	1.0279541
924023485873717	-0.07331848	8.01918	1.4841156
924023494266051	-0.40156555	7.911545	1.8278656
924023502658385	-0.7284851	7.9800415	2.1394958
924023511050719	-1.0219574	8.253754	2.36911
924023519443053	-1.1869507	8.753372	2.3301544
924023527835387	-1.1996307	9.286438	2.08609
924023536227721	-1.1627502	9.675964	1.940918
924023544620055	-0.9897461	9.896301	1.7345886
924023553012389	-0.71336365	9.937851	1.4301758
924023561404723	-0.43478394	9.803452	1.0549774
924023569797057	-0.2911682	9.524078	0.67836
924023578189391	-0.39187622	9.115295	0.43310547
924023586581725	-0.59373474	8.637726	0.28572083
924023594974059	-0.98709106	8.327835	0.119400024
924023603366393	-1.4094238	8.122345	-0.02507019
924023611758727	-1.708374	7.9394684	-0.12249756
924023620151061	-1.8557892	7.833786	-0.2303009
924023628543395	-1.6980896	7.69751	-0.2293396
924023636935729	-1.2319183	7.5568695	-0.17730713
924023645328063	-0.804718	7.5591736	-0.019500732
924023653720397	-0.5753784	7.7212677	0.22200012
924023662112731	-0.52752686	7.968277	0.4946289
924023670505065	-0.46842957	8.16893	0.7476959
924023678897399	-0.44702148	8.440521	0.9530792
924023687289733	-0.4552307	8.90181	1.0918732
924023695682067	-0.48220825	9.556183	1.1258087
924023704074401	-0.4655609	10.265152	1.1045074
924023712466735	-0.3804779	10.88327	1.0541687
924023720859069	-0.28785706	11.372437	0.9055786
924023729251403	-0.17358398	11.870956	0.74113464
924023737643736	-0.15931702	12.382233	0.57702637
924023746036070	-0.2950287	12.885681	0.3855133
924023754428404	-0.5700531	13.233551	0.18598938
924023762820738	-0.96965027	13.332016	-0.0063934326
924023771213072	-1.513443	13.238083	-0.21398926
924023779605406	-1.9888916	13.120926	-0.39556885
924023787997740	-2.0010223	13.188889	-1.6586914
924023796390074	-1.538147	13.614044	-3.6685944
924023804782408	-1.3535309	14.421677	-4.30278
924023813174742	-1.8977966	15.431	-2.24234
924023821567076	-2.0718536	16.161484	0.13015747
924023829959410	-2.51268	16.150375	-2.3217163
924023838351744	-2.7414703	15.606781	0.9032593
924023846744078	-2.8079681	13.860779	2.3693542
924023855136412	-3.9527435	11.356171	-5.7009125
924023863528746	-6.4887695	9.590057	-20.296463
924023871921080	-7.1769867	10.610184	-14.367371
924023880313414	-6.8253174	13.193451	-6.447708
924023888705748	-5.958603	15.520798	-3.6190033
924023897098082	-3.960022	16.804626	-2.2547302
924023905490416	-1.7250214	16.599426	-0.3560791
924023913882750	-0.36444092	15.210739	2.1048431
924023922275084	0.4746399	13.752594	3.5843964
924023930667418	0.9097748	12.844345	4.373169
924023939059752	0.7945862	12.5961	4.740814
924023947452086	0.43579102	12.847458	4.6356354
924023955844420	0.10209656	13.456467	4.208908
924023964236754	-0.13050842	14.415161	3.7697754
924023972629088	-0.5572357	16.218735	3.666092
924023981021422	-0.06211853	17.74643	3.434311
924023989413756	1.7945557	17.721634	3.8845367
924023997806090	4.075989	16.17865	5.061096
924024006198424	6.123108	13.55127	6.190872
924024014590758	7.243973	10.619797	6.206711
924024022983092	6.517807	8.202805	5.3588715
924024031375426	5.1039276	6.322052	4.4237213
924024039767760	3.9829865	5.0435486	3.4631653
924024048160094	3.1818848	4.0073853	2.6687317
924024056552428	2.6961365	3.2175446	2.215088
924024064944762	2.4080658	2.8292236	2.113968
924024073337096	1.9989929	2.86438	2.0954132
924024081729430	1.4319	3.052124	2.6071625
924024090121764	0.57377625	3.3710022	3.576828
924024098514098	-0.24467468	3.7292328	4.2361145
924024106906432	-0.47779846	3.9950256	4.398346
924024115298766	0.1537323	4.089676	4.3060303
924024123691100	0.74417114	4.1304474	4.1430054
924024132083434	1.0208282	4.1024323	3.6976166
924024140475768	1.0747528	4.0226746	3.3146362
924024148868102	1.2067719	3.7240295	2.4293976
924024157260436	1.644104	3.1446075	0.9519501
924024165652770	2.3648224	2.3983917	-0.48480225
924024174045104	2.92247	1.7572632	-0.27207947
924024182437438	3.5329285	1.407608	0.3659973
924024190829772	4.0003204	1.2068024	1.1381683
924024199222106	3.9910889	1.1783142	1.7849121
924024207614440	3.4363403	1.3153076	2.165741
924024216006774	2.5631409	1.6251373	2.2645264
924024224399108	1.7864532	2.3489685	2.1339264
924024232791442	1.6182709	3.4998016	1.8624725
924024241183776	1.6023102	5.044571	1.5131531
924024249576110	1.6979218	7.5945587	1.7778473
924024257968444	2.6854858	13.7357025	-1.774292
924024266360778	5.2291718	24.938156	-15.567429
924024274753111	6.7584076	32.033386	-37.043915
924024283145445	4.838043	30.878372	-34.98674
924024291537779	2.1045074	25.246414	-23.732986
924024299930113	-0.3800354	18.360733	-13.100891
924024308322447	-2.3277588	12.904587	-6.6514587
924024316714781	-3.8896484	10.1082	-2.3673859
924024325107115	-4.4898376	8.912796	0.8379822
924024333499449	-4.155899	8.839066	3.2348175
924024341891783	-2.5578918	9.568985	5.258438
924024350284117	-0.30358887	10.765625	7.0734253
924024358676451	1.6636963	12.302933	8.541641
924024367068785	2.4893188	14.271164	9.172775
924024375461119	2.937622	16.355606	7.72847
924024383853453	3.8728485	17.462631	6.1369934
924024392245787	5.1464386	16.638962	4.4007263
924024400638121	5.6548157	14.24408	2.559784
924024409030455	4.8902283	11.040558	0.3907318
924024417422789	3.4313507	7.8374023	-2.5294495
924024425815123	2.296753	5.3798065	-5.52446
924024434207457	1.6058807	4.2985992	-2.888504
924024442599791	1.1442108	3.5341187	-0.6097717
924024450992125	0.8270416	2.857727	0.47338867
924024459384459	0.64460754	2.299179	0.80378723
924024467776793	0.6725464	2.0642853	1.2532806
924024476169127	1.1173859	2.522766	1.8713989
924024484561461	1.7614288	3.9156952	2.2953339
924024492953795	2.2152557	5.895859	2.202942
924024501346129	2.4766083	8.057373	1.796402
924024509738463	2.6702728	9.990067	1.4459381
924024518130797	2.9322357	11.414917	1.4779358
924024526523131	3.2185059	11.955658	2.1797028
924024534915465	3.1864471	11.53125	2.7947235
924024543307799	2.7586212	10.585175	3.0654297
924024551700133	2.033783	9.451462	3.0453644
924024560092467	1.2159576	8.4001465	2.881195
924024568484801	0.5500183	7.604965	2.6910858
924024576877135	0.07543945	7.0845337	2.46875
924024585269469	-0.23103333	6.8839264	2.179367
924024593661803	-0.37548828	6.945175	2.1356812
924024602054137	-0.42155457	7.2022095	2.227234
924024610446471	-0.41038513	7.6051636	2.2731628
924024618838805	-0.30291748	8.157532	2.2108917
924024627231139	-0.053741455	8.823349	1.8507385
924024635623473	0.18829346	9.458801	1.4784851
924024644015807	0.19508362	9.9474945	1.1702728
924024652408141	-0.1030426	10.186569	0.8698578
924024660800475	-0.6717682	10.124695	0.5809021
924024669192809	-1.3693695	9.837341	0.45585632
924024677585143	-1.8773193	9.36618	0.26698303
924024685977477	-2.204712	8.979599	0.0057525635
924024694369811	-2.3215637	8.690796	-0.21694946
924024702762145	-2.251999	8.535049	-0.37960815
924024711154479	-2.0239258	8.545197	-0.49435425
924024719546813	-1.6216125	8.734009	-0.5659027
924024727939147	-1.0808716	8.86821	-0.6156006
924024736331481	-0.6031952	8.869919	-0.6646118
924024744723815	-0.2524109	8.862396	-0.69403076
924024753116149	-0.044525146	8.892151	-0.81773376
924024761508483	0.13368225	8.974136	-1.2312622
924024769900817	0.6078186	9.132767	-2.1250916
924024778293151	1.0002899	9.533066	-2.015747
924024786685485	1.1614838	10.215866	-0.28660583
924024795077819	1.4529419	11.116943	1.2211304
924024803470153	1.9013214	12.232361	2.1872559
924024811862486	2.2366943	13.432922	3.2471466
924024820254820	1.9913635	14.294998	5.2757263
924024828647154	0.9887543	14.1158905	6.801071
924024837039488	-0.14823914	13.457718	6.5141296
924024845431822	-1.6430969	12.833496	4.166046
924024853824156	-3.6131744	12.5737915	-0.6793518
924024862216490	-5.601715	12.827225	-6.5532074
924024870608824	-6.184784	13.510559	-8.0386505
924024879001158	-4.7752686	14.089035	-2.6601715
924024887393492	-4.190811	14.1011505	0.26565552
924024895785826	-4.5983276	13.619522	-0.33869934
924024904178160	-5.6309357	12.806091	-3.731018
924024912570494	-6.648102	11.943054	-7.3643494
924024920962828	-7.185486	11.39769	-6.910721
924024929355162	-5.189163	10.778366	-0.46609497
924024937747496	-3.5434723	10.867462	3.4844818
924024946139830	-2.3996735	11.620621	3.826126
924024954532164	-1.2549744	12.579483	1.4132233
924024962924498	0.24157715	13.340576	-1.5053558
924024971316832	1.1099854	14.286743	-2.142456
924024979709166	1.1761017	14.782791	0.107421875
924024988101500	0.5055084	14.969772	1.516571
924024996493834	-0.2862091	15.273346	2.1510925
924025004886168	-0.72898865	15.783386	1.8780518
924025013278502	-0.69200134	16.337006	0.781723
924025021670836	-0.38983154	16.811157	-0.23217773
924025030063170	-0.005050659	17.210175	-0.34788513
