linearaccelerometer_timestamp	linearaccelerometer_x_data	linearaccelerometer_y_data	linearaccelerometer_z_data
940124063057582	-0.67998755	0.3416853	-3.2275147
940124068062465	-1.3684562	0.6637924	-3.714675
940124073128383	-2.088917	1.1233437	-4.538287
940124078194301	-2.7971818	1.948653	-4.6017656
940124083260219	-3.609002	3.0388198	-4.6332927
940124088326136	-4.930348	4.0942183	-7.155583
940124093422572	-6.2624073	5.245762	-8.445301
940124098488490	-7.3972197	6.4739447	-8.152332
940124103554408	-8.882321	7.73337	-7.428878
940124108620326	-10.460728	8.966028	-6.526538
940124113686244	-12.250732	10.005863	-6.2493324
940124118752162	-13.659018	10.779999	-5.95191
940124123818080	-14.024338	11.075029	-4.6360006
940124128883998	-13.124521	10.866692	-4.039527
940124133949916	-11.114912	9.920288	-3.694998
940124139015834	-8.9846	8.273033	-3.4239345
940124144081752	-7.1910048	6.4330516	-3.2216475
940124149147670	-5.6693487	4.809379	-2.7263744
940124154213588	-4.6377754	3.68364	-2.3743665
940124159310023	-3.7060494	2.6007285	-2.1361244
940124164375941	-2.540882	1.4668603	-1.9902952
940124169441859	-2.1297708	0.6659837	-1.8251691
940124174507777	-0.79288244	-0.10018206	-2.0523167
940124179573695	0.8572655	-0.60193586	-2.0876372
940124184639613	2.2907405	-0.9239278	-1.6907654
940124189705531	3.628972	-1.1746788	-1.2155862
940124194771449	4.578865	-1.2260427	-0.70380354
940124199837367	5.217059	-1.2467637	-0.63557625
940124204903285	5.036918	-0.79368734	-0.42096138
940124209999720	4.0616417	0.21981907	0.17256546
940124215065638	3.191484	1.5098782	1.2616744
940124220131556	2.8150544	3.0286326	2.9975414
940124225197474	3.0181623	4.51604	5.024132
940124230263392	3.7525668	5.571116	6.4700294
940124235329310	4.85274	6.2983136	6.83671
940124240395228	5.748789	6.5167923	6.488399
940124245461146	6.2841153	6.638443	6.027368
940124250527064	6.5695148	6.4343443	5.844138
940124255592982	7.3394046	5.6383076	5.669632
940124260689418	8.15596	4.093029	5.229474
940124265755336	8.240004	2.1729183	4.572715
940124270821254	7.552217	0.45818424	3.5761335
940124275887172	6.349775	-0.6897936	2.1488688
940124280953090	5.3694296	-1.1535387	1.269141
940124286019008	4.9357967	-1.1653061	1.301939
940124291084926	4.1694098	-1.1244936	1.6122468
940124296150844	3.0560098	-1.2071075	1.753484
940124301247279	1.947757	-1.3418388	2.250754
940124306313197	0.84446096	-1.4418106	3.0172758
940124311379115	0.10024285	-1.5519981	3.438201
940124316445033	-0.26526928	-1.5852032	3.3836956
940124321510951	-0.44490647	-1.5353546	3.3715825
940124326576869	-0.6301279	-1.3630476	3.7609057
940124331642787	-0.92327476	-1.2274256	4.3042126
940124336708705	-1.16657	-1.0634565	4.7827497
940124341774623	-1.1874847	-0.98398304	5.0053043
940124346840541	-1.0491471	-0.9765425	5.145576
940124351936976	-0.92857575	-0.9252014	5.1669703
940124357002894	-0.8875828	-0.7004833	4.93125
940124362068812	-1.0667007	-0.22962189	4.4237623
940124367134730	-1.4736269	0.30760002	3.8348455
940124372200648	-1.9477937	0.7345228	3.2240286
940124377266566	-2.1925237	1.0976667	2.5973222
940124382332484	-2.160486	1.2774649	1.7646372
940124387398402	-1.7540028	1.2431326	1.1104122
940124392464320	-1.1854444	1.0788774	0.827916
940124397530238	-0.4102795	0.7826729	0.89374816
940124402626674	0.49819803	0.3961954	1.2676184
940124407692592	1.1256144	-0.05561924	1.9337935
940124412758510	1.3574905	-0.5026026	2.267597
940124417824427	1.4463916	-0.9808178	2.2324774
940124422890345	1.3475077	-1.4193335	1.8726671
940124427956263	1.1707642	-1.7158623	1.2963058
940124433022181	0.84126663	-1.9207144	0.5174422
940124438088099	0.42563128	-1.885786	-0.35058916
940124443154017	0.26900315	-1.7380667	-1.009968
940124448219935	0.28564477	-1.4479122	-1.3272966
940124453316371	0.18836689	-1.0711832	-1.4392651
940124458382289	-0.055407047	-0.7507267	-1.4698389
940124463448207	-0.43681264	-0.57620335	-1.4062177
940124468514125	-0.7243109	-0.49179077	-1.0893031
940124473580043	-0.8889489	-0.49564457	-0.5496248
940124478645961	-0.89125323	-0.5526953	-0.09367192
940124483711879	-0.7714459	-0.69935226	0.18656981
940124488777797	-0.6297165	-0.83054066	0.34345016
940124493874232	-0.45640123	-0.91334915	0.5679351
940124498940150	-0.2432288	-0.9220247	0.82614905
940124504006068	0.026132703	-0.8844757	1.0099914
940124509071986	0.19419265	-0.83653736	0.9191977
940124514137904	-0.074150205	-0.8552666	1.0241716
940124519203822	-0.36562777	-0.9033241	1.02647
940124524269740	-0.43704545	-0.7955618	0.76919127
940124529335658	-0.71103764	-0.66499996	0.34512722
940124534401576	-1.2467057	-0.70986366	-0.012080967
940124539467494	-1.7500724	-0.8669195	-0.4590562
940124544563929	-2.1812227	-1.047595	-0.9414993
940124549629847	-2.4818954	-1.2457762	-1.3092554
940124554695765	-2.7727392	-1.2857265	-1.3461239
940124559761683	-2.9647965	-1.3313332	-1.2262521
940124564827601	-3.1547952	-1.4359331	-1.0944487
940124569893519	-3.252386	-1.5491219	-0.86976826
940124574959437	-3.213009	-1.639986	-0.66306573
940124580025355	-3.0660725	-1.668292	-0.41454017
940124585121791	-2.849263	-1.6499529	-0.22669196
940124590187709	-2.8291354	-1.5567217	-0.053411722
940124595253627	-2.7274065	-1.3689375	0.090824485
940124600319545	-2.6796875	-1.1133575	0.2310822
940124605385463	-2.7814953	-0.8237381	0.33071136
940124610451381	-2.975664	-0.5110092	0.3084395
940124615517299	-3.061946	-0.17181301	0.19277012
940124620583217	-3.0567012	0.20311165	-0.033136725
940124625649135	-2.967546	0.5232229	-0.311126
940124630715052	-2.939421	0.87806606	-0.6155299
940124635811488	-3.0284016	1.1164427	-1.0348312
940124640877406	-3.0149627	1.4126959	-1.4093432
940124645943324	-2.9994829	1.6843042	-1.672461
940124651009242	-3.0207381	1.8362856	-1.681695
940124656075160	-3.0888538	1.9988956	-1.5319613
940124661141078	-3.0407085	2.1338787	-1.1854444
940124666237513	-2.9701633	2.2472143	-0.8306657
940124671272914	-2.8722906	2.2285395	-0.7373024
940124676369349	-2.9074798	2.072877	-0.7888782
940124681435267	-3.0940125	1.9026375	-0.7599919
940124686501185	-3.3399138	1.8345652	-0.6443354
940124691567103	-3.7580333	1.8157635	-0.50279415
940124696633021	-4.1073995	1.8827763	-0.41208184
940124701698939	-4.4004717	1.9910822	-0.46014857
940124706764857	-4.6817226	2.040596	-0.5371567
940124711830775	-4.912444	2.05437	-0.7254331
940124716927211	-4.993531	2.0861273	-0.81764054
940124721993129	-5.1400285	2.0763502	-0.8907006
940124727059047	-5.211119	2.1357937	-1.0129514
940124732124965	-5.3547015	2.2460442	-1.2841071
940124737190883	-5.2915	2.277091	-1.527062
940124742256801	-4.935072	2.3150606	-1.4696037
940124747322719	-4.357168	2.2042274	-1.09812
940124752388636	-3.8789072	1.8730602	-0.45587707
940124757454554	-3.6890643	1.4241533	0.05242157
940124762520472	-3.6273174	0.9903822	0.37231344
940124767586390	-3.3826184	0.653924	0.18587846
940124772682826	-3.0438051	0.21584034	-0.009498119
940124777748744	-2.6576905	-0.37752628	-0.10062009
940124782814662	-1.887107	-0.9725361	-0.2424835
940124787880580	-0.765689	-1.4605246	-0.4680584
940124792946498	0.32255137	-1.7571964	-0.82082206
940124798012416	1.0123837	-1.6729069	-1.0737995
940124803078334	1.6100063	-1.2119637	-1.2697756
940124808144252	1.975546	-0.3810587	-1.5607331
940124813210170	2.1159322	0.6192093	-1.7482042
940124818276088	2.1742923	1.7357731	-1.8629804
940124823372523	2.1036897	2.9445744	-1.998275
940124828438441	2.1032832	4.257865	-1.8328985
940124833504359	2.2456064	5.432271	-1.4147849
940124838570277	2.620046	6.187272	-0.8592395
940124843636195	3.118011	6.4923286	-0.22525269
940124848702113	3.7241938	6.605753	0.64294386
940124853798549	4.231726	6.5642376	1.5882837
940124858864467	4.780431	6.3715925	2.5160785
940124863930385	5.1902213	6.0354214	3.0564992
940124868996302	5.3583183	5.52897	3.0688367
940124874062220	5.34354	4.655569	2.734298
940124879158656	5.195472	3.7176762	2.3443937
940124884224574	4.86514	3.1123343	1.8173472
940124889290492	4.4236	2.771802	1.160261
940124894356410	3.4111187	2.639944	0.4185462
940124899422328	1.9075077	2.5096607	-0.29970813
940124904488246	0.24807978	2.4527216	-1.0358449
940124909554164	-1.3660727	2.5822868	-1.2741022
940124914620082	-2.5950646	2.8464174	-1.5271274
940124919686000	-3.0149558	3.196827	-1.6515136
940124924751918	-2.3072948	3.482544	-1.3873967
940124929848353	-1.143496	3.4046822	-1.3650924
940124934914271	-0.6204834	2.9138288	-1.3456935
940124939980189	-1.0961719	2.1673527	-0.65689766
940124945046107	-1.1363716	1.4120588	-0.48212838
940124950112025	-0.8743458	0.92765427	-0.24927855
940124955177943	-0.710937	0.4000969	0.059315205
940124960243861	-0.5117378	-0.17756557	0.39007258
940124965309779	1.4197402	-0.8966265	2.0200865
940124970375697	5.590356	-1.9150953	5.007491
940124975472133	5.7082796	-2.5019922	1.9364572
940124980538051	-0.584425	-2.9977102	-2.1917443
940124985603969	-4.3449736	-3.294054	-0.6779146
940124990669886	2.0067682	-3.738719	2.3613029
940124995735804	0.8863182	-4.2936025	0.22746253
940125000801722	2.1696239	-4.4037995	0.70751476
940125005867640	1.7408028	-4.295509	-0.053064823
940125010933558	1.7453256	-4.2109494	0.42398572
940125016029994	1.7140222	-3.9858203	0.35536838
940125021095912	1.967761	-3.8174224	0.26427722
940125026161830	2.6534414	-3.9422517	1.0029736
940125031227748	3.5901427	-4.1021743	1.7214162
940125036293666	3.819254	-3.98062	1.8116217
940125041359584	4.093887	-3.9183364	2.0803597
940125046425502	4.1962805	-3.816278	2.4430776
940125051491420	4.5309196	-3.7459874	2.8059502
940125056557338	4.5367227	-3.7071242	2.7869477
940125061623256	4.42625	-3.640058	2.8782325
940125066719691	4.407472	-3.696406	3.0131555
940125071785609	4.470739	-3.6947694	3.0211177
940125076851527	4.565981	-3.8167043	2.9637508
940125081917445	4.695805	-3.7973895	3.0677614
940125086983363	4.856958	-3.8116236	2.9368992
940125092049281	4.859151	-3.8511968	2.7746553
940125097115199	5.002684	-3.9496803	2.7681146
940125102181117	4.9679008	-4.0546956	2.6687744
940125107247035	5.0298924	-4.109288	2.6048954
940125112343470	5.021491	-4.2533336	2.4481444
940125117409388	4.782594	-4.4517107	2.2271035
940125122475306	4.548722	-4.600582	1.9742928
940125127541224	4.2562118	-4.7107863	1.6153665
940125132607142	3.8857841	-4.7335353	1.2801421
940125137673060	3.6851802	-4.794217	0.87020373
940125142738978	3.4435616	-4.7219653	0.21138144
940125147804896	3.1097836	-4.5837865	-0.3122599
940125152870814	2.6126466	-4.364169	-0.8010793
940125157967250	2.0336452	-3.9979	-1.6641314
940125163033168	1.2815733	-3.353611	-2.3455079
940125168099086	0.4391346	-2.4811802	-3.0826993
940125173165004	-0.6641426	-1.3142028	-3.8546624
940125178230922	-1.8918896	0.20999384	-5.116317
940125183296840	-3.249774	1.916656	-5.798622
940125188362758	-4.898657	3.5604916	-5.269119
940125193428676	-6.6320853	5.0981317	-4.7103276
940125198494594	-8.117399	6.508929	-7.2023726
940125203591029	-9.954987	7.7459345	-7.641858
940125208656947	-11.574131	8.953564	-6.349991
940125213722865	-12.740122	9.878841	-5.632889
940125218788783	-12.990688	10.403456	-5.2123666
940125223854701	-11.796678	10.46954	-5.078201
940125228920619	-10.47356	9.84408	-5.1851425
940125233986537	-8.876843	8.809571	-5.038339
940125239052455	-6.8889256	7.212778	-4.647415
940125244118373	-5.404013	5.377404	-4.4986157
940125249184291	-4.3048096	3.516242	-3.7975087
940125254250209	-3.0918403	1.7411451	-3.716919
940125259346644	-1.8094182	0.4095826	-3.5344453
940125264412562	-0.2709732	-0.52719927	-3.4512312
940125269478480	1.122057	-1.0805659	-3.1643116
940125274544398	2.108398	-0.91323376	-2.9847078
940125279610316	2.5384173	-0.073131084	-2.6691449
940125284676234	2.3428822	1.1593623	-2.1544428
940125289742152	2.1718078	2.629108	-1.2703545
940125294838588	2.460761	3.8246799	-0.03970313
940125299904506	3.120749	4.631668	1.447417
940125304970424	4.4065	5.0054574	3.129981
940125310036342	5.889327	4.939685	5.1145
940125315102260	7.0925713	4.8167295	6.6212025
940125320168177	7.597005	4.8577986	6.6258764
940125325234095	7.6677747	5.0276203	5.4861336
940125330300013	7.3988037	4.6177855	4.777651
940125335396449	7.3142085	3.0867996	5.36944
940125340462367	7.1558523	0.77970314	6.1063476
940125345528285	6.458418	-1.6749964	5.987938
940125350594203	5.783064	-3.4398527	4.9660664
940125355660121	5.651119	-4.147977	3.3650448
940125360726039	6.169488	-3.7687273	1.800088
940125365791957	6.358218	-2.9291553	0.6673362
940125370857875	5.9838123	-2.1203508	0.06255567
940125375923793	5.0083375	-1.5173941	-0.23158991
940125380989711	3.6849542	-1.0472956	-0.10605955
940125386055629	2.4726343	-0.46082497	1.076573
940125391152064	1.5333095	0.33342266	2.487104
940125396217982	0.97013426	1.1079874	3.0261383
940125401283900	0.7602949	1.5686693	2.8184657
940125406349818	0.32227325	1.4360743	2.4305837
940125411415736	-0.20700455	0.9184141	2.6375036
940125416481654	-0.5482516	0.4627409	3.3414593
940125421547572	-0.62103343	0.24738789	4.0135593
940125426613490	-0.5546508	0.17115974	4.6313467
940125431709926	-0.39705038	0.12227726	4.9085584
940125436775844	-0.48029828	0.20022297	4.9189987
940125441841761	-0.82685304	0.5317526	4.7125854
940125446907679	-1.4640744	0.9018831	4.3381724
940125451973597	-1.9107685	1.2151499	3.8789313
940125457039515	-2.2699726	1.3499641	3.25636
940125462105433	-2.4097662	1.3889961	2.7284229
940125467171351	-2.0463693	1.2844706	2.2886393
940125472237269	-1.2603645	1.062933	1.928035
940125477303187	-0.42729783	0.65803623	1.8308467
940125482399623	6.2060356E-4	0.24691391	1.714332
940125487465541	0.46075034	-0.23829079	1.6582808
940125492531459	1.1440837	-0.83709717	1.7989371
940125497597377	1.542789	-1.291502	1.7502016
940125502663295	1.6630795	-1.7641125	1.3552028
940125507729213	1.4394419	-2.1284342	1.1569791
940125512795131	1.0959432	-2.1964788	1.3155184
940125517861049	0.9010234	-2.2188292	1.2124021
940125522926967	0.71932817	-2.0477924	0.8551071
940125527992885	0.4517603	-1.8582525	0.45809212
940125533089320	0.19327688	-1.5443983	-0.024292514
940125538155238	0.030426025	-1.1449385	-0.46866006
940125543221156	-0.10976577	-0.8561802	-0.73798865
940125548287074	-0.11722946	-0.5908289	-0.79625285
940125553352992	-0.111276865	-0.47903347	-0.6951453
940125558418910	-0.05790043	-0.40704155	-0.50404507
940125563484828	-0.035266638	-0.47263145	-0.28509572
940125568550746	-0.14619184	-0.7064295	-0.015505105
940125573616664	0.10795188	-0.8418617	0.1259459
940125578713099	0.07014918	-0.84832764	0.4095231
940125583779017	-0.10643983	-1.00529	0.61800134
940125588844935	0.15150309	-1.1356392	0.8541174
940125593910853	0.33144188	-1.2380848	1.077888
940125598976771	0.20059931	-1.2934542	1.2907227
940125604042689	0.10047269	-1.2791119	1.4310827
940125609108607	-0.14295101	-1.3313532	1.4209566
940125614174525	-0.41568696	-1.3664503	1.1010904
940125619270961	-0.57854307	-1.3654318	0.465635
940125624336879	-0.85571	-1.2757664	-0.22643906
940125629402797	-1.1267655	-1.1847954	-0.6889558
940125634468715	-1.2834802	-1.1247511	-0.96388143
940125639534633	-1.3802614	-1.1301804	-0.96351606
940125644600551	-1.57982	-1.1818438	-0.8337325
940125649666469	-1.737775	-1.2832623	-0.73168844
940125654732386	-1.7746164	-1.3329401	-0.55525094
940125659798304	-1.9402044	-1.3549032	-0.41302133
940125664864222	-2.1206868	-1.3360281	-0.27275968
940125669960658	-2.3781939	-1.2262449	-0.25077665
940125675026576	-2.5666442	-1.0303831	-0.14952266
940125680092494	-2.7790146	-0.79636574	-0.20109534
940125685158412	-3.107607	-0.4764862	-0.3212701
940125690224330	-3.3856072	-0.08291721	-0.41060984
940125695290248	-3.5422986	0.27787304	-0.5524851
940125700356166	-3.6549296	0.70504093	-0.70802546
940125705422084	-3.7132955	1.0705605	-1.0186404
940125710488002	-3.8277822	1.4246912	-1.2984222
940125715584437	-3.9322445	1.705308	-1.4732995
940125720650355	-3.87269	1.8802805	-1.5296836
940125725716273	-3.736451	1.9760237	-1.510312
940125730782191	-3.663978	2.0474901	-1.4922912
940125735848109	-3.6296253	2.064784	-1.3318692
940125740914027	-3.6904597	2.1174345	-0.991881
940125745979945	-3.9014964	2.2230883	-0.6167996
940125751045863	-4.0294094	2.2800217	-0.46312046
940125756111781	-4.0756927	2.143937	-0.66440964
940125761208217	-4.080968	1.9241695	-1.0013242
940125766274135	-4.304696	1.6881533	-1.1904031
940125771340052	-4.586596	1.5650759	-1.1631542
940125776405970	-5.058005	1.5618296	-1.0102844
940125781471888	-5.29117	1.7258453	-0.94684005
940125786537806	-5.414372	1.9754324	-1.0033532
940125791603724	-5.5422754	2.2196474	-1.1244738
940125796669642	-5.615268	2.468092	-1.2361192
940125801735560	-5.583392	2.7362719	-1.289325
940125806801478	-5.5411615	2.9835253	-1.5319989
940125811867396	-5.22081	3.119132	-1.6751219
940125816933314	-4.582852	3.0992146	-1.5006808
940125821999232	-3.8690174	2.743947	-0.9628931
940125827065150	-3.4781291	2.1856098	-0.2438469
940125832131068	-3.325377	1.6074266	0.39115024
940125837196986	-3.2993753	0.9665375	0.7628841
940125842262904	-3.1577108	0.46032524	0.8851482
940125847328822	-2.905381	-0.017534256	0.7616734
940125852425258	-2.2663581	-0.6852474	0.58727276
940125857491176	-1.339752	-1.3579884	0.49578398
940125862557094	-0.5093429	-1.9923449	0.22592223
940125867623011	0.273898	-2.4327192	-0.38999704
940125872688929	1.0069419	-2.434496	-0.8934729
940125877754847	1.7102857	-1.9268742	-1.3994323
940125882851283	2.1196737	-1.0121765	-1.9500717
940125887917201	2.2712727	0.28962898	-2.2005455
940125892983119	2.3851984	1.8980684	-2.2453513
940125898049037	2.3515787	3.6337137	-2.1621373
940125903114955	2.5222473	5.1609936	-1.8373464
940125908180873	3.1624136	6.3703814	-1.1818168
940125913246791	3.7843199	7.049349	-0.2218715
940125918312709	4.1915684	7.348357	1.0171776
940125923378627	4.7077465	7.3980227	2.2544384
940125928475062	5.2096443	7.2729464	3.2627091
940125933540980	5.607298	6.8503675	3.8678875
940125938606898	5.953868	6.3184233	3.936457
940125943672816	6.198717	5.606992	3.5168915
940125948738734	6.1022816	4.7802505	2.9571438
940125953804652	5.6313944	4.209506	2.3196135
940125958870570	5.0764246	3.8992767	1.2102464
940125963936488	4.1738296	3.7877064	0.11692798
940125969002406	2.8261976	3.6984682	-0.49695253
940125974068324	1.1363583	3.6082	-1.0133737
940125979134242	-0.9690416	3.5369244	-1.2609198
940125984230677	-2.7497826	3.5295143	-1.5310683
940125989296595	-3.3444984	3.713729	-1.547348
940125994362513	-2.7025068	3.7304935	-1.2858949
940125999428431	-1.5287967	3.5147753	-1.1068453
940126004494349	-0.72030354	3.2446175	-1.0324652
940126009560267	-1.0378089	2.7067137	-0.7753303
940126014626185	-1.5668006	1.889329	-0.7109499
940126019692103	-1.8683853	1.2015467	-0.51130056
940126024758021	-2.0049977	0.70650005	-0.295012
940126029854457	-1.7295346	0.1754036	0.20886064
940126034920375	5.0567374	-0.75367165	7.580422
940126039986293	3.488328	-2.0706062	3.5935287
940126045052211	-4.0747385	-2.534768	-2.580318
940126050118129	2.3360262	-2.7368937	3.5254736
940126055184047	1.1394029	-3.7723513	1.1270661
940126060249965	-1.0426731	-4.227325	-1.1795857
940126065315883	-1.4672804	-4.3110657	-1.8638167
940126070381801	-1.095716	-4.6927443	-1.0564349
940126075447719	0.39274693	-5.21084	0.42930126
940126080544154	0.79310274	-5.267227	0.6372862
940126085610072	1.5506043	-5.4072347	1.1472948
940126090675990	2.1682792	-5.4250364	1.0552979
940126095741908	3.306507	-5.4746184	1.7819612
940126100807826	4.5006337	-5.5288215	2.2851076
940126105873744	5.096104	-5.5172777	2.1152275
940126110939662	5.1453214	-5.3684196	2.3017116
940126116005580	5.5053387	-5.1043797	2.3756318
940126121071498	5.374229	-4.825673	2.4136317
940126126137416	5.0628552	-4.6242943	2.4305713
940126131233851	5.0602703	-4.525362	2.4449031
940126136299769	5.057055	-4.531216	2.533997
940126141365687	4.944869	-4.3979692	2.8274534
940126146431605	4.999996	-4.3050838	3.0666707
940126151497523	5.249846	-4.3491917	3.078123
940126156563441	5.6133757	-4.544311	3.068153
940126161629359	5.619098	-4.694288	3.1290886
940126166725795	5.682404	-4.701616	3.1202023
940126171791713	5.567202	-4.8248067	2.9330606
940126176857631	5.455685	-4.907532	2.672011
940126181923549	5.400856	-5.0074916	2.4004586
940126186989467	5.148661	-5.110411	2.2165794
940126192085902	4.87613	-5.148437	1.9799793
940126197151820	4.6834316	-5.0330143	1.7165315
940126202217738	4.3954697	-4.7632394	1.4267325
940126207283656	4.0024505	-4.445511	1.1090565
940126212349574	3.4598303	-4.141775	0.75131345
940126217415492	2.8615775	-3.7908597	0.15054083
940126222511927	2.2189388	-3.279344	-0.5270746
940126227577845	1.3452477	-2.5565681	-1.1643686
940126232643763	0.4899168	-1.5762925	-1.8569043
940126237709681	-0.29996395	-0.3243146	-2.485537
940126242775599	-1.3100877	1.0143018	-2.9314487
940126247841517	-2.450189	2.4555383	-3.2495
940126252907435	-3.5617027	3.898377	-3.9116936
940126257973353	-5.4999194	5.183767	-3.414389
940126263039271	-7.312216	6.693186	-4.925436
940126268105189	-8.700318	8.371531	-8.779864
940126273171107	-10.632233	9.627884	-8.015149
940126278267543	-12.00478	10.409946	-6.269276
940126283333461	-11.891237	10.58445	-5.340722
940126288399379	-10.739851	9.884117	-5.1424074
940126293465297	-9.589636	8.354709	-5.2036443
940126298531215	-8.290823	6.5183806	-5.3685875
940126303597133	-6.8817835	4.895151	-5.269916
940126308663051	-5.7813153	3.2755852	-4.5210247
940126313728969	-5.1226788	1.7294245	-4.0980825
940126318794886	-4.35763	0.39510918	-3.809425
940126323891322	-3.247725	-0.7416191	-3.8901517
940126328957240	-1.7628655	-1.7193813	-3.7067847
940126334023158	-0.3775382	-2.5003724	-3.3127432
940126339089076	0.86574984	-2.9544659	-2.977757
940126344154994	2.2427135	-2.8704953	-2.6190314
940126349220912	3.1758323	-2.2229004	-2.421789
940126354286830	3.3838396	-0.9029517	-2.017047
940126359352748	3.014182	1.2021413	-1.3584232
940126364418666	2.7048807	3.3520608	-0.28650928
940126369484584	2.575088	5.222609	1.4561706
940126374581019	2.935748	6.731917	3.261167
940126379646937	4.043697	7.7019796	5.028001
940126384712855	5.6513386	8.271717	6.66718
940126389778773	7.3242936	8.585133	7.4801245
940126394844691	8.26722	8.522952	6.6779523
940126399910609	8.825841	7.7894115	4.597178
940126404976527	8.933674	5.9160347	2.6765242
940126410042445	8.39538	2.9720783	1.9436395
940126415138881	6.9748693	-0.13307953	2.1856194
940126420204799	5.3479996	-2.37893	2.651507
940126425270717	4.621828	-3.3568935	2.5813823
940126430336635	4.257397	-3.5738049	1.7476966
940126435402552	3.852281	-3.1458273	0.6191561
940126440468470	3.4297094	-2.3145056	0.2783736
940126445534388	2.8126817	-1.4091187	0.67225456
940126450600306	1.9236655	-0.83810997	1.1357597
940126455666224	0.90783453	-0.5098219	1.6231635
940126460762660	0.08608961	-0.2730093	2.3185785
940126465828578	-0.34285927	-0.08953476	3.0201821
940126470894496	-0.7527571	-0.06448078	3.5136049
940126475960414	-1.0762911	-0.20911694	3.9252641
940126481026332	-1.111927	-0.36703205	4.3865075
940126486092250	-0.78669643	-0.42498493	4.906053
940126491158168	-0.36487508	-0.26966095	5.3971767
940126496224086	-0.02246499	-0.14282608	5.517724
940126501290004	0.3058772	-0.18337536	5.316811
940126506355922	0.59055877	-0.087067604	4.9105864
940126511452357	0.7753358	0.28225422	4.4839244
940126516518275	0.7055111	0.750721	3.9826546
940126521584193	0.51069474	1.1703215	3.2683976
940126526650111	0.09195304	1.4063911	2.5923624
940126531716029	-0.20125675	1.4818497	2.0622818
940126536781947	0.07352185	1.3979273	1.8125713
940126541847865	0.7487273	1.2646399	1.7522142
940126546913783	1.2669277	1.0200567	1.8507726
940126552010219	1.5899184	0.53167343	1.8883122
940126557076136	1.8904185	-0.10668945	1.9366854
940126562142054	2.268061	-0.53068256	1.930029
940126567207972	2.3556316	-0.9392147	1.7364552
940126572273890	2.0961878	-1.493804	1.2523117
940126577339808	1.8654354	-1.921917	0.8286488
940126582405726	1.5200057	-2.245409	0.5379828
940126587471644	1.1665325	-2.2817383	0.28516233
940126592568080	0.93972397	-1.9826641	0.079315156
940126597633998	0.89697075	-1.5733547	-0.21760869
940126602699916	0.79623127	-1.1903725	-0.41400746
940126607765834	0.5179117	-0.8181696	-0.5486914
940126612831752	0.2001977	-0.62537575	-0.50909007
940126617897670	0.09318757	-0.55333424	-0.2527976
940126622963588	0.07027459	-0.53506374	0.064299844
940126628029506	0.07002592	-0.48214436	0.40950498
940126633095424	0.13163185	-0.57388496	0.7057121
940126638161342	0.22131777	-0.7037554	0.86585784
940126643257777	0.26087976	-0.8024292	1.0005407
940126648323695	0.26518822	-0.97737026	1.2697902
940126653389613	0.27844596	-1.0097666	1.4326911
940126658455531	0.15755701	-1.0072918	1.4456193
940126663521449	0.071416855	-1.0130358	1.3095877
940126668587367	0.10489082	-0.97916317	1.1223936
940126673653285	0.08876753	-0.90447044	0.94549716
940126678719203	-0.16498876	-0.8773012	0.78986114
940126683785121	-0.58385193	-0.96924686	0.44643116
940126688851039	-0.9682981	-1.1024847	0.06828982
940126693916957	-1.4015844	-1.2257376	-0.32211214
940126698982875	-1.8006723	-1.4120083	-0.7121028
940126704079310	-2.0971675	-1.594346	-1.0153031
940126709145228	-2.3268602	-1.7953949	-1.138761
940126714211146	-2.495121	-1.9661407	-1.1775992
940126719277064	-2.5818167	-2.09585	-1.155772
940126724342982	-2.615622	-2.1498966	-1.0362201
940126729408900	-2.6477137	-2.1582232	-0.8368726
940126734474818	-2.5879283	-2.0777884	-0.6557795
940126739540736	-2.6389818	-1.9205589	-0.57076776
940126744606654	-2.7331772	-1.6435099	-0.5676389
940126749672572	-2.8483467	-1.2706718	-0.5197333
940126754738490	-2.9015176	-0.85594654	-0.34339142
940126759804408	-2.9581046	-0.4400301	-0.17569542
940126764870326	-3.1038284	-0.042207718	-0.1973139
940126769966761	-3.2729714	0.28485775	-0.3080908
940126775032679	-3.2568896	0.5686369	-0.43754447
940126780098597	-3.1662097	0.8341818	-0.6547482
940126785164515	-3.153561	1.0694962	-0.97095
940126790230433	-3.1955385	1.3115549	-1.2851601
940126795296351	-3.2461758	1.5495739	-1.5410447
940126800362269	-3.1425738	1.7691259	-1.5867677
940126805428187	-3.0171638	1.9844818	-1.4258705
940126810524623	-3.021427	2.110711	-1.2900453
940126815590541	-3.0566454	2.2100248	-1.0593858
940126820656459	-3.068416	2.2369928	-0.9396217
940126825722377	-2.9795783	2.1200533	-0.97285795
940126830788295	-2.9794822	1.8500423	-1.1431097
940126835854213	-3.3192742	1.4668798	-1.2079688
940126840920131	-3.6678746	1.2959757	-1.0314914
940126846016566	-4.076026	1.3488951	-0.8259684
940126851082484	-4.464629	1.5201483	-0.8212316
940126856148402	-4.720126	1.7175522	-0.96220374
940126861214320	-4.762474	1.9865513	-1.0890496
940126866280238	-4.90505	2.0462637	-1.3001949
940126871346156	-4.9747176	2.022542	-1.4953091
940126876412074	-4.8444357	1.9668198	-1.5522709
940126881477992	-4.826816	1.7965488	-1.4775398
940126886543910	-4.9481483	1.5893965	-1.1692833
940126891609828	-4.8571024	1.444334	-0.5993494
940126896675746	-4.8513074	1.4828863	-0.20183861
940126901741664	-4.7732897	1.6149988	-0.09999466
940126906807582	-4.444301	1.8835802	-0.092867255
940126911873500	-4.130204	2.0735655	0.0048942566
940126916969935	-4.013852	2.165018	0.1834963
940126922035853	-3.8317122	2.058095	0.20142686
940126927101771	-3.4841433	1.5932531	0.032713532
940126932167689	-2.7103686	0.6842737	-0.20729989
940126937233607	-1.4289845	-0.33185673	-0.44822544
940126942299525	-0.1757943	-1.3373337	-0.8170711
940126947365443	0.8647214	-2.1464415	-1.3925242
940126952431361	1.542413	-2.4220314	-1.9111501
940126957527797	2.0273833	-2.1729364	-2.3162992
940126962593715	2.5239794	-1.4989672	-2.5270097
940126967659633	3.0197945	-0.37892437	-2.3808312
940126972725551	3.3859577	1.0853453	-2.1172976
940126977791469	3.2354124	2.599783	-1.833616
940126982857386	2.8725953	4.052206	-1.224466
940126987923304	2.820106	5.0898266	-0.3535633
940126992989222	2.8051314	5.615817	0.7053749
940126998055140	2.6596558	5.981229	1.7303455
940127003151576	2.570595	6.1074553	2.6013885
940127008217494	2.6745162	6.184293	3.3470564
940127013283412	2.840315	6.203945	3.6301477
940127018349330	3.0393271	5.9473486	3.2882872
940127023415248	3.0317519	5.2904367	2.7555401
940127028481166	2.9286432	4.630658	2.2998154
940127033547084	2.6714156	4.334594	1.7716318
940127038613002	2.000229	4.3222885	1.4428604
940127043709437	0.84549	4.1648626	1.0660928
940127048775355	-0.5824673	3.9376802	0.54333663
940127053841273	-2.5998936	3.6678	-0.21967125
940127058907191	-4.220863	3.4908237	-1.0370538
940127063973109	-4.6393147	3.6616926	-1.5038552
940127069039027	-3.7017658	3.8771334	-1.299903
940127074104945	-1.8272853	3.834405	-1.1054885
940127079170863	-0.7262242	3.4307938	-0.6210159
940127084236781	-0.4594159	2.952242	-0.24109387
940127089302699	-0.14027643	2.704132	-0.20970273
940127094368617	-0.027527332	2.4430962	-0.63085103
940127099465052	0.07426405	2.199544	-0.85603595
940127104530970	-0.08591795	1.7063761	-0.42737937
940127109596888	0.04123497	0.9516525	0.30080295
940127114662806	0.52966404	0.08870125	1.1274683
940127119728724	1.6780562	-0.7547083	2.5230258
940127124794642	6.2126484	-2.0132437	9.65771
940127129860560	2.188325	-2.783175	2.1761546
940127134926478	2.085266	-2.9972863	2.0021932
940127139992396	0.14369917	-3.239243	-3.842374
940127145088832	1.4212823	-3.661891	-1.7883172
940127150154750	2.5914893	-4.0240164	0.728976
940127155220668	1.4662066	-3.9055996	-0.67982006
940127160286586	1.2104769	-3.8329282	-0.8258803
940127165352504	2.1533346	-4.0185266	0.65928054
940127170418422	2.5814948	-4.2336826	0.74906564
940127175484340	3.346417	-4.3866544	0.9139495
940127180550258	4.020148	-4.466657	1.4386537
940127185616176	4.329276	-4.4090266	1.8492012
940127190712611	4.570759	-4.327352	2.2341757
940127195778529	4.633503	-4.249526	2.5432463
940127200844447	4.6821475	-4.287993	2.9158416
940127205910365	4.678145	-4.483296	3.2409034
940127210976283	4.5560284	-4.726378	3.2481647
940127216042201	4.3868785	-4.8774815	3.3423347
940127221108119	4.2751465	-4.9346476	3.239832
940127226174037	4.401658	-5.0777125	3.1235294
940127231239955	4.3483477	-5.221996	3.1256635
940127236305873	4.4614797	-5.1968837	3.195607
940127241402308	4.5701833	-5.2682757	3.1422787
940127246468226	4.6848893	-5.3739753	2.9417844
940127251534144	4.7260404	-5.4759097	2.8477821
940127256600062	4.7038107	-5.62087	2.7682498
940127261665980	4.778641	-5.734775	2.7278013
940127266731898	4.6934705	-5.8403335	2.5923784
940127271797816	4.544068	-5.8729024	2.4221623
940127276863734	4.402939	-5.903053	2.1566677
940127281929652	4.2300572	-5.9057026	1.8024275
940127287026088	4.042761	-5.7627473	1.2962477
940127292092006	3.751441	-5.633932	0.54248357
940127297157924	3.432438	-5.4917927	-0.23628092
940127302223842	3.05822	-5.121026	-1.0843804
940127307289760	2.5392647	-4.5778527	-1.8940258
940127312355677	1.9318695	-3.8393412	-2.663364
940127317421595	1.2872033	-2.8502378	-3.4330206
940127322487513	0.3922987	-1.4954085	-4.1112595
940127327583949	-0.9359791	0.24201202	-4.6168804
940127332649867	-2.3343496	2.2712207	-5.256112
940127337715785	-4.21673	4.322872	-5.2199354
940127342781703	-6.134664	6.405975	-4.43013
940127347847621	-7.242555	8.763934	-5.816455
940127352913539	-8.715576	10.935288	-7.671955
940127357979457	-10.938202	12.998351	-7.6893444
940127363045375	-12.761162	14.497626	-7.1208763
940127368111293	-13.080121	15.293951	-6.5824614
940127373207728	-12.149504	14.843366	-6.2044907
940127378273646	-10.603928	12.777869	-5.860917
940127383339564	-8.099848	9.543248	-5.0362597
940127388405482	-6.1557293	5.9578714	-4.187352
940127393471400	-5.1487904	3.0508986	-3.6475232
940127398537318	-4.0581527	0.54742336	-3.3360362
940127403603236	-2.9585438	-1.5542221	-3.1182528
940127408669154	-1.460784	-3.572299	-2.782293
940127413735072	-0.04206133	-5.0075073	-2.4248486
940127418800990	1.2879109	-6.1758966	-2.263096
940127423897426	2.5040698	-6.7424054	-2.0783496
940127428963344	3.2148137	-6.757452	-2.0201936
940127434029261	3.5664158	-6.614491	-1.8052053
940127439095179	3.7697425	-6.114321	-1.0536554
940127444161097	3.7599316	-5.1240287	0.19573736
940127449227015	3.8787656	-3.5869718	1.9752638
940127454292933	4.6274962	-1.7813644	3.1588104
940127459358851	5.8131843	0.26223946	3.1130095
940127464455287	7.1327324	2.6687646	2.6774619
940127469521205	7.939782	5.385507	2.995165
940127474587123	7.9448276	8.359077	4.6257224
940127479653041	7.4842296	10.971025	6.36367
940127484718959	7.422036	12.832733	6.7482853
940127489784877	7.7294164	13.311074	5.8077
940127494850795	7.766776	11.694585	4.771765
940127499916713	6.3403473	8.515818	4.609576
940127504982631	3.2550695	5.049835	4.426636
940127510048549	0.36707425	2.6799107	2.7096577
940127515144984	-2.0351498	1.3777218	0.806129
940127520210902	-2.8732474	0.94372654	0.04182601
940127525276820	-2.8246315	0.95602894	0.9421302
940127530342738	-2.9118953	0.9191103	1.9284816
940127535408656	-2.9920042	0.38314152	2.4430132
940127540474574	-2.9497044	-0.7629242	3.5021107
940127545540492	-2.390021	-1.9220886	4.3141985
940127550606410	-1.6468377	-2.8767977	4.0733843
940127555702845	-0.95205474	-3.3666677	3.4201958
940127560768763	-0.35181832	-3.2522688	3.1432843
940127565834681	0.049207687	-2.929059	3.2276983
940127570900599	0.29485297	-2.602025	2.9911115
940127575966517	0.5312302	-2.1366243	2.6922817
940127581032435	0.93039656	-1.5238781	2.601499
940127586098353	1.803546	-0.83790016	2.7043877
940127591164271	2.7047923	-0.19385815	2.7830667
940127596230189	3.4120474	0.54707813	2.830051
940127601296107	3.9484918	1.3310385	2.6410956
940127606392543	4.1151	1.8969793	2.3217125
940127611458461	3.7746506	2.1876268	2.3082483
940127616524379	3.3745456	2.1137981	2.8080635
940127621590297	2.9439282	1.7466326	3.5160644
940127626656215	2.4401498	1.3520241	4.074833
940127631722133	2.109048	0.79384613	4.49335
940127636818568	1.8337872	0.26585102	4.7595367
940127641884486	1.5851405	-0.10504532	4.833204
940127646950404	1.3149152	-0.5285578	4.6621327
940127652016322	0.87654376	-0.9664755	4.1179934
940127657082240	0.4417367	-1.2826529	2.992169
940127662148158	0.12780952	-1.5551796	1.4865535
940127667244594	-0.28791642	-1.6649103	-0.008767545
940127672310511	-0.5462532	-1.5379343	-1.0381017
940127677376429	-0.5161388	-1.3588696	-1.7108172
940127682442347	-0.50243545	-1.1181364	-1.941806
940127687508265	-0.65909576	-0.8265095	-1.5678706
940127692574183	-0.95171475	-0.61556244	-0.7062179
940127697640101	-1.194624	-0.72683144	0.0024208352
940127702736537	-1.0878367	-0.9545202	0.466373
940127707802455	-0.73109674	-1.2315474	0.6593357
940127712868373	-0.22549498	-1.4132929	0.6385547
940127717934291	0.21728277	-1.6110535	0.5187579
940127723000209	0.58888483	-1.818778	0.60414755
940127728066127	0.7971548	-1.906146	0.8104175
940127733132045	0.9903294	-1.9557438	1.1370603
940127738197963	1.1848301	-2.0752525	1.6315413
940127743263881	1.0722274	-2.1809187	1.926321
940127748329799	0.9790778	-2.2011862	1.7275356
940127753395717	1.1321839	-2.0084095	1.2943562
940127758461635	0.94106305	-1.8455935	0.83714265
940127763527552	0.4195434	-1.7127647	0.22247702
940127768623988	0.008367658	-1.5000658	-0.30837363
940127773689906	-0.42884874	-1.3152084	-0.739859
940127778755824	-1.0550764	-1.1904974	-1.0657775
940127783821742	-1.6394508	-1.1759949	-1.234451
940127788887660	-2.1307323	-1.2308512	-1.2350438
940127793953578	-2.445411	-1.3297691	-1.0254459
940127799019496	-2.687727	-1.4606466	-0.78709996
940127804085414	-2.8539968	-1.5217438	-0.600573
940127809181849	-2.9612067	-1.5596876	-0.40027964
940127814247767	-3.0227246	-1.5744295	-0.26352823
940127819313685	-3.067126	-1.4810505	-0.23820162
940127824379603	-3.206151	-1.256918	-0.26196742
940127829445521	-3.3363585	-0.9260731	-0.2629261
940127834511439	-3.2529655	-0.52210045	-0.2613852
940127839577357	-3.175899	-0.04636383	-0.34424627
940127844673793	-3.1372848	0.41252995	-0.6150265
940127849739711	-3.195481	0.7445278	-0.9984387
940127854805629	-3.1829681	1.0345793	-1.5407244
940127859871547	-3.0841696	1.2802877	-1.9187864
940127864937465	-3.1380548	1.5437708	-2.0656657
940127870003383	-3.309385	1.8356285	-1.9917591
940127875069301	-3.598732	2.0671482	-1.6485418
940127880135219	-3.915758	2.2597094	-1.2539648
940127885201136	-3.9289925	2.3940287	-0.9781736
940127890267054	-3.9063737	2.3051577	-1.0781294
940127895332972	-4.0604844	2.034151	-1.1682994
940127900398890	-4.473656	1.6555729	-1.0699213
940127905495326	-4.954768	1.4052515	-0.9040412
940127910561244	-5.5840073	1.4289513	-0.58786726
940127915627162	-5.971906	1.5625381	-0.46240437
940127920693080	-6.195237	1.7102318	-0.5597303
940127925758998	-6.293616	1.9365816	-0.6860888
940127930824916	-6.305723	2.1315575	-0.8751643
940127935890834	-6.1172767	2.3131332	-1.0348972
940127940956752	-5.854389	2.4418392	-1.074189
940127946022670	-5.5401573	2.560732	-1.0941485
940127951119105	-5.1639137	2.7103605	-1.1511233
940127956185023	-4.655037	2.9408474	-1.0518653
940127961250941	-3.9852664	3.0104942	-0.71045506
940127966316859	-3.508899	2.9373655	-0.265635
940127971382777	-3.3675842	2.636716	0.16909432
940127976448695	-3.2552078	2.166277	0.16540474
940127981514613	-3.1241465	1.9616337	0.005827546
940127986580531	-2.9380975	1.576787	-0.19892085
940127991646449	-2.451262	0.8472662	-0.4170547
940127996742885	-1.8017018	0.24129868	-0.49600112
940128001808802	-0.90924144	-0.31380558	-0.63388383
940128006874720	-0.066426635	-0.6084986	-0.7983314
940128011940638	0.57018346	-0.52318764	-1.0836914
940128017006556	1.0718659	-0.0854063	-1.4078238
940128022072474	1.5116313	0.796875	-1.6022347
940128027138392	2.040906	2.0159893	-1.7106795
940128032204310	2.5464172	3.4046955	-1.9059913
940128037300746	2.9988713	4.845085	-2.0354125
940128042366664	3.3846912	5.9330597	-1.5833652
940128047432582	4.0081606	6.7203035	-0.74091953
940128052498500	4.7622046	7.030608	0.45580328
940128057564418	5.2288504	6.8180428	1.6256175
940128062630336	5.4387445	6.428837	2.6650374
940128067696254	5.5213375	6.0893497	3.390226
940128072762172	5.4336843	5.7307367	3.470975
940128077828090	5.39498	5.255973	3.1958146
940128082924525	5.119999	4.4695387	2.62012
940128087990443	4.506192	3.7232332	1.7943494
940128093056361	3.8268607	3.2627802	0.90570307
940128098122279	3.4418173	3.1138964	-0.13902974
940128103188197	2.843811	3.156969	-0.86394846
940128108254115	1.4577818	3.1795502	-1.1351293
940128113320033	-0.2257793	3.1173153	-1.4565566
940128118385951	-1.5488288	2.99687	-1.6284556
940128123482386	-2.2710662	2.8353672	-1.4970193
940128128548304	-2.3960853	2.7269926	-1.3206276
940128133614222	-2.0662584	2.5645905	-1.0362581
940128138680140	-1.1031749	2.339468	-0.39045668
940128143746058	-0.33736348	1.6401482	-0.016517282
940128148811976	-0.5089145	1.0211992	-0.095314264
940128153877894	-1.2909937	0.4286394	0.21994472
940128158943812	-1.655911	-0.09555435	0.23217988
940128164009730	-1.3789923	-0.30282307	0.7070205
940128169075648	-0.631866	-0.5477514	1.4945815
940128174172084	8.102918	-1.434124	8.958063
940128179238002	-1.3118491	-2.447733	-0.2667656
940128184303920	-2.8667226	-2.0588198	0.33950377
940128189369838	1.024466	-2.381978	2.1175528
940128194435756	0.42351294	-3.287815	1.7901912
940128199501674	0.6741624	-3.6460285	1.0500643
940128204567592	-0.9567661	-3.6857681	-1.5996592
940128209633510	-0.20492792	-3.9211626	-0.1680913
940128214699427	0.21171856	-3.893034	-0.066657305
940128219795863	1.1672826	-3.9255438	0.21249151
940128224861781	1.8728504	-4.06592	0.6003945
940128229927699	2.336329	-4.3225117	1.0169933
940128234993617	2.5248413	-4.2322493	1.0339494
940128240059535	3.3450027	-4.2192087	1.3293762
940128245125453	3.7491746	-4.316779	1.4282393
940128250191371	3.9944248	-4.3226476	1.7610941
940128255257289	4.6030607	-4.348032	2.0498214
940128260323207	4.6902523	-4.3327556	2.2447464
940128265389125	4.519674	-4.2840242	2.3914576
940128270485560	4.5717807	-4.322849	2.649192
940128275551478	4.1264243	-4.2270565	2.996898
940128280617396	4.1454005	-4.243245	3.1006765
940128285683314	4.3401585	-4.3596063	3.0770836
940128290749232	4.45417	-4.4457994	3.2275414
940128295815150	4.424687	-4.45665	3.1835876
940128300881068	4.6740246	-4.5864244	2.9897254
940128305946986	4.9287558	-4.701352	2.8467295
940128311012904	4.8729467	-4.788479	2.9000652
940128316078822	4.7153625	-4.9402537	2.8972538
940128321175258	4.643842	-5.0767703	2.842459
940128326241176	4.6768575	-5.1990294	2.7281036
940128331307094	4.5706105	-5.278268	2.5241103
940128336373011	4.416134	-5.3896403	2.1721914
940128341438929	4.2382765	-5.4397087	1.7745347
940128346504847	4.0725136	-5.4428043	1.3087945
940128351570765	3.9232864	-5.335381	0.79701185
940128356636683	3.6827683	-5.112445	0.14295292
940128361733119	3.3686242	-4.7944903	-0.6139319
940128366799037	2.7634482	-4.3317757	-1.4327288
940128371864955	2.1504772	-3.5880227	-2.45642
940128376930873	1.3880806	-2.567924	-3.29945
940128381996791	0.2986982	-1.1396832	-3.9704518
940128387062709	-0.86256504	0.6513214	-4.5369334
940128392128627	-2.498026	2.5293016	-4.917588
940128397194545	-4.187128	4.3709354	-4.847125
940128402260463	-6.0322638	6.1526356	-4.0153284
940128407356898	-7.5393143	7.949337	-3.3722854
940128412422816	-8.262547	10.2082815	-8.2095375
940128417488734	-10.011444	12.191696	-7.7556944
940128422554652	-12.243129	13.492524	-6.779235
940128427620570	-12.784567	13.866877	-6.5971622
940128432686488	-11.913179	12.831091	-6.6290665
940128437752406	-10.687585	10.710599	-6.551017
940128442818324	-8.1442995	8.081006	-6.05186
940128447884242	-5.989723	5.2362995	-5.213201
940128452980677	-4.975008	2.7988462	-4.624763
940128458046595	-4.0569134	0.7873411	-4.316362
940128463112513	-2.7821774	-0.96439457	-4.3565207
940128468178431	-1.3695607	-2.5663471	-4.010395
940128473244349	-0.05596876	-3.914877	-3.7497208
940128478310267	1.4101467	-4.7480326	-3.4555643
940128483376185	2.7898512	-5.219928	-3.0959864
940128488442103	3.87531	-5.3705177	-2.8544037
940128493508021	4.344003	-5.252906	-2.54076
940128498604457	3.9752116	-4.7186394	-1.7900369
940128503670375	3.4662523	-3.493692	-0.44782734
940128508736293	3.2173524	-1.7680583	1.2736857
940128513802211	3.6996207	0.0051207542	2.9436922
940128518868129	4.754843	1.8109436	3.8380911
940128523934047	6.016859	3.6987076	3.5834231
940128528999965	7.071727	5.7317467	3.0053082
940128534065883	7.460558	7.7311563	3.4243417
940128539131801	7.0099144	9.328943	4.9604673
940128544197719	7.009097	10.328923	6.7907605
940128549294154	7.5670514	10.146565	7.555297
940128554360072	8.411617	8.521628	6.3347254
940128559425990	8.380071	5.91677	4.442037
940128564491908	7.0360785	3.3034716	3.2167628
940128569557826	5.008513	1.4803095	2.4933476
940128574623744	3.2177005	0.8763132	1.7633791
940128579689662	1.9655511	0.94943047	1.0682251
940128584755580	1.1925828	1.1604643	0.9660208
940128589821498	0.48472166	1.4618082	1.3870531
940128594917933	0.022004128	1.8832941	2.1941326
940128599983851	-0.34136844	1.7920504	2.910842
940128605049769	-0.6799922	1.2531614	3.066168
940128610115687	-0.8443847	0.5314989	2.8999226
940128615181605	-1.0815711	-0.44670868	2.7247162
940128620247523	-1.3237617	-1.3892298	2.7666798
940128625313441	-1.144695	-1.9325294	3.2281237
940128630379359	-0.4746709	-2.171279	3.9104877
940128635445277	0.10893631	-2.3946886	4.510743
940128640541713	0.4562955	-2.6275358	4.918422
940128645607631	0.9001579	-2.5166178	4.9428406
940128650673549	1.2801752	-1.9585066	4.887168
940128655739467	1.6775639	-1.104022	4.6437316
940128660805385	1.8061974	-0.0017271042	4.1285834
940128665871302	1.5229969	1.0536566	3.3153973
940128670937220	1.2642417	2.0304794	2.4966362
940128676003138	1.11094	2.6432934	2.038441
940128681099574	1.0343947	2.7204514	1.8686016
940128686165492	0.9396899	2.4005432	1.8529505
940128691231410	1.0557218	1.92665	2.1678913
940128696297328	1.0782971	1.3348227	2.4466677
940128701363246	1.1505146	0.67646885	2.488903
940128706429164	1.2776673	0.07452679	2.6481848
940128711495082	1.2585742	-0.5107794	2.504715
940128716561000	1.10415	-1.1131248	1.986402
940128721626918	0.78590465	-1.6645012	1.5375671
940128726723353	0.18417716	-2.0444603	1.1358689
940128731789271	-0.1385653	-2.187542	0.7413212
940128736855189	-0.20854473	-2.2437792	0.4916361
940128741921107	-0.29421496	-2.0520048	0.16852808
940128746987025	-0.102707386	-1.8134241	-0.1446431
940128752052943	0.07044101	-1.4886284	-0.2890784
940128757118861	0.08297467	-1.3001089	-0.25633207
940128762184779	-0.06523037	-1.3254738	0.080992945
940128767250697	0.012483597	-1.4223299	0.49696863
940128772316615	0.17493105	-1.5226564	0.7780701
940128777413051	0.32104087	-1.6085529	1.0485634
940128782478969	0.43584144	-1.5112953	1.351539
940128787544886	0.46181774	-1.4546509	1.5323212
940128792610804	0.37044656	-1.4348774	1.7023704
940128797676722	0.22423744	-1.317956	1.7404351
940128802742640	0.2042005	-1.1828156	1.4817872
940128807808558	0.12929106	-1.2158728	1.1649493
940128812874476	-0.23996377	-1.2183695	0.8487329
940128817940394	-0.58280766	-1.1498175	0.3535936
940128823036830	-0.82719946	-1.0535631	-0.08100015
940128828102748	-1.1180785	-1.0779915	-0.47005355
940128833168666	-1.3379456	-1.3020544	-0.77934736
940128838234584	-1.5222739	-1.6108246	-0.87317353
940128843300502	-1.8341745	-2.009018	-0.9149085
940128848366420	-2.1924214	-2.4319334	-0.941048
940128853432338	-2.4706688	-2.8066025	-0.95720196
940128858498256	-2.712535	-2.9763908	-0.99871886
940128863564174	-2.8680453	-2.9893436	-0.9751373
940128868660609	-3.004635	-2.8132524	-0.7891988
940128873726527	-2.9228678	-2.5473938	-0.5139081
940128878792445	-2.739966	-2.222848	-0.19486332
940128883858363	-2.5736508	-1.9698877	-0.067104936
940128888924281	-2.4283667	-1.7501287	0.08974385
940128893990199	-2.2524781	-1.4701443	0.056565166
940128899056117	-2.0646648	-1.2482805	-0.04566431
940128904122035	-2.067549	-0.97563744	-0.035868883
940128909187953	-2.2064602	-0.5638828	-0.10933876
940128914253871	-2.3422225	-0.06593609	-0.2516774
940128919319789	-2.4480128	0.48201084	-0.48061597
940128924416224	-2.5774612	1.1083527	-0.90718126
940128929482142	-2.6871462	1.6453743	-1.327707
940128934548060	-2.9849694	2.0942316	-1.6942145
940128939613978	-3.270296	2.3688688	-1.9050964
940128944679896	-3.5065851	2.4383526	-1.8854539
940128949745814	-3.863031	2.3926058	-1.7042197
940128954811732	-4.1643834	2.2628212	-1.5197847
940128959908168	-4.560222	2.102869	-1.4329319
940128964974086	-4.746327	1.8937349	-1.371399
940128970040004	-4.762902	1.6439781	-1.4068478
940128975105922	-4.9451423	1.4267054	-1.3346326
940128980171840	-5.2395673	1.3914185	-1.0396521
940128985237758	-5.3716536	1.5809412	-0.8691343
940128990303676	-5.4615183	1.8383493	-0.97950625
940128995369594	-5.4436927	2.183896	-1.1470269
940129000435511	-5.31971	2.4943705	-1.2559284
940129005531947	-5.2193046	2.7040281	-1.271394
940129010597865	-5.14429	2.8475895	-1.2516468
940129015663783	-4.919739	3.062501	-1.0916858
940129020729701	-4.84748	3.2887087	-1.046422
940129025795619	-4.7493114	3.4339857	-1.266414
940129030861537	-4.4291635	3.6227427	-1.4589989
940129035927455	-3.9879751	3.8010693	-1.236492
940129040993373	-3.775711	3.8960047	-0.5983068
940129046059291	-3.7287326	3.859663	0.14343965
940129051155726	-3.5880582	3.7136211	0.819458
940129056221644	-3.3414397	3.4713593	0.94703794
940129061287562	-3.107258	2.9885416	0.60949576
940129066353480	-2.5773678	2.2085342	0.20442647
940129071419398	-1.8232439	1.3904562	-0.117989
940129076485316	-0.9588641	0.66995335	-0.4718868
940129081551234	-0.009643912	-0.18219566	-0.7901858
940129086617152	0.845836	-0.9453945	-1.021074
940129091683070	1.2290218	-1.2618179	-1.4518743
940129096748988	1.4017357	-1.1280642	-2.1379473
940129101845424	1.612365	-0.4546337	-2.7140245
940129106911342	1.8344191	0.6756315	-2.9937155
940129111977260	1.7781148	1.8764391	-3.1183014
940129117043177	1.7039022	3.1828022	-2.939529
940129122109095	1.9546937	4.2493334	-2.4787636
940129127175013	2.3838	5.018923	-1.9676253
940129132240931	2.7859972	5.4735346	-1.1000862
940129137306849	3.1548533	5.861308	0.07527572
940129142372767	3.4449167	6.088997	1.1120005
940129147469203	3.8467984	6.2359447	1.9525844
940129152535121	4.10824	6.260353	2.5203815
940129157601039	4.2851353	6.0460997	3.007226
940129162666957	4.333529	5.6027594	3.2568817
940129167732875	4.2365646	4.9882126	3.1285186
940129172798793	4.064821	4.3756695	2.5267687
940129177864711	3.74877	3.868186	1.9209069
940129182930629	2.9263961	3.6216373	1.5166094
940129187996547	1.4752319	3.4773397	1.0881529
940129193062465	-0.4464016	3.3731031	0.68374765
940129198158900	-1.769836	3.3857765	0.042043686
940129203224818	-2.215543	3.458187	-0.5530586
940129208290736	-2.3469536	3.4978094	-0.5924485
940129213356654	-2.0028894	3.397828	-0.36544335
940129218422572	-1.7312658	3.0366554	-0.3911693
940129223488490	-1.581141	2.3470173	-0.3851266
940129228554408	-1.4523249	1.6096592	-0.2773534
940129233650844	-1.2813659	1.3085518	0.06703615
940129238716761	-1.25859	1.0303783	0.14578032
940129243782679	-0.7044897	0.83098984	0.1267178
940129248848597	-0.40610075	0.49227142	0.7611394
940129253914515	0.42187452	0.10050106	1.8880706
940129258980433	6.292096	-1.4024868	11.665319
940129264046351	1.2926908	-1.4088898	0.34953833
940129269112269	3.0249057	-1.9673643	3.3531237
940129274178187	-0.23504114	-2.31108	-3.7445538
940129279244105	0.18692732	-2.733169	-2.9826295
940129284310023	1.7803721	-3.4058218	-0.75961137
940129289406459	2.1859698	-3.8805509	-0.19538093
940129294472377	1.9115849	-3.9927812	-0.65744567
940129299538295	2.129993	-4.075937	-0.15804625
940129304604213	2.6150293	-4.1732674	0.573539
940129309670131	3.0886493	-4.3712606	1.2314086
940129314736049	3.6819224	-4.560348	1.8062582
940129319801967	4.261419	-4.79261	2.1761212
940129324867885	4.400981	-4.901472	2.5401964
940129329964320	4.4518495	-4.950476	2.6557667
940129335030238	4.4875984	-5.133855	2.7417963
940129340096156	4.2668786	-5.1765804	2.6267989
940129345162074	4.166851	-5.268052	2.7522774
940129350227992	4.142345	-5.443005	2.8613136
940129355293910	4.020396	-5.489653	2.9533172
940129360359828	4.0201874	-5.5816407	3.0875628
940129365425746	4.1787143	-5.677159	3.3115077
940129370491664	4.2211137	-5.7390738	3.6211467
940129375588099	4.3818717	-5.724497	3.7375603
940129380654017	4.6455393	-5.780756	3.685363
940129385719935	4.761173	-5.8123107	3.6625695
940129390785853	4.878847	-5.8993297	3.6265001
940129395851771	4.935646	-5.984535	3.433978
940129400917689	4.8410573	-6.0681295	3.2218204
940129405983607	4.6945767	-6.138247	2.916713
940129411049525	4.5776734	-6.1543202	2.523124
940129416115443	4.4688954	-6.1164474	2.053878
940129421211879	4.2986846	-6.038023	1.6281765
940129426277797	4.0280337	-5.923323	1.0670512
940129431343715	3.7046084	-5.6934633	0.37423062
940129436409633	3.2385292	-5.456006	-0.307508
940129441475551	2.6762187	-5.118628	-1.0457561
940129446541469	2.0210965	-4.4562407	-1.728296
940129451607386	1.323211	-3.5702734	-2.399233
940129456673304	0.5824294	-2.3549762	-3.0865185
940129461769740	-0.14191985	-0.71937037	-3.6996672
940129466835658	-1.4494665	1.1237774	-4.3362103
940129471901576	-2.9626226	3.170414	-4.728863
940129476967494	-4.1577797	5.4978914	-4.7747183
940129482033412	-5.902569	7.9290466	-5.2396097
940129487099330	-7.640786	10.509292	-6.082752
940129492165248	-9.93084	13.029121	-6.3901386
940129497231166	-12.3293	15.111652	-6.9172583
940129502297084	-13.358037	16.164404	-7.137489
940129507393519	-12.664924	15.543696	-6.8128057
940129512459437	-11.506817	13.464583	-6.4683185
940129517525355	-8.716563	10.349239	-6.393066
940129522591273	-6.175276	6.737422	-6.198555
940129527657191	-5.3071313	3.9512415	-5.849782
940129532723109	-4.503485	1.8740664	-5.5142794
940129537789027	-3.3105464	-0.26686	-5.2121353
940129542854945	-2.1337776	-2.2017918	-4.7872224
940129547920863	-0.82586145	-3.5725737	-4.1440315
940129552986781	0.52617884	-4.697755	-3.4578068
940129558083217	1.9147754	-5.3113537	-2.6233563
940129563149135	3.3832946	-5.474161	-2.2469478
940129568215052	4.3250213	-5.4124293	-1.7855422
940129573280970	4.2184353	-5.144529	-1.1889074
940129578346888	3.7831717	-4.5417676	-0.56013346
940129583412806	3.599176	-3.5697808	0.8716986
940129588478724	3.7097635	-2.0978346	2.6056962
940129593544642	4.3870773	-0.30351543	3.265186
940129598610560	5.646845	1.8268042	2.7102423
940129603706996	6.605036	4.2339582	2.1243863
940129608772914	6.898882	6.6558094	2.8759809
940129613838832	6.9708614	8.749782	5.04116
940129618904750	6.8827896	10.221439	6.9110107
940129623970668	6.921501	10.924738	6.9003325
940129629036586	7.025115	10.167545	5.569811
940129634102504	6.7120943	8.102201	4.085972
940129639168422	5.8387046	5.776739	3.259568
940129644234340	3.8056202	3.5329733	2.6352482
940129649300258	1.7063231	2.0014734	1.9849787
940129654366176	0.32144523	1.3370457	1.4392619
940129659462611	-0.57407784	0.84116936	1.4385575
940129664528529	-0.8864844	0.49476147	1.8248882
940129669594447	-0.93890715	0.21377468	2.237533
940129674660365	-1.0672517	-0.24381542	2.709024
940129679726283	-1.1568468	-1.0836086	3.2457721
940129684792201	-1.0857606	-2.0718393	3.36627
940129689858119	-0.8593173	-2.7918406	3.394151
940129694924037	-0.6283729	-3.1729822	3.721201
940129699989955	-0.5019715	-3.1507902	4.103058
940129705086390	-0.114946604	-2.8094196	4.266905
940129710152308	0.44903612	-2.4742537	4.1404305
940129715218226	0.73425126	-2.0931292	3.8186536
940129720284144	1.0123739	-1.5565643	3.600566
940129725350062	1.4016778	-0.81355286	3.3833156
940129730415980	1.6207292	0.11097813	3.1875958
940129735481898	1.7144196	1.0382929	2.919117
940129740578334	1.5368083	1.8337879	2.4559383
940129745644252	1.3339009	2.491229	1.8345537
940129750710170	1.3939338	2.86973	1.4713755
940129755776088	1.5306981	2.868268	1.480243
940129760842006	1.5967495	2.5093346	1.8079798
940129765907924	1.8247731	1.9361916	2.2513633
940129770973842	2.3166325	1.2474985	3.1162982
940129776039760	2.4869223	0.5310421	3.6528594
940129781105677	2.2995882	-0.25486088	3.9482834
940129786171595	1.8184536	-0.95008373	4.1193433
940129791268031	1.1485147	-1.5491867	3.7873662
940129796333949	0.6274419	-1.9819403	3.0501618
940129801399867	0.093835115	-2.2252007	2.2419012
940129806465785	-0.39330363	-2.2616997	1.4194224
940129811531703	-0.5932026	-2.203226	0.6793084
940129816597621	-0.63803506	-2.0225182	0.12822618
940129821663539	-0.5972681	-1.6647539	-0.17387576
940129826729457	-0.6011865	-1.3440428	-0.28035796
940129831825892	-0.76142955	-1.2145739	-0.20056346
940129836891810	-0.8899329	-1.0810328	0.23739904
940129841957728	-0.8032404	-1.0474939	0.675483
940129846993129	-0.7252159	-1.1389103	0.9144447
940129852089564	-0.53846884	-1.2225876	0.99524
940129857155482	-0.14888263	-1.3892164	1.1751119
940129862221400	0.29881442	-1.545414	1.1230721
940129867287318	0.6424123	-1.5978203	0.9664577
940129872353236	0.77220094	-1.5895195	1.0083896
940129877449672	0.7415751	-1.591259	1.3562934
940129882515590	1.0981565	-1.4118509	1.2136286
940129887581508	1.1525517	-1.1903715	0.9997208
940129892647426	0.7728596	-1.1780481	0.62401766
940129897713344	0.6776093	-1.0831356	0.024559736
940129902779261	0.42654037	-0.871356	-0.6783583
940129907845179	-0.010697961	-0.7318506	-1.2282295
940129912911097	-0.4801222	-0.6609411	-1.4984139
940129917977015	-1.0847299	-0.7110863	-1.665859
940129923042933	-1.7262717	-0.8677139	-1.5305406
940129928139369	-2.2866914	-1.0600758	-1.177353
940129933205287	-2.7008522	-1.229372	-0.75160915
940129938271205	-2.9763978	-1.4197817	-0.28278786
940129943337123	-3.2160215	-1.5737906	0.091312945
940129948403041	-3.3702052	-1.6721659	0.30368185
940129953468959	-3.4646966	-1.6646833	0.2563852
940129958534877	-3.5634398	-1.5549183	0.00541687
940129963600795	-3.6919687	-1.2962055	-0.2678703
940129968666713	-3.7849166	-0.9161606	-0.45493114
940129973763148	-3.6759217	-0.41494465	-0.6551163
940129978829066	-3.6242268	0.15341759	-0.89123774
940129983894984	-3.6365263	0.6894407	-1.157569
940129988960902	-3.6163359	1.2957668	-1.4421967
940129994026820	-3.5558465	1.8310213	-1.6125797
940129999092738	-3.5524302	2.274705	-1.7264006
940130004158656	-3.6020033	2.53224	-1.7492731
940130009224574	-3.718687	2.7255735	-1.6338611
940130014290492	-3.9416764	2.8294811	-1.4777348
940130019356410	-4.197921	2.756688	-1.2854183
940130024452845	-4.2978053	2.6221647	-1.3848827
940130029518763	-4.426967	2.3412952	-1.6682644
940130034584681	-4.668439	2.0567684	-1.8108064
940130039650599	-4.962798	1.9290438	-1.7486918
940130044716517	-5.315102	1.9748001	-1.4747475
940130049782435	-5.573721	2.1017551	-1.2702358
940130054848353	-5.614708	2.2726984	-1.2256359
940130059944789	-5.634491	2.352481	-1.3537014
940130065010707	-5.636959	2.3687372	-1.4943295
940130070076625	-5.396786	2.378954	-1.5995687
940130075142543	-5.142142	2.3711338	-1.6199576
940130080208461	-5.0123467	2.3356085	-1.4121766
940130085274379	-4.8773317	2.302146	-1.0679975
940130090340297	-4.6435776	2.2705297	-0.9742609
940130095406215	-4.372553	2.250268	-1.043283
940130100472133	-3.8240309	2.191184	-1.1272576
940130105538051	-3.4406152	1.9392195	-0.95833397
940130110603969	-3.4099822	1.785326	-0.564589
940130115700404	-3.2864835	1.5729465	-0.1311065
940130120766322	-2.9809058	1.0237913	0.24011505
940130125832240	-2.442783	0.28081417	0.4038387
940130130898158	-1.7147403	-0.42224884	0.34034443
940130135964076	-0.9919847	-1.1926613	0.06782395
940130141029994	-0.26274532	-1.814723	-0.46138188
940130146095912	0.4962733	-2.0371342	-1.2133821
940130151161830	1.2938898	-1.8193903	-2.0687535
940130156258265	2.0449858	-1.0898314	-2.4440074
940130161324183	2.862439	0.15250587	-2.3633113
940130166390101	3.3259604	1.8215656	-2.2224371
940130171456019	3.3155024	3.5336142	-2.1166964
940130176521937	3.3573508	5.092822	-1.4043791
940130181587855	3.766581	6.1319685	-0.27246535
940130186653773	4.2278934	6.5313644	1.1067734
940130191719691	4.532021	6.5476627	2.4854436
940130196785609	4.688405	6.369028	3.5527081
940130201882045	4.7265596	6.090561	4.198825
940130206947963	4.964798	5.7042475	4.155599
940130212013881	4.967824	5.2604437	3.6208744
940130217079799	4.5181527	4.673028	2.8181472
940130222145717	3.92424	4.157298	1.8858392
940130227211635	3.2511678	4.0591536	1.0424169
940130232277552	2.5991013	4.3243084	0.13441277
940130237343470	1.613322	4.665991	-0.6288307
940130242409388	0.5067713	4.8827915	-0.997584
940130247505824	-1.1060688	4.8249464	-1.293725
940130252571742	-2.5278246	4.5811396	-1.3361546
940130257637660	-3.286268	4.2163496	-1.2350595
940130262703578	-3.2648032	3.7544937	-1.2512472
940130267769496	-2.260463	3.2899466	-0.82623386
940130272835414	-0.7610986	2.8297873	-0.37520993
940130277901332	0.035927534	2.3229055	-0.26630366
940130282967250	-0.6572547	1.746254	-0.21207023
940130288033168	-1.3718352	1.2539377	-0.43836355
940130293099086	-1.6705911	0.80361366	-0.33423638
940130298195521	-1.4356852	0.5457821	-0.040204525
940130303261439	-0.9034097	0.3294487	0.49869967
940130308327357	-0.18488932	-0.17369461	1.0879779
940130313393275	1.335885	-1.0653515	3.7776697
940130318459193	4.4760957	-2.4818678	9.408369
940130323525111	0.3561306	-2.5247478	0.30099535
940130328591029	1.8569369	-3.0656319	3.7102137
940130333656947	0.8542013	-3.6389027	-0.030668974
940130338722865	-0.44282103	-3.7390847	-2.843706
940130343788783	1.2121892	-3.8111906	-0.8572159
940130348885219	0.9091382	-4.0367765	-1.3297019
940130353951136	1.1172671	-4.2275033	-1.1106648
940130359017054	2.1904888	-4.490958	0.19521666
940130364082972	2.8853884	-4.8725886	0.93781567
940130369148890	3.3931928	-5.0461564	1.4596133
940130374214808	3.7500782	-5.1815057	1.6842158
940130379280726	4.257671	-5.3049426	1.9915149
940130384346644	4.359256	-5.31592	2.2965233
940130389412562	4.595348	-5.4177065	2.632358
940130394478480	4.6152596	-5.4679255	2.8474433
940130399544398	4.6632943	-5.588594	2.867484
940130404610316	4.2507687	-5.746246	2.975299
940130409676234	3.8711534	-5.689998	3.0704184
940130414742152	4.068492	-5.6811733	3.0238254
940130419838588	4.385865	-5.77839	3.0355573
940130424904506	4.2611012	-5.6838875	3.2200067
940130429970424	4.4481077	-5.557023	3.3206565
940130435036342	4.6656604	-5.4709063	3.3551643
940130440102260	4.843569	-5.468579	3.3624349
940130445168177	4.9034586	-5.4891844	3.160957
940130450234095	4.9822016	-5.492361	2.941071
940130455300013	4.9511237	-5.3385053	2.7434301
940130460365931	4.895773	-5.1725717	2.5504017
940130465462367	4.7625294	-5.0843644	2.21554
940130470528285	4.5050545	-4.9551964	1.9734375
940130475594203	4.2568064	-4.75533	1.7034204
940130480660121	4.087803	-4.5385633	1.3211434
940130485726039	3.8683243	-4.3191457	0.81512594
940130490791957	3.5790403	-4.1099486	0.03668666
940130495857875	3.126622	-3.7622194	-0.86716366
940130500923793	2.4967577	-3.1382089	-1.8200517
940130505989711	1.7764056	-2.1911755	-2.7224898
940130511086146	1.0045114	-0.89604044	-3.5910368
940130516152064	-0.075736046	0.64887476	-4.4689007
940130521217982	-1.6816823	2.2227764	-5.350196
940130526283900	-3.4552922	3.8932028	-5.9718723
940130531349818	-5.217492	5.614169	-6.349102
940130536415736	-7.2868595	7.3879423	-4.98474
940130541481654	-8.445484	9.519865	-6.1586323
940130546547572	-10.13164	11.672556	-7.9898925
940130551613490	-11.802472	13.097725	-7.6923885
940130556679408	-12.295856	13.680326	-8.029989
940130561775844	-11.984916	13.09165	-7.88929
940130566841761	-10.919622	11.345975	-7.1887183
940130571907679	-9.0942745	8.889825	-6.5737343
940130576973597	-6.899804	6.4585724	-6.052596
940130582039515	-5.2168703	4.211999	-5.4028153
940130587105433	-4.3863735	2.1867256	-4.872547
940130592171351	-3.5183809	0.30018044	-4.339793
940130597237269	-2.4768386	-1.5595303	-4.051207
940130602303187	-1.1946516	-3.0526323	-3.9380562
940130607399623	0.22839785	-4.231534	-3.5073562
940130612465541	1.513485	-4.9488907	-2.7563012
940130617531459	2.9127083	-4.9571714	-1.8024023
940130622597377	4.011623	-4.738077	-0.8920603
940130627663295	4.3647685	-4.3530264	0.13344908
940130632729213	4.389216	-3.8223915	1.0151327
940130637795131	4.3317924	-2.9042206	2.2340868
940130642861049	4.6823153	-1.4891281	3.6426563
940130647957484	5.751492	0.20702076	4.4964876
940130653023402	7.1678157	2.292059	4.4598265
940130658089320	8.189048	4.538039	4.2894163
940130663155238	8.367977	6.942994	5.2496796
940130668221156	7.9712815	9.270071	7.352934
940130673287074	7.2737265	10.815285	9.124672
940130678352992	7.435523	10.896345	9.154976
940130683418910	7.9890327	8.948601	7.3352046
940130688515345	7.545286	5.955269	5.389118
940130693581263	5.4900985	2.6618776	3.303266
940130698647181	3.540807	0.49516392	1.2164246
940130703713099	2.3525984	-0.23206425	-0.12367582
940130708779017	1.228126	-0.3178854	-0.8004147
940130713844935	0.086899996	-0.18484497	-1.1356603
940130718910853	-0.6590965	-0.012094498	-1.0468757
940130724007289	-0.42457652	0.21323109	-0.086426616
940130729073207	-0.047862053	0.10824394	1.4226674
940130734139125	-0.08088088	-0.49975014	2.7211967
940130739205043	-0.36377048	-1.3730011	3.5642254
940130744270961	-0.47490835	-2.0578413	3.998136
940130749336879	-0.38908124	-2.3163052	4.2063284
940130754402797	0.044480085	-2.193922	4.2947307
940130759468715	0.5380287	-2.0279112	4.2359085
940130764565150	0.887655	-1.8421688	4.266065
940130769631068	1.2140441	-1.1278543	4.505401
940130774696986	1.1969976	-0.26057816	4.438221
940130779762904	0.9080756	0.6728592	3.9329472
940130784828822	0.6012461	1.5568771	3.1531196
940130789894740	0.30238986	2.3163357	2.4278235
940130794960658	0.13502216	2.837819	1.8584762
940130800026576	0.13732791	2.9399405	1.5313752
940130805092494	0.24836206	2.6616201	1.512314
940130810158412	0.49203658	2.0609465	1.9423034
940130815224330	0.9196768	1.235321	2.6688838
940130820290248	1.1463499	0.38012886	3.2281816
940130825356166	1.0970814	-0.3993082	3.567146
940130830422084	0.98487234	-1.1641893	3.6298196
940130835488002	0.91963863	-1.7497005	3.402467
940130840584437	0.859251	-2.3105373	2.9998846
940130845650355	0.7153597	-2.6851645	2.4951715
940130850716273	0.2889688	-2.8344297	1.8402207
940130855782191	-0.20261478	-2.8363523	1.0916296
940130860848109	-0.49553442	-2.6949635	0.6248662
940130865914027	-0.63370943	-2.370017	0.39480335
940130870979945	-0.67738295	-2.0507221	0.16760902
940130876076381	-0.5806254	-1.756258	0.087449074
940130881142299	-0.52997947	-1.4398508	-0.013113892
940130886208217	-0.4735422	-1.2510872	-0.039562486
940130891274135	-0.325868	-1.2197704	0.14112206
940130896340052	-0.14861822	-1.1867685	0.3531317
940130901405970	0.097251534	-1.1760416	0.6645042
940130906471888	0.34204984	-1.206748	0.88450503
940130911537806	0.40862215	-1.266902	1.0480429
940130916603724	0.44137	-1.3517761	1.2510765
940130921669642	0.62407386	-1.4386988	1.2883908
940130926766078	0.93611777	-1.3124514	1.147011
940130931831996	1.0259519	-1.1237822	1.06371
940130936897914	0.7041582	-1.0102625	0.8021861
940130941963832	0.3597641	-1.0101728	0.40061885
940130947029750	0.3469522	-0.91082954	0.037016094
940130952095668	0.27252388	-0.72688675	-0.49350333
940130957161586	-0.20641232	-0.76215744	-0.8248983
940130962227504	-0.80009973	-0.94584656	-1.1132903
940130967293422	-1.1744437	-1.166625	-1.3030372
940130972389857	-1.5618435	-1.422122	-1.2089291
940130977455775	-1.9117748	-1.6200342	-0.9589799
940130982521693	-2.1360173	-1.7602863	-0.5891744
940130987587611	-2.259457	-1.8379984	-0.34280568
940130992653529	-2.4858637	-1.9463634	-0.20675945
940130997719447	-2.6911247	-1.9883013	-0.23735309
940131002785365	-2.8722196	-1.9602203	-0.1691376
940131007851283	-3.0188222	-1.7772436	-0.13851178
940131012917201	-3.153057	-1.3785429	-0.13447618
940131017983119	-3.249219	-0.8349495	-0.12800944
940131023079554	-3.3908365	-0.140728	-0.10437834
940131028145472	-3.5023708	0.61535454	-0.08068049
940131033211390	-3.5382714	1.2824669	-0.16881144
940131038277308	-3.5159783	1.8342562	-0.39907503
940131043343226	-3.4779139	2.1631613	-0.672932
940131048409144	-3.500031	2.304021	-0.953128
940131053475062	-3.569751	2.304761	-1.1867352
940131058571498	-3.7120047	2.2431517	-1.3569498
940131063637416	-3.8625927	2.1645794	-1.3965914
940131068703334	-4.112696	2.083313	-1.3593866
940131073769252	-4.212619	2.060215	-1.3635732
940131078835170	-4.245175	1.926631	-1.4631062
940131083901088	-4.302622	1.6959476	-1.6024156
940131088967006	-4.458139	1.522646	-1.5709927
940131094032924	-4.7143145	1.5550232	-1.3998476
940131099098842	-5.045164	1.7115555	-1.2844114
940131104195277	-5.3386383	1.8916445	-1.2362465
940131109261195	-5.4240723	2.056983	-1.3735497
940131114327113	-5.414437	2.2363167	-1.6184222
940131119393031	-5.282652	2.3435678	-1.8500162
940131124458949	-5.2744493	2.277195	-1.9475045
940131129524867	-5.1224217	2.1712837	-1.8159676
940131134590785	-5.127513	1.9863234	-1.4964323
940131139656703	-5.1763353	1.8442211	-1.2972451
940131144722621	-5.0296435	1.7782869	-1.3697606
940131149819056	-4.7345533	1.7082796	-1.7030162
940131154884974	-4.271069	1.5518532	-2.1225293
940131159950892	-3.6310434	1.1848688	-2.2050145
940131165016810	-3.1698227	0.9234066	-1.6328661
940131170082728	-3.1126938	0.6274967	-0.777552
940131175179164	-2.9485912	0.18488312	-0.10699594
940131180245082	-2.6481369	-0.15050888	0.61240244
940131185311000	-2.208511	-0.4586153	1.0456035
940131190376918	-1.6099552	-1.0928745	0.72396874
940131195442836	-0.7132511	-1.8323603	-0.19317229
940131200508754	0.28823015	-2.4133615	-1.6315268
940131205574672	1.1109563	-2.4912891	-2.7647357
940131210640590	2.0505762	-1.7136431	-3.1976678
940131215737025	3.068422	-0.060658455	-3.053141
940131220802943	3.6462436	2.0677757	-2.576598
940131225868861	3.5145652	4.341756	-1.9953184
940131230934779	3.1836743	6.311838	-0.8597211
940131236000697	3.5396442	7.6158476	0.73705214
940131241066615	4.1271787	8.1296015	2.129963
940131246132533	4.551726	8.042249	3.1923485
940131251198451	4.619931	7.847597	3.7087088
940131256264369	4.5278144	7.6060095	3.5981665
940131261360804	4.516822	7.285857	2.8176613
940131266426722	4.350924	6.8640423	1.7789962
940131271492640	3.8946133	6.5142555	1.0116096
940131276558558	3.1490736	6.5179567	0.18744802
940131281624476	2.1653166	6.4283113	-0.3442986
940131286690394	1.2681546	6.6278143	-0.3517897
940131291756312	0.24288654	6.6732473	-0.33186138
940131296852748	-1.2970569	6.39452	-0.39547348
940131301918666	-2.6850064	6.1274796	-0.5972748
940131306984584	-3.6927025	5.693163	-1.179693
940131312050502	-4.0669885	5.2404766	-1.2579482
940131317116420	-3.1789727	4.6259136	-0.7107086
940131322182338	-1.3150873	3.8440943	-0.2361505
940131327248256	-0.4375081	2.9699879	-0.16557515
940131332314174	-0.35678434	2.3241587	-0.63620925
940131337380092	-0.6435199	1.9958715	-0.8737123
940131342476527	-1.2906241	1.6718731	-1.0388389
940131347542445	-1.4767203	1.2982674	-0.66375136
940131352608363	-1.0793076	0.88844013	0.08027911
940131357674281	-0.4557128	0.31778908	1.1855643
940131362740199	2.4042869	-0.9122648	6.0318575
940131367806117	4.103214	-2.304861	8.886778
940131372872035	0.24438381	-2.436778	1.640707
940131377937953	3.083897	-3.13806	4.245653
940131383003871	-0.51616335	-3.1850739	-3.5275857
940131388100306	0.8502183	-3.5284543	0.036427736
940131393166224	1.4483023	-3.8636918	0.31131315
940131398232142	0.96541023	-3.8444204	-0.6105609
940131403298060	2.0848107	-4.28478	0.9464152
940131408363978	2.943884	-4.5906286	1.2884395
940131413429896	3.5776367	-4.8542385	1.6589317
940131418495814	4.099485	-5.0500264	2.071949
940131423561732	4.634256	-5.280455	2.5488884
940131428627650	4.9074554	-5.5186834	2.8490167
940131433693568	5.32046	-5.639013	2.8147476
940131438759486	5.042855	-5.6404195	2.6334867
940131443855922	4.6396127	-5.532837	2.2644548
940131448921840	4.2428217	-5.4916744	2.1181843
940131453987758	4.259258	-5.4192867	2.3902729
940131459053676	4.367063	-5.558652	2.9323752
940131464119594	4.6214995	-5.5219417	3.4727635
940131469185511	4.6209216	-5.533864	3.983073
940131474251429	4.7412786	-5.440085	4.237212
940131479347865	5.4610214	-5.612673	4.0209002
940131484413783	5.6679006	-5.601768	4.1029334
940131489479701	5.2687936	-5.4819875	4.2427015
940131494545619	5.4840155	-5.4453173	4.052884
940131499611537	5.6592917	-5.5399914	3.8707929
940131504677455	5.4837556	-5.694311	3.5813942
940131509743373	5.553795	-5.7218323	3.247261
940131514809291	5.4855556	-5.5894704	2.9023993
940131519875209	5.303113	-5.44925	2.5274436
940131524941127	5.072941	-5.344177	2.0990052
940131530007045	4.891177	-5.222585	1.6226795
940131535072963	4.4844637	-5.077009	1.062299
940131540138881	3.836732	-4.8688464	0.38926554
940131545204799	3.356436	-4.573747	-0.5217118
940131550270717	2.7021606	-4.027522	-1.5950363
940131555336635	1.8341856	-3.153429	-2.4429746
940131560402552	0.8131273	-1.802896	-3.1689582
940131565498988	-0.24580002	-0.105009556	-3.9702897
940131570564906	-1.4408448	1.7751875	-4.664155
940131575630824	-3.387544	3.6254778	-5.0186462
940131580696742	-5.3043404	5.7387476	-4.657424
940131585762660	-7.0868816	8.076871	-5.138407
940131590828578	-8.127103	10.356	-8.596113
940131595894496	-10.557716	12.194036	-9.854414
940131600960414	-13.398447	13.377551	-8.532511
940131606056849	-13.848066	13.75761	-7.320521
940131611122767	-12.589045	13.0167055	-6.804119
940131616188685	-10.477073	11.397063	-6.3209486
940131621254603	-7.8507833	9.080305	-5.659691
940131626320521	-5.6271544	6.759428	-5.21443
940131631386439	-4.40962	4.743846	-4.8582687
940131636452357	-3.7455513	2.684595	-4.3112383
940131641518275	-3.0955572	0.9486294	-4.1919184
940131646584193	-1.8368518	-0.6050005	-3.7784104
940131651680629	-0.48782158	-1.9576931	-3.2732735
940131656746547	0.7100096	-2.7750092	-3.1405604
940131661812465	2.137218	-3.2559156	-2.5759737
940131666878383	3.436309	-3.3166676	-2.2560644
940131671944301	3.7140174	-2.7907429	-1.9332104
940131677010219	3.5037189	-2.0061903	-1.6315114
940131682076136	3.4041793	-1.0674534	-1.0100751
940131687142054	3.6646254	0.015076637	0.024198532
940131692207972	4.259714	1.0267315	1.1541643
940131697304408	5.091553	1.8481703	2.27186
940131702370326	6.0400944	2.7050343	3.78657
940131707436244	6.886174	3.544897	5.595366
940131712502162	7.3104296	4.2702312	6.67947
940131717568080	7.076659	5.0931635	6.570014
940131722633998	6.519207	5.795804	5.7221117
940131727699916	5.880048	5.770341	4.876133
940131732765834	5.115983	4.585531	4.6720424
940131737831752	4.1443024	2.4575853	4.7911816
940131742897670	2.8345947	0.13990402	4.8469887
940131747963588	1.8338001	-1.3867168	4.2223144
940131753060023	2.0059288	-1.5546436	2.5808702
940131758125941	2.7473931	-1.0722704	0.33997548
940131763191859	2.9110544	-0.54870987	-1.5419161
940131768257777	2.2415493	-0.16204739	-2.2479577
940131773323695	0.95781994	0.01837349	-1.542722
940131778389613	-0.09148598	0.017825127	-0.10444772
940131783455531	-0.92500734	-0.07927132	1.4112318
940131788551967	-1.6270468	-0.3232336	2.4064395
940131793617885	-2.0311608	-0.6560526	3.2586617
940131798683802	-2.1000628	-0.920681	4.151737
940131803749720	-1.8354688	-1.0949707	4.988134
940131808815638	-1.341336	-1.0190868	5.497546
940131813881556	-0.7145624	-0.7652416	5.7174788
940131818947474	0.059764624	-0.5132952	5.554364
940131824013392	0.73246026	-0.4120865	5.1855907
940131829079310	1.0176408	-0.42975712	4.687344
940131834145228	1.0023344	-0.3937168	4.0220375
940131839241664	0.80919003	-0.19900703	3.3846767
940131844307582	0.5052302	0.049186707	2.9654813
940131849373500	0.25028515	0.2011013	2.6692939
940131854439418	0.22123218	0.315526	2.418685
940131859505336	0.46916032	0.23355007	2.3122647
940131864571254	0.93401265	-0.10307217	2.3792615
940131869637172	1.5093606	-0.4332199	2.5200958
940131874703090	1.8020725	-0.8069563	2.53151
940131879799525	2.0190077	-1.1979847	2.4256055
940131884865443	2.5056193	-1.3991766	2.38837
940131889931361	2.846872	-1.4944887	2.1689832
940131894997279	2.6728508	-1.5749235	1.7581092
940131900063197	2.436211	-1.6382627	1.1429856
940131905129115	2.1693149	-1.55439	0.8611831
940131910195033	1.6750584	-1.4455938	0.8064003
940131915260951	1.1798234	-1.2485943	0.6997674
940131920326869	0.8377937	-0.9420366	0.4747534
940131925423304	0.37206256	-0.6218786	0.22019418
940131930489222	0.016857147	-0.3324299	-0.038540885
940131935555140	-0.054801106	-0.14083672	-0.3649519
940131940621058	-0.16682279	-0.14872074	-0.41687474
940131945686976	-0.34818554	-0.22551537	-0.25042874
940131950783412	-0.4608922	-0.41427517	-0.03275262
940131955849330	-0.34951496	-0.67414474	0.31079984
940131960915248	-0.17610729	-0.9441109	0.5177467
940131965981166	-0.0124896765	-1.1261225	0.7073055
940131971047084	0.032708883	-1.2274561	0.96494496
940131976113002	0.23582566	-1.3677931	1.1382364
940131981209437	0.4002658	-1.560297	1.4162018
940131986275355	0.6043329	-1.8287945	1.3938539
940131991341273	0.6633661	-1.8611851	1.5170345
940131996407191	0.6631093	-1.7009258	1.4617898
940132001473109	0.5532764	-1.5168552	1.2406738
940132006539027	0.18834841	-1.280304	0.81799775
940132011604945	-0.19341874	-1.1072836	0.3727007
940132016670863	-0.58390594	-0.929512	-0.006218195
940132021736781	-0.9498594	-0.77688503	-0.51902866
940132026802699	-1.3545532	-0.74372673	-0.87569195
940132031868617	-1.6984329	-0.7974682	-0.98139113
940132036965052	-2.0928748	-0.95110893	-0.91465724
940132042030970	-2.398175	-1.1410398	-0.6369624
940132047096888	-2.5789707	-1.2775888	-0.29792577
940132052162806	-2.7488225	-1.39188	-0.056349516
940132057228724	-2.862929	-1.4432182	0.0055887103
940132062294642	-3.029461	-1.4412308	-0.17532533
940132067360560	-3.2022564	-1.2938423	-0.4342109
940132072456996	-3.4000816	-1.0358038	-0.70345414
940132077522914	-3.598872	-0.6541767	-0.8377166
940132082588832	-3.7605278	-0.19224644	-0.8653612
940132087654750	-3.6899054	0.34013367	-0.8692678
940132092720668	-3.6989884	0.7549839	-0.87465894
940132097786586	-3.6677883	1.1323156	-0.93893456
940132102852504	-3.4991486	1.4313126	-1.0720024
940132107918422	-3.5610266	1.6890049	-1.2506686
940132113014857	-3.4993546	1.9196472	-1.4818103
940132118080775	-3.3949993	2.1853027	-1.5819833
940132123146693	-3.322207	2.4391966	-1.5644605
940132128212611	-3.3382003	2.5975666	-1.4900502
940132133278529	-3.333155	2.6999016	-1.380189
940132138344447	-3.2670918	2.6673746	-1.3558017
940132143410365	-3.0676758	2.4201584	-1.5263584
940132148476283	-3.1274087	2.084261	-1.5904772
940132153542201	-3.4366078	1.8716593	-1.4685018
940132158608119	-3.8327162	1.7930412	-1.1338737
940132163674037	-4.245403	1.9116306	-0.7926353
940132168770472	-4.5528636	2.114811	-0.65632427
940132173836390	-4.728851	2.29251	-0.82066
940132178902308	-4.8882284	2.399395	-1.1206563
940132183968226	-4.8601346	2.412898	-1.4335519
940132189034144	-4.896001	2.3092546	-1.6589876
940132194100062	-4.9554644	2.1961727	-1.6771643
940132199165980	-4.9467225	1.9803133	-1.4801437
940132204231898	-5.0097294	1.8373251	-1.2338171
940132209297816	-4.9337273	1.7968473	-0.9458873
940132214363734	-4.552025	1.750989	-0.84787846
940132219429652	-4.2321587	1.7439718	-0.81071293
940132224526088	-3.770835	1.5940752	-0.76095563
940132229592006	-3.5524094	1.4176979	-0.5955976
940132234657924	-3.6789756	1.170825	-0.30177957
940132239723842	-3.679549	0.9673166	0.09860772
940132244789760	-3.4316328	0.571743	0.51276386
940132249855677	-2.927034	0.124453545	0.7774155
940132254921595	-2.3923454	-0.25584984	0.53044724
940132260018031	-1.4410962	-0.78651714	-0.1594063
940132265083949	-0.23828351	-1.0998402	-0.9151659
940132270149867	1.0152644	-1.1694107	-1.9334725
940132275215785	2.0876527	-0.9879389	-2.717386
940132280281703	2.956024	-0.50744724	-2.925133
940132285347621	3.8574395	0.53761387	-2.8094168
940132290413539	4.5046616	2.0778198	-2.6366668
940132295479457	4.7234564	3.67198	-2.5296907
940132300545375	4.7518744	5.1362114	-1.9789608
940132305641810	5.1475954	6.2780523	-0.89758545
940132310707728	5.7492485	6.825468	0.47101563
940132315773646	6.041833	6.7950697	1.8883891
940132320839564	6.090893	6.5285444	3.0880148
940132325905482	5.9385395	6.242857	3.8194737
940132330971400	5.6884594	5.9636135	4.0795093
940132336037318	5.428313	5.655511	3.870553
940132341103236	4.811041	5.1111956	3.2820377
940132346169154	3.8884406	4.5518885	2.5603414
940132351235072	3.0110095	4.3424864	1.7961528
940132356331508	2.0943131	4.399111	0.8401792
940132361397426	0.9751189	4.671752	0.058531284
940132366463344	-0.4083519	4.895955	-0.6081047
940132371529261	-2.0642238	4.980052	-0.6764362
940132376595179	-3.9730082	4.776471	-0.6561924
940132381661097	-5.313161	4.4051914	-0.9441428
940132386727015	-5.033719	4.173088	-0.8207835
940132391792933	-3.0708246	3.8822632	-0.46818113
940132396858851	-1.2193992	3.337164	-0.34075093
940132401955287	-0.48602772	2.6314287	-0.38497806
940132407021205	-0.6089308	2.2579489	-0.7623913
940132412087123	-1.3055587	1.7773294	-0.8209324
940132417153041	-1.3690393	1.4271603	-0.6148367
940132422218959	-0.8207295	1.2441635	-0.106549025
940132427284877	3.2697265	0.38783646	6.2367334
940132432350795	3.0677202	-0.4730835	4.400551
940132437416713	-0.95591664	-0.4571619	-0.5360861
940132442482631	3.4386377	-1.1102676	5.0767937
940132447579066	0.025735855	-1.7694607	-1.0868614
940132452644984	0.35130453	-2.488634	-0.24844885
940132457710902	0.6140661	-2.919508	-1.2933314
940132462776820	0.97761154	-3.607647	-0.23300004
940132467842738	1.1158319	-4.1621575	0.214499
940132472908656	1.8412881	-4.6149507	0.8110945
940132477974574	1.9491305	-4.8160625	0.27486324
940132483040492	2.447075	-5.1195645	0.9807849
940132488136927	3.0831404	-5.437834	1.5752678
940132493202845	3.633881	-5.746619	1.3252819
940132498268763	3.6305876	-5.8734837	1.3029175
940132503334681	3.9353104	-5.9659557	1.4412892
940132508400599	3.7433248	-5.9178395	1.7744353
940132513466517	3.4633894	-5.5704565	1.9631712
940132518532435	3.7515454	-5.597482	2.1167033
940132523598353	3.6825304	-5.50671	2.2897556
940132528664271	3.5076632	-5.4497943	2.3203962
940132533730189	3.4582238	-5.4363747	2.4735408
940132538826625	3.536302	-5.550316	2.7868702
940132543892543	3.5434494	-5.450906	3.3205395
940132548958461	3.849489	-5.331869	3.5890086
940132554024379	4.02428	-5.2875547	3.65909
940132559090297	4.4526424	-5.392084	3.549035
940132564156215	4.7979107	-5.516307	3.4514806
940132569222133	4.81692	-5.562403	3.517158
940132574318568	4.550664	-5.509411	3.2857645
940132579384486	4.879492	-5.3831673	3.0840256
940132584450404	4.8776393	-5.3968472	2.9466763
940132589516322	4.6669474	-5.4748855	2.6793194
940132594582240	4.5463715	-5.4833345	2.3800268
940132599648158	4.4879704	-5.5070868	2.1052861
940132604714076	4.50686	-5.476628	1.7717667
940132609779994	4.485381	-5.408513	1.2987554
940132614845912	4.2929497	-5.3407764	0.72758436
940132619904394	3.9509208	-5.1871276	0.19150186
940132625000829	3.565349	-4.9069667	-0.41342568
940132630066747	3.0788798	-4.4157763	-1.125829
940132635132665	2.4099352	-3.7003708	-1.9197071
940132640198583	1.632457	-2.6564884	-2.7252069
940132645264501	0.535481	-1.2804384	-3.4674711
940132650330419	-0.9449718	0.43374157	-4.0820446
940132655396337	-2.4183445	2.352188	-4.7385283
940132660462255	-4.428675	4.577031	-4.4667916
940132665558691	-6.4913235	7.0576715	-3.142775
940132670624609	-6.889928	9.819865	-7.810502
940132675690527	-8.682132	12.295666	-9.772452
940132680756445	-11.898388	14.206986	-7.5093956
940132685822363	-13.890022	15.289952	-6.2071075
940132690888281	-13.653071	15.04654	-6.317774
940132695954199	-11.776142	13.164196	-6.131853
940132701020116	-9.67341	10.411078	-5.998023
940132706086034	-7.5915017	7.6517973	-5.630065
940132711151952	-5.5006294	5.28347	-5.423716
940132716248388	-4.044919	3.1474628	-4.9754725
940132721314306	-3.337317	1.0886335	-4.289082
940132726380224	-2.7675858	-0.83307076	-4.179553
940132731446142	-1.6964326	-2.4285593	-4.304328
940132736512060	-0.4106753	-3.6991606	-3.7528195
940132741577978	0.6048176	-4.7003937	-3.198219
940132746643896	1.7096531	-5.161232	-2.8318944
940132751709814	2.932971	-4.7752514	-2.4686537
940132756806249	3.5973759	-3.6353407	-1.822784
940132761872167	3.373029	-1.99786	-1.1769583
940132766938085	2.9657726	0.0068101883	-0.4262948
940132772004003	3.188337	1.9857607	0.6457367
940132777069921	4.2091722	3.887187	1.7503126
940132782135839	5.508686	5.7835226	3.01718
940132787201757	6.3074355	7.607543	4.669223
940132792267675	6.587809	9.525122	6.254529
940132797333593	6.2221203	11.480741	6.9796457
940132802399511	5.308629	12.462275	6.582296
940132807465429	4.883086	11.263411	6.174177
940132812561865	4.4814672	7.3082857	6.4129586
940132817627783	2.984536	2.0485916	6.6980095
940132822693700	1.3372366	-2.009759	6.247217
940132827759618	1.473172	-3.9175863	4.7885346
940132832825536	2.4256341	-4.4056168	2.5319233
940132837891454	3.3792639	-4.2053623	0.57218003
940132842957372	3.912375	-3.7695503	-0.47719538
940132848053808	3.8989441	-3.23674	-0.8485838
940132853119726	3.027566	-2.728816	-0.7775148
940132858185644	1.8434188	-2.438511	-0.3429891
940132863251562	1.429635	-2.128828	0.7227875
940132868317480	1.2154486	-1.6876507	2.0263877
940132873383398	1.0951571	-1.1457815	3.0204372
940132878449316	1.2271538	-0.67617893	3.5371485
940132883515234	1.576374	-0.4323864	3.8842964
940132888581152	2.1870894	-0.27842522	4.4135528
940132893647070	2.900652	-0.16930485	5.0054903
940132898743505	3.5875952	-0.109116554	5.2901297
940132903809423	4.302438	-0.15141678	5.329874
940132908875341	4.6980715	0.014370918	5.3222675
940132913941259	4.4648514	0.41666508	5.005252
940132919007177	3.8744218	0.96054554	4.486916
940132924073095	3.0822945	1.5746155	3.856966
940132929139013	2.1044204	2.1322737	3.6640024
940132934204931	0.9128895	2.3299809	3.7145789
940132939270849	0.06929302	2.1787138	3.6036255
940132944367284	-0.17361426	1.86378	3.314586
940132949433202	0.03210497	1.491828	3.0977561
940132954499120	0.21602678	1.0364904	2.69492
940132959565038	0.16205835	0.49899673	2.3219495
940132964630956	0.05025029	-0.012094498	2.0616193
940132969696874	0.039286613	-0.46621132	1.7146068
940132974762792	0.027467728	-0.94270706	1.1428323
940132979828710	-0.10260892	-1.2982044	0.5256537
940132984894628	-0.12449086	-1.5161438	0.20889802
940132989960546	-0.05440116	-1.5320911	0.105191275
940132995026464	-0.009784937	-1.3162775	0.15839274
940133000122900	-0.12530589	-1.0208044	0.23717704
940133005188818	-0.28933644	-0.68881416	0.23847494
940133010254736	-0.60801613	-0.48560047	0.103035755
940133015320654	-0.7597095	-0.43638802	-0.03801942
940133020386572	-0.87488735	-0.46830845	-0.05128062
940133025452490	-0.97099864	-0.5550337	-0.098607905
940133030518408	-0.93130314	-0.6822252	-0.18339479
940133035614843	-0.8103397	-0.82001305	-0.23296517
940133040680761	-0.41474807	-0.9958811	-0.17917418
940133045746679	-0.1973077	-1.1560183	0.05720243
940133050812597	-0.07780063	-1.2669382	0.46502286
940133055878515	0.07755387	-1.2438011	0.82005864
940133060944433	-0.055083513	-1.1907454	1.191889
940133066010351	0.15838099	-1.2644329	1.2378621
940133071076269	0.22376966	-1.2400179	1.144108
940133076172704	0.018363833	-1.1738005	1.0382019
940133081238622	-0.22213995	-1.172143	0.7187846
940133086304540	-0.48569787	-1.1979303	0.27051765
940133091370458	-0.828272	-1.2391157	-0.14089
940133096436376	-1.2871064	-1.3100567	-0.48525232
940133101502294	-1.7120043	-1.3844185	-0.86893624
940133106568212	-2.0532932	-1.4956493	-1.1113551
940133111634130	-2.3437064	-1.6245174	-1.2042129
940133116700048	-2.6804218	-1.761384	-1.3407968
940133121796484	-2.7794063	-1.9037848	-1.1832314
940133126862402	-2.9045317	-1.9559813	-0.9395594
940133131928320	-3.0138988	-1.9706011	-0.6325389
940133136994238	-3.1106787	-2.040904	-0.4542917
940133142060156	-3.2819285	-2.057952	-0.3733809
940133147126074	-3.3933725	-1.9320507	-0.3645966
940133152191991	-3.394534	-1.774517	-0.39687955
940133157257909	-3.4308424	-1.5434952	-0.4316349
940133162323827	-3.5014243	-1.2378683	-0.50758743
940133167389745	-3.492264	-0.81719494	-0.5579188
940133172455663	-3.4162428	-0.30687904	-0.5682665
940133177552099	-3.2408295	0.24497318	-0.6176542
940133182618017	-3.0531356	0.72208214	-0.7258154
940133187683935	-2.911481	1.0765076	-0.9145292
940133192749853	-2.7687113	1.3058071	-1.2296877
940133197815771	-2.6904995	1.4160252	-1.4881308
940133202881689	-2.533356	1.4801531	-1.6076874
940133207947607	-2.3858707	1.57833	-1.6556243
940133213013525	-2.3972917	1.7750626	-1.6301366
940133218109960	-2.5101638	1.9578781	-1.5664274
940133223175878	-2.5340486	1.9916668	-1.5497248
940133228241796	-2.4765375	1.9089518	-1.4919261
940133233307714	-2.6713371	1.7087269	-1.387618
940133238373632	-3.008179	1.5060167	-1.1250734
940133243439550	-3.392519	1.4479599	-0.8068247
940133248505468	-3.8581138	1.5715094	-0.5687388
940133253571386	-4.26777	1.7820864	-0.34303844
940133258637304	-4.540517	2.0700703	-0.34910655
940133263733740	-4.817767	2.324257	-0.41515243
940133268799658	-5.026629	2.5472145	-0.6114602
940133273865575	-5.0657005	2.7079124	-0.7003387
940133278931493	-5.13976	2.7406693	-0.7764081
940133283997411	-5.1858234	2.7866611	-0.886719
940133289063329	-4.9961767	2.8373337	-1.1063892
940133294129247	-4.7429485	2.8937616	-1.243824
940133299195165	-4.429166	2.701128	-1.043164
940133304291601	-3.974055	2.4138308	-0.5280648
940133309357519	-3.6378183	2.0390816	0.03604901
940133314423437	-3.5906587	1.6761217	0.4166535
940133319489355	-3.6981933	1.2783813	0.25512004
940133324555273	-3.618453	1.1916304	-8.468032E-4
940133329621191	-3.531874	1.0212307	-0.16645205
940133334687109	-3.2763572	0.5894308	-0.32966584
940133339753027	-2.6075835	0.36794567	-0.4064416
940133344818945	-1.7794973	0.1775055	-0.8470602
940133349915380	-0.70535886	-0.08796024	-1.4034697
940133354981298	0.14421105	0.07905483	-1.6672821
940133360047216	0.74786305	0.54090595	-1.925155
940133365113134	1.3233299	1.0514374	-2.1977057
940133370179052	1.7587945	1.7713451	-2.4467185
940133375244970	2.157417	2.711707	-2.6463237
940133380310888	2.4816823	3.8141985	-2.7036095
940133385376806	2.7280726	4.924696	-2.474727
940133390442724	3.3468251	5.8972416	-1.554305
940133395539159	4.2193785	6.4005365	-0.52917975
940133400605077	4.9425235	6.4424763	0.5823828
940133405670995	5.338623	6.1591816	1.6576182
940133410736913	5.6041827	5.850174	2.54824
940133415802831	5.9148674	5.6651754	3.2082083
940133420868749	5.998807	5.4036083	3.4365318
940133425934667	5.872949	4.819827	3.5181184
940133431000585	5.7142096	4.3083296	3.3797169
940133436097021	5.1736555	3.7928305	2.8351707
940133441162939	4.5387697	3.3194141	1.9729446
940133446228857	3.554904	3.1373234	0.93002284
940133451294775	2.4198496	3.177267	-0.33020043
940133456360693	0.94402957	3.2872849	-1.0732588
940133461426611	-1.0142252	3.337864	-1.4972129
940133466492529	-2.8461647	3.3204632	-1.8212922
940133471558447	-3.3182955	3.3947792	-1.9140558
940133476624365	-2.7452266	3.404028	-1.7231059
940133481690283	-1.6145902	3.2844915	-1.1036744
940133486786718	-0.7311299	2.9673872	-0.05245304
940133491852636	-0.9504025	2.3983145	0.3354745
940133496918554	-1.1711426	1.7323761	0.44565415
940133501984472	-1.9580209	1.1245337	0.2638378
940133507050390	-2.300796	0.41438198	0.31796598
940133512116308	1.495142	-0.9095125	6.027194
940133517182226	1.5540397	-1.943058	4.095978
940133522248144	-2.5985632	-1.7048664	-1.7800429
940133527314062	0.79614043	-2.4037828	4.3786817
940133532410497	0.4741273	-3.3098211	3.0462022
940133537476415	-1.6572175	-3.69808	-1.1425102
940133542542333	-1.0366659	-4.2742195	-0.496145
940133547608251	-0.5562618	-4.8379	0.2503791
940133552674169	-0.049954176	-5.0554743	0.44990063
940133557740087	0.59479904	-5.081154	0.32233095
940133562806005	1.3235369	-5.3309197	1.4994571
940133567871923	1.9432905	-5.642294	2.1997263
940133572968359	2.4807525	-5.6976705	2.4901845
940133578034277	2.945919	-5.566901	2.3970866
940133583100195	3.5024877	-5.710516	2.3732624
940133588166113	3.3003643	-5.4000487	2.5656993
940133593232031	3.8501132	-5.158566	2.3300858
940133598297949	4.0424285	-5.043504	2.1857517
940133603363866	3.9232392	-4.724875	2.347386
940133608429784	4.2540293	-4.5199876	2.3484492
940133613526220	4.167563	-4.376021	2.4258964
940133618592138	4.0549808	-4.107565	2.6193933
940133623658056	4.253843	-3.7996845	2.7992635
940133628723974	4.5875425	-3.71064	3.0150976
940133633789892	4.9646716	-3.7635274	3.030721
940133638855810	5.075965	-3.7132201	3.0572176
940133643921728	5.3785467	-3.5649238	3.1824381
940133648987646	5.3261013	-3.4826436	3.0901647
940133654053564	5.5710335	-3.522613	3.0430012
940133659119482	5.5742083	-3.803183	3.0293443
940133664215917	5.3673687	-4.1555676	2.7759914
940133669281835	5.2642	-4.5077505	2.518746
940133674347753	5.0001802	-4.880268	2.1890414
940133679413671	4.8646646	-5.1428003	1.7760136
940133684479589	4.8201656	-5.2416816	1.3741839
940133689545507	4.5603175	-5.273817	0.9142332
940133694611425	4.233138	-5.236857	0.43939137
940133699677343	3.7915502	-5.0985456	-0.034631014
940133704743261	3.2962227	-4.802675	-0.5614004
940133709809179	2.900979	-4.404109	-1.1928151
940133714875097	2.3733737	-3.8116589	-2.0270646
940133719971533	1.7560017	-2.9416928	-2.8505874
940133725037450	0.9980693	-1.7087431	-3.5587988
940133730103368	-0.085511446	-0.06635475	-4.364009
940133735199804	-1.338023	2.043747	-4.8940415
940133740265722	-2.8411763	4.5147314	-4.9873056
940133745331640	-5.128493	6.9455366	-4.7780547
940133750397558	-8.310849	9.21115	-3.3235772
940133755463476	-9.604948	11.715357	-4.491891
940133760529394	-10.494871	14.405726	-7.171241
940133765595312	-11.924434	16.057295	-6.440974
940133770661230	-12.319878	16.236458	-6.9830317
940133775727148	-12.101373	14.710461	-6.738825
940133780793066	-10.844572	11.858096	-6.1526394
940133785858984	-8.819639	8.571629	-5.723296
940133790924902	-7.1585016	5.2825594	-5.2976017
940133795990820	-6.0809364	2.3038797	-5.2117367
940133801056738	-5.1737804	-0.101753235	-5.354703
940133806153173	-4.139723	-2.0003996	-5.317393
940133811219091	-2.9305863	-3.7407618	-4.718789
940133816285009	-2.0287592	-5.0971613	-4.7021313
940133821350927	-0.80704236	-6.1085997	-4.0959353
940133826416845	0.45707273	-6.4444895	-2.9363654
940133831482763	1.6899707	-6.1493387	-2.0374482
940133836548681	2.4903927	-5.6200533	-1.1113565
940133841614599	2.9091504	-4.855113	-0.060216665
940133846711034	3.0944836	-3.4189243	0.7532623
940133851776952	2.8856373	-1.4417887	1.5212474
940133856842870	3.48646	0.57663345	2.3688955
940133861908788	4.9145823	2.4561434	3.0767415
940133866974706	6.207268	4.0311613	4.21445
940133872040624	7.0918174	5.507515	5.805667
940133877106542	7.1785173	6.972471	7.0348225
940133882172460	6.6503744	8.554779	6.94858
940133887238378	6.071596	9.895651	5.8276496
940133892334814	6.090048	10.008313	4.424736
940133897400732	6.328671	8.342394	3.7791274
940133902466650	5.7967725	5.0716486	3.7164652
940133907532568	4.200976	1.4748278	3.4106145
940133912598486	3.2728934	-0.732975	2.0636845
940133917664404	3.3157377	-1.850934	-0.2269851
940133922730322	3.7192523	-2.3415155	-2.3657138
940133927796240	3.6611328	-2.6744747	-3.1808598
940133932862158	2.8581257	-2.9038515	-2.2973998
940133937958593	1.7022038	-2.9770956	-0.76127887
940133943024511	0.87508583	-2.7769003	0.5971364
940133948090429	0.46466255	-2.5492659	1.7590694
940133953156347	0.21950412	-2.444005	2.6511652
940133958222265	0.003581524	-2.3775558	3.3112285
940133963288183	-0.09043932	-2.239972	4.0679064
940133968354101	-0.07739329	-1.9942045	4.8853126
940133973420019	0.16663909	-1.6421604	5.528473
940133978485937	0.5495558	-1.2844553	5.8938875
940133983582372	1.0180552	-1.0755835	6.0236
940133988648290	1.3163128	-0.8106823	5.9143
940133993714208	1.3001287	-0.31707573	5.7731757
940133998780126	1.0527382	0.24653435	5.566765
940134003846044	0.687716	0.9174528	5.18784
940134008911962	0.17452931	1.6384077	4.778641
940134013977880	-0.33957744	2.2552357	4.1099977
940134019043798	-0.7671144	2.4045553	3.2331371
940134024109716	-0.64118767	1.9922323	2.5343604
940134029206152	-0.057623148	1.2913818	2.0635602
940134034272070	0.59302044	0.55134106	1.711937
940134039337988	1.1156785	-0.07355404	1.6086223
940134044403906	1.3084652	-0.53916454	1.3983395
940134049469824	1.5037191	-0.8373804	1.1923673
940134054535741	1.6601601	-1.1563187	1.097426
940134059601659	1.3613182	-1.3323832	0.71707046
940134064667577	1.1776085	-1.3289318	0.26168075
940134069733495	0.95566833	-1.2695274	-0.14468831
940134074829931	0.59729755	-1.1448908	-0.32501552
940134079895849	0.16522253	-0.95991516	-0.45778272
940134084961767	-0.2549101	-0.69331646	-0.68073946
940134090027685	-0.55451584	-0.4265766	-0.7414947
940134095093603	-0.89787817	-0.31165218	-0.5834683
940134100159521	-1.1636683	-0.31494045	-0.28796083
940134105225439	-1.3146154	-0.4711132	-0.095791236
940134110291357	-1.3864621	-0.7286835	0.048905976
940134115357275	-1.2890763	-0.9118929	0.25633273
940134120453710	-1.0545461	-1.1141672	0.48526567
940134125519628	-0.7233919	-1.1799717	0.6352368
940134130585546	-0.42143428	-1.2840052	0.82980984
940134135651464	-0.06710279	-1.3639765	1.1464263
940134140717382	0.11511314	-1.3492489	1.4947747
940134145783300	0.26108825	-1.2780933	1.5929193
940134150849218	0.12411404	-1.3370209	1.5703146
940134155915136	-0.040575147	-1.4337769	1.35564
940134161011572	-0.03761065	-1.3544254	0.981012
940134166077490	-0.26021922	-1.1493473	0.6440785
940134171143408	-0.6364566	-0.97532654	0.2520888
940134176209325	-0.9685824	-0.88606834	-0.13916665
940134181275243	-1.3295587	-0.8694935	-0.4272844
940134186341161	-1.6620069	-0.8979826	-0.6533362
940134191407079	-1.9408557	-0.9989605	-0.771046
940134196472997	-2.2428348	-1.122098	-0.91457635
940134201538915	-2.5765328	-1.3379068	-0.93325794
940134206635351	-2.712894	-1.5351105	-0.8739893
940134211701269	-2.6026645	-1.7459688	-0.75658023
940134216767187	-2.5680807	-1.8520918	-0.449718
940134221833105	-2.5658696	-1.8798809	-0.16744941
940134226899023	-2.507478	-1.842596	-0.013432145
940134231964941	-2.4501617	-1.6386614	0.086705685
940134237030859	-2.4019868	-1.3423729	0.08637172
940134242096777	-2.4354053	-1.0135727	-0.009810805
940134247162695	-2.4099321	-0.6977148	-0.10842037
940134252228613	-2.35279	-0.34700108	-0.26389992
940134257325048	-2.3501158	-0.0033826828	-0.4675498
940134262390966	-2.3004446	0.38680077	-0.6692312
940134267456884	-2.3164144	0.7827444	-0.8660573
940134272522802	-2.289942	1.1400394	-1.0752368
940134277588720	-2.2372894	1.3772869	-1.2913008
940134282654638	-2.2751806	1.5924845	-1.5601848
940134287720556	-2.297992	1.8106432	-1.7881378
940134292786474	-2.2181883	2.0471916	-1.8865865
940134297852392	-2.2315443	2.3641424	-1.7860808
940134302948827	-2.2875047	2.6297798	-1.6361011
940134308014745	-2.2958033	2.738844	-1.4902129
940134313080663	-2.2831345	2.6317587	-1.409746
940134318146581	-2.534145	2.2945528	-1.2602692
940134323212499	-3.0010204	1.899786	-1.0212404
940134328278417	-3.5898483	1.6329689	-0.6134212
940134333344335	-4.0895314	1.5490551	-0.37950492
940134338410253	-4.483614	1.583293	-0.33639252
940134343476171	-4.908621	1.7189131	-0.40079594
940134348572607	-5.1029615	1.8231859	-0.6021161
940134353638525	-5.3791437	1.8855476	-0.7977042
940134358704443	-5.410953	1.929965	-0.9782591
940134363770361	-5.420112	1.9313965	-1.1413933
940134368836279	-5.317249	1.910121	-1.1969118
940134373902197	-5.284375	1.9760675	-1.1928276
940134378968115	-5.153979	2.1612358	-1.328716
940134384034033	-4.826473	2.3266745	-1.5483347
940134389099950	-4.377604	2.436431	-1.5649402
940134394196386	-3.7943063	2.4271126	-1.3383496
940134399262304	-3.3876407	2.2940836	-0.9391579
940134404328222	-3.3063684	2.1080503	-0.3654924
940134409394140	-3.296928	1.804573	0.05424714
940134414429540	-3.220953	1.5860338	0.2914424
940134419525976	-3.076561	1.2096939	0.3463664
940134424591894	-2.7978735	0.6461611	0.24169767
940134429657812	-2.2921503	0.22231674	-0.00831151
940134434723730	-1.4897399	-0.165761	-0.40892386
940134439820165	-0.46627578	-0.46283817	-0.87652385
940134444886083	0.72948265	-0.6208515	-1.5394459
940134449952001	1.810633	-0.6372824	-2.254561
940134455017919	2.493132	-0.26682568	-2.5763903
940134460083837	3.1980355	0.5060282	-2.7144434
940134465149755	3.9117258	1.670537	-2.6294057
940134470215673	4.337989	2.9422598	-2.5029993
940134475281591	4.6474237	4.1576777	-2.0020468
940134480378027	5.1330147	5.0289125	-1.1403792
940134485443945	5.7047443	5.5163765	0.023529708
940134490509863	5.87399	5.6295977	1.1890434
940134495575781	5.707366	5.5595036	2.2001977
940134500641699	5.4653616	5.348445	3.2047238
940134505707616	5.1700516	5.025812	3.7623334
940134510773534	4.8543816	4.6607237	3.8897166
940134515839452	4.3199453	4.134616	3.529067
940134520935888	3.6915903	3.4177198	2.892817
940134526001806	3.0518937	2.9820614	2.1119204
940134531067724	2.3084671	2.9402237	1.2249192
940134536133642	1.6933979	3.2090988	0.32693326
940134541199560	0.76833904	3.6595793	-0.509096
940134546265478	-0.5079702	3.9832363	-1.2921723
940134551331396	-1.9876776	4.1093206	-1.484644
940134556397314	-3.0346367	3.9949474	-1.2356199
940134561463232	-3.3262386	3.7576227	-1.2946995
940134566529150	-2.456507	3.4685202	-1.0442699
940134571595068	-1.0137072	3.1250982	-0.7043946
940134576691503	-0.15847087	2.3508987	-0.5928991
940134581757421	0.35321307	1.5872202	-0.32185984
940134586823339	0.5579927	1.0567617	-0.2984259
940134591889257	0.5378895	0.69791126	-0.37330198
940134596955175	-0.1768632	0.24533367	-0.010263681
940134602021093	0.68083024	-0.09520626	1.4671774
940134607087011	4.4631577	-1.0639954	8.749163
940134612152929	2.6171923	-0.9325533	1.5917447
940134617249365	2.086851	-1.3456316	1.6544611
940134622315283	-1.5005441	-1.7683	-3.039275
940134627381200	-0.38210607	-2.2358465	-0.51544046
940134632447118	0.69481254	-2.7016277	-0.026912928
940134637513036	0.31831264	-3.0146666	-0.8300884
940134642578954	0.29423857	-3.382656	0.054269075
940134647644872	0.45334673	-3.7623072	1.2862973
940134652710790	0.7795429	-4.032134	1.4637837
940134657776708	1.0217936	-4.157175	1.2769055
940134662873144	1.3538437	-4.1601276	1.3839624
940134667939062	1.7050085	-4.171627	1.493887
940134673004980	1.8579111	-4.1601505	1.1329083
940134678070898	2.2212026	-4.1295853	1.1469278
940134683136816	2.654031	-4.264253	1.8301091
940134688202734	2.8853946	-4.483494	2.081081
940134693268652	2.7449667	-4.3926497	2.140582
940134698334570	3.1436596	-4.453979	2.1820126
940134703400488	2.8473248	-4.5084014	2.253632
940134708496923	2.5949314	-4.4591217	2.462314
940134713562841	2.5538402	-4.4741445	2.360786
940134718628759	2.7110932	-4.709064	2.1910038
940134723694677	2.8816288	-4.795773	2.3698678
940134728760595	3.0061646	-4.886503	2.641381
940134733826513	3.2812712	-5.171312	2.8675365
940134738892431	3.3510237	-5.411941	2.8363576
940134743958349	3.3536143	-5.5606823	2.7711525
940134749024267	3.5259457	-5.680083	2.6796227
940134754120702	3.5521798	-5.787186	2.476222
940134759186620	3.5180054	-5.8245125	2.2454934
940134764252538	3.5049753	-5.873577	2.0441394
940134769318456	3.329304	-5.869833	1.8739824
940134774384374	3.1957958	-5.8585258	1.6525073
940134779450292	2.9788668	-5.810697	1.3789527
940134784516210	2.677198	-5.72015	1.0969317
940134789582128	2.4998374	-5.4599032	0.6157837
940134794648046	2.2790918	-5.087155	0.010631561
940134799744482	1.9680808	-4.628213	-0.7635579
940134804810400	1.5144646	-3.947198	-1.639044
940134809876318	0.9741454	-2.9723034	-2.5499737
940134814942236	0.23925996	-1.6948051	-3.3756406
940134820008154	-0.72726965	-0.041334152	-4.1840024
940134825074072	-1.85834	1.8162613	-4.810789
940134830139990	-3.2454972	3.813982	-5.1819005
940134835205908	-4.8344817	5.8270445	-4.908212
940134840302343	-6.524523	7.847042	-3.6686277
940134845368261	-6.5896444	10.235541	-7.5223894
940134850434179	-7.871479	12.371294	-9.558331
940134855500097	-10.061153	13.881692	-7.9308257
940134860566015	-11.597441	14.41219	-6.8825054
940134865631933	-11.083037	13.818278	-5.739546
940134870697851	-9.606913	11.78584	-4.924885
940134875763769	-7.53515	9.007851	-4.6652374
940134880829687	-5.5360985	6.1509333	-4.498152
940134885895605	-4.1287584	3.5003386	-4.47241
940134890992040	-2.9195926	1.1397858	-4.5143843
940134896057958	-1.5237556	-0.81935215	-4.508962
940134901123876	-0.26172328	-2.4004545	-4.328877
940134906189794	1.0197964	-3.6602955	-4.038184
940134911255712	2.1799417	-4.483183	-3.6827657
940134916321630	3.3946407	-4.783551	-3.4197035
940134921387548	4.1474442	-4.449559	-2.8461254
940134926453466	4.265007	-3.4769049	-2.1101682
940134931519384	3.6432528	-2.0177412	-1.0262806
940134936615820	3.1682353	-0.47618198	0.2052617
940134941681738	3.4008222	0.8179989	1.3937883
940134946747656	4.327032	1.8267078	2.4713194
940134951813574	5.620552	2.891304	3.77111
940134956879491	6.574048	4.239147	5.22651
940134961945409	6.6721225	5.5328283	6.317557
940134967011327	6.1183248	6.9157076	6.5940113
940134972077245	5.016844	7.9700785	6.3032074
940134977143163	3.8669484	7.9057007	5.9278984
940134982239599	3.0707443	6.2240686	6.085993
940134987305517	2.1569214	3.2338114	6.4221134
940134992371435	0.8508024	0.35751915	6.365565
940134997437353	0.5482049	-1.1924715	5.4025393
940135002503271	1.66293	-1.4185791	3.4944766
940135007569189	3.1333199	-1.0722666	0.7284608
940135012635107	4.2144012	-0.38583946	-2.0586624
940135017701025	4.2554398	0.26618862	-3.5341756
940135022797460	3.4840019	0.4927559	-2.995456
940135027863378	2.3634913	0.114001274	-1.1684269
940135032929296	1.2653029	-0.53997993	0.7024615
940135037995214	0.37674809	-1.0898666	2.0346432
940135043061132	0.0603981	-1.6049299	2.715753
940135048127050	0.25972772	-2.113493	3.1151657
940135053192968	0.565454	-2.56466	3.641636
940135058258886	0.8818853	-2.7617722	4.4261923
940135063324804	1.3255587	-2.5600014	5.351545
940135068390722	1.7510109	-2.0442266	5.9146748
940135073487158	2.0961986	-1.4752703	5.8718433
940135078553075	2.4994817	-0.9528494	5.446757
940135083618993	2.7144475	-0.17298126	5.0289044
940135088684911	2.719075	0.70698833	4.7183027
940135093750829	2.2024271	1.6196804	4.4410753
940135098816747	1.4864316	2.3527336	4.347647
940135103882665	0.80517626	2.771471	4.0404134
940135108948583	0.45023704	2.75912	3.685702
940135114045019	0.54507184	2.2945461	3.2589397
940135119110937	0.7321093	1.7649984	2.7622886
940135124176855	0.7700547	1.2602615	2.3611937
940135129242773	0.6579175	0.7528286	1.9932532
940135134308691	0.630507	0.20057774	1.7367214
940135139374609	0.7127297	-0.32866192	1.4360061
940135144440527	0.693318	-0.7598953	0.8526239
940135149506445	0.4921471	-1.1664104	0.23982501
940135154572363	0.11734676	-1.4672203	-0.17923436
940135159638281	-0.16495228	-1.5599518	-0.33375207
940135164734716	-0.28283358	-1.538435	-0.22922301
940135169800634	-0.37740815	-1.358572	-0.060099006
940135174866552	-0.41778553	-1.2238855	-0.062695
940135179932470	-0.41604805	-1.2132654	0.0018420815
940135184998388	-0.42400265	-1.2560949	0.010760874
940135190064306	-0.4685222	-1.3667736	-0.0041419864
940135195130224	-0.48669815	-1.449606	0.045210406
940135200196142	-0.47205436	-1.4987192	0.106010735
940135205262060	-0.41807234	-1.5381088	0.24064405
940135210358495	-0.24518824	-1.5283661	0.39868575
940135215424413	-0.23067284	-1.4813986	0.6276631
940135220490331	-0.28616536	-1.516818	0.9756528
940135225556249	-0.20590317	-1.4742327	1.247027
940135230622167	-0.3302256	-1.2592192	1.4733433
940135235688085	-0.49686408	-1.3812037	1.6301619
940135240754003	-0.46795392	-1.5122299	1.5047495
940135245850439	-0.49039018	-1.3761759	1.285794
940135250916357	-0.42700303	-1.2770252	0.8893918
940135255982275	-0.54100096	-1.1884441	0.52072346
940135261048193	-0.7006617	-1.0590162	0.15638778
940135266114111	-1.0269132	-0.916276	-0.21740305
940135271180029	-1.3168064	-0.83922195	-0.5937801
940135276245947	-1.5733871	-0.82896996	-0.9251564
940135281311865	-1.83181	-0.91173553	-1.1199737
940135286377783	-1.9479253	-1.0144529	-1.1717179
940135291443700	-2.022766	-1.1131201	-1.0810939
940135296509618	-2.1078515	-1.2088251	-0.8318504
940135301606054	-2.1676316	-1.3361902	-0.5642847
940135306671972	-2.1534612	-1.4664125	-0.33387774
940135311737890	-2.1146808	-1.5204611	-0.13367599
940135316803808	-2.0245206	-1.4409847	0.005351007
940135321869726	-2.0711482	-1.2077265	0.103883386
940135326935644	-2.2405999	-0.88785267	0.15776372
940135332001562	-2.2414854	-0.46238995	0.24075472
940135337097997	-2.149188	-0.008084297	0.22445607
940135342163915	-2.2312963	0.38270664	0.07134795
940135347229833	-2.2195013	0.72899055	-0.37296617
940135352295751	-2.2077	1.0461473	-0.9279959
940135357361669	-2.396239	1.3770876	-1.4975774
940135362427587	-2.6243024	1.7455368	-2.0301106
940135367493505	-2.6739354	2.1812325	-2.2961068
940135372559423	-2.8091307	2.5524168	-2.3076193
940135377625341	-2.885732	2.7167387	-2.1388178
940135382721777	-3.0662892	2.7831116	-1.822082
940135387787695	-3.451537	2.7324324	-1.5034335
940135392853613	-3.7018645	2.5541058	-1.3267139
940135397919531	-3.8894224	2.3404036	-1.3246962
940135402985449	-4.232283	1.9827452	-1.4372631
940135408051366	-4.5272775	1.73137	-1.4263734
940135413117284	-4.8537087	1.6437092	-1.3111972
940135418183202	-5.1199236	1.7364378	-1.1428505
940135423249120	-5.4148173	1.9758949	-0.8738961
940135428345556	-5.5940046	2.2004938	-0.7421602
940135433411474	-5.570591	2.47962	-0.8036907
940135438477392	-5.416908	2.7307234	-0.88597894
940135443543310	-5.1500607	2.9358988	-0.9375168
940135448609228	-4.916387	3.0461836	-1.1099049
940135453675146	-4.6051035	3.1358223	-1.3164665
940135458741064	-4.2451506	3.2813072	-1.5303375
940135463806982	-3.6676393	3.4012232	-1.6661699
940135468872900	-3.138466	3.3819122	-1.4411942
940135473969335	-2.8957675	3.1480532	-0.79820216
940135479035253	-2.7776954	2.7165976	0.10944563
940135484101171	-2.7924905	2.3793879	0.8998967
940135489167089	-2.906358	2.0143957	1.3688374
940135494233007	-2.9430923	1.6576853	1.3100238
940135499298925	-2.715485	1.291646	0.80811995
940135504364843	-2.478507	0.5866585	0.20742339
940135509430761	-1.9695935	-0.30818176	-0.121118605
940135514496679	-1.039129	-0.91169167	-0.36975333
940135519593115	-0.10692726	-1.3794203	-0.9011253
940135524659033	0.55237985	-1.4637718	-1.3411372
940135529724950	1.0199953	-1.048975	-1.6541585
940135534790868	1.5781882	-0.2609148	-1.9853313
940135539856786	2.1701865	0.80832386	-2.2339308
940135544922704	2.5271955	2.08002	-2.371687
940135549988622	2.6660435	3.4194164	-2.1951053
940135555054540	3.1489167	4.447798	-1.7349769
940135560120458	3.88984	4.969548	-1.0107887
940135565216894	4.4630656	5.201433	-0.043080866
940135570282812	4.8727217	5.151203	0.89785707
940135575348730	5.130244	5.0119658	1.8526084
940135580414648	5.26326	4.871318	2.7244864
940135585480566	5.4134297	4.579159	3.1495676
940135590546484	5.251443	4.124627	3.2936597
940135595612402	4.9648542	3.5185595	3.1359558
940135600678320	4.670333	2.8185053	2.6881356
940135605774755	4.276326	2.5153198	2.293018
940135610840673	3.7531242	2.6568232	1.5404408
940135615906591	2.9482188	2.9665031	0.682039
940135620972509	1.8668693	3.3378716	-0.079301715
940135626038427	0.58701193	3.6450033	-0.7867496
940135631104345	-0.79603386	3.777008	-1.0097091
940135636170263	-1.7377069	3.7933693	-1.1898876
940135641236181	-2.085259	3.6643028	-1.3611485
940135646302099	-1.5061224	3.4122763	-0.9472866
940135651368017	-0.5728798	2.9992914	-0.62636304
940135656464452	-0.10502577	2.288288	-0.3126049
940135661530370	-0.26131248	1.4740458	0.09680629
940135666596288	-0.3524065	0.67379284	0.20152187
940135671662206	-0.28135514	0.342247	0.31030464
940135676728124	-0.5572853	-0.05034733	0.6379001
940135681794042	1.4634931	-1.0038519	5.4066343
940135686859960	1.6333516	-1.6086998	5.909537
940135691925878	-0.81497	-1.3920193	0.5071778
940135696991796	0.8504019	-1.8727312	3.8027859
940135702057714	-1.0384147	-2.2653465	-0.71323085
940135707154150	-0.3753872	-2.7187815	-0.042277575
940135712220068	-0.196239	-3.106413	-0.68300104
940135717285986	-0.18047309	-3.4558773	-0.29220486
940135722351904	0.062463284	-3.7131872	0.18866229
940135727417822	0.60438967	-3.9772673	0.8496282
940135732483740	1.0344939	-4.1987143	0.5350895
940135737549658	1.4345772	-4.48013	1.1883776
940135742615575	1.7075522	-4.6883917	1.8604901
940135747712011	2.1766317	-4.8566256	1.5232298
940135752777929	2.6993625	-4.9065695	1.4175501
940135757843847	3.1877568	-4.9056244	1.8601627
940135762909765	3.5709248	-4.968544	1.9304624
940135767975683	3.2655323	-4.6838326	2.2797725
940135773041601	3.3397381	-4.4752574	2.3232398
940135778107519	3.6008081	-4.393078	2.2340763
940135783173437	3.4038024	-4.2649083	2.3750489
940135788239355	3.2912352	-4.2128716	2.1809182
940135793305273	3.7521794	-4.2372465	2.003771
940135798371191	3.7729475	-4.2400856	2.1985607
940135803437109	3.89521	-4.192689	2.5633621
940135808503027	4.055812	-4.169163	2.679406
940135813599462	4.3434124	-4.138387	2.6341486
940135818665380	4.472671	-4.259503	2.5321836
940135823731298	4.6497474	-4.420136	2.523521
940135828797216	4.573963	-4.554493	2.382505
940135833863134	4.540102	-4.689108	2.291474
940135838929052	4.317546	-4.916234	2.2317462
940135843994970	4.110013	-5.204618	2.048753
940135849060888	3.9198358	-5.51345	1.747452
940135854126806	3.8184237	-5.6537585	1.3998399
940135859192724	3.6583726	-5.6316514	0.9498279
940135864289159	3.4835598	-5.5598135	0.4977584
940135869355077	3.284261	-5.349255	-0.07365084
940135874420995	2.959762	-5.001262	-0.6028309
940135879486913	2.6605344	-4.5204697	-1.297329
940135884552831	2.0907934	-3.8612404	-2.035259
940135889618749	1.4618273	-3.020936	-2.6524224
940135894684667	0.60899615	-1.7863464	-3.0426183
940135899750585	-0.64081264	-0.16931057	-3.254343
940135904816503	-1.8505347	1.510148	-3.5731301
940135909882421	-3.3634362	3.2779665	-3.1595562
940135914948339	-4.1450624	5.1794443	-4.284071
940135920044775	-4.731099	7.161339	-7.4400873
940135925110693	-6.860406	8.772061	-7.2813616
940135930176611	-9.213829	10.300602	-6.413538
940135935242529	-11.097458	11.609395	-6.4929266
940135940308447	-11.807508	12.32228	-6.3477907
940135945374365	-11.313765	11.832235	-5.7617645
940135950440283	-10.211597	10.219461	-5.230058
940135955506200	-8.535573	8.064756	-5.1238456
940135960602636	-6.619571	5.8785667	-5.251069
940135965668554	-4.997651	3.881258	-5.0009246
940135970734472	-4.0091524	1.9598675	-4.3864574
940135975800390	-3.2036932	0.16611767	-4.2927475
940135980866308	-2.072666	-1.2423735	-4.2241488
940135985932226	-0.6747391	-2.4134045	-3.8432994
940135991028661	0.558228	-3.215248	-3.5727205
940135996094579	1.5136344	-3.582223	-2.8828263
940136001160497	2.5054271	-3.4579458	-2.472234
940136006226415	2.9980917	-2.7083778	-2.117678
940136011261816	2.939296	-1.3363619	-1.8366854
940136016358251	2.8473313	0.5675945	-1.499376
940136021424169	3.044012	2.5296125	-0.74354196
940136026490087	3.595704	4.195915	0.43452215
940136031556005	4.6224937	5.639806	1.8888943
940136036621923	5.692646	6.731844	4.137862
940136041687841	6.296794	7.357559	6.5711813
940136046784277	6.5027657	7.7313766	7.4008284
940136051850195	6.4235535	7.9907694	6.242601
940136056916113	6.242712	7.429682	4.3017836
940136061982031	6.225091	5.5467606	3.3682795
940136067047949	5.9117823	2.6413736	3.840205
940136072113866	4.8209324	-0.33564472	4.450629
940136077179784	3.8932118	-2.3958902	3.9161031
940136082245702	3.764876	-3.488018	1.9988863
940136087342138	4.2145824	-3.7355947	0.004698992
940136092408056	4.4670854	-3.4731426	-0.6223438
940136097473974	4.123788	-3.0029907	-0.48644137
940136102539892	2.9083428	-2.5506191	-0.10518825
940136107605810	1.7144125	-2.1589737	0.4714147
940136112671728	0.8956914	-1.8508444	1.5763327
940136117737646	-0.022284985	-1.6316309	2.540707
940136122803564	-0.61934733	-1.4597149	3.000089
940136127869482	-0.8270712	-1.3243771	3.5304985
940136132935400	-0.7157135	-1.0397463	4.405258
940136138001318	-0.67559004	-0.68482494	5.276616
940136143097753	-0.46498823	-0.4402542	5.922406
940136148163671	-0.06953311	-0.31268978	6.3335447
940136153229589	0.4429934	-0.10041332	6.5149436
940136158295507	0.7963717	0.26533508	6.4155045
940136163361425	0.9211612	0.5576954	5.990827
940136168427343	0.67849064	1.0198278	5.373517
940136173493261	0.2046361	1.7284002	4.772956
940136178559179	-0.48571444	2.3856382	4.2628613
940136183655615	-0.9427471	2.6961956	3.4963782
940136188721533	-1.0222771	2.5220823	2.7425933
940136193787450	-0.75283074	1.9425125	2.0369136
940136198853368	-0.08475423	1.1982193	1.7358022
940136203919286	0.5532794	0.4448166	1.7085271
940136209015722	0.9108472	-0.26515865	1.6002777
940136214081640	1.33722	-0.738081	1.5239824
940136219147558	1.7712309	-1.195797	1.4447002
940136224213476	1.9673437	-1.5393095	1.3497809
940136229279394	1.9197948	-1.7868452	1.1279651
940136234345312	1.8849769	-1.9971561	0.74409485
940136239441747	1.4613193	-2.107071	0.3989234
940136244507665	1.0024334	-1.9876318	0.2533434
940136249573583	0.6034399	-1.6345539	0.12208709
940136254639501	0.4755386	-1.1259804	-0.07142976
940136259705419	0.37786567	-0.6785736	-0.35797125
940136264771337	0.18225372	-0.3963251	-0.4787279
940136269837255	0.03522706	-0.29584217	-0.38263607
940136274903173	-0.122719884	-0.39616203	-0.18517408
940136279999609	-0.13111591	-0.47954178	0.102048896
940136285065527	-0.0212574	-0.559103	0.45933574
940136290131445	0.08546281	-0.71380234	0.8518056
940136295197363	0.14227474	-0.94474316	1.1325715
940136300263281	0.22674727	-1.0282173	1.4345224
940136305329199	0.3843553	-1.0038118	1.7424514
940136310395116	0.22450268	-1.0580902	1.9686549
940136315461034	0.10543156	-1.1215773	1.8896763
940136320526952	0.17556429	-1.2958851	1.724334
940136325623388	0.13563311	-1.2831984	1.4942777
940136330689306	0.033231497	-1.1757746	1.1371527
940136335755224	-0.07650888	-1.1315765	0.68756735
940136340821142	-0.34404755	-1.0261421	0.28099716
940136345887060	-0.84469235	-1.0568047	-0.102858484
940136350952978	-1.2930299	-1.1373405	-0.36300486
940136356018896	-1.5737216	-1.1744719	-0.6730665
940136361084814	-1.9705131	-1.2004995	-0.9924753
940136366150732	-2.16421	-1.2010756	-1.145884
940136371247167	-2.3766546	-1.2299719	-1.0599108
940136376313085	-2.5889611	-1.2559948	-0.833537
940136381379003	-2.677159	-1.3174229	-0.5157999
940136386444921	-2.6773136	-1.4392805	-0.23209369
940136391510839	-2.655156	-1.5210505	-0.08162731
940136396576757	-2.6318536	-1.5423822	-0.102515936
940136401642675	-2.640169	-1.4949198	-0.29474342
940136406708593	-2.6912594	-1.3642931	-0.47663045
940136411774511	-2.8192716	-1.0669479	-0.59551847
940136416840429	-2.9915493	-0.64261055	-0.68552613
940136421906347	-2.9566102	-0.13702393	-0.7336198
940136426972265	-3.0000138	0.32395935	-0.9142791
940136432038183	-3.1011472	0.8071413	-1.1342152
940136437104101	-3.1044662	1.2872353	-1.3998729
940136442170019	-2.881713	1.7042952	-1.6210132
940136447235937	-2.6989632	1.9925213	-1.8714905
940136452332372	-2.6285682	2.0778255	-2.0376062
940136457398290	-2.6897292	2.1468525	-1.9182926
940136462464208	-2.7675064	2.1433096	-1.7457496
940136467530126	-2.8966403	1.9978905	-1.6408122
940136472596044	-2.899289	1.8566856	-1.6193062
940136477661962	-3.024465	1.5607586	-1.6067474
940136482727880	-3.3797252	1.2695112	-1.4179794
940136487793798	-3.803732	1.1038427	-1.0149397
940136492890234	-4.342346	1.0708761	-0.6973504
940136497956152	-4.790014	1.1406221	-0.6068994
940136503022070	-5.125462	1.3501205	-0.71033967
940136508087988	-5.4492545	1.6072197	-0.9006913
940136513153906	-5.710254	1.8892546	-1.1571802
940136518219824	-5.641106	2.195074	-1.3283495
940136523285741	-5.5151787	2.463686	-1.407083
940136528351659	-5.409405	2.6017666	-1.3269295
940136533417577	-5.3109837	2.648778	-1.2648338
940136538483495	-5.1784763	2.67165	-1.3196765
940136543549413	-4.9653697	2.708496	-1.3202995
940136548645849	-4.4536242	2.6432571	-1.2227921
940136553711767	-3.9380682	2.4878902	-0.82797635
940136558777685	-3.467979	2.2292585	-0.3143183
940136563843603	-3.1743522	1.7932644	0.14824003
940136568909521	-3.1620886	1.3523245	0.35243624
940136573975439	-3.0673351	1.1767921	0.35359377
940136579041357	-3.067946	0.98315334	0.20063525
940136584107275	-3.019459	0.6341047	0.046412647
940136589203710	-2.5131202	0.18269062	-0.28268474
940136594269628	-1.5695443	-0.0023860931	-0.46553582
940136599335546	-0.5571195	-0.20099545	-0.8158405
940136604401464	0.1958617	-0.12230492	-1.0273857
940136609467382	0.7061611	0.26474	-1.1706195
940136614563818	1.219331	0.78193474	-1.3445244
940136619629736	1.8327236	1.3804808	-1.4901007
940136624695654	2.3796058	2.0236397	-1.7081312
940136629761572	2.7275267	2.7848253	-2.0417747
940136634827490	2.9876215	3.697854	-2.332088
940136639893408	3.1254776	4.7521343	-2.2857795
940136644959325	3.5855517	5.552989	-1.6927669
940136650025243	4.274972	5.991544	-0.63308144
940136655091161	5.027261	6.135762	0.4563589
940136660157079	5.6217914	6.053299	1.5198673
940136665222997	5.905154	5.8751345	2.5287278
940136670288915	5.955964	5.5098915	3.0956893
940136675354833	5.910888	5.146331	3.5151515
940136680451269	5.690852	4.645749	3.7055945
940136685517187	5.468977	3.9590626	3.2855263
940136690583105	5.125554	3.4406776	2.650394
940136695649023	4.6501646	3.227209	1.7512784
940136700714941	4.032722	3.23557	0.6986023
940136705780859	3.055439	3.592351	-0.116199374
940136710877294	1.568325	3.9101152	-0.8672259
940136715943212	-0.03734374	4.0745583	-1.2821326
940136721009130	-1.3579154	4.1745796	-1.4346598
940136726075048	-1.7969525	4.2488985	-1.7976828
940136731140966	-1.6648927	4.1583815	-1.9896475
940136736206884	-0.89608073	3.9983044	-1.5429479
940136741272802	-0.12450266	3.3468695	-0.8570515
940136746338720	-0.07130766	2.4365044	-0.28102458
940136751404638	0.06710601	1.5246019	0.13525462
940136756470556	0.064338684	0.8414984	0.1670227
940136761566991	-0.36128068	0.3015499	0.29971886
940136766632909	0.24807024	-0.4987402	2.1989512
940136771698827	5.7235394	-2.5946732	10.861872
940136776764745	-2.1972094	-1.6161327	-1.7273452
940136781830663	1.1506071	-2.255724	5.1797476
940136786896581	-1.9221938	-2.764264	-2.6600568
940136791962499	-1.1949582	-3.352788	-1.1925766
940136797028417	-0.3478334	-3.9131937	-0.3392768
940136802094335	-0.62981844	-4.3992157	0.06571698
940136807160253	-0.71969867	-4.53691	0.21132517
940136812256689	-0.76768374	-4.6547146	0.5516927
940136817322607	0.07511425	-5.08788	1.7795646
940136822388525	0.89244604	-5.34711	1.9943106
940136827454443	1.4954762	-5.4996014	2.0741346
940136832520361	1.9136047	-5.5260134	1.8702588
940136837586279	2.4718013	-5.466143	1.9117668
940136842652197	3.0554404	-5.475705	2.1380277
940136847718115	3.5943534	-5.4482436	2.0596435
940136852814550	4.0069904	-5.4565945	2.2240682
940136857880468	3.9694958	-5.3693542	2.2182338
940136862946386	3.9414809	-5.1962175	2.0339231
940136868012304	3.9697225	-5.05476	1.828273
940136873078222	3.9529603	-4.9546785	1.870487
940136878144140	3.8737411	-4.8960094	2.0771096
940136883210058	3.9680178	-4.799863	2.0899472
940136888275976	3.9753737	-4.779989	1.8834031
940136893341894	4.015893	-4.716963	1.5822787
940136898407812	4.2691755	-4.6088514	1.5824809
940136903504247	4.3585463	-4.56364	1.5778773
940136908570165	4.499919	-4.579071	1.6679137
