linearaccelerometer_timestamp	linearaccelerometer_x_data	linearaccelerometer_y_data	linearaccelerometer_z_data
1442740533801729845	-4.850263	1.8830328	-3.9579504
1442740533810030626	-4.9531345	1.836401	-4.2114244
1442740533818331408	-4.288395	0.8511162	-4.3413305
1442740533826632189	-1.4698229	-0.25494385	-3.3857396
1442740533834932970	0.71221566	-1.6861324	-1.8935616
1442740533843233751	3.7257247	-1.7747946	-1.9291401
1442740533851534533	6.2468214	-1.1446638	-2.0437732
1442740533859835314	6.0238285	-1.0977554	-2.1883752
1442740533868136095	6.7278585	-0.5587473	-2.353812
1442740533876436876	5.9897623	-0.37844372	-2.1268249
1442740533884737658	6.598392	-1.3077173	-2.606594
1442740533893038439	5.107627	-1.4844561	-2.9371638
1442740533901339220	3.8468044	-1.6925755	-2.5808897
1442740533909640001	3.5554817	-2.9724436	-3.0666025
1442740533917940783	3.3099375	-2.9005423	-3.1031466
1442740533926241564	1.7424845	-3.8865767	-3.150832
1442740533934542345	0.44132063	-4.242552	-2.4022377
1442740533942843126	-0.8031486	-4.8213625	-1.7264323
1442740533951143908	-1.6995738	-5.0207644	-2.2036777
1442740533959444689	-1.9453969	-5.324627	-2.398271
1442740533967745470	-2.0168777	-5.222746	-2.4010715
1442740533976046251	-1.4429457	-6.24842	-2.9766629
1442740533984347033	-1.4947846	-6.1453	-2.9439607
1442740533992647814	-1.388689	-6.239644	-2.8678126
1442740534000948595	-1.5669148	-6.2263203	-2.8972032
1442740534009249376	-1.75217	-6.1894913	-2.9844022
1442740534017550158	-1.8885462	-6.194564	-2.7675354
1442740534025850939	-1.8551295	-6.1627398	-2.4490495
1442740534034151720	-1.8622111	-6.090824	-2.3596773
1442740534042452501	-1.8202426	-5.830369	-1.8946137
1442740534050753283	-1.8226331	-5.3142786	-1.2835367
1442740534059054064	-1.6942838	-4.8838444	-0.64836407
1442740534067354845	-1.5756009	-4.429988	-0.024492502
1442740534075655626	-1.5280676	-4.394456	0.04900217
1442740534083956408	-1.5382564	-3.1468258	0.37879992
1442740534092257189	-1.4626775	-3.1318274	0.45253587
1442740534100557970	-1.2427658	-1.7697601	0.19890833
1442740534108858751	-0.43379492	0.14417267	-0.16637754
1442740534117159533	1.2696902	2.582179	-0.5981722
1442740534125460314	3.010179	4.968465	-0.66669416
1442740534133761095	3.1123476	4.884795	-0.5743892
1442740534142061876	4.5523467	6.2808275	1.6248163
1442740534150362658	5.6883574	8.159012	6.3045278
1442740534158663439	8.71801	9.430116	9.833552
1442740534166964220	12.865103	7.259286	7.055914
1442740534175265001	9.726137	1.8801117	5.174531
1442740534183565783	5.658893	-0.82402706	3.768356
1442740534191866564	5.594686	-0.8113117	3.710149
1442740534200167345	4.559426	-0.7772646	1.9898496
1442740534208468126	4.092074	-0.3213501	0.37599444
1442740534216768908	2.2386332	0.19515514	-0.72004604
1442740534225069689	-0.33000794	1.8777094	-1.5108383
1442740534233370470	-0.34922746	1.8589716	-1.4984457
1442740534241671251	-4.063089	5.1138773	-4.201007
1442740534249972033	-6.083672	5.2242384	-4.146471
1442740534258272814	-5.496321	1.4463472	-3.1731143
1442740534266573595	-5.4045153	1.4244776	-3.1090982
1442740534274874376	-4.5242157	-2.4751282	-0.99944997
1442740534283175158	-1.9658018	-5.60026	-0.70090365
1442740534291475939	-1.689404	-7.583235	-3.6840916
1442740534299776720	-1.6278893	-7.5198708	-3.5673652
1442740534308077501	0.17792295	-7.064452	-9.368461
1442740534316378283	0.23313305	-7.001253	-9.2210865
1442740534324679064	1.3621585	-5.20687	-9.398687
1442740534332979845	0.9315686	-3.049199	-8.164861
1442740534341280626	0.14062053	-1.7229252	-6.749189
1442740534349581408	0.26273084	-1.7098236	-6.558285
1442740534357882189	-0.65264153	-0.35600758	-4.1265173
1442740534366182970	-1.006722	1.1179914	-0.61779404
1442740534374483751	-1.5837047	2.563387	2.9257474
1442740534382784533	-1.4769568	2.3678913	3.3035495
1442740534391085314	-2.596473	1.6294355	0.27511615
1442740534399386095	-2.5243888	1.6198902	0.41231993
1442740534407686876	-1.8062996	0.95755196	0.294859
1442740534415987658	0.66132236	-0.7956133	0.16268083
1442740534424288439	1.2056998	-2.6991148	-0.2127372
1442740534432589220	1.2211555	-2.668932	-0.14970997
1442740534440890001	2.6380427	-2.3996782	-0.5024503
1442740534449190783	2.7392604	-1.240325	-0.907594
1442740534457491564	2.7183194	-1.2283058	-0.8840134
1442740534465792345	2.7789612	-0.19784927	-0.6505511
1442740534474093126	2.925704	-0.6114359	-0.8938919
1442740534482393908	2.7340875	-0.90896416	-0.6751368
1442740534490694689	2.7093973	-0.8989544	-0.6301324
1442740534498995470	2.9171643	-1.0871134	0.081171155
1442740534507296251	2.6845977	-1.3381672	0.7256871
1442740534515597033	2.4417102	-1.4612427	0.65389943
1442740534523897814	2.4369617	-1.4443789	0.6841077
1442740534532198595	2.396624	-1.5190258	0.22888577
1442740534540499376	2.0692568	-2.0819178	-0.5987312
1442740534548800158	1.4643008	-2.050086	-1.2211239
1442740534557100939	1.4511048	-2.0380926	-0.96299094
1442740534565401720	1.3963012	-2.1939507	-1.1237282
1442740534573702501	1.8025068	-1.8952417	-1.2200917
1442740534582003283	1.824148	-1.8701401	-1.1621644
1442740534590304064	2.4777856	-1.2900105	-0.41646445
1442740534598604845	2.847383	-0.30751228	0.33751893
1442740534606905626	2.9594069	0.46028042	0.70718575
1442740534615206408	2.7382114	0.6207533	0.98259425
1442740534623507189	2.5648203	0.5357094	1.3824906
1442740534631807970	2.6144543	0.5523701	1.4368043
1442740534640108751	2.6148496	0.30409813	1.4935081
1442740534648409533	2.7283678	-0.11518097	1.0042602
1442740534656710314	3.0878632	-0.44853783	0.135162
1442740534665011095	3.7665472	-0.50873184	-0.8192419
1442740534673311876	4.428065	-0.04506111	-1.5565345
1442740534681612658	4.817319	1.3399429	-1.9352583
1442740534689913439	4.8413367	1.3400536	-1.9297535
1442740534698214220	5.257544	2.9056273	-1.8321416
1442740534706515001	5.5666647	3.8491125	-0.93795526
1442740534714815783	4.8595734	4.27188	0.6065234
1442740534723116564	3.9467936	4.3060894	1.6903579
1442740534731417345	3.2497416	4.6866426	2.0814295
1442740534739718126	3.2359629	4.6572666	2.0751169
1442740534748018908	2.774333	3.865325	1.7393838
1442740534756319689	3.555593	2.1677809	1.0565381
1442740534764620470	4.330513	0.8206959	1.1651773
1442740534772921251	4.2034426	0.15034485	2.13406
1442740534781222033	3.7784781	0.022717476	2.766731
1442740534789522814	3.1738982	0.05900383	2.4327264
1442740534797823595	1.8850011	0.6198139	2.205721
1442740534806124376	1.7957697	0.5884981	2.0349736
1442740534814425158	0.47245336	0.6668072	2.2937605
1442740534822725939	-0.49623907	1.7812309	2.7690938
1442740534831026720	-2.003703	3.692215	2.1717134
1442740534839327501	-4.7914405	5.227025	7.172972E-4
1442740534847628283	-4.925935	5.1810694	-0.25823995
1442740534855929064	-7.312449	5.040702	-2.60877
1442740534864229845	-8.0630455	3.689433	-3.7125788
1442740534872530626	-7.334752	1.9742527	-3.3259475
1442740534880831408	-4.2096996	0.61356354	-2.1057572
1442740534889132189	-1.1294049	-0.038025856	-0.57554805
1442740534897432970	1.4821967	-0.21449566	-0.6317307
1442740534905733751	1.3638817	-0.18245888	-0.7997346
1442740534914034533	3.7519565	0.6148758	-0.56252086
1442740534922335314	4.929664	0.976037	-0.5532057
1442740534930636095	4.2586894	0.6900816	-0.8226733
1442740534938936876	4.1010838	0.26064873	-1.3851821
1442740534947237658	3.5291147	-0.032086372	-1.6594663
1442740534955538439	3.3846087	0.0012922287	-1.7437377
1442740534963839220	0.13606358	-1.4892874	-1.7786622
1442740534972140001	-0.30213892	-2.4168196	-2.0666142
1442740534980440783	-0.4596045	-2.3620224	-2.126553
1442740534988741564	-0.7626723	-3.0630302	-1.3587976
1442740534997042345	-1.5133452	-3.468073	-1.0313194
1442740535005343126	-1.9322466	-4.0817404	-1.5196474
1442740535013643908	-2.207488	-4.235873	-1.6577313
1442740535021944689	-2.2909195	-4.17612	-1.6997657
1442740535030245470	-2.1492848	-4.3580036	-2.128463
1442740535038546251	-2.113754	-4.45347	-2.7050207
1442740535046847033	-2.3193998	-4.594591	-2.9680078
1442740535055147814	-2.8889492	-4.636195	-2.8944502
1442740535063448595	-2.9208028	-4.598298	-2.8787832
1442740535071749376	-3.364774	-4.665593	-2.7473679
1442740535080050158	-3.7689817	-4.829831	-2.3491848
1442740535088350939	-3.8952694	-4.829112	-1.8180377
1442740535096651720	-3.760556	-4.8142815	-1.3353951
1442740535104952501	-3.3629453	-4.6432095	-0.9180119
1442740535113253283	-3.1361299	-4.149416	-0.45175934
1442740535121554064	-3.11141	-4.1449347	-0.39391947
1442740535129854845	-2.747495	-3.7496548	0.17452025
1442740535138155626	-2.2784028	-3.3205585	0.6856849
1442740535146456408	-1.9795833	-2.6566162	0.78392506
1442740535154757189	-1.9997627	-1.542119	0.76195145
1442740535163057970	-1.7539085	-0.07289219	0.5513699
1442740535171358751	-0.8587184	1.7443266	-0.2626965
1442740535179659533	0.73539305	3.9160557	-0.33564663
1442740535187960314	0.86143315	3.8522692	-0.24189162
1442740535196261095	2.4377782	6.310358	1.3051132
1442740535204561876	3.622427	8.470266	4.570423
1442740535212862658	5.597785	10.76916	9.244971
1442740535221163439	9.3596735	10.137224	10.28583
1442740535229464220	10.414664	5.1757555	6.8081765
1442740535237765001	10.521301	5.142435	6.750608
1442740535246065783	6.2839065	0.19226456	4.583255
1442740535254366564	3.7819672	-0.69050884	2.868023
1442740535262667345	1.8932154	-0.41567612	-0.46320271
1442740535270968126	1.8289919	-0.4071846	-0.472368
1442740535279268908	-0.6756799	0.079390526	-1.4788218
1442740535287569689	-4.4840336	1.8878756	-3.3036172
1442740535295870470	-4.485913	1.8795204	-3.2827313
1442740535304171251	-8.050475	4.689617	-5.755539
1442740535312472033	-7.9830437	4.24561	-5.2226896
1442740535320772814	-6.1779566	1.9478474	-3.374464
1442740535329073595	-6.122883	0.38096142	-1.7205133
1442740535337374376	-6.066659	0.37108994	-1.679712
1442740535345675158	-3.50735	-1.6639805	0.1845367
1442740535353975939	-1.665218	-3.9942255	0.23354292
1442740535362276720	-0.50883067	-5.2411594	-3.1080394
1442740535370577501	0.16880143	-4.9486628	-6.222264
1442740535378878283	1.8234231	-3.861619	-8.6671295
1442740535387179064	1.8955165	-3.8545494	-8.566874
1442740535395479845	2.2930856	-2.9050741	-8.960977
1442740535403780626	1.6162486	-1.8788605	-7.9758234
1442740535412081408	1.3200542	-1.6093636	-6.029263
1442740535420382189	0.58432496	-1.3063593	-3.3905852
1442740535428682970	-0.13016745	-0.08637333	-0.6656198
1442740535436983751	-1.0912757	1.4820604	0.9506333
1442740535445284533	-1.0016142	1.4729395	1.0705559
1442740535453585314	-2.5124068	2.4062605	0.77360433
1442740535461886095	-1.7520363	1.6248512	0.30712616
1442740535470186876	-1.6067281	1.0503292	-0.1091657
1442740535478487658	-1.1724946	0.26875782	0.7972039
1442740535486788439	-0.49335617	-0.9036789	0.584799
1442740535495089220	-0.46709275	-0.89595985	0.66579205
1442740535503390001	0.44551766	-1.057581	0.41293833
1442740535511690783	0.45876992	-1.0499	0.46086317
1442740535519991564	0.54447675	-0.7655573	0.2469723
1442740535528292345	1.1681106	-0.36080456	-0.49964517
1442740535536593126	1.121384	-0.44806004	-0.666767
1442740535544893908	1.6070974	-0.6327276	-0.7763344
1442740535553194689	1.5850136	-0.6291151	-0.7364048
1442740535561495470	1.7177466	-0.9618559	-0.7695358
1442740535569796251	1.9756885	-1.0635891	-0.7271863
1442740535578097033	2.3720207	-1.2749634	-0.42765087
1442740535586397814	2.3081386	-1.3062372	-0.048334002
1442740535594698595	2.046442	-1.1391478	-0.15029353
1442740535602999376	1.9507875	-0.89845276	-0.39081722
1442740535611300158	1.9726489	-0.8893957	-0.353693
1442740535619600939	1.368598	-1.200427	-0.86011523
1442740535627901720	1.0593927	-1.9614058	-1.3807807
1442740535636202501	1.0906867	-1.946909	-1.3413343
1442740535644503283	1.3125455	-1.7807302	-1.3085309
1442740535652804064	1.5337405	-1.3486319	-0.9250883
1442740535661104845	1.5647485	-1.3337793	-0.8693336
1442740535669405626	1.636468	-0.8276453	-0.24647737
1442740535677706408	1.5419279	0.12604618	0.8289188
1442740535686007189	1.5885326	0.13956451	0.8907981
1442740535694307970	1.5254827	0.50420856	1.1285279
1442740535702608751	1.3958232	0.5617094	1.2806698
1442740535710909533	1.5446367	0.5133114	1.270563
1442740535719210314	1.6072211	0.5272045	1.311878
1442740535727511095	1.9424976	0.5432234	1.0032076
1442740535735811876	2.3523984	0.6253567	0.16444647
1442740535744112658	2.7778068	0.68851185	-0.70110047
1442740535752413439	3.3279595	0.88742065	-1.122314
1442740535760714220	4.145644	1.628602	-1.1532892
1442740535769015001	5.152259	2.3735476	-0.8502523
1442740535777315783	5.182144	2.3724337	-0.8475932
1442740535785616564	5.9979362	2.7723675	0.51124
1442740535793917345	5.374682	3.3351383	1.4028054
1442740535802218126	4.4544826	3.5916653	1.7253331
1442740535810518908	3.900175	3.8872128	2.0854006
1442740535818819689	3.2948487	3.7959042	2.0029545
1442740535827120470	3.999075	2.7069006	1.2582278
1442740535835421251	3.9667099	2.687354	1.214225
1442740535843722033	4.662911	1.3572922	0.8527992
1442740535852022814	4.8197403	0.16897678	1.1997336
1442740535860323595	4.629284	0.0742712	1.7513493
1442740535868624376	4.2593756	0.65903854	1.8744733
1442740535876925158	3.1727843	1.521884	2.250535
1442740535885225939	3.0872262	1.4919767	2.0881333
1442740535893526720	2.1271763	1.3274298	2.056929
1442740535901827501	1.0306666	2.0017643	2.357498
1442740535910128283	-0.62954503	3.2722445	1.6982696
1442740535918429064	-3.7870684	4.4889	-0.47007865
1442740535926729845	-5.6966887	4.838913	-2.6579947
1442740535935030626	-6.200835	3.876483	-3.51448
1442740535943331408	-6.3644056	3.8706179	-3.755216
1442740535951632189	-5.683694	1.9654341	-3.2057414
1442740535959932970	-4.5337553	0.6066122	-0.9474213
1442740535968233751	-1.4045925	0.4654503	-0.34430802
1442740535976534533	0.712507	0.7464447	-0.06892681
1442740535984835314	2.762054	1.1716099	-0.56924343
1442740535993136095	3.6428561	0.8994274	-0.76666296
1442740536001436876	3.5649314	0.603385	-0.8716372
1442740536009737658	3.475752	0.62661743	-0.9683001
1442740536018038439	2.5816643	0.068387985	-1.1556616
1442740536026339220	2.6111107	-0.102760315	-1.3544996
1442740536034640001	1.2751837	-0.3383522	-1.4518833
1442740536042940783	0.6709305	-0.64791775	-1.2965782
1442740536051241564	0.5223193	-0.6089201	-1.3644421
1442740536059542345	0.05265534	-1.3229122	-1.7893295
1442740536067843126	-0.3718469	-1.4943933	-1.95873
1442740536076143908	-1.3441765	-1.427824	-2.3661869
1442740536084444689	-1.9384658	-2.053852	-1.1931455
1442740536092745470	-2.3953252	-2.7294016	-1.6245644
1442740536101046251	-2.49374	-2.6886492	-1.648623
1442740536109347033	-2.471619	-3.1833143	-2.2730372
1442740536117647814	-2.1614778	-3.7743301	-2.9737973
1442740536125948595	-2.0697815	-4.327488	-3.3654013
1442740536134249376	-2.5839922	-4.8198423	-3.133439
1442740536142550158	-3.0189147	-5.245431	-3.0252829
1442740536150850939	-3.0576613	-5.2192974	-2.9980195
1442740536159151720	-3.5808544	-5.298808	-2.36049
1442740536167452501	-3.9926949	-5.271538	-1.8065398
1442740536175753283	-4.294539	-5.2886515	-1.5570836
1442740536184054064	-4.597954	-4.9836044	-1.1175764
1442740536192354845	-4.595924	-4.529047	-0.5950167
1442740536200655626	-4.334672	-4.0424767	-0.18036747
1442740536208956408	-4.0311832	-3.5269394	0.25170827
1442740536217257189	-3.737811	-2.9252777	0.3405459
1442740536225557970	-3.6640596	-2.9456224	0.40046382
1442740536233858751	-3.4066865	-1.9672785	0.19758844
1442740536242159533	-3.1747563	-0.6859064	-0.08987737
1442740536250460314	-2.1909332	0.9635935	-0.58420587
1442740536258761095	-0.4572401	3.266841	-1.2533339
1442740536267061876	-0.3371421	3.216114	-1.1626447
1442740536275362658	1.3788319	5.723114	-0.23029709
1442740536283663439	2.842114	7.5350504	3.1524155
1442740536291964220	3.794292	10.625943	7.5659223
1442740536300265001	6.8996143	12.149748	12.185301
1442740536308565783	12.943302	8.07591	8.820529
1442740536316866564	13.067303	8.039389	8.774567
1442740536325167345	5.6211085	-2.1763582	2.6814942
1442740536333468126	5.60621	-2.159543	2.6190143
1442740536341768908	4.074135	-1.8227978	-0.05220878
1442740536350069689	3.982014	-1.8062525	-0.07445693
1442740536358370470	1.9450221	-0.15603828	-0.8963381
1442740536366671251	-2.3092864	2.9247913	-2.230968
1442740536374972033	-2.3447495	2.9220972	-2.2356632
1442740536383272814	-6.7513285	7.331876	-5.737155
1442740536391573595	-9.472602	9.261035	-7.424422
1442740536399874376	-8.587681	6.4208345	-4.2096796
1442740536408175158	-8.006384	1.1952791	-1.911748
1442740536416475939	-6.2920027	-3.352848	-1.0716331
1442740536424776720	-6.2465916	-3.354972	-1.0083784
1442740536433077501	-2.9174972	-7.304837	-5.403413
1442740536441378283	-2.872406	-7.298375	-5.299758
1442740536449679064	-2.1636934	-6.9888506	-8.214682
1442740536457979845	-0.84426093	-4.627146	-8.730645
1442740536466280626	0.84233326	-2.7810307	-7.91813
1442740536474581408	0.6536008	-1.4808931	-6.8997903
1442740536482882189	0.7685976	-1.4912281	-6.772779
1442740536491182970	0.58879346	-0.93937016	-4.276781
1442740536499483751	0.14384165	0.2646799	-1.7114934
1442740536507784533	-0.69785064	2.26995	0.24212766
1442740536516085314	-1.9604222	3.568657	2.6811755
1442740536524386095	-2.15031	3.2972412	2.221322
1442740536532686876	-2.3763757	2.0476217	0.81701446
1442740536540987658	-2.3184469	2.042201	0.94547415
1442740536549288439	-1.2948012	0.99188614	0.06866417
1442740536557589220	0.26882616	-0.11411667	-0.19331563
1442740536565890001	0.5396738	-1.5307064	-0.97787046
1442740536574190783	1.3124884	-2.476284	-0.40840915
1442740536582491564	1.7551552	-2.1138582	-0.433789
1442740536590792345	1.7495732	-2.1077766	-0.44154873
1442740536599093126	1.6868057	-0.93713284	-1.0666604
1442740536607393908	1.9038398	-0.36406517	-0.59332573
1442740536615694689	1.9886397	-0.036453247	-0.1172964
1442740536623995470	1.9010793	-0.14510441	0.46753427
1442740536632296251	1.866731	-0.38575935	0.7982142
1442740536640597033	1.8758674	-0.6665354	0.9683063
1442740536648897814	1.8667687	-0.6609554	1.0338179
1442740536657198595	1.8283398	-0.8178787	1.0654278
1442740536665499376	1.9916307	-1.3162003	0.4126891
1442740536673800158	1.9030449	-2.177599	-2.155793
1442740536682100939	1.9232213	-2.1696587	-2.142358
1442740536690401720	1.8975376	-2.4158373	-2.4656167
1442740536698702501	1.9050086	-2.052433	-2.1458209
1442740536707003283	2.008924	-1.2978525	-1.2058269
1442740536715304064	2.0320601	-1.289752	-1.1660691
1442740536723604845	2.1390224	-0.6776428	-0.36849034
1442740536731905626	2.083079	-0.34481525	0.21018302
1442740536740206408	1.9822229	-0.22259998	0.60750544
1442740536748507189	1.6493051	-0.06944084	0.7587898
1442740536756807970	1.6898762	-0.057333946	0.835418
1442740536765108751	1.3358681	0.1384182	0.7378496
1442740536773409533	0.9994971	0.1829052	0.67304456
1442740536781710314	0.97068197	-0.034804344	0.5207355
1442740536790011095	1.0517759	-0.17575169	0.46610022
1442740536798311876	1.2753829	-0.1764698	0.3073027
1442740536806612658	1.6813112	-0.09524059	-0.6098039
1442740536814913439	1.7384349	-0.085074425	-0.5865984
1442740536823214220	2.3425822	0.08496952	-1.4002875
1442740536831515001	2.9807606	0.6931877	-1.5199889
1442740536839815783	3.8997464	1.7471685	-1.3813272
1442740536848116564	4.7850513	2.7507486	-1.0057349
1442740536856417345	5.0417924	3.0239391	-0.57234323
1442740536864718126	4.357971	2.870018	-0.29468775
1442740536873018908	4.3832517	2.8690634	-0.28341377
1442740536881319689	3.3473496	3.0178118	0.18070531
1442740536889620470	2.733913	3.680149	1.2336836
1442740536897921251	2.121151	4.214183	2.1608543
1442740536906222033	2.3276453	3.8828583	2.3082805
1442740536914522814	3.2704644	2.477911	2.1710575
1442740536922823595	3.2377667	2.460415	2.1171365
1442740536931124376	3.803226	1.0439396	2.1645699
1442740536939425158	3.5150704	0.081596375	2.7175565
1442740536947725939	3.3841276	-0.25923157	2.988339
1442740536956026720	3.498139	0.70305157	2.2632914
1442740536964327501	2.98768	0.12619686	1.6926749
1442740536972628283	1.8850632	-0.013327599	1.9221406
1442740536980929064	1.7870911	-0.033412933	1.7205
1442740536989229845	0.881102	1.1611071	2.398169
1442740536997530626	-0.49124777	3.3358173	1.6150497
1442740537005831408	-3.2020118	5.3207436	-0.5425837
1442740537014132189	-5.938036	5.9970818	-3.0248141
1442740537022432970	-6.988822	5.299217	-3.617491
1442740537030733751	-6.0981326	3.4837313	-2.379252
1442740537039034533	-6.257642	3.5018845	-2.6085446
1442740537047335314	-3.5590944	1.214716	-2.073824
1442740537055636095	-1.2105733	0.2757511	-0.78043044
1442740537063936876	1.9974062	0.6200857	-0.14649129
1442740537072237658	4.4566817	1.4619961	-0.778929
1442740537080538439	5.074462	1.8472795	-0.82295585
1442740537088839220	4.9994254	1.8686457	-0.91987777
1442740537097140001	5.4693966	1.1615381	-1.1547384
1442740537105440783	4.337958	0.36606884	-1.4010339
1442740537113741564	3.4740002	-0.032053947	-1.5040269
1442740537122042345	1.784543	-0.57686996	-1.6984341
1442740537130343126	-0.02993548	-1.5112429	-2.4946988
1442740537138643908	-0.1997664	-1.4688082	-2.5357196
1442740537146944689	-0.33399463	-2.1432705	-2.3044577
1442740537155245470	-1.3837415	-2.6400805	-2.287538
1442740537163546251	-2.227984	-2.8868217	-2.2615669
1442740537171847033	-2.6800432	-3.12432	-1.2963498
1442740537180147814	-2.5982594	-3.4639254	-2.1635966
1442740537188448595	-2.6723003	-3.422803	-2.2014694
1442740537196749376	-2.5242977	-3.9416056	-3.133236
1442740537205050158	-2.5760667	-3.908678	-3.151616
1442740537213350939	-2.6414037	-4.097248	-3.0484228
1442740537221651720	-2.9295542	-4.326824	-2.752891
1442740537229952501	-3.3721266	-4.5890703	-2.7556913
1442740537238253283	-3.8391874	-4.8206444	-2.4578707
1442740537246554064	-4.0989237	-4.843664	-2.0688014
1442740537254854845	-4.10155	-4.835539	-2.0387902
1442740537263155626	-4.337906	-4.8809586	-1.657546
1442740537271456408	-4.5246077	-4.80976	-1.1699746
1442740537279757189	-4.707817	-4.407653	-0.85416317
1442740537288057970	-4.809576	-4.077834	-0.2484026
1442740537296358751	-4.6609364	-3.7147484	0.2843287
1442740537304659533	-4.6113057	-3.7328377	0.34658003
1442740537312960314	-4.387151	-3.120058	0.46619248
1442740537321261095	-4.247656	-2.079259	0.363657
1442740537329561876	-3.6354465	-1.0221338	0.004060507
1442740537337862658	-2.2741494	0.50661373	-0.33324242
1442740537346163439	-0.2669983	2.961566	-0.20209014
1442740537354464220	-0.1433295	2.908368	-0.10229516
1442740537362765001	1.8076665	5.6236076	0.43719804
1442740537371065783	3.8327637	8.67087	2.6395764
1442740537379366564	7.490715	14.935446	12.054772
1442740537387667345	7.6905837	14.8608265	12.086219
1442740537395968126	13.666347	7.978359	8.432575
1442740537404268908	7.853253	-0.21445179	5.129578
1442740537412569689	7.90473	-0.21144962	5.0703115
1442740537420870470	4.1753006	-1.5888014	1.384559
1442740537429171251	3.8423982	-1.6012163	0.6280775
1442740537437472033	3.7578537	-1.5885792	0.61798227
1442740537445772814	1.6832873	-0.93003464	-1.0695945
1442740537454073595	-2.7152004	1.8976326	-3.317522
1442740537462374376	-6.6348414	6.139456	-6.788768
1442740537470675158	-6.6229315	6.1221046	-6.754898
1442740537478975939	-7.454331	7.8180113	-6.5193167
1442740537487276720	-7.0064497	5.763508	-3.275575
1442740537495577501	-7.053132	1.8928785	-1.6329129
1442740537503878283	-4.509014	-1.9361544	0.47131586
1442740537512179064	-3.1153011	-5.288045	1.422228
1442740537520479845	-3.0661044	-5.289337	1.4867904
1442740537528780626	-2.302649	-7.012352	-4.7469735
1442740537537081408	-1.4291195	-6.560651	-8.304117
1442740537545382189	-0.44470632	-4.9761324	-8.764663
1442740537553682970	0.82384217	-2.7328415	-8.188948
1442740537561983751	1.265678	-1.2572374	-5.990647
1442740537570284533	0.2034074	-0.63408947	-3.409451
1442740537578585314	0.3311314	-0.64531326	-3.268446
1442740537586886095	-1.2007296	0.24646759	-1.7377483
1442740537595186876	-2.0328846	1.398963	-0.8091254
1442740537603487658	-3.0165462	2.3241825	2.814166
1442740537611788439	-4.1895404	2.5678596	1.32212
1442740537620089220	-4.6809406	2.3468094	0.18768086
1442740537628390001	-2.1993403	1.383852	0.3992288
1442740537636690783	-2.1869116	1.3840208	0.522709
1442740537644991564	-0.98773634	-0.10776138	1.0543288
1442740537653292345	0.043142557	-1.4563465	1.0131404
1442740537661593126	2.1639757	-1.994689	0.3221367
1442740537669893908	2.8435755	-1.5871077	-0.51897997
1442740537678194689	2.8071887	-0.84316254	-1.4940772
1442740537686495470	2.7960196	-0.8278675	-1.7892071
1442740537694796251	2.7865705	-0.82509995	-1.7629218
1442740537703097033	2.7664435	-0.93229485	-1.1354203
1442740537711397814	2.1583054	-0.9295311	-0.45649582
1442740537719698595	2.105308	-1.0322256	0.062435567
1442740537727999376	1.8980774	-0.82146835	0.74882585
1442740537736300158	1.7487068	-0.7302675	1.035775
1442740537744600939	1.7634377	-1.0772381	0.030311465
1442740537752901720	1.7805073	-1.0699883	0.07621765
1442740537761202501	1.5649068	-1.383729	-1.3336906
1442740537769503283	1.5571327	-1.8708963	-2.1234927
1442740537777804064	1.5950384	-2.0225964	-2.1070569
1442740537786104845	1.7355833	-1.6866064	-1.4908614
1442740537794405626	1.7703456	-1.6766777	-1.4507775
1442740537802706408	1.9249477	-0.7440548	0.077527165
1442740537811007189	1.9624702	-0.73346233	0.13007689
1442740537819307970	1.8446372	-0.27090454	0.9267304
1442740537827608751	1.6190538	0.25703526	1.4145125
1442740537835909533	1.4067963	0.5240917	1.338172
1442740537844210314	1.2158784	0.3432045	1.2877557
1442740537852511095	1.2771012	0.3596878	1.3586468
1442740537860811876	1.2775254	-0.028363228	1.5948848
1442740537869112658	1.5502965	0.1458044	1.5281004
1442740537877413439	2.2162447	0.9614887	0.5482683
1442740537885714220	2.9576173	1.7996187	-0.6700878
1442740537894015001	3.9775157	2.346405	-0.93688834
1442740537902315783	4.989558	2.485961	-0.9118427
1442740537910616564	6.38256	2.2072077	-1.4867091
1442740537918917345	6.958892	2.3721113	-0.24023855
1442740537927218126	6.9992027	2.3735743	-0.24923646
1442740537935518908	6.7755733	3.7949905	0.88861394
1442740537943819689	4.858371	5.852374	1.2764561
1442740537952120470	3.524897	6.0179386	0.5002303
1442740537960421251	3.5180602	6.001548	0.47732925
1442740537968722033	3.0583625	3.6818724	-0.1028254
1442740537977022814	3.0233407	1.7260065	0.61275387
1442740537985323595	3.4824967	1.0286703	1.8322082
1442740537993624376	3.5452137	1.0747652	2.3513536
1442740538001925158	2.7071135	1.6503334	2.215232
1442740538010225939	2.6049478	1.6187325	2.0671759
1442740538018526720	0.82722634	2.1032553	2.719335
1442740538026827501	-0.5381264	2.6107206	3.462519
1442740538035128283	-1.8508971	3.6455755	2.230641
1442740538043429064	-3.9654815	4.825403	-0.841007
1442740538051729845	-6.493337	5.211486	-3.0070875
1442740538060030626	-6.558349	2.1578407	-2.314541
1442740538068331408	-6.7132883	2.160925	-2.566006
1442740538076632189	-6.858391	2.1725454	-2.8085325
1442740538084932970	-1.7517955	0.58594704	0.32682377
1442740538093233751	-1.8719382	0.6112375	0.11972487
1442740538101534533	0.30235708	0.33800697	0.3522526
1442740538109835314	3.4138112	0.27710247	-0.2947873
1442740538118136095	3.3234916	0.30237198	-0.42143905
1442740538126436876	3.5017376	0.5771351	-1.6985973
1442740538134737658	4.101104	0.60813046	-1.8911985
1442740538143038439	3.9759104	0.63706875	-1.984683
1442740538151339220	3.4899979	0.037528038	-1.906219
1442740538159640001	2.5482638	-0.7108574	-1.8875315
1442740538167940783	1.6138505	-0.5728607	-1.833947
1442740538176241564	1.4469935	-0.530879	-1.8933184
1442740538184542345	0.17405605	-2.2519064	-2.1854668
1442740538192843126	0.023523688	-2.2032137	-2.2402866
1442740538201143908	-1.1141431	-2.381341	-2.4890325
1442740538209444689	-2.0161378	-2.6938953	-1.4719105
1442740538217745470	-2.6536324	-3.244999	-1.8459747
1442740538226046251	-3.2332118	-3.7622938	-2.3230276
1442740538234347033	-3.387294	-4.260995	-2.854578
1442740538242647814	-3.4597857	-4.219446	-2.885636
1442740538250948595	-3.3206415	-4.677408	-3.22204
1442740538259249376	-3.5798793	-4.9115877	-3.0001616
1442740538267550158	-3.863382	-5.025675	-2.7788844
1442740538275850939	-4.0634155	-4.998904	-2.4238937
1442740538284151720	-4.0878997	-4.9812994	-2.4086664
1442740538292452501	-4.1624804	-4.961112	-1.992311
1442740538300753283	-4.2252088	-4.734106	-1.6843739
1442740538309054064	-4.246234	-4.5353546	-1.3128557
1442740538317354845	-4.0411835	-4.1309986	-0.85581756
1442740538325655626	-3.854182	-3.7418509	-0.30465102
1442740538333956408	-3.8299925	-3.2520113	0.32432556
1442740538342257189	-3.7671037	-3.2775211	0.38484406
1442740538350557970	-3.7173824	-2.5006733	0.56434536
1442740538358858751	-3.5702996	-1.5936489	0.34594226
1442740538367159533	-2.9931104	-0.53250027	-0.3070035
1442740538375460314	-1.6212347	1.4709167	-1.2411566
1442740538383761095	0.030606031	4.2491884	-1.6959412
1442740538392061876	1.4904376	6.7799215	0.5443108
1442740538400362658	1.6597325	6.7146425	0.6276083
1442740538408663439	1.6553508	10.503485	4.83554
1442740538416964220	10.525228	12.8813715	10.34389
1442740538425265001	10.731261	12.821971	10.333223
1442740538433565783	11.334908	4.244339	7.3495946
1442740538441866564	4.932178	-0.6504402	4.138995
1442740538450167345	3.3427305	-0.8580103	2.0963554
1442740538458468126	3.5684323	-1.4085617	1.2535503
1442740538466768908	3.5071175	-1.3939209	1.2203406
1442740538475069689	2.3756669	-1.444272	0.45150244
1442740538483370470	-0.6676345	0.29191017	-1.3170408
1442740538491671251	-5.4038353	4.668352	-4.089542
1442740538499972033	-8.874916	7.760151	-6.7463226
1442740538508272814	-8.863278	7.7400694	-6.708785
1442740538516573595	-8.938423	6.7248	-5.3018904
1442740538524874376	-7.604068	3.1095552	-2.6606433
1442740538533175158	-6.619447	-0.67693806	-1.1391243
1442740538541475939	-5.0975842	-3.8429537	0.0197407
1442740538549776720	-3.912293	-6.08352	-2.0093257
1442740538558077501	-1.9233096	-6.472211	-7.065121
1442740538566378283	-1.8838238	-6.4728823	-6.9843597
1442740538574679064	-1.24582	-5.6145277	-8.724712
1442740538582979845	-0.07846326	-3.4667578	-8.770251
1442740538591280626	1.3416235	-1.0778475	-7.0282326
1442740538599581408	0.9883668	-0.32849503	-4.908225
1442740538607882189	0.11736944	-0.47060585	-2.7949002
1442740538616182970	0.24452367	-0.48720455	-2.6605325
1442740538624483751	-1.6055727	1.3848248	0.6336301
1442740538632784533	-1.4930431	1.3713446	0.7634002
1442740538641085314	-2.5091016	2.6122503	1.518597
1442740538649386095	-3.5945325	2.3665676	0.23059824
1442740538657686876	-2.6585925	1.7807064	-0.4135754
1442740538665987658	-2.3553715	0.62126255	-0.37224472
1442740538674288439	-2.3399014	0.62036705	-0.2527973
1442740538682589220	-1.8614388	-1.0082169	-0.20195377
1442740538690890001	-1.5242769	-2.132059	-0.471774
1442740538699190783	0.15992981	-2.2247953	-0.25196955
1442740538707491564	1.2785578	-1.2694359	-0.35444164
1442740538715792345	1.9478886	-0.24460125	-0.9029192
1442740538724093126	2.6710634	-0.044210434	-1.0525644
1442740538732393908	2.662072	-0.04284382	-1.0081937
1442740538740694689	2.8385842	-0.20653248	-0.5655571
1442740538748995470	2.7357295	-0.68545055	-0.1644544
1442740538757296251	2.7701864	-0.95858574	0.10219729
1442740538765597033	2.760859	-0.8882494	0.43776643
1442740538773897814	2.6907885	-0.9065485	0.54790586
1442740538782198595	2.6955614	-0.90120983	0.59390146
1442740538790499376	2.2467587	-1.0740328	-0.2858063
1442740538798800158	1.6875232	-1.4233227	-1.3951685
1442740538807100939	1.3694063	-1.8195114	-2.0465844
1442740538815401720	1.3268961	-1.9436455	-1.9411824
1442740538823702501	1.4303851	-1.6695414	-1.4165654
1442740538832003283	1.4580575	-1.6615896	-1.3752234
1442740538840304064	1.6086226	-0.6045008	0.02391851
1442740538848604845	1.6438266	-0.5966377	0.07464075
1442740538856905626	1.5170112	-0.08209133	0.69803023
1442740538865206408	1.3454305	0.36518574	1.0807523
1442740538873507189	1.1598505	0.4206314	1.1093405
1442740538881807970	1.2155821	0.43349266	1.1872977
1442740538890108751	1.2133669	-0.03981781	0.98112
1442740538898409533	1.2766333	-0.025158882	1.0478565
1442740538906710314	1.5785799	-0.046157837	0.8550091
1442740538915011095	2.119826	0.13651562	0.019640207
1442740538923311876	2.6932259	0.38694382	-1.0664805
1442740538931612658	3.2609284	1.2531576	-1.2569777
1442740538939913439	3.3153992	1.2566471	-1.2546144
1442740538948214220	4.0497446	2.3947487	-1.022069
1442740538956515001	5.0172663	3.094387	-0.64373493
1442740538964815783	5.5478487	3.143468	-0.44529033
1442740538973116564	5.15983	3.2976694	-0.09352994
1442740538981417345	4.2191563	3.950696	0.7807871
1442740538989718126	3.2992358	4.6185102	1.0627102
1442740538998018908	3.3000765	4.6061935	1.0378703
1442740539006319689	2.9792726	4.212407	0.42498672
1442740539014620470	3.594579	2.5667534	0.04393828
1442740539022921251	3.859883	0.8015642	0.9100925
1442740539031222033	3.5932443	0.34781265	2.304366
1442740539039522814	3.5040655	0.55102634	2.58434
1442740539047823595	3.435461	0.52952766	2.4544914
1442740539056124376	2.6392503	1.0171995	2.1669066
1442740539064425158	-0.55561984	1.3990431	3.2006278
1442740539072725939	-0.6579952	1.3766518	3.0047908
1442740539081026720	-1.751725	2.663621	1.8916748
1442740539089327501	-4.0857406	4.4964676	-0.7047321
1442740539097628283	-7.051035	5.4593334	-2.6985776
1442740539105929064	-7.2107983	5.4542046	-2.9569135
1442740539114229845	-7.9000854	3.5078878	-2.312138
1442740539122530626	-5.3871417	2.0804234	-0.40793484
1442740539130831408	-5.5368557	2.1075583	-0.6412989
1442740539139132189	-2.8372967	1.456253	0.43782473
1442740539147432970	0.07895708	0.6341896	0.17588341
1442740539155733751	2.446584	0.87404823	-0.4783076
1442740539164034533	3.5771265	1.5878668	-0.98230505
1442740539172335314	3.483173	1.614294	-1.0860277
1442740539180636095	4.479784	1.2226315	-0.9649725
1442740539188936876	3.7454367	0.6646385	-1.7459712
1442740539197237658	4.01882	-0.018069267	-2.367923
1442740539205538439	3.0195503	-0.42599678	-2.4325578
1442740539213839220	2.8769164	-0.38768387	-2.4913738
1442740539222140001	1.2031634	-1.0694618	-2.286834
1442740539230440783	0.025836945	-1.8072681	-2.0929546
1442740539238741564	-0.8272587	-2.589284	-1.8387268
1442740539247042345	-1.9509616	-2.6518908	-2.174572
1442740539255343126	-2.645931	-3.00566	-1.1526141
1442740539263643908	-3.274119	-3.2653275	-1.5334613
1442740539271944689	-3.3476334	-3.2191153	-1.5919211
1442740539280245470	-3.7063756	-3.6165323	-1.8014939
1442740539288546251	-3.486887	-4.025337	-2.391396
1442740539296847033	-3.4277062	-4.157487	-2.4376197
1442740539305147814	-3.5238056	-4.281331	-2.64451
1442740539313448595	-3.7034082	-4.392003	-2.6013486
1442740539321749376	-3.9583254	-4.7955866	-2.4516675
1442740539330050158	-3.9826133	-4.7840967	-2.4206822
1442740539338350939	-3.5665898	-4.8743343	-1.9073961
1442740539346651720	-3.5817382	-4.870496	-1.8609335
1442740539354952501	-3.434461	-4.8041115	-1.4796512
1442740539363253283	-3.568	-4.4002733	-0.92786956
1442740539371554064	-3.4175222	-4.0682297	-0.3583858
1442740539379854845	-3.1456454	-3.6110954	0.2475555
1442740539388155626	-3.1100676	-3.6308203	0.31420064
1442740539396456408	-3.0338748	-2.8195963	0.71809316
1442740539404757189	-2.9225857	-1.7168379	0.82050323
1442740539413057970	-2.8146276	-0.22426987	0.57790637
1442740539421358751	-1.9042764	1.7756577	-0.2529018
1442740539429659533	-0.122330666	4.381029	-0.1864059
1442740539437960314	-0.0015201569	4.325631	-0.10777557
1442740539446261095	1.6336659	6.9469156	0.98426104
1442740539454561876	2.5035534	8.983029	4.096248
1442740539462862658	3.0542238	11.5980625	9.921187
1442740539471163439	7.598632	11.595214	11.454994
1442740539479464220	10.666819	5.9983644	6.989127
1442740539487765001	5.691374	0.06663513	4.8651795
1442740539496065783	5.765318	0.06914234	4.7952466
1442740539504366564	3.0617087	-0.4968872	3.0060408
1442740539512667345	3.0078695	-0.42930698	1.1896915
1442740539520968126	1.7030125	-0.2796383	-0.0344882
1442740539529268908	-1.4973767	1.0325575	-1.6885571
1442740539537569689	-1.5315174	1.0342093	-1.6814947
1442740539545870470	-5.6995335	4.1493053	-3.9343135
1442740539554171251	-8.392683	6.598262	-6.2853713
1442740539562472033	-8.170876	5.122925	-5.549258
1442740539570772814	-7.287323	2.5757437	-3.2052922
1442740539579073595	-6.8420544	0.07154465	-1.1807287
1442740539587374376	-4.726882	-2.6643105	0.7806108
1442740539595675158	-4.6996493	-2.6719046	0.83927524
1442740539603975939	-3.2741303	-4.5562086	0.8987001
1442740539612276720	-1.9075706	-5.2445908	-4.280889
1442740539620577501	-1.0511997	-4.8377314	-6.9254866
1442740539628878283	0.37224704	-3.7146177	-9.598482
1442740539637179064	2.0807757	-2.6687279	-9.759763
1442740539645479845	1.6998022	-2.0712729	-8.3793955
1442740539653780626	1.8190436	-2.088379	-8.259684
1442740539662081408	0.25346273	-0.16181183	-3.4522405
1442740539670382189	-1.3160577	1.1700554	-1.2427244
1442740539678682970	-1.1864448	1.1533861	-1.1128445
1442740539686983751	-2.1581938	2.1775255	0.29036522
1442740539695284533	-1.9375843	1.9191446	0.13359869
1442740539703585314	-1.8713048	1.9101181	0.24320608
1442740539711886095	-2.8713193	1.8724022	-0.21202439
1442740539720186876	-2.3817644	1.3143578	0.42371595
1442740539728487658	-1.2328024	0.35188198	1.7037872
1442740539736788439	-1.0500243	-0.48318958	1.1111944
1442740539745089220	-0.15644313	-0.83585453	0.97902846
1442740539753390001	0.95050997	-0.8056278	0.60248405
1442740539761690783	1.3915516	-0.7768879	-0.10687758
1442740539769991564	1.3735465	-0.77471066	-0.07473785
1442740539778292345	1.8341646	-0.66381264	-0.5180236
1442740539786593126	2.1401212	-0.70434666	-0.56974053
1442740539794893908	2.3693664	-1.1489906	-0.31741473
1442740539803194689	2.3556945	-1.1445818	-0.26784337
1442740539811495470	2.3502367	-1.1400366	-0.22180608
1442740539819796251	2.4512007	-1.3014488	-0.34998834
1442740539828097033	2.4188306	-1.3037949	0.14155662
1442740539836397814	2.4315474	-1.2991638	0.17090255
1442740539844698595	1.9849195	-1.4080572	-0.46786612
1442740539852999376	1.4937639	-1.5810375	-1.2979392
1442740539861300158	1.222146	-1.6839476	-1.7391512
1442740539869600939	1.1423547	-1.7071714	-1.660831
1442740539877901720	1.2816255	-1.587512	-1.276082
1442740539886202501	1.3100967	-1.5794144	-1.2240096
1442740539894503283	1.3731968	-1.1488218	-0.76159894
1442740539902797877	1.3148205	-0.46465015	0.011845052
1442740539911098658	1.2033631	0.29969597	0.84495723
1442740539919399439	1.0478203	0.76439095	1.5113384
1442740539927700221	1.1031032	0.775136	1.5912421
1442740539936001002	0.8074914	0.89649105	1.6534145
1442740539944301783	0.87173796	0.9105549	1.7394885
1442740539952602564	1.1394639	0.4320345	1.4738541
1442740539960903346	1.9713215	-0.020744324	0.13780355
1442740539969204127	2.9701724	0.18677425	-1.3986249
1442740539977504908	3.7916887	1.0893431	-1.9910231
1442740539985805689	3.8394496	1.09095	-1.9941748
1442740539994106471	4.794652	2.23567	-2.0544057
1442740540002407252	6.161222	3.2001076	-0.735636
1442740540010708033	6.9658155	3.8863497	0.84738326
1442740540019008814	4.2064605	4.774932	0.92872477
1442740540027309596	4.2328405	4.768923	0.9273211
1442740540035610377	4.2475824	4.761492	0.924561
1442740540043911158	3.0274253	5.2436056	0.7905003
1442740540052211939	2.9662156	3.9549093	0.42367196
1442740540060512721	3.2532406	2.1612692	0.4280436
1442740540068813502	2.9563336	0.6684427	1.6690766
1442740540077114283	2.5511913	-0.040981293	2.7555008
1442740540085415064	2.0476058	0.97537994	2.6044621
1442740540093715846	1.0121609	1.4237709	2.5023615
1442740540102016627	0.9279977	1.3998814	2.3256207
1442740540110317408	-1.8252091	2.6852398	2.8352067
1442740540118618189	-1.9352212	2.6637955	2.6124945
1442740540126918971	-3.8300078	4.5233574	0.23438969
1442740540135219752	-7.0329695	5.9381123	-2.8492892
1442740540143520533	-7.1927657	5.9332523	-3.1231937
1442740540151821314	-9.035836	3.843958	-3.398863
1442740540160122096	-9.196085	3.8642855	-3.662375
1442740540168422877	-6.463805	2.0561018	-1.3240151
1442740540176723658	-4.200985	0.53675556	1.0372229
1442740540185024439	-0.40450293	1.2346888	1.1352141
1442740540193325221	2.6999872	0.8671112	-0.25552166
1442740540201626002	3.7856057	1.4423227	-0.8104253
1442740540209926783	3.6962383	1.4712	-0.9189348
1442740540218227564	3.9150372	1.1521931	-1.2874455
1442740540226528346	4.6651573	0.7202921	-2.1024842
1442740540234829127	4.9149685	-0.087656975	-2.6153371
1442740540243129908	3.4805257	-0.52749157	-2.75291
1442740540251430689	2.0824256	-1.1689053	-2.7430665
1442740540259731471	1.9346851	-1.1242399	-2.7996955
1442740540268032252	0.7070955	-2.3029766	-2.592438
1442740540276333033	-0.575289	-3.2229729	-2.0816538
1442740540284633814	-2.264521	-3.0553303	-2.5007598
1442740540292934596	-3.246539	-3.3377771	-0.89950585
1442740540301235377	-4.335524	-3.710907	-1.0456669
1442740540309536158	-4.406699	-3.6607113	-1.1101944
1442740540317836939	-4.285471	-3.4638424	-2.2209215
1442740540326137721	-3.6445758	-4.2277403	-2.5325391
1442740540334438502	-3.6858191	-4.1945295	-2.5579863
1442740540342739283	-3.7820158	-4.367118	-2.6600802
1442740540351040064	-3.9159117	-4.4053383	-2.779224
1442740540359340846	-3.6826954	-4.679349	-3.0665364
1442740540367641627	-3.644213	-4.8824005	-2.5753505
1442740540375942408	-3.4361556	-5.096486	-2.0402155
1442740540384243189	-3.4484248	-5.097147	-1.9833353
1442740540392543971	-3.4494967	-4.9109535	-1.4910583
1442740540400844752	-3.3760033	-4.4291525	-0.9751458
1442740540409145533	-3.2549894	-3.8585472	-0.10993409
1442740540417446314	-3.069738	-3.1982841	0.64669085
1442740540425747096	-3.0292475	-3.224101	0.72254634
1442740540434047877	-2.9842267	-2.202033	0.92229104
1442740540442348658	-2.957087	-1.0508127	0.66678286
1442740540450649439	-2.0525937	0.54471684	-0.12009287
1442740540458950221	-0.43059325	3.0501747	-1.1721537
1442740540467251002	0.9323559	5.7369776	-0.4066589
1442740540475551783	1.0767851	5.66996	-0.30915892
1442740540483852564	1.3591077	7.7546215	2.2811913
1442740540492153346	1.5705637	10.709429	7.088433
1442740540500454127	11.533613	8.6160145	8.233919
1442740540508754908	11.720786	8.56771	8.218019
1442740540517055689	8.278812	1.3692474	5.76952
1442740540525356471	8.367411	1.3654099	5.703849
1442740540533657252	3.6338131	-1.6130943	2.5021596
1442740540541958033	3.5926433	-1.5999413	2.4678388
1442740540550258814	1.4034353	0.8465462	-0.6465688
1442740540558559596	1.3532543	0.8510752	-0.6483455
1442740540566860377	-2.7632818	2.9702635	-2.7478926
1442740540575161158	-2.7742448	2.9628296	-2.72655
1442740540583461939	-9.100893	9.946967	-7.6154556
1442740540591762721	-9.079995	9.915431	-7.547739
1442740540600063502	-7.4489884	6.0417185	-5.4325604
1442740540608364283	-7.0262976	1.0017672	-2.3224127
1442740540616665064	-5.428116	-2.7408695	0.5392885
1442740540624965846	-3.5580647	-5.468562	2.3233752
1442740540633266627	-3.5250988	-5.4730625	2.3995528
1442740540641567408	-1.7926015	-7.1582556	-9.463029
1442740540649868189	-1.7423418	-7.1571884	-9.380173
1442740540658168971	-0.824844	-6.0889444	-10.363915
1442740540666469752	0.2760467	-4.0321045	-9.492498
1442740540674770533	0.07322025	-1.9650431	-8.37336
1442740540683071314	0.30894363	-1.1625204	-5.4528356
1442740540691372096	-0.15636176	0.15666294	-2.299165
1442740540699672877	-0.039270937	0.14153862	-2.161218
1442740540707973658	-1.5552082	1.9988289	-0.023822904
1442740540716274439	-2.126612	3.264804	3.3344734
1442740540724575221	-4.141836	2.0843582	-0.5034106
1442740540732876002	-4.06872	2.0771914	-0.38198906
1442740540741176783	-4.013417	2.071866	-0.24979974
1442740540749477564	-2.6538186	0.8996229	-0.9256438
1442740540757778346	-0.9361737	-0.66055393	-1.3438286
1442740540766079127	0.040273964	-2.1422377	-0.9208432
1442740540774379908	1.0134073	-2.244872	-0.92837834
1442740540782680689	1.0494487	-1.1564198	0.034694135
1442740540790981471	1.5786064	-0.09687328	0.069120914
1442740540799282252	1.5724288	-0.09620762	0.08442432
1442740540807583033	1.61183	0.34410858	-0.4425623
1442740540815883814	1.947121	-0.26519203	-0.9497455
1442740540824184596	1.9287274	-0.26200962	-0.88555163
1442740540832485377	2.4085834	-0.6779976	-0.3201208
1442740540840786158	2.6009088	-0.86435986	0.2949996
1442740540849086939	2.4063463	-1.0023603	0.65266883
1442740540857387721	2.2489605	-1.1737852	0.42333567
1442740540865688502	1.8698658	-1.2724533	-0.46905625
1442740540873989283	1.8853801	-1.2660351	-0.42832124
1442740540882290064	1.3412638	-1.4709272	-1.2498913
1442740540890590846	0.8145065	-1.593977	-1.456054
1442740540898891627	0.55845493	-1.6399975	-1.3579433
1442740540907192408	0.46249008	-1.4740038	-1.258925
1442740540915493189	0.48405364	-1.4650679	-1.2081801
1442740540923793971	0.554595	-1.0261679	-0.8579341
1442740540932094752	0.5068807	-0.33089638	-0.05936551
1442740540940395533	0.25257063	0.99647045	1.4601132
1442740540948696314	0.29696405	1.0071716	1.5368423
1442740540956997096	0.41830915	1.0574541	1.7647456
1442740540965297877	0.4772489	1.0701895	1.8378942
1442740540973598658	0.7712833	0.7603464	1.8583645
1442740540981899439	1.3064759	0.4739399	1.6192583
1442740540990200221	1.9764175	0.23940182	0.7445632
1442740540998501002	2.8930418	0.46257782	-0.6239394
1442740541006801783	3.7279437	1.0774298	-1.2899526
1442740541015102564	4.702079	1.9112015	-1.2296284
1442740541023403346	4.7520075	1.9131145	-1.2278793
1442740541031704127	6.652541	3.0182304	0.5514406
1442740541040004908	5.991563	3.0771112	1.1824396
1442740541048305689	6.0227036	3.0747643	1.1748222
1442740541056606471	4.5991435	3.5526628	1.0453768
1442740541064907252	3.5433538	4.5192137	1.5157837
1442740541073208033	3.5325112	4.5069675	1.4987713
1442740541081508814	3.0389853	3.1994295	1.2329124
1442740541089809596	2.991931	3.1814098	1.1896964
1442740541098110377	3.3875065	1.6208916	1.5570173
1442740541106411158	2.83253	0.85278606	2.7655177
1442740541114711939	2.4018753	0.94096565	3.2395809
1442740541123012721	2.081304	1.8456612	2.8466308
1442740541131313502	1.9989392	1.819005	2.7004454
1442740541139614283	0.96811557	1.9169359	2.404684
1442740541147915064	-0.7693387	2.206336	1.8719343
1442740541156215846	-2.4413228	3.1337633	0.07745722
1442740541164516627	-4.8452783	4.2278366	-2.5508082
1442740541172817408	-6.778551	5.054388	-3.9908037
1442740541181118189	-7.8253055	4.71198	-3.4126668
1442740541189418971	-7.988016	4.720207	-3.685396
1442740541197719752	-6.9882846	3.5861797	-2.0020936
1442740541206020533	-4.935402	2.0025253	0.3283174
1442740541214321314	-3.373298	1.7431173	1.3693104
1442740541222622096	0.18400848	1.6872768	0.50190103
1442740541230922877	1.802542	1.8876209	0.3719126
1442740541239223658	1.7110126	1.9172688	0.23575783
1442740541247524439	3.162538	2.4712534	-2.0886927
1442740541255825221	3.9451866	-0.086977005	-2.2222707
1442740541264126002	3.8414783	-0.052495003	-2.316236
1442740541272426783	3.4573398	-0.40166378	-2.5312073
1442740541280727564	1.9126375	-0.95444965	-2.3191626
1442740541289028346	1.7823027	-0.9119501	-2.389449
1442740541297329127	0.32762325	-2.8435202	-1.787436
1442740541305629908	-0.96988714	-3.4113274	-1.6582854
1442740541313930689	-1.1058147	-3.3570366	-1.7165167
1442740541322231471	-2.5435982	-3.2370071	-1.8899629
1442740541330532252	-3.334549	-3.1530247	-1.6816883
1442740541338833033	-3.5185244	-3.6878204	-1.3749979
1442740541347133814	-3.600358	-3.641345	-1.4190893
1442740541355434596	-3.5487807	-4.191738	-2.1379335
1442740541363735377	-3.351259	-4.4673405	-2.7206316
1442740541372036158	-3.144412	-4.6409626	-3.0754383
1442740541380336939	-3.52904	-5.0692024	-3.163539
1442740541388637721	-3.5672452	-5.049902	-3.1393576
1442740541396938502	-3.7173789	-5.215535	-2.462467
1442740541405239283	-3.7418156	-5.205014	-2.4227145
1442740541413540064	-3.7893937	-5.3438463	-1.6942425
1442740541421840846	-3.793331	-5.374552	-1.2983379
1442740541430141627	-3.826822	-5.0832176	-0.7550764
1442740541438442408	-3.6748514	-4.719866	0.018761158
1442740541446743189	-3.4839914	-4.0628195	0.61171794
1442740541455043971	-3.4281824	-4.087536	0.67651296
1442740541463344752	-3.2680469	-3.043064	0.8288288
1442740541471645533	-2.5045574	0.47753525	0.07948089
1442740541479946314	-2.40159	0.42947865	0.15896297
1442740541488247096	-0.886801	3.2485657	-0.65648985
1442740541496547877	0.6444242	6.2043333	-0.28261435
1442740541504848658	0.78883505	6.138459	-0.19512987
1442740541513149439	1.7429428	8.2425585	2.5558553
1442740541521450221	2.6067853	11.327658	7.444683
1442740541529751002	6.694586	13.108013	11.834911
1442740541538051783	11.926962	9.026078	8.723915
1442740541546352564	7.2863307	2.070138	5.0667844
1442740541554653346	3.5797558	0.33894062	3.8219466
1442740541562954127	2.9869776	1.1615181	2.6010747
1442740541571254908	2.0072258	2.0681276	1.3903577
1442740541579555689	1.945226	2.0731688	1.3822615
1442740541587856471	-1.8966421	4.7811995	-0.6773462
1442740541596157252	-7.3234596	8.881983	-4.532976
1442740541604458033	-10.553919	9.478043	-6.2865314
1442740541612758814	-9.253794	4.5018215	-4.2345095
1442740541621059596	-9.230093	4.4837875	-4.186485
1442740541629360377	-7.7354856	-1.2052383	-2.5488296
1442740541637661158	-6.968231	-4.1828623	-1.3784994
1442740541645961939	-4.0454316	-5.5882683	-1.7829849
1442740541654262721	-3.0162182	-6.695142	-3.5100741
1442740541662563502	-2.1145494	-6.5399456	-7.1504054
1442740541670864283	-2.0762732	-6.5379114	-7.095211
1442740541679165064	-0.68620515	-5.251137	-9.713143
1442740541687465846	-0.18044889	-3.3551283	-10.772459
1442740541695766627	-0.5307255	-1.9417839	-9.607028
1442740541704067408	-0.54001784	-1.7032719	-7.1314845
1442740541712368189	0.08329064	-1.3353529	-4.4859285
1442740541720668971	-0.4339012	-0.06817818	-1.6125646
1442740541728969752	-0.31959164	-0.08691311	-1.4883082
1442740541737270533	-0.88459116	1.6874094	1.5330861
1442740541745571314	-1.8243785	3.1005993	1.1472251
1442740541753872096	-1.7368335	3.0849276	1.2509705
1442740541762172877	-0.6893523	1.111722	0.4904403
1442740541770473658	-1.0593624	0.35886478	0.17700477
1442740541778774439	-1.4704012	-0.33999062	-1.0820582
1442740541787075221	-1.6087445	-1.0423985	-1.8319336
1442740541795376002	-1.2687544	-0.98353195	-0.7466961
1442740541803676783	-1.2284528	-0.9798031	-0.65102947
1442740541811977564	-1.311293	-0.7356205	0.36319453
1442740541820278346	-0.2944182	-0.17920876	0.68230766
1442740541828579127	1.0755595	0.63138103	0.5011518
1442740541836879908	1.0660585	0.6320114	0.54352933
1442740541845180689	1.9898237	0.33914948	0.21817741
1442740541853481471	2.6747942	-0.2811699	-0.33341277
1442740541861782252	2.8059502	-0.94410706	-0.68189114
1442740541870083033	3.0814638	-1.6185675	-0.9311698
1442740541878383814	3.1582205	-1.6299772	-0.87528425
1442740541886684596	2.7108564	-1.08955	-0.51157415
1442740541894985377	2.055016	-0.6515541	-0.08050078
1442740541903286158	2.079772	-0.6464672	-0.039788306
1442740541911586939	0.83846176	-0.7581425	0.17240721
1442740541919887721	-0.0033864677	-1.3278027	-0.23682153
1442740541928188502	-0.14217438	-1.953412	-0.69782317
1442740541936489283	0.31072903	-2.1955338	-1.0726532
1442740541944790064	1.0065017	-1.6642427	-1.0790422
1442740541953090846	1.0336807	-1.6547832	-1.0293735
1442740541961391627	1.6191902	-0.60404587	-0.6916293
1442740541969692408	1.7869755	0.1583376	-0.12606525
1442740541977993189	1.8256378	0.63405037	0.6648935
1442740541986293971	1.7040861	0.93800354	1.512303
1442740541994594752	1.2727954	0.8663416	1.877928
1442740542002895533	1.3311377	0.878232	1.9425482
1442740542011196314	1.137141	0.52807236	1.5671897
1442740542019497096	1.0660474	0.16471004	0.9368633
1442740542027797877	1.2726469	-0.07588005	0.4199146
1442740542036098658	2.008263	0.3809147	-0.35776556
1442740542044399439	2.9294434	1.5339832	-1.1366028
1442740542052700221	4.237475	2.5348654	-1.5470117
1442740542061001002	5.6299715	2.8983126	-1.4134789
1442740542069301783	6.744341	2.8766718	-0.8848808
1442740542077602564	6.7806597	2.8746977	-0.89142275
1442740542085903346	6.5777626	3.759575	0.308828
1442740542094204127	5.0563226	4.9889517	0.60819757
1442740542102504908	3.5484812	5.5154486	0.30135536
1442740542110805689	3.051042	4.3120384	-0.010002971
1442740542119106471	3.029088	4.295579	-0.043860316
1442740542127407252	3.4334402	2.0514097	0.73463833
1442740542135708033	3.5821645	0.6491499	2.0438552
1442740542144008814	3.628765	0.6955004	2.8369224
1442740542152309596	2.9630008	1.1547966	2.4577255
1442740542160610377	1.682498	2.1507196	2.5671878
1442740542168911158	1.5850517	2.123064	2.4024925
1442740542177211939	-0.038396537	2.2329664	2.9168787
1442740542185512721	-1.2920772	3.087984	2.8359141
1442740542193813502	-2.950495	4.5548897	0.5379729
1442740542202114283	-6.243912	5.852991	-2.2479818
1442740542210415064	-8.016043	5.498273	-3.7184606
1442740542218715846	-8.258542	3.6881704	-3.6720288
1442740542227016627	-8.413661	3.7021246	-3.9210641
1442740542235317408	-3.8844151	0.3024149	-0.27405548
1442740542243618189	-1.0617565	0.33355045	-0.051106215
1442740542251918971	-1.1784549	0.3671322	-0.24018502
1442740542260219752	1.619822	0.25128365	-0.092515826
1442740542268520533	1.5335927	0.28194618	-0.22956824
1442740542276821314	4.345845	1.3990765	-2.2423363
1442740542285122096	4.328279	-0.10018635	-2.0136418
1442740542293422877	4.226965	-0.06971359	-2.1011753
1442740542301723658	3.2029269	0.21540546	-2.440002
1442740542310024439	2.9485295	-0.32071686	-2.3740814
1442740542318325221	1.4147446	-0.21003437	-2.503906
1442740542326626002	0.75772226	-1.1441936	-2.4655983
1442740542334926783	0.60309947	-1.0935373	-2.5308528
1442740542343227564	-0.08705902	-1.9470434	-2.4363225
1442740542351528346	-1.5792572	-2.1319494	-2.0794332
1442740542359829127	-2.9259026	-2.3191462	-1.1072223
1442740542368129908	-3.6402056	-2.8838615	-0.9427693
1442740542376430689	-3.8897758	-3.1255417	-1.6480901
1442740542384731471	-3.9620256	-3.0768147	-1.7072692
1442740542393032252	-3.6568992	-3.749258	-2.5570886
1442740542401333033	-3.5322797	-4.3823977	-2.9437091
1442740542409633814	-3.7438354	-4.655116	-3.0942926
1442740542417934596	-3.8348947	-4.9360876	-3.2586863
1442740542426235377	-4.1055164	-5.0095034	-2.8548512
1442740542434536158	-4.1291075	-5.0635195	-2.3489628
1442740542442836939	-4.15434	-5.0503645	-2.3172727
1442740542451137721	-4.2901335	-4.8203926	-1.6069002
1442740542459438502	-4.293626	-4.818858	-1.5630298
1442740542467739283	-4.298855	-4.163952	-0.870312
1442740542476040064	-4.0865655	-3.7154036	-0.15512109
1442740542484340846	-4.0049796	-3.2247982	0.6153774
1442740542492641627	-3.959368	-3.2477999	0.6752796
1442740542500942408	-3.9479935	-1.9503355	0.6000018
1442740542509243189	-3.868831	-1.9875097	0.6700928
1442740542517543971	-3.4287615	-1.1061707	0.21289921
1442740542525844752	-2.4317737	0.6391363	-0.67816424
1442740542534145533	-0.44793153	3.6484299	-1.4282875
1442740542542446314	0.8633349	6.777214	-0.43398404
1442740542550747096	1.4177496	9.783478	3.3955522
1442740542559047877	1.6123753	9.7059965	3.4620333
1442740542567348658	1.8166287	13.998399	8.518211
1442740542575649439	5.464758	14.3281	12.374822
1442740542583950221	12.387825	8.235384	9.316371
1442740542592251002	8.046718	0.05198002	5.6760163
1442740542600551783	4.323851	-2.0802135	2.641196
1442740542608852564	4.3049936	-2.0602512	2.5668013
1442740542617153346	4.084494	-2.1189365	0.7533753
1442740542625454127	4.2887135	-2.1938543	0.075627565
1442740542633754908	1.461691	-1.0897665	-1.1414089
1442740542642055689	-3.0237608	1.9675932	-3.0130723
1442740542650356471	-6.5749326	6.3106213	-6.4556704
1442740542658657252	-6.5755825	6.297824	-6.435502
1442740542666958033	-8.429362	7.858301	-7.787881
1442740542675258814	-8.501043	6.453681	-4.737871
1442740542683559596	-7.316366	2.354617	-2.2773225
1442740542691860377	-5.713263	-2.7521124	-0.5822964
1442740542700161158	-3.8439865	-5.7264767	0.56441486
1442740542708461939	-2.5985723	-6.3155003	-6.3261795
1442740542716762721	-2.550688	-6.323266	-6.223244
1442740542725063502	-1.8186722	-5.4745827	-9.284362
1442740542733364283	-0.4704566	-4.276555	-9.287231
1442740542741665064	0.8425895	-2.2465763	-9.3691225
1442740542749965846	0.56713134	-0.998436	-7.630805
1442740542758266627	-0.10463396	-0.76989746	-4.625139
1442740542766567408	0.050482392	-0.7885332	-4.4814715
1442740542774868189	-3.0270538	2.1434155	-0.8522871
1442740542783168971	-3.4585323	2.726696	3.5483084
1442740542791469752	-3.343458	2.7134695	3.677258
1442740542799770533	-5.5830746	2.9165745	2.226256
1442740542808071314	-6.0399747	3.1110554	0.82494754
1442740542816372096	-3.6502566	2.1375494	1.9812496
1442740542824672877	-1.048727	0.55865955	2.4004896
1442740542832973658	-1.0648818	0.55753994	2.4696488
1442740542841274439	1.355897	-1.4088011	1.0285414
1442740542849575221	2.8081157	-2.2656488	-1.3362888
1442740542857876002	3.0759246	-2.246749	-2.3353078
1442740542866176783	3.506892	-1.8147221	-2.5215058
1442740542874477564	3.6607862	-1.148304	-1.9928089
1442740542882778346	3.6510851	-1.1457701	-1.9703138
1442740542891079127	3.2080152	-0.7967205	-0.7506695
1442740542899379908	2.5300207	-0.6580696	-0.2371875
1442740542907680689	2.404179	-0.4810009	0.4437355
1442740542915981471	2.1777492	-0.57600784	1.151067
1442740542924282252	2.0556445	-0.8758335	1.2053999
1442740542932583033	2.0624952	-0.87168026	1.2555776
1442740542940883814	2.122779	-1.5243177	-0.02313444
1442740542949184596	2.0015335	-1.8497705	-1.5967624
1442740542957485377	1.7823609	-2.092102	-2.5493917
1442740542965786158	1.6883886	-2.0351887	-2.6605046
1442740542974086939	1.481841	-1.3295126	-1.8570623
1442740542982387721	1.345473	-0.7234783	-0.70492643
1442740542990688502	1.2573942	-0.42197323	0.17815149
1442740542998989283	1.3550982	-0.14120293	0.85972756
1442740543007290064	1.3915299	-0.1329298	0.9337306
1442740543015590846	1.2342525	0.24108028	1.3875918
1442740543023891627	0.9345453	0.4392748	1.2256364
1442740543032192408	0.9928157	0.4512005	1.3098605
1442740543040493189	0.55308473	0.1429987	0.8528303
1442740543048793971	0.62167174	0.15657902	0.923107
1442740543057094752	1.0285933	-0.041786194	0.8825363
1442740543065395533	1.7172987	0.06922817	0.021095157
1442740543073696314	2.6036212	0.5512104	-1.7387289
1442740543081997096	3.4936345	1.3668966	-2.3744454
1442740543090297877	4.4848533	2.171463	-2.036142
1442740543098598658	4.537771	2.1726599	-2.0381536
1442740543106899439	5.523435	2.843544	-1.215493
1442740543115200221	6.5668945	3.343731	-0.31486154
1442740543123501002	5.7336307	4.027809	0.39508605
1442740543131801783	4.203342	4.790324	0.6393206
1442740543140102564	3.0916555	4.9418716	0.5513843
1442740543148403346	3.0807528	4.929126	0.5372269
1442740543156704127	2.8668704	3.6221657	0.13808882
1442740543165004908	3.4331818	1.5849447	0.53966296
1442740543173305689	3.8702726	0.53449535	1.5733596
1442740543181606471	3.6460514	0.41105556	2.4026885
1442740543189907252	3.2274318	0.74772644	2.4501147
1442740543198208033	3.1582277	0.7265053	2.310237
1442740543206508814	0.6458014	1.2494926	2.5157347
1442740543214809596	0.55794406	1.22787	2.328099
1442740543223110377	-0.63566303	1.9323053	2.3218389
1442740543231411158	-2.0295286	3.4499645	1.0587668
1442740543239711939	-4.3864665	5.222886	-1.0299276
1442740543248012721	-7.296014	6.3299713	-2.6338944
1442740543256313502	-7.4619584	6.329336	-2.8884153
1442740543264614283	-9.121945	5.488784	-3.8257084
1442740543272915064	-8.665537	3.5680628	-3.1282568
1442740543281215846	-3.2434883	0.68085957	0.08634746
1442740543289516627	-3.4000754	0.7232456	-0.1299988
1442740543297817408	-0.44544655	1.0876389	-0.18439269
1442740543306118189	2.9133897	1.1223078	0.22154927
1442740543314418971	2.8185453	1.1544952	0.100456715
1442740543322719752	4.060685	1.1750879	-1.110482
1442740543331020533	3.9758315	1.20257	-1.1963315
1442740543339321314	3.9362774	0.54337883	-1.2601724
1442740543347622096	4.92927	-0.030917168	-2.2775784
1442740543355922877	3.13706	-0.37701035	-2.6347759
1442740543364223658	2.9919322	-0.33476925	-2.6941147
1442740543372524439	1.6795651	-0.9204931	-2.78907
1442740543380825221	0.83981276	-2.166932	-2.7619693
1442740543389126002	-0.4710343	-3.314766	-2.3938367
1442740543397426783	-2.0809686	-2.6212788	-2.9376
1442740543405727564	-2.914165	-2.6593132	-1.300066
1442740543414028346	-3.4772127	-3.077365	-1.6940157
1442740543422329127	-3.53639	-3.0337286	-1.7493277
1442740543430629908	-4.0766244	-3.4140978	-2.276759
1442740543438930689	-3.8407807	-3.7087755	-2.694285
1442740543447231471	-3.835909	-3.968296	-2.9708447
1442740543455532252	-3.8505998	-4.223543	-2.9786737
1442740543463833033	-3.929277	-4.411235	-2.9786346
1442740543472133814	-3.914168	-4.6742954	-2.9733605
1442740543480434596	-3.930423	-4.6681147	-2.9338112
1442740543488735377	-3.8644764	-4.73802	-2.2648985
1442740543497036158	-3.7290947	-4.7012444	-1.6100614
1442740543505336939	-3.884112	-4.2596226	-0.87041426
1442740543513637721	-3.7198198	-3.5856686	-0.28414893
1442740543521938502	-3.6397202	-2.9338732	0.5084405
1442740543530239283	-3.678974	-2.4361095	1.1090496
1442740543538540064	-3.6430604	-1.8976135	1.0531294
1442740543546840846	-3.5811937	-1.9311552	1.1310349
1442740543555141627	-3.4426074	-1.2172251	0.26881623
1442740543563442408	-3.204833	-0.4946661	-0.38993382
1442740543571743189	-2.3102605	0.9597721	-0.95856833
1442740543580043971	-1.1178398	3.7676	-1.0248184
1442740543588344752	-0.995806	3.7136269	-0.93903637
1442740543596645533	0.5136726	6.27345	0.3429631
1442740543604946314	1.7190721	8.02139	3.7307441
1442740543613247096	2.5924516	11.04314	7.667203
1442740543621547877	5.682493	12.002431	11.011354
1442740543629848658	10.813757	7.4466524	7.81005
1442740543638149439	8.2481575	0.9749212	4.5213413
1442740543646450221	8.311283	0.9741297	4.459956
1442740543654751002	4.66967	-0.7070885	0.98629165
1442740543663051783	4.644384	-0.69604874	0.9464947
1442740543671352564	3.3615885	-1.1031466	-0.50915337
1442740543679653346	0.61456156	-0.35003757	-2.1068826
1442740543687954127	-2.8195593	2.7401571	-4.1458883
1442740543696254908	-2.8451653	2.741253	-4.1499505
1442740543704555689	-6.025572	5.936145	-6.3034315
1442740543712856471	-7.2694836	6.5919876	-5.3121624
1442740543721157252	-7.0955276	4.717986	-2.7982059
1442740543729458033	-6.355352	1.0383482	-1.5877078
1442740543737758814	-4.8922806	-2.5282202	1.0941986
1442740543746059596	-3.573263	-5.509778	0.21054411
1442740543754360377	-3.53833	-5.5160627	0.28700292
1442740543762661158	-2.9663782	-6.604746	-5.2326727
1442740543770961939	-1.9416733	-5.660597	-7.7442827
1442740543779262721	-0.7091825	-3.8171272	-8.127994
1442740543787563502	0.6018845	-1.741744	-8.584627
1442740543795864283	1.4859884	-1.0060654	-7.517133
1442740543804165064	0.38265383	-0.74612045	-4.946706
1442740543812465846	0.50916	-0.7658472	-4.8193455
1442740543820766627	-0.6913592	0.31174564	-2.0856586
1442740543829067408	-0.7258516	1.4673834	0.018119931
1442740543837368189	-1.9764725	1.9451084	2.0183854
1442740543845668971	-2.444882	1.7645845	0.48315305
1442740543853969752	-2.9848087	1.7488852	-0.78464353
1442740543862270533	-2.9149745	1.7409277	-0.6525825
1442740543870571314	-2.4260902	1.6024437	-0.29539192
1442740543878872096	-0.6613523	0.48127937	0.35622966
1442740543887172877	-0.9007421	-0.75216675	0.77996004
1442740543895473658	0.4681847	-1.3094044	0.4542374
1442740543903774439	1.088199	-1.0443802	-0.1566713
1442740543912075221	1.4197631	-0.385334	-1.0184839
1442740543920376002	1.4032931	-0.38484573	-1.0013652
1442740543928676783	1.8347311	-0.45134926	-1.0627167
1442740543936977564	2.0307302	-0.6022272	-1.0168808
1442740543945278346	2.2716494	-0.8012428	-0.5930934
1442740543953579127	2.2715917	-1.0623903	-0.27805763
1442740543961879908	2.013609	-1.1467409	-0.060203224
1442740543970180689	2.006173	-1.1419744	0.0049139857
1442740543978481471	1.3631895	-1.0115662	0.2649703
1442740543986782252	1.102958	-1.2885265	-0.99513817
1442740543995083033	1.1137816	-1.2832108	-0.9500088
1442740544003383814	0.8533598	-1.5359154	-1.7400161
1442740544011684596	0.606525	-1.9158411	-2.0863044
1442740544019985377	0.6161088	-1.808794	-2.0642064
1442740544028286158	0.81789315	-1.3720493	-1.7602084
1442740544036586939	0.8453466	-1.365344	-1.7175907
1442740544044887721	1.2301617	-0.9944515	-1.0786211
1442740544053188502	1.3861058	-0.30384827	-0.40838224
1442740544061489283	1.3354881	0.34297752	0.30195552
1442740544069790064	1.1238881	0.6439438	0.98356676
1442740544078090846	0.95686036	0.7415552	1.3563218
1442740544086391627	1.0170898	0.7529707	1.4322985
1442740544094692408	1.0747116	0.7364006	1.6110295
1442740544102993189	1.2853651	0.6017418	1.7284279
1442740544111293971	1.7461534	0.48922634	1.2573159
1442740544119594752	2.3006752	0.39908504	-0.21625829
1442740544127895533	2.3597565	0.40773106	-0.19188654
1442740544136196314	3.0860808	0.69902897	-1.3222027
1442740544144497096	4.0586815	1.6695852	-1.8119181
1442740544152797877	6.217519	3.3444643	-1.0147913
1442740544161098658	6.248021	3.3410683	-1.0214068
1442740544169399439	6.542062	3.9546747	0.24288297
1442740544177700221	5.587902	5.0371637	0.7823194
1442740544186001002	5.604724	5.028862	0.77236474
1442740544194301783	4.244381	5.8625755	0.72951496
1442740544202602564	3.577622	2.8023577	0.15862954
1442740544210903346	3.5432348	2.788498	0.123950005
1442740544219204127	3.854208	0.9973726	0.9388628
1442740544227504908	3.7620382	0.6194105	2.2138402
1442740544235805689	3.443366	0.6296444	2.7935264
1442740544244106471	2.6909606	1.2580681	2.406629
1442740544252407252	2.608773	1.2362223	2.2657664
1442740544260708033	1.2991347	1.2519121	2.0774052
1442740544269008814	-0.19602633	1.3121357	2.5890944
1442740544277309596	-1.3675812	2.329011	2.3392353
1442740544285610377	-3.165823	3.9923048	0.2348335
1442740544293911158	-3.3148239	3.9822817	-0.019105613
1442740544302211939	-6.1861343	5.123377	-2.6497326
1442740544310512721	-7.937782	4.8981915	-4.221342
1442740544318813502	-7.836967	3.284668	-4.122009
1442740544327114283	-3.0860138	0.5450802	-0.5359013
1442740544335415064	-3.2141194	0.58340263	-0.76373696
1442740544343715846	-0.7758078	1.0717449	-0.06934297
1442740544352016627	1.7698555	1.6877165	-0.20093405
1442740544360317408	1.6839459	1.722435	-0.35259247
1442740544368618189	3.9787986	2.0500183	-1.8710859
1442740544376918971	3.1114674	0.7359886	-1.1696796
1442740544385219752	3.0219646	0.7684593	-1.2671967
1442740544393520533	3.697367	0.14326096	-2.160639
1442740544401821314	2.1934056	-0.3413658	-2.1608226
1442740544410122096	2.0545382	-0.2988243	-2.2329633
1442740544418422877	0.7671187	-0.36955833	-2.4242854
1442740544426723658	0.21301258	-1.2745352	-2.520357
1442740544435024439	-0.47405565	-2.2695494	-1.8883111
1442740544443325221	-1.9113591	-2.3908796	-2.352657
1442740544451626002	-2.651343	-2.8338938	-0.98426414
1442740544459926783	-2.7540286	-2.7817698	-1.0416756
1442740544468227564	-3.2902608	-3.1473103	-1.4236197
1442740544476528346	-3.3016016	-3.457635	-2.095461
1442740544484829127	-3.1753843	-3.973135	-2.4353988
1442740544493129908	-3.1126	-4.377592	-2.7597222
1442740544501430689	-3.347544	-4.5035105	-2.7772367
1442740544509731471	-3.6117637	-4.717493	-3.017554
1442740544518032252	-3.8987422	-4.7476645	-2.9124043
1442740544526333033	-3.9244232	-4.7350693	-2.8844504
1442740544534633814	-3.7970047	-4.813879	-2.4591708
1442740544542934596	-3.722829	-4.8280544	-1.9271941
1442740544551235377	-3.710496	-4.6081038	-1.6227381
1442740544559536158	-3.7960165	-4.119893	-1.1280816
1442740544567836939	-3.71362	-3.8045788	-0.47103405
1442740544576137721	-3.688047	-3.8215666	-0.40908623
1442740544584438502	-3.4289732	-3.4029217	0.30281258
1442740544592739283	-3.384713	-2.5015697	0.73969316
1442740544601040064	-3.3170714	-1.1595592	0.745435
1442740544609340846	-2.7799537	0.45514488	0.6162367
1442740544617641627	-1.6353135	2.5885572	-0.05679655
1442740544625942408	-1.5354557	2.535633	0.030053854
1442740544634243189	0.09787798	4.9494305	-0.60877013
1442740544642543971	1.4937129	6.900626	0.48757482
1442740544650844752	2.3189602	7.900194	3.063455
1442740544659145533	3.6724136	9.065968	7.6440563
1442740544667446314	7.442495	9.1183	9.918055
1442740544675747096	10.064058	5.8079424	6.4760976
1442740544684047877	10.181302	5.782998	6.433442
1442740544692348658	4.075041	-1.2420359	3.480652
1442740544700649439	4.081124	-1.2331867	3.43739
1442740544708950221	3.1858604	-1.5058889	1.4095552
1442740544717251002	2.5618277	-0.9886675	0.028270721
1442740544725551783	2.5039756	-0.9791069	0.027155876
1442740544733852564	-2.5582986	1.9325647	-3.2544284
1442740544742153346	-6.641385	5.0004196	-5.251299
1442740544750454127	-6.641606	4.989977	-5.231122
1442740544758754908	-8.197171	7.794606	-7.0898876
1442740544767055689	-7.1070323	6.238268	-5.2049694
1442740544775356471	-6.839067	4.0827055	-2.4246087
1442740544783657252	-6.363315	0.1507883	-1.1502428
1442740544791958033	-6.327697	0.13242722	-1.0705513
1442740544800258814	-4.4510074	-2.790392	3.7822905
1442740544808559596	-2.2084656	-5.344694	1.4007151
1442740544816860377	-1.4194506	-5.6389475	-6.8519793
1442740544825161158	-0.5641595	-5.2417154	-8.648581
1442740544833461939	0.9455838	-4.1261196	-8.225457
1442740544841762721	1.0498238	-4.1374664	-8.135624
1442740544850063502	2.9234939	-2.4503527	-7.9248524
1442740544858364283	2.49305	-1.4962215	-5.977706
1442740544866665064	0.44893503	-0.20673275	-3.3821528
1442740544874965846	-1.1341878	1.573184	-3.1445017
1442740544883266627	-2.1040049	2.7086954	-0.9269607
1442740544891567408	-1.996335	2.6940718	-0.79443616
1442740544899868189	-2.494416	2.3532257	3.0930061
1442740544908168971	-3.6193695	1.2137537	-1.0631722
1442740544916469752	-3.5968983	1.2086916	-0.9433807
1442740544924770533	-2.5253077	0.6081095	0.50247866
1442740544933071314	-0.7701682	-0.2467699	0.89014614
1442740544941372096	0.6392165	-1.3239155	1.2331498
1442740544949672877	0.64530706	-1.3208189	1.2532812
1442740544957973658	1.8481615	-1.703578	0.603871
1442740544966274439	1.9037026	-1.443285	-0.5528388
1442740544974575221	1.9355263	-1.0747738	-1.2140366
1442740544982876002	1.8976575	-0.6314316	-1.5732852
1442740544991176783	1.7188433	-0.5524378	-1.0384685
1442740544999477564	1.3160902	-0.7115288	-0.565372
1442740545007778346	1.1750386	-1.0749741	0.017423242
1442740545016079127	1.1651031	-1.0695629	0.08689764
1442740545024379908	1.1217113	-1.1907024	0.48165232
1442740545032680689	1.7912333	-0.9632797	0.09294492
1442740545040981471	1.9362968	-1.2489595	-1.0402498
1442740545049282252	1.7873892	-1.5795927	-1.7450924
1442740545057583033	1.4410858	-2.0286884	-2.0218112
1442740545065883814	1.4794499	-2.0213842	-1.9824764
1442740545074184596	1.1771126	-1.8712158	-1.7132319
1442740545082485377	0.9283815	-1.3013496	-1.106308
1442740545090786158	0.78391296	-0.9045429	-0.41599655
1442740545099086939	0.54745215	-0.4772606	0.20360357
1442740545107387721	0.4527954	0.16784286	0.8532876
1442740545115688502	0.49402964	0.17783451	0.9306474
1442740545123989283	0.45080397	0.6524801	1.2027614
1442740545132290064	0.59916747	0.4623022	1.4924748
1442740545140590846	0.6610432	0.47484875	1.5644652
1442740545148891627	0.9796566	0.48714447	1.7179985
1442740545157192408	1.3121655	0.5832691	1.1358869
1442740545165493189	1.9838012	1.0062666	-0.52627504
1442740545173793971	2.0465832	1.0140142	-0.4963752
1442740545182094752	2.9893622	1.6044531	-1.7434126
1442740545190395533	4.294525	2.0908623	-1.6531984
1442740545198696314	5.3383	2.2031593	-1.1509837
1442740545206997096	6.4812512	2.2492466	-0.61319494
1442740545215297877	6.567205	2.9619932	0.5052371
1442740545223598658	6.603448	2.9590464	0.4905156
1442740545231899439	5.4621377	4.5324554	0.67941856
1442740545240200221	4.0079756	5.602582	0.52560234
1442740545248501002	3.1557536	4.8593655	-0.41769242
1442740545256801783	3.4332683	2.7866468	-0.4224782
1442740545265102564	3.588521	1.0836182	0.884802
1442740545273403346	3.5391834	0.96326256	2.3064952
1442740545281704127	3.4640925	0.94184685	2.203325
1442740545290004908	2.7457795	1.3463984	2.5242205
1442740545298305689	1.4198079	2.3498306	2.454429
1442740545306606471	0.044193745	2.3323908	3.0963829
1442740545314907252	-1.692139	2.6131773	2.9760938
1442740545323208033	-3.2829974	3.9208164	1.1582518
1442740545331508814	-5.6786447	5.3863583	-1.3088676
1442740545339809596	-5.8414693	5.373069	-1.5655895
1442740545348110377	-7.7349467	5.493249	-3.2274747
1442740545356411158	-6.863693	2.1626978	-2.0401726
1442740545364711939	-7.0270963	2.1866245	-2.2950263
1442740545373012721	-4.8629045	0.6484804	-0.3468336
1442740545381313502	-2.2671936	0.61961746	-0.27627397
1442740545389614283	0.26878804	0.94719505	0.050866246
1442740545397915064	0.1787396	0.9797363	-0.100675106
1442740545406215846	4.542373	1.831418	-2.128962
1442740545414516627	4.462611	1.8576326	-2.2352116
1442740545422817408	4.7696385	0.40783882	-1.8613138
1442740545431118189	4.444331	0.011782646	-1.7411523
1442740545439418971	4.380661	-0.29267693	-2.6541562
1442740545447719752	4.241568	-0.25275326	-2.7264538
1442740545456020533	1.2577281	-0.962636	-2.2271326
1442740545464321314	1.1036048	-0.9155512	-2.284403
1442740545472622096	0.34733343	-1.7706833	-2.281007
1442740545480922877	-1.252558	-2.0990467	-2.1141129
1442740545489223658	-2.676747	-2.4502249	-1.0459304
1442740545497524439	-3.7738225	-2.7029142	-1.327435
1442740545505825221	-3.8689094	-2.6485739	-1.3946095
1442740545514126002	-4.2511826	-2.850914	-1.6407294
1442740545522426783	-3.8873458	-3.445571	-2.324422
1442740545530727564	-3.67347	-3.9440222	-2.721184
1442740545539028346	-3.6634538	-4.2413015	-2.8544834
1442740545547329127	-3.681249	-4.515024	-3.2428498
1442740545555629908	-3.766387	-4.5850296	-2.922305
1442740545563930689	-3.7998223	-4.5665197	-2.90251
1442740545572231471	-3.878746	-4.652631	-2.269451
1442740545580532252	-3.942322	-4.7986946	-1.9755554
1442740545588833033	-3.9489582	-4.7134943	-1.6719306
1442740545597133814	-4.040796	-4.2829266	-1.1710868
1442740545605434596	-4.029628	-4.2888527	-1.1234636
1442740545613735377	-3.9618683	-3.926137	-0.5380802
1442740545622036158	-3.7506359	-3.664051	0.23627591
1442740545630336939	-3.5996091	-3.1719656	0.818285
1442740545638637721	-3.5572813	-2.2914028	0.83619094
1442740545646938502	-3.522887	-1.1868544	0.5100963
1442740545655239283	-3.4297092	-1.2302723	0.58809066
1442740545663540064	-2.647559	0.0680809	0.094851255
1442740545671840846	-1.1053133	2.3325148	-0.8037782
1442740545680141627	0.52703357	4.8943977	-0.95257246
1442740545688442408	1.6520548	7.3018627	1.2049508
1442740545696743189	2.1045341	10.454527	5.0799475
1442740545705043971	4.67156	13.028575	11.323891
1442740545713344752	11.2292	9.988965	8.769153
1442740545721645533	11.411755	9.939713	8.746524
1442740545729946314	4.510292	-0.77866936	4.2692957
1442740545738247096	3.5010343	-0.877985	1.565222
1442740545746547877	3.4759264	-0.86684895	1.5267531
1442740545754848658	3.6390162	-0.9462671	-0.012912631
1442740545763149439	2.071266	-0.69809246	-0.6879053
1442740545771450221	-0.98590827	1.134449	-2.027901
1442740545779751002	-1.0182228	1.1377134	-2.027967
1442740545788051783	-5.6878624	5.752863	-4.9262624
1442740545796352564	-7.8714986	9.020308	-7.342875
1442740545804653346	-8.076475	7.820794	-5.3394685
1442740545812954127	-6.9302926	3.460782	-2.0942564
1442740545821254908	-6.9007993	3.4402294	-2.031506
1442740545829555689	-5.7976646	-1.3286667	0.036939383
1442740545837856471	-3.8871505	-4.7390795	1.1794324
1442740545846157252	-3.2455823	-6.6730986	-3.8487635
1442740545854458033	-2.3481383	-7.215665	-7.904096
1442740545862758814	-0.8833109	-6.3693438	-9.540754
1442740545871059596	0.61941355	-4.163519	-9.585524
1442740545879360377	0.7223954	-4.1754627	-9.483604
1442740545887661158	0.61157143	-2.3894176	-7.67341
1442740545895961939	0.3034451	-1.3967638	-5.1233635
1442740545904262721	-1.5700788	1.8119898	-0.72805744
1442740545912563502	-1.4270774	1.7928495	-0.6010423
1442740545920864283	-2.3166323	3.1866608	2.5637727
1442740545929165064	-3.2747092	3.610423	1.6819923
1442740545937465846	-3.1868823	3.597783	1.8045874
1442740545945766627	-3.749168	2.4661026	0.05499533
1442740545954067408	-2.120145	1.374567	-0.26740566
1442740545962368189	-0.7264761	0.20089054	-0.108045585
1442740545970668971	1.5163527	-1.5654907	-0.1600788
1442740545978969752	1.5458139	-1.561224	-0.13647257
1442740545987270533	2.4509306	-1.5189886	-0.26509964
1442740545995571314	2.4638188	-1.5153255	-0.2656295
1442740546003872096	2.5424135	-0.8075819	-0.70173085
1442740546012172877	2.3965664	-0.47043228	-0.98526376
1442740546020473658	2.3520365	-0.5336571	-0.9212964
1442740546028774439	2.1158147	-0.9207916	-0.25710052
1442740546037075221	1.8751738	-1.1605759	0.085609436
1442740546045376002	1.8624063	-1.155508	0.16133079
1442740546053676783	1.4394972	-0.85026264	0.5629295
1442740546061977564	1.0822861	-0.9167843	0.2817467
1442740546070278346	0.77452105	-1.351037	-1.134779
1442740546078579127	0.7882455	-1.3453379	-1.0917395
1442740546086879908	0.73662394	-1.7470713	-2.0708873
1442740546095180689	0.60991716	-2.0775652	-2.2167864
1442740546103481471	0.6384487	-2.070447	-2.1855075
1442740546111782252	0.8123041	-1.664032	-1.4193347
1442740546120083033	0.8427249	-1.65627	-1.3770311
1442740546128383814	1.025906	-1.0524588	-0.60280824
1442740546136684596	1.0087012	-0.24864578	0.12172657
1442740546144985377	0.8912121	0.5160036	0.82221866
1442740546153286158	0.585744	0.8641548	0.9716873
1442740546161586939	0.20979244	0.62226963	0.8944962
1442740546169887721	0.27608317	0.63559914	0.9753741
1442740546178188502	0.15535474	0.34295177	1.1208086
1442740546186489283	0.652904	0.30174065	1.1651894
1442740546194790064	1.5498469	0.5988569	0.45065904
1442740546203090846	2.8520389	1.3686914	-1.1809537
1442740546211391627	4.37915	1.9210958	-2.189439
1442740546219692408	4.439028	1.9260769	-2.175832
1442740546227993189	5.780731	2.3821507	-2.024068
1442740546236293971	7.453336	3.0500202	-0.2999071
1442740546244594752	7.499683	3.0498466	-0.3095119
1442740546252895533	6.797253	4.3113575	0.4739045
1442740546261196314	5.180711	5.817772	0.35324204
1442740546269497096	5.20032	5.808689	0.34515774
1442740546277797877	3.8996687	5.9594564	0.018912435
1442740546286098658	3.5555167	4.172847	-0.35116482
1442740546294399439	3.8261247	2.0825768	0.32581973
1442740546302700221	3.8935862	1.0358925	1.6996539
1442740546311001002	3.546606	1.1637802	2.8508878
1442740546319301783	3.4710221	1.141736	2.7531865
1442740546327602564	2.6184435	1.2961073	2.727903
1442740546335903346	1.3181607	1.4184046	2.0197701
1442740546344204127	0.055033803	0.6243181	2.0870702
1442740546352504908	-1.1072288	0.58270264	2.4856575
1442740546360805689	-2.377487	2.0317726	2.1425931
1442740546369106471	-4.2946568	4.360611	0.08097851
1442740546377407252	-4.4452004	4.346321	-0.17386566
1442740546385708033	-7.342656	5.6572666	-2.8209636
1442740546394008814	-8.496023	4.60995	-4.194516
1442740546402309596	-7.455838	2.7534618	-3.3179698
1442740546410610377	-5.6968637	1.2006092	-1.1581633
1442740546418911158	-2.4841666	0.83656216	-0.89995575
1442740546427211939	0.14086097	1.5232334	-0.5988885
1442740546435512721	4.0808525	1.6349535	-0.4940704
1442740546443813502	4.8641853	1.8489943	-1.8959055
1442740546452114283	4.789522	1.8734074	-2.004841
1442740546460415064	4.6554394	0.30433846	-1.3573704
1442740546468715846	4.285377	0.65211296	-1.3951409
1442740546477016627	4.5553703	0.5001745	-1.9402034
1442740546485317408	4.4198728	0.533411	-2.0099816
1442740546493618189	2.5297437	0.057792664	-2.1501362
1442740546501918971	0.9288477	-0.59438515	-2.3407695
1442740546510219752	0.22571528	-1.4772816	-2.323638
1442740546518520533	-1.1596969	-1.8189754	-2.4307203
1442740546526821314	-2.8030357	-2.1030035	-1.4021049
1442740546535122096	-2.93809	-2.0515509	-1.4462903
1442740546543422877	-3.8008149	-2.8308601	-1.3857453
1442740546551723658	-3.7002308	-3.0358782	-2.1171644
1442740546560024439	-3.5620995	-3.689311	-2.3930266
1442740546568325221	-3.513686	-4.4707823	-2.3941002
1442740546576626002	-3.6384463	-4.977248	-2.5058227
1442740546584926783	-3.6822135	-4.944274	-2.523319
1442740546593227564	-3.8923948	-5.1037054	-2.739475
1442740546601528346	-3.7011907	-5.1087103	-2.5855374
1442740546609829127	-3.7497149	-5.4509583	-2.2205813
1442740546618129908	-3.7606046	-5.438594	-2.1998317
1442740546626430689	-3.7711694	-5.5690136	-1.7356758
1442740546634731471	-3.9697263	-5.180341	-1.400367
1442740546643032252	-3.9506671	-5.184226	-1.3598654
1442740546651333033	-3.8559334	-4.319702	-0.32930136
1442740546659633814	-3.8664966	-3.5991335	0.34437323
1442740546667934596	-3.8103688	-3.6231842	0.40390205
1442740546676235377	-3.7096903	-2.4523268	0.47305226
1442740546684536158	-3.4772694	-0.8573179	0.29547834
1442740546692836939	-2.4143023	1.0005503	-0.19980454
1442740546701137721	-0.6526673	3.3844824	-0.5759325
1442740546709438502	-0.5379274	3.3278027	-0.4840877
1442740546717739283	1.3826108	6.0105267	-0.6697297
1442740546726040064	2.735991	8.622464	1.995481
1442740546734340846	2.6889277	13.186665	7.556704
1442740546742641627	7.5754867	15.102077	11.39827
1442740546750942408	7.782817	15.035385	11.383188
1442740546759243189	14.8487835	8.506334	8.136195
1442740546767543971	8.235739	-0.2023716	4.9801073
1442740546775844752	4.0375566	-2.397976	2.8579347
1442740546784145533	3.306608	-1.6272774	1.5841033
1442740546792446314	3.1517587	-0.07853413	0.7111461
1442740546800747096	0.84055567	2.5644703	-0.9686959
1442740546809047877	0.7929168	2.5650911	-0.96480274
1442740546817348658	-4.8814726	7.507615	-4.6689997
1442740546825649439	-9.994761	11.691933	-9.477562
1442740546833950221	-10.542526	8.981417	-6.7756157
1442740546842251002	-8.822971	2.8620062	-2.6694603
1442740546850551783	-7.6536374	-2.3153028	-1.3975121
1442740546858852564	-5.6105466	-5.7647257	0.9541743
1442740546867153346	-4.4698315	-7.5856113	-1.0569326
1442740546875454127	-4.433096	-7.586463	-0.97572696
1442740546883754908	-2.699327	-8.071166	-6.9423904
1442740546892055689	-1.9354312	-7.8956003	-8.372437
1442740546900356471	-0.9340073	-5.3679943	-9.379157
1442740546908657252	0.33112317	-2.2731476	-8.537331
1442740546916958033	1.1075888	-1.128727	-5.823346
1442740546925258814	1.2517228	-1.1473093	-5.706774
1442740546933559596	-0.25725952	0.081308365	-3.1460822
1442740546941860377	-1.1750848	2.2064638	-0.9465988
1442740546950161158	-0.61728585	4.003228	1.2463796
1442740546958461939	-2.4709125	3.838519	3.629638
1442740546966762721	-3.2614625	2.711958	1.5050154
1442740546975063502	-1.3300083	1.2861776	0.38596717
1442740546983364283	-1.276592	1.2822142	0.5074147
1442740546991665064	-0.32347146	0.41056442	0.23098268
1442740546999965846	1.2373962	-0.68157005	-0.6029706
1442740547008266627	1.5678002	-2.3466616	-0.85823655
1442740547016567408	3.1146276	-2.647379	-1.3656266
1442740547024868189	2.7603636	-1.2179012	-0.90369016
1442740547033168971	2.7594466	-1.2150717	-0.89303017
1442740547041469752	2.6925132	-0.13916683	-0.59697217
1442740547049770533	2.0485291	0.31866932	-0.41204605
1442740547058071314	1.3803345	-0.33529663	-0.1092242
1442740547066372096	0.7076233	-1.0631676	0.16260818
1442740547074672877	0.091112584	-0.64816	0.5563692
1442740547082973658	0.015858114	-0.79537106	0.89888465
1442740547091274439	0.005640596	-0.7889929	0.9825589
1442740547099575221	0.39423048	-1.5340166	0.48066616
1442740547107876002	0.81540775	-1.8018684	-0.9504038
1442740547116176783	1.2035122	-2.0588102	-1.9766834
1442740547124477564	1.4734037	-2.159814	-2.2928693
1442740547132778346	1.8238757	-1.8693609	-1.7851813
1442740547141079127	1.8667347	-1.8600645	-1.7425426
1442740547149379908	1.7050383	-0.34762478	0.561728
1442740547157680689	1.7512317	-0.338933	0.615322
1442740547165981471	1.4752079	0.39575577	1.4069185
1442740547174282252	1.2865467	0.6897621	1.7329496
1442740547182583033	1.0514436	0.49169827	1.5034912
1442740547190883814	0.98817366	0.3305254	0.8153336
1442740547199184596	1.2749729	0.5930004	0.19019294
1442740547207485377	1.3318315	0.6083908	0.27011335
1442740547215786158	2.25653	1.2871208	-0.1290381
1442740547224086939	3.4822102	1.9174013	-0.9259528
1442740547232387721	4.6610107	2.3083858	-1.5795758
1442740547240688502	6.250573	1.9143763	-1.5319035
1442740547248989283	6.2997255	1.9122953	-1.5622975
1442740547257290064	7.5750732	1.4950361	-0.59235775
1442740547265590846	7.642241	2.2896938	1.6665773
1442740547273891627	6.0581355	4.144602	2.0745084
1442740547282192408	5.006282	4.880698	1.1192861
1442740547290493189	4.63658	3.8006334	0.16824031
1442740547298793971	4.7225466	1.8148146	-0.09598255
1442740547307094752	4.678475	1.7983208	-0.15588069
1442740547315395533	4.2300844	0.96701145	0.81076217
1442740547323696314	3.573847	1.2596979	1.6922257
1442740547331997096	2.8083565	2.0888386	1.8278831
1442740547340297877	1.3081691	2.3718786	2.3316336
1442740547348598658	-0.5062525	2.7797852	2.417634
1442740547356899439	-2.1168723	3.9974155	1.038725
1442740547365200221	-4.2301197	5.746951	-1.7108988
1442740547373501002	-4.3944435	5.7264166	-1.9436074
1442740547381801783	-6.9384413	6.979233	-3.4023519
1442740547390102564	-8.445052	6.095682	-3.3254495
1442740547398403346	-7.417767	3.9381237	-1.0543277
1442740547406704127	-4.970711	2.449215	1.2638632
1442740547415004908	-5.1226087	2.4765015	1.0580869
1442740547423305689	-2.7992544	2.0232935	1.9693009
1442740547431606471	-0.6626839	1.5695515	1.2722678
1442740547439907252	1.8321145	1.5845098	1.2239888
1442740547448208033	2.2596974	1.0805588	-0.65596855
1442740547456508814	3.0380435	-0.46426296	-1.4830298
1442740547464809596	2.0496461	-1.1258783	-2.4069314
1442740547473110377	1.9256095	-1.0904398	-2.4852064
1442740547481411158	0.9439943	-1.2408485	-2.824609
1442740547489711939	1.6541178	-1.6281624	-3.10946
1442740547498012721	1.1615915	-1.7534256	-2.9431376
1442740547506313502	0.42639315	-2.5685787	-2.4924476
1442740547514614283	-0.2968117	-2.3183022	-2.866558
1442740547522915064	-0.41433048	-2.2719421	-2.9214919
1442740547531215846	-1.0705707	-2.4343224	-2.1061616
1442740547539516627	-1.6601956	-2.8144226	-1.8967066
1442740547547817408	-2.6488578	-3.3651361	-1.8747485
1442740547556118189	-3.5288308	-3.8646593	-1.916899
1442740547564418971	-4.0419827	-4.257826	-1.8832617
1442740547572719752	-4.49771	-4.504237	-1.9340796
1442740547581020533	-4.5517015	-4.471241	-1.9465363
1442740547589321314	-4.494603	-4.7440033	-2.4602385
1442740547597622096	-4.5455484	-5.0073833	-2.603041
1442740547605922877	-4.271923	-5.1238976	-2.5298932
1442740547614223658	-4.0050764	-5.374572	-2.2449756
1442740547622524439	-3.772983	-5.2844534	-1.7683477
1442740547630825221	-3.7651682	-5.284008	-1.7275445
1442740547639126002	-3.7612402	-4.036269	-0.43323398
1442740547647426783	-3.7289414	-4.0489492	-0.3830526
1442740547655727564	-3.416835	-3.3123198	-0.038195133
1442740547664028346	-3.3123891	-2.6414757	0.21707058
1442740547672329127	-3.3584564	-1.8070993	0.26949525
1442740547680629908	-2.9325254	-0.4936552	-0.1753602
1442740547688930689	-1.6118119	1.5352955	-0.8406694
1442740547697231471	-1.4964898	1.484498	-0.7532381
1442740547705532252	0.044877052	3.8970985	-0.29200518
1442740547713833033	0.82651436	5.860425	1.7171204
1442740547722133814	1.478541	8.82283	5.728651
1442740547730434596	3.2522378	12.9369755	12.882281
1442740547738735377	3.46904	12.871635	12.875562
1442740547747036158	11.381112	11.995991	10.0855465
1442740547755336939	11.768299	3.4178238	5.8330326
1442740547763637721	5.3750744	-1.6531868	4.0018883
1442740547771938502	3.1602273	-1.588685	2.210393
1442740547780239283	3.6027205	-0.79448223	1.4551198
1442740547788540064	2.351493	1.2535496	0.49391818
1442740547796840846	2.2966995	1.2618771	0.46884966
1442740547805141627	-1.304885	5.7403116	-1.9775796
1442740547813442408	-10.719813	13.06568	-8.202647
1442740547821743189	-10.696459	13.03629	-8.176395
1442740547830043971	-10.686233	9.067067	-3.3422384
1442740547838344752	-9.131362	0.6516514	-2.0860968
1442740547846645533	-9.084269	0.6396313	-2.0448198
1442740547854946314	-5.8317003	-6.2295504	0.27965045
1442740547863247096	-1.4524164	-6.837262	-7.954437
1442740547871547877	-1.4050446	-6.8424416	-7.8560333
1442740547879848658	0.32023478	-7.036601	-12.349357
1442740547888149439	1.3334935	-6.541607	-12.088307
1442740547896450221	0.21522522	-4.7553787	-10.953842
1442740547904751002	-0.14849985	-2.846838	-8.538506
1442740547913051783	0.010648519	-2.8633451	-8.395709
1442740547921352564	0.49010268	-0.91636753	-6.887499
1442740547929653346	0.23727466	0.58557606	-3.8146062
1442740547937954127	-1.4395089	2.458991	0.5618275
1442740547946254908	-2.4346938	3.9666538	4.1113434
1442740547954555689	-4.2000995	4.699665	3.510766
1442740547962856471	-4.140414	4.685979	3.633205
1442740547971157252	-5.0494223	3.71628	2.5611894
1442740547979458033	-3.2172396	1.1210985	3.768677
1442740547987758814	-1.5287627	-1.309145	1.4470505
1442740547996059596	-0.37745637	-2.394699	-0.999564
1442740548004360377	1.1386865	-2.1336527	-1.1560326
1442740548012661158	1.1197599	-2.1291304	-1.1274562
1442740548020961939	1.5382428	-1.8779173	-1.7437114
1442740548029262721	2.1448305	-1.5270004	-2.3539038
1442740548037563502	2.6981645	-1.0651674	-2.166379
1442740548045864283	2.6921098	-0.88275814	-1.3284091
1442740548054165064	2.8577514	-0.7106714	-0.72237325
1442740548062465846	3.0346744	-0.58836937	0.23538947
1442740548070766627	3.0632348	-0.5837307	0.28216672
1442740548079067408	1.765002	-0.9126959	0.40594125
1442740548087368189	1.799573	-0.906044	0.46042335
1442740548095668971	1.2343647	-1.6700754	-0.8545959
1442740548103969752	1.1123843	-2.5884247	-1.7860173
1442740548112270533	1.1512716	-2.7943668	-1.9316177
1442740548120571314	1.3625767	-2.1285877	-1.6698557
1442740548128872096	1.3936965	-2.1186733	-1.6264684
1442740548137172877	1.7874868	-1.4671803	-1.4306533
1442740548145473658	1.6543071	-0.64268017	-0.6368245
1442740548153774439	1.5578517	0.46932983	0.49614882
1442740548162075221	1.403794	1.5295849	1.5161307
1442740548170376002	1.1408808	2.0394173	2.140388
1442740548178676783	1.0912558	1.8600454	2.4023035
1442740548186977564	1.303277	1.4119148	2.2049167
1442740548195278346	1.3606924	1.4267435	2.2851896
1442740548203579127	2.3865383	0.8648453	0.94010496
1442740548211879908	4.062933	0.8802633	-0.9341644
1442740548220180689	5.5053196	1.0575418	-2.0022194
1442740548228481471	5.8413615	0.8350706	-2.2273448
1442740548236782252	5.8994813	0.8349781	-2.2756839
1442740548245083033	7.062829	0.79875565	-1.5954454
1442740548253383814	8.520725	1.7815428	0.32908845
1442740548261684596	8.15242	4.198905	2.2752073
1442740548269985377	5.695031	5.9667625	1.6203421
1442740548278286158	4.6791916	5.0580606	0.760954
1442740548286586939	3.9731748	2.6381416	0.68210447
1442740548294887721	3.9322262	2.6231441	0.6450372
1442740548303188502	3.2976637	1.26933	1.4751998
1442740548311489283	3.342094	2.157195	1.7589533
1442740548319790064	3.2458467	2.1269398	1.6020763
1442740548328090846	1.7460027	2.4402409	1.3623965
1442740548336391627	1.6350174	2.4126778	1.1555061
1442740548344692408	-1.1940069	4.1947346	-0.42346284
1442740548352993189	-1.3274806	4.1731243	-0.65677047
1442740548361293971	-3.2081332	5.9765043	-3.5482543
1442740548369594752	-5.893679	6.9142504	-4.2853737
1442740548377895533	-7.1796904	6.235965	-3.259048
1442740548386196314	-5.810185	4.572672	-0.5027058
1442740548394497096	-4.0525436	3.6305323	1.6927711
1442740548402797877	-2.0356946	3.0021658	1.997831
1442740548411098658	-2.174103	3.0275068	1.8342834
1442740548419399439	-0.031980217	2.2482643	0.8745203
1442740548427700221	3.2736855	0.6392298	-1.6560667
1442740548436001002	3.1685457	0.6630297	-1.7405015
1442740548444301783	3.741658	-0.6348219	-2.6337354
1442740548452602564	3.631061	-0.6023207	-2.7234983
1442740548460903346	3.5695667	-1.2635517	-3.471863
1442740548469204127	3.1225262	-1.1910133	-3.5811393
1442740548477504908	2.3457477	-1.1787443	-3.6508
1442740548485805689	1.2683456	-1.8067751	-2.8429048
1442740548494106471	0.41976237	-2.887971	-2.793196
1442740548502407252	-0.60512733	-3.1996374	-2.5295286
1442740548510708033	-1.7598138	-3.1418247	-2.5814848
1442740548519008814	-1.8586168	-3.0924215	-2.6494956
1442740548527309596	-2.7903187	-3.0165844	-1.9023018
1442740548535610377	-3.5034108	-3.5167227	-1.6603429
1442740548543911158	-3.9694602	-3.8919907	-2.9270566
1442740548552211939	-4.206213	-4.0617476	-3.5759323
1442740548560512721	-4.2538567	-4.0324144	-3.5890653
1442740548568813502	-4.258276	-4.535363	-4.0760527
1442740548577114283	-4.2932405	-4.516608	-4.0612993
1442740548585415064	-4.21039	-4.8950367	-3.882311
1442740548593715846	-4.1619825	-5.1222534	-3.476876
1442740548602016627	-3.9525585	-5.46068	-2.747769
1442740548610317408	-3.9473236	-5.457979	-2.712621
1442740548618618189	-4.6283436	-4.9688044	-0.8703294
1442740548626918971	-4.5961123	-4.9768105	-0.82890034
1442740548635219752	-4.9165287	-4.4026203	-0.06846762
1442740548643520533	-4.9999337	-3.447977	0.19255662
1442740548651821314	-4.8607965	-2.2394676	-0.23214698
1442740548660122096	-4.570511	-0.967679	-0.49496698
1442740548668422877	-3.3728085	0.8762779	-0.87641597
1442740548676723658	-1.5505965	3.647727	-0.998615
1442740548685024439	-1.4310567	3.594532	-0.90740204
1442740548693325221	2.6829731	8.720478	3.3183355
1442740548701626002	2.834979	8.656992	3.394337
1442740548709926783	3.9391234	11.744863	8.957122
1442740548718227564	8.805996	12.967284	12.342423
1442740548726528346	8.983835	12.920156	12.31403
1442740548734829127	14.549203	7.0915623	7.2686577
1442740548743129908	8.413237	-0.3732996	4.0678368
1442740548751430689	4.7576528	-2.0245762	3.241597
1442740548759731471	4.3661113	-2.0189857	1.966876
1442740548768032252	3.598113	-0.5197315	0.58393407
1442740548776333033	3.5370023	-0.5096636	0.5632396
1442740548784633814	0.5658036	2.423545	-1.5118783
1442740548792934596	-4.5231276	8.0413685	-4.65273
1442740548801235377	-8.633558	12.476943	-8.326063
1442740548809536158	-9.952854	12.472947	-7.5454445
1442740548817836939	-8.97023	5.1389513	-2.2380013
1442740548826137721	-5.1669316	-2.87006	-0.19976544
1442740548834438502	-5.099884	-2.8757143	-0.16460943
1442740548842739283	-2.779946	-7.6755114	-5.4163437
1442740548851040064	-1.3354702	-7.9900656	-9.951974
1442740548859340846	1.6331745	-8.279262	-12.833248
1442740548867641627	1.6855934	-8.275007	-12.753874
1442740548875942408	2.1270616	-6.0328894	-11.016699
1442740548884243189	0.6219348	-2.5767794	-9.514409
1442740548892543971	1.2410816	-1.2545357	-6.500042
1442740548900844752	1.3702219	-1.2757244	-6.33288
1442740548909145533	0.58915913	0.2599249	-4.4252543
1442740548917446314	-0.20378694	1.5350428	-1.1629136
1442740548925747096	-2.0574932	3.1571922	3.4724176
1442740548934047877	-2.9244819	4.4137793	2.8936217
1442740548942348658	-2.8458643	4.3993855	3.010065
1442740548950649439	-3.1112087	3.6370287	2.7716691
1442740548958950221	0.15031147	2.0842648	2.8948781
1442740548967251002	0.674277	0.80059147	2.6606107
1442740548975551783	1.3424625	-0.96752834	0.9189249
1442740548983852564	1.7823135	-1.9626923	-1.3222387
1442740548992153346	2.1786244	-2.1473866	-1.7171308
1442740549000454127	2.190181	-2.14184	-1.6847193
1442740549008754908	2.6155734	-2.2535696	-1.3149613
1442740549017055689	2.5056973	-1.7272844	-2.2323656
1442740549025356471	2.251135	-0.9683418	-2.1105263
1442740549033657252	1.8882986	-0.83623123	-1.4097058
1442740549041958033	1.5367428	-0.85050964	-0.5681089
1442740549050258814	0.9903598	-0.89009285	0.6681986
1442740549058559596	0.9887334	-0.88656235	0.7452677
1442740549066860377	-0.12386483	-0.09830475	1.1561917
1442740549075161158	-0.10620338	-0.093257904	1.2432061
1442740549083461939	-0.23315316	-0.89511395	-0.1931504
1442740549091762721	-0.118441224	-1.7339773	-1.5015268
1442740549100063502	0.28900486	-2.1840715	-2.1191862
1442740549108364283	0.33616215	-2.172123	-2.0730107
1442740549116665064	0.86037713	-2.0743017	-1.947459
1442740549124965846	1.6180738	0.014324188	0.89045054
1442740549133266627	1.6829145	0.027112007	0.94890535
1442740549141567408	1.9233035	1.2444935	2.075089
1442740549149868189	2.1468692	2.107813	2.6122413
1442740549158168971	2.2299957	2.188694	2.1893992
1442740549166469752	2.302652	2.2030983	2.2540817
1442740549174770533	2.781568	1.7331848	0.7744385
1442740549183071314	3.5701804	1.3295918	-1.0043963
1442740549191372096	4.8299856	1.2915983	-1.6462295
1442740549199672877	6.756567	1.2951822	-2.1820862
1442740549207973658	8.59335	0.95786285	-1.5645757
1442740549216274439	9.805981	1.272212	0.8607583
1442740549224575221	9.839516	1.2763529	0.83139086
1442740549232876002	9.646228	2.7696114	2.1976414
1442740549241176783	8.368017	4.3194275	2.3994462
1442740549249477564	6.7117305	4.402113	2.058635
1442740549257778346	5.5414934	3.856308	0.5825495
1442740549266079127	5.192172	2.5490417	-0.5664432
1442740549274379908	5.1245055	2.525075	-0.6551611
1442740549282680689	4.7684336	0.8335457	-0.33882654
1442740549290981471	4.1593204	1.0544777	0.4916228
1442740549299282252	1.0886189	4.257556	1.3626504
1442740549307583033	0.9738183	4.2268486	1.175317
1442740549315883814	-1.0162729	4.9330225	-0.7205461
1442740549324184596	-3.7384393	6.8700714	-4.098843
1442740549332485377	-3.9106789	6.84554	-4.3149242
1442740549340786158	-5.947563	8.557504	-5.152882
1442740549349086939	-6.674312	7.8720455	-3.6554995
1442740549357387721	-6.130259	5.4547567	-0.4155885
1442740549365688502	-4.9965854	4.485406	1.322173
1442740549373989283	-3.0839221	3.8113356	2.7720635
1442740549382290064	-1.2964025	2.4452324	2.2086058
1442740549390590846	-0.22158718	1.1738806	1.7964718
1442740549398891627	-0.32515424	1.196393	1.688358
1442740549407192408	1.8832443	0.59192467	-1.2890804
1442740549415493189	3.6961951	-0.92789173	-3.7454114
1442740549423793971	3.4697692	-1.5285034	-4.0601025
1442740549432094752	4.296368	-1.2339525	-4.272723
1442740549440395533	4.156855	-1.2012386	-4.330085
1442740549448696314	4.114448	-1.5048351	-4.3333592
1442740549456997096	2.2218304	-2.0958214	-3.508033
1442740549465297877	0.6464009	-2.905655	-3.2536063
1442740549473598658	-0.8939152	-3.088704	-3.2899132
1442740549481899439	-1.9255297	-3.1659565	-2.1775308
1442740549490200221	-2.031424	-3.1126308	-2.2590985
1442740549498501002	-3.153522	-3.1939955	-2.3826544
1442740549506801783	-4.1055202	-3.3767557	-2.822971
1442740549515102564	-5.1696644	-3.6132183	-2.6489298
1442740549523403346	-5.8401976	-3.8341703	-2.1156244
1442740549531704127	-5.4420033	-4.6354094	-3.5506191
1442740549540004908	-5.4950714	-4.607316	-3.5491304
1442740549548305689	-4.675606	-5.2268696	-4.3420343
1442740549556606471	-4.4796743	-6.2701426	-3.2004864
1442740549564907252	-4.349905	-6.6610622	-2.2796857
1442740549573208033	-4.3671036	-6.650655	-2.241596
1442740549581508814	-4.5525885	-6.4337387	-1.3770006
1442740549589809596	-4.714018	-5.5755014	-0.7794261
1442740549598110377	-4.6895494	-5.5804176	-0.7373016
1442740549606411158	-4.0616865	-3.4654846	-1.1932535
1442740549614711939	-3.7207623	-2.7053804	-1.8712494
1442740549623012721	-3.653341	-2.7335873	-1.8032532
1442740549631313502	-2.9113517	-1.6775894	-2.3266752
1442740549639614283	-1.4612796	0.55709743	-2.364628
1442740549647915064	0.5992224	4.2951164	-0.7375436
1442740549656215846	2.0757537	7.4784765	2.269967
1442740549664516627	2.2433114	7.4131584	2.3364525
1442740549672817408	3.0904844	10.69803	7.30323
1442740549681118189	4.2340293	16.712383	13.96163
1442740549689418971	10.990759	15.44248	11.963387
1442740549697719752	11.049816	4.6553392	7.0545044
1442740549706020533	11.151219	4.649536	6.977887
1442740549714321314	6.048092	-2.448803	3.8082047
1442740549722622096	3.5837588	-4.320697	1.8245723
1442740549730922877	2.0881424	-3.9925814	0.84300494
1442740549739223658	0.082966864	1.6170483	-1.3802664
1442740549747524439	0.011800766	1.6195679	-1.3724871
1442740549755825221	-5.947225	7.8931417	-6.267707
1442740549764126002	-5.9598794	7.8701973	-6.2174296
1442740549772426783	-13.062198	14.904986	-10.596754
1442740549780727564	-12.988363	14.846884	-10.477049
1442740549789028346	-9.102184	6.204936	-2.6150014
1442740549797329127	-6.670503	-1.6112576	-0.43307126
1442740549805629908	-4.3790283	-5.8321514	1.0914233
1442740549813930689	-3.0267704	-7.3371115	-0.6539626
1442740549822231471	-2.971582	-7.339898	-0.5685313
1442740549830532252	-0.61346686	-8.0805235	-7.931088
1442740549838833033	0.25245187	-8.347458	-10.68154
1442740549847133814	1.1449637	-6.870126	-10.091249
1442740549855434596	2.0826578	-3.8320265	-7.457429
1442740549863735377	0.4078114	-1.5999527	-4.8151255
1442740549872036158	0.13740818	-0.4331541	-4.420694
1442740549880336939	0.08949384	1.4569597	-3.149227
1442740549888637721	-1.2462379	3.779354	1.5254357
1442740549896938502	-1.1259086	3.7673063	1.6617364
1442740549905239283	-2.7029345	5.2437544	1.8855437
1442740549913532263	-2.1594424	2.3951054	2.436409
1442740549921833045	-2.1151328	2.389886	2.532337
1442740549930133826	-2.0869098	2.385068	2.6040351
1442740549938434607	-0.62131417	1.0447893	1.9563279
1442740549946735388	2.1306071	-0.8580437	0.82255626
1442740549955036170	3.4279392	-2.7054377	-1.7173597
1442740549963336951	3.6222076	-3.1666374	-2.0683768
1442740549971637732	4.3813715	-2.6731596	-0.7056227
1442740549979938513	4.0426645	-1.472928	-0.81998026
1442740549988239295	3.2847362	-0.74579906	-0.76019347
1442740549996540076	3.2676747	-0.7436056	-0.680083
1442740550004840857	1.1507928	0.056679726	0.14212319
1442740550013141638	1.1352403	0.058525085	0.22457081
1442740550021442420	0.22976023	0.013298988	1.024162
1442740550029743201	-0.251181	-0.37877178	1.1573493
1442740550038043982	-0.25586855	-0.37434483	1.2232394
1442740550046344763	-0.3115648	-0.7906971	0.6207752
1442740550054645545	0.066731036	-1.4608326	-0.4066506
1442740550062946326	0.93037075	-2.1872635	-1.2843125
1442740550071247107	1.8385005	-2.4361115	-2.0019705
1442740550079547888	2.2707775	-2.0982676	-2.3210752
1442740550087848670	2.374816	-1.46099	-1.7468987
1442740550096149451	2.440434	-1.4463062	-1.6919248
1442740550104450232	1.7836313	0.5510664	1.3244393
1442740550112751013	1.8562393	0.565403	1.3867089
1442740550121051795	1.7714052	1.4300146	2.781836
1442740550129352576	1.4446298	2.1746664	2.7602806
1442740550137653357	1.1479856	2.0306368	1.3548099
1442740550145954138	1.4669958	1.5221786	0.037798405
1442740550154254920	1.5235176	1.5372086	0.102249265
1442740550162555701	2.9654884	1.876831	-0.94633615
1442740550170856482	5.02244	2.1780148	-1.5307863
1442740550179157263	6.75969	1.9107552	-2.0750668
1442740550187458045	8.089538	1.1831427	-1.8235965
1442740550195758826	8.895517	2.2449303	0.6772133
1442740550204059607	8.92856	2.2457047	0.65206397
1442740550212360388	8.3623905	4.485694	2.583548
1442740550220661170	6.677391	5.7162495	1.44337
1442740550228961951	5.2200856	5.0283823	-0.25183403
1442740550237262732	4.9085097	3.0962791	-0.43717623
1442740550245563513	4.42017	2.020832	1.0655652
1442740550253864295	4.0420523	1.8029747	1.9793074
1442740550262165076	3.9387038	1.7718134	1.8457611
1442740550270465857	2.1870046	2.0733995	1.6548227
1442740550278766638	2.0605192	2.0420876	1.4807029
1442740550287067420	-0.4625522	2.514305	2.061769
1442740550295368201	-1.8114557	3.523466	0.2757153
1442740550303668982	-3.8119318	5.230693	-2.7624772
1442740550311969763	-6.3739386	6.6431246	-3.8066702
1442740550320270545	-7.315402	5.9311304	-3.0235007
1442740550328571326	-7.493188	5.93233	-3.2690504
1442740550336872107	-6.051482	3.616023	-0.8940364
1442740550345172888	-4.357551	1.7620344	0.74213433
1442740550353473670	-2.4628165	2.0333652	1.6527631
1442740550361774451	-2.5792742	2.0610218	1.4814206
1442740550370075232	-1.1324545	1.9402924	0.71433926
1442740550378376013	1.4870026	1.0227356	-0.08621073
1442740550386676795	2.49394	0.810133	-1.2920127
1442740550394977576	2.871027	-0.8765831	-2.7268023
1442740550403278357	2.7577727	-0.8412962	-2.8242192
1442740550411579138	3.5010047	-0.884799	-3.2328095
1442740550419879920	3.3743007	-0.84452343	-3.3230398
1442740550428180701	3.4108367	-0.81729317	-2.9254467
1442740550436481482	1.5613073	-0.78920174	-3.3605094
1442740550444782263	1.3930224	-2.369441	-3.9128597
1442740550453083045	-0.3094343	-2.8449202	-3.2123952
1442740550461383826	-0.9658996	-2.9278708	-3.540437
1442740550469684607	-1.0943487	-2.8745832	-3.5965397
1442740550477985388	-2.2740026	-3.3602133	-2.8547823
1442740550486286170	-3.6147583	-3.2968206	-2.6091096
1442740550494586951	-4.4807243	-3.571231	-2.3652477
1442740550502887732	-4.6680913	-3.9238472	-2.3765109
1442740550511188513	-4.563056	-4.786721	-2.8498578
1442740550519489295	-4.874648	-5.18536	-2.7190428
1442740550527790076	-4.904231	-5.1580553	-2.7288594
1442740550536090857	-4.9916086	-5.4153633	-2.3994098
1442740550544391638	-4.2506747	-5.8717613	-3.6281838
1442740550552692420	-4.1450586	-5.929599	-2.9677567
1442740550560993201	-3.9489677	-5.6848984	-2.2049894
1442740550569293982	-3.8348022	-5.2956276	-1.2108455
1442740550577594763	-3.550838	-4.6113443	-0.427382
1442740550585895545	-3.518706	-4.62597	-0.3742063
1442740550594196326	-3.0842702	-2.3478317	0.25739932
1442740550602497107	-3.0263276	-2.3786726	0.32615805
1442740550610797888	-2.9343507	-1.0658855	0.45870852
1442740550619098670	-2.0267425	0.6661663	0.10854769
1442740550627399451	-0.2611785	3.1490803	-0.5737691
1442740550635700232	1.5070376	6.1941156	-0.76921606
1442740550644001013	1.6418929	6.1250496	-0.6629276
1442740550652301795	2.0533485	8.791446	1.559294
1442740550660602576	2.6982646	12.067133	7.072565
1442740550668903357	6.1579823	14.163641	12.688936
1442740550677204138	12.866899	9.337768	8.642705
1442740550685504920	8.471602	0.9173145	4.820383
1442740550693805701	8.546303	0.9235859	4.7358184
1442740550702106482	5.5246134	-3.307517	3.3454928
1442740550710407263	4.2123594	-4.7085104	1.9637806
1442740550718708045	2.952396	-4.5431986	0.0437181
1442740550727008826	2.4980426	-3.0466032	-0.46903133
1442740550735309607	0.7302487	-0.32641602	-3.3443522
1442740550743610388	-6.1460476	4.669568	-8.055597
1442740550751911170	-6.1426992	4.6583424	-8.028475
1442740550760211951	-11.053707	12.994675	-9.005553
1442740550768512732	-10.989856	12.944996	-8.910387
1442740550776813513	-8.624781	9.68831	-2.341193
1442740550785114295	-4.4363613	-3.6835546	4.666273
1442740550793415076	-4.3724113	-3.6968164	4.734844
1442740550801715857	-3.0969257	-6.975172	4.115425
1442740550810016638	-1.5224106	-6.77983	-9.286792
1442740550818317420	-1.4325578	-6.7873774	-9.176271
1442740550826618201	0.35605392	-6.2865	-11.575996
1442740550834918982	1.9923663	-4.8265944	-7.948835
1442740550843219763	3.958006	-3.646882	-6.549124
1442740550851520545	4.242984	-2.4728813	-3.841853
1442740550859821326	0.17898706	-0.60812473	-3.6865573
1442740550868122107	0.34407037	-0.6189747	-3.5216098
1442740550876422888	-1.3148232	1.1629868	-5.1949778
1442740550884723670	-2.943787	2.6764183	0.1021595
1442740550893024451	-4.077897	3.064042	2.738984
1442740550901325232	-5.41995	1.9472466	1.1856863
1442740550909626013	-3.2971773	1.1802158	1.3097656
1442740550917926795	-3.289844	1.1773605	1.3700488
1442740550926227576	-1.9009118	1.7701769	2.5570793
1442740550934528357	2.444307	-0.37220097	1.3909895
1442740550942829138	4.3455553	-2.3268995	-0.6830776
1442740550951129920	4.6911144	-3.059041	-0.9748019
1442740550959430701	4.412118	-2.5368729	-0.7477884
1442740550967731482	4.4122458	-2.5306501	-0.7049894
1442740550976032263	4.15141	-1.5626526	-1.0085647
1442740550984333045	3.0361242	-1.0911732	-0.9116286
1442740550992633826	1.5138608	-0.5426874	-0.07250592
1442740551000934607	0.34993798	-0.013624191	1.0498796
1442740551009235388	0.3264057	-0.011463165	1.1319395
1442740551017536170	0.16456848	-0.43144035	1.0028949
1442740551025836951	0.1519568	-0.42746067	1.0661805
1442740551034137732	0.75041187	-1.2252941	-0.29904526
1442740551042438513	1.0979419	-2.1805286	-2.0270483
1442740551050739295	1.3861078	-2.6810656	-3.0760891
1442740551059040076	1.6511974	-2.4075155	-2.7439475
1442740551067340857	1.9575	-1.3913145	-1.437366
1442740551075641638	1.6886972	-0.41619015	2.503395E-5
1442740551083942420	1.7496889	-0.40267944	0.06655884
1442740551092243201	1.1371017	1.6515999	2.646449
1442740551100543982	1.2009137	1.6640129	2.7174034
1442740551108844763	1.2168976	1.9407654	2.3681269
1442740551117145545	1.1385434	1.6227779	1.4379004
1442740551125446326	1.5473449	1.6128683	0.8123975
1442740551133747107	1.6125033	1.6278429	0.8729516
1442740551142047888	2.7440715	2.5000868	0.14581501
1442740551150348670	3.8926606	3.2607756	-0.79807305
1442740551158649451	5.699217	2.8497334	-1.2905111
1442740551166950232	7.905182	1.8456068	-1.0851228
1442740551175251013	9.3712845	2.1016464	1.8680743
1442740551183551795	9.402294	2.1018858	1.8415716
1442740551191852576	9.430161	2.1022692	1.8179576
1442740551200153357	8.203816	3.793787	2.479249
1442740551208454138	6.708762	4.7808676	2.4108696
1442740551216754920	5.214772	4.5481367	1.4991267
1442740551225055701	4.894925	2.9705524	-0.13585973
1442740551233356482	4.45098	1.0314703	-0.26146793
1442740551241657263	3.585246	0.5307369	0.8266891
1442740551249958045	3.5011053	0.5056715	0.70894235
1442740551258258826	2.3861532	2.1101112	2.5469913
1442740551266559607	2.2823567	2.080429	2.379079
1442740551274860388	0.08763945	3.172124	2.5030942
1442740551283161170	-1.7687175	3.9320736	0.9074903
1442740551291461951	-1.9188759	3.9068804	0.69231665
1442740551299762732	-6.7972546	7.6299553	-4.6014113
1442740551308063513	-8.284921	7.603318	-4.2044764
1442740551316364295	-8.469614	7.5950985	-4.454251
1442740551324665076	-7.505656	5.521921	-1.8806459
1442740551332965857	-5.699358	3.4136019	0.85550225
1442740551341266638	-3.6093276	2.4703598	2.1370409
1442740551349567420	-0.5931796	1.8129425	2.0444875
1442740551357868201	-0.6958649	1.8385162	1.8953216
1442740551366168982	0.95553493	0.9747639	0.6996069
1442740551374469763	2.9290385	0.12806225	-1.0911442
1442740551382770545	3.784638	-0.22525501	-2.380544
1442740551391071326	3.6180162	-0.15792084	-2.6543908
1442740551399372107	4.996895	-0.59204865	-2.997742
1442740551407672888	4.863102	-0.5579157	-3.071559
1442740551415973670	4.2154346	-0.88839054	-3.6254933
1442740551424274451	1.7106017	-1.6377077	-3.4658678
1442740551432575232	0.27758968	-2.5117445	-3.2025359
1442740551440876013	-0.62303865	-2.6077433	-2.966459
1442740551449176795	-1.922936	-2.8464756	-2.2099266
1442740551457477576	-2.050665	-2.7914238	-2.2794015
1442740551465778357	-3.2200034	-3.12611	-2.5978703
1442740551474079138	-4.028516	-3.4827433	-2.5553892
1442740551482379920	-4.296492	-4.252411	-2.6759868
1442740551490680701	-4.639805	-4.754258	-2.32774
1442740551498981482	-4.581702	-5.0420914	-2.4889657
1442740551507282263	-4.481097	-5.5759125	-2.7701082
1442740551515583045	-4.5345283	-5.5429354	-2.773538
1442740551523883826	-4.4484262	-6.0345078	-2.8854835
1442740551532184607	-4.484251	-6.013173	-2.8641517
1442740551540485388	-4.345964	-6.323344	-2.367061
1442740551548786170	-3.9586563	-6.353632	-1.9441855
1442740551557086951	-3.7760363	-6.064745	-1.3644173
1442740551565387732	-3.6565695	-5.481762	-0.70039654
1442740551573688513	-3.4698615	-4.538334	0.17894077
1442740551581989295	-3.434347	-4.5536737	0.23232484
1442740551590290076	-3.062199	-3.544033	0.36995244
1442740551598590857	-3.1851013	-2.2326326	0.43706155
1442740551606891638	-2.6181488	-0.76934624	0.1967721
1442740551615192420	-1.2255223	1.4736814	0.15845037
1442740551623493201	0.4918356	4.4881268	0.102071285
1442740551631793982	2.342202	7.7021446	0.2759533
1442740551640094763	2.5083485	7.6215906	0.39226186
1442740551648395545	3.007331	12.60375	4.5233836
1442740551656696326	5.2961187	17.744194	13.252261
1442740551664997107	14.749897	13.577689	9.788455
1442740551673297888	9.537272	1.9635735	6.2084274
1442740551681598670	9.664022	1.9588137	6.115179
1442740551689899451	3.584512	-1.7626495	4.4533634
1442740551698200232	3.1412835	-1.2465162	2.986319
1442740551706501013	2.7824578	0.26786804	1.3135304
1442740551714801795	0.5240487	2.1653032	0.7963562
1442740551723102576	-4.419517	6.38445	-3.7754662
1442740551731403357	-4.428478	6.369687	-3.750821
1442740551739704138	-11.952753	11.434154	-9.115688
1442740551748004920	-11.8258295	9.332809	-6.685706
1442740551756305701	-9.6567955	4.0116816	-2.4055533
1442740551764606482	-7.391802	-0.21643448	0.4568138
1442740551772907263	-3.3892694	-3.1467066	2.9537127
1442740551781208045	-2.8066354	-5.733938	0.4974656
1442740551789508826	-2.764135	-5.735258	0.549613
1442740551797809607	-0.601384	-6.341874	-9.136503
1442740551806110388	-0.5448347	-6.336692	-9.099155
1442740551814411170	1.6472644	-5.595318	-12.607992
1442740551822711951	2.4540198	-3.7571526	-9.989464
1442740551831012732	2.6074343	-2.4430428	-7.7793407
1442740551839313513	0.70445096	-1.9262114	-7.0223427
1442740551847614295	0.8516984	-1.9457703	-6.8492417
1442740551855915076	-0.5766738	-1.104743	-5.8519053
1442740551864215857	-0.04070517	-0.10810661	-2.562011
1442740551872516638	-1.1701021	1.5411978	1.9390099
1442740551880817420	-2.5244236	2.1257563	1.9537132
1442740551889118201	-2.408315	2.3315191	1.5036647
1442740551897418982	-2.3536246	2.325306	1.614807
1442740551905719763	-2.3213851	2.3102856	1.4360925
1442740551914020545	-1.5224817	0.59387875	1.0946745
1442740551922321326	-1.5769987	-0.92902184	0.8520823
1442740551930622107	-0.64108	-1.9391289	1.4622425
1442740551938922888	0.4878016	-2.0144606	1.0980493
1442740551947223670	1.2591989	-0.90104866	0.16662017
1442740551955524451	1.2559867	-0.89745617	0.21077055
1442740551963825232	1.8289328	0.19355011	-0.88709736
1442740551972126013	2.6164124	0.35861683	-0.6210888
1442740551980426795	2.8032098	-1.3504095	-0.05091399
1442740551988727576	2.7948813	-1.3444843	0.0029392242
1442740551997028357	3.15019	-1.6761045	0.26159012
1442740552005329138	3.4340804	-1.6198225	0.5849842
1442740552013629920	3.4470856	-1.6121349	0.6276302
1442740552021930701	3.3511128	-1.5560894	0.38999063
1442740552030231482	2.759956	-1.6486702	-0.37858832
1442740552038532263	1.8224188	-1.9051352	-1.1096778
1442740552046833045	1.2033088	-2.0567856	-1.523908
1442740552055133826	0.852533	-2.1053133	-1.6756616
1442740552063434607	0.7304547	-1.8121805	-1.6169883
1442740552071735388	0.76517427	-1.800869	-1.5690019
1442740552080036170	1.0089743	-1.0396833	-1.0479901
1442740552088336951	1.3372804	-0.019016266	-0.11786735
1442740552096637732	1.4643025	0.8671961	1.1544648
1442740552104938513	1.3348505	1.2817202	2.1082692
1442740552113239295	1.0285544	1.4320755	2.3272
1442740552121540076	1.1001328	1.450697	2.4116292
1442740552129840857	0.84489715	1.6467075	2.1461315
1442740552138141638	2.9682956	2.36551	-0.9222213
1442740552146442420	3.0292344	2.3764982	-0.87951994
1442740552154743201	4.7251782	2.6112041	-1.8150908
1442740552163043982	6.603879	2.3432446	-1.5050167
1442740552171344763	6.6523705	2.3429422	-1.5275893
1442740552179645545	8.1851425	1.68923	-0.6661025
1442740552187946326	9.231859	1.7908087	0.9492898
1442740552196247107	9.076475	3.4998045	2.1758711
1442740552204547888	7.5986147	5.0768223	2.2457438
1442740552212848670	6.1452775	5.0594683	1.5090945
1442740552221149451	6.130146	5.044409	1.4805386
1442740552229450232	5.3352222	3.545659	0.0391016
1442740552237751013	4.9079485	1.7639456	0.071035266
1442740552246051795	4.1455355	0.8192501	1.3969363
1442740552254352576	3.4633849	1.4132757	1.9761798
1442740552262653357	2.5724528	2.2484703	1.7436942
1442740552270954138	0.3505968	3.1431227	2.027622
1442740552279254920	-2.0490274	4.1975946	2.0052893
1442740552287555701	-2.1941235	4.1648865	1.7918016
1442740552295856482	-6.4254885	7.2116985	-3.7830503
1442740552304157263	-6.6020107	7.1857977	-4.04123
1442740552312458045	-8.732356	7.715187	-4.130353
1442740552320758826	-8.859622	6.017867	-2.143945
1442740552329059607	-6.56905	3.7337704	0.79910403
1442740552337360388	-4.5930142	2.9767246	2.3114152
1442740552345661170	-4.728729	3.0027723	2.1013193
1442740552353961951	-2.0607843	2.5571966	2.196979
1442740552362262732	0.18597054	2.1525507	1.284124
1442740552370563513	2.806971	0.8014116	-0.5846281
1442740552378864295	2.937097	-0.07460976	-2.5125592
1442740552387165076	2.8839865	-0.3344469	-2.9631414
1442740552395465857	2.7619512	-0.30014706	-3.0543773
1442740552403766638	4.595604	-0.74792004	-2.978363
1442740552412067420	4.9977098	-1.1033506	-2.9515362
1442740552420368201	2.829012	-1.578515	-3.2985306
1442740552428668982	1.8385576	-2.3667755	-2.855576
1442740552436969763	0.52372074	-2.9863768	-3.2640896
1442740552445270545	0.38337624	-2.9331818	-3.32741
1442740552453571326	-1.0253782	-3.2724133	-2.8772697
1442740552461872107	-2.4628806	-3.575903	-2.0489492
1442740552470172888	-3.723893	-3.8400745	-2.5460558
1442740552478473670	-4.3025365	-4.188694	-2.7358155
1442740552486774451	-4.6708126	-5.069974	-2.4473321
1442740552495075232	-4.7285156	-5.0260983	-2.4873822
1442740552503376013	-4.813605	-5.3906126	-2.8268352
1442740552511676795	-4.80223	-5.5860558	-3.0014303
1442740552519977576	-4.8368316	-5.5589466	-3.0018659
1442740552528278357	-4.7963076	-5.7458925	-2.9835136
1442740552536579138	-4.4710155	-5.967161	-2.805927
1442740552544879920	-4.260476	-6.0223026	-2.104279
1442740552553180701	-3.91131	-5.9176197	-1.5875974
1442740552561481482	-3.9163525	-5.914425	-1.5429728
1442740552569782263	-3.6752312	-5.3151207	-0.6767206
1442740552578083045	-3.390958	-4.483451	0.08327389
1442740552586383826	-3.100865	-3.257887	0.5033634
1442740552594684607	-2.9448686	-2.111598	0.41868806
1442740552602985388	-2.918885	-0.69726276	0.3855343
1442740552611286170	-2.8412023	-0.74447155	0.48989367
1442740552619586951	-1.6795082	1.2557869	0.03345394
1442740552627887732	0.09670234	3.8736916	0.09685874
1442740552636188513	1.9116719	11.150052	2.4232335
1442740552644489295	2.085197	11.061781	2.5394878
1442740552652790076	4.3399873	15.649502	11.90276
1442740552661090857	4.5697527	15.561104	11.952955
1442740552669391638	12.28012	14.557774	10.995134
1442740552677692420	12.292445	4.541606	6.6824665
1442740552685993201	3.3413105	-1.6650782	3.2220016
1442740552694293982	3.3280976	-1.6484032	3.1532555
1442740552702594763	2.922563	-0.68570423	1.4934461
1442740552710895545	0.9617797	0.50427437	0.46504784
1442740552719196326	0.9062283	0.5109186	0.46148396
1442740552727497107	-2.2073889	2.8173075	-1.988347
1442740552735797888	-11.229023	9.58765	-7.6870213
1442740552744098670	-11.203488	9.559967	-7.634851
1442740552752399451	-10.027784	6.634982	-3.8540468
1442740552760700232	-9.296504	2.8798275	-0.55276716
1442740552769001013	-7.073939	-1.4694653	0.16689742
1442740552777301795	-7.0324836	-1.4810276	0.23110294
1442740552785602576	-3.2353072	-4.288496	4.054928
1442740552793903357	-1.8293583	-5.8786354	-1.4661437
1442740552802204138	-1.0219547	-6.666542	-7.9607754
1442740552810504920	0.04087943	-6.236121	-10.481358
1442740552818805701	1.154839	-4.5171986	-11.180471
1442740552827106482	1.7110708	-3.1216602	-8.548231
1442740552835407263	1.8579051	-3.135602	-8.428382
1442740552843708045	1.5542235	-2.4438534	-5.9334855
1442740552852008826	-0.28774393	-1.1260033	-5.4176917
1442740552860309607	-0.59898347	0.23998547	-3.424224
1442740552868610388	-1.0656397	1.8776112	0.099074244
1442740552876911170	-2.5155013	2.8890648	4.6309447
1442740552885211951	-2.4355865	2.882495	4.748218
1442740552893512732	-3.308492	2.9737282	2.270996
1442740552901813513	-3.3443534	2.7539883	1.3505707
1442740552910114295	-0.9417641	1.5103207	2.2149475
1442740552918415076	0.41458967	-0.30662727	1.5496471
1442740552926715857	1.1822402	-1.8215809	-0.061552882
1442740552935016638	2.1969347	-2.0506697	-0.74789786
1442740552943317420	2.2005258	-2.0448198	-0.7208768
1442740552951618201	2.512614	-1.6969051	-0.9924002
1442740552959918982	2.6024802	-1.1959229	-1.3941019
1442740552968219763	2.0823026	-0.6622362	-1.6643064
1442740552976520545	1.7529283	-0.9764576	-1.02951
1442740552984821326	1.6381509	-1.4393921	-0.47389752
1442740552993122107	1.6335218	-1.4324427	-0.41622257
1442740553001422888	1.0576849	-0.5078783	0.9660702
1442740553009723670	1.3957838	-0.27825356	0.6966914
1442740553018024451	1.4042385	-0.27142906	0.7608181
1442740553026325232	1.3667574	-1.363018	-0.35925883
1442740553034626013	1.314449	-1.9998522	-1.3329333
1442740553042926795	1.303006	-2.457901	-1.6563417
1442740553051227576	1.1651868	-2.1482706	-1.4746265
1442740553059528357	1.2080711	-2.1345015	-1.4156047
1442740553067829138	1.1766541	-1.5264301	-1.082299
1442740553076129920	1.3008069	-0.6970024	-0.5175998
1442740553084430701	1.563087	0.33521652	0.46741283
1442740553092731482	1.745517	1.0679903	1.4239247
1442740553101032263	1.7991791	1.2143955	1.5766908
1442740553109333045	1.8693994	1.2303543	1.6477913
1442740553117633826	1.8556927	1.2123747	1.54041
1442740553125934607	2.0455813	1.5601635	1.4574118
1442740553134235388	2.590868	2.0653725	1.1927665
1442740553142536170	3.4659152	2.3744078	0.04224193
1442740553150836951	4.9334936	2.3108234	-1.0210011
1442740553159137732	4.98534	2.3133898	-1.0226545
1442740553167438513	6.9672585	1.7924213	-1.1308901
1442740553175739295	8.213482	1.1631193	-0.13554263
1442740553184040076	8.849602	0.860898	1.001758
