accelerometer_timestamp	accelerometer_x_data	accelerometer_y_data	accelerometer_z_data
1040601707702064	0.4825287	4.050232	9.072678
1040601716094397	0.48892212	3.969635	8.838516
1040601724486731	0.5038605	3.9343872	8.754623
1040601732879065	0.45614624	3.9313965	8.6910095
1040601741271399	0.46218872	3.8341827	8.695847
1040601749663733	0.4955597	3.7342224	8.68367
1040601758056067	0.49632263	3.6397705	8.616928
1040601766448401	0.44348145	3.5762024	8.576126
1040601774840735	0.38043213	3.5720367	8.732513
1040601783233069	0.44155884	3.6225128	9.24884
1040601791625403	0.5601196	3.6392822	9.906265
1040601800017737	0.60484314	3.5802917	10.110474
1040601808410071	0.60243225	3.5260925	9.975845
1040601816802405	0.52671814	3.493866	9.681473
1040601825194739	0.34999084	3.4667053	9.386353
1040601833587073	0.18789673	3.4851532	9.16217
1040601841979407	0.12989807	3.5860443	9.063614
1040601850371741	0.21763611	3.663498	8.978394
1040601858764075	0.3136139	3.7160645	8.786179
1040601867156409	0.39187622	3.7528229	8.480942
1040601875548743	0.5002899	3.7893677	8.161423
1040601883941077	0.61131287	3.8633728	8.011414
1040601892333411	0.73695374	3.8960114	8.172379
1040601900725745	0.8148651	3.9141083	8.441483
1040601909118079	0.81492615	3.9514008	8.761337
1040601917510413	0.7687988	3.9906464	9.121399
1040601925902747	0.72309875	3.9862518	9.512253
1040601934295081	0.5924988	3.939392	9.797394
1040601942687415	0.46224976	3.8352814	9.972565
1040601951079749	0.37887573	3.7085724	9.91803
1040601959472083	0.32156372	3.6186829	9.761795
1040601967864417	0.28311157	3.5837555	9.567062
1040601976256751	0.26338196	3.5715637	9.32515
1040601984649085	0.20970154	3.4870758	9.071671
1040601993041419	0.040725708	3.350586	8.768951
1040602001433753	0.11567688	3.3562164	8.615051
1040602009826087	0.38894653	3.5620422	8.530991
1040602018218421	0.72076416	3.8915405	8.452637
1040602026610755	0.9528656	4.1725464	8.364258
1040602035003089	1.0017242	4.240341	8.278519
1040602043395423	1.003067	4.1592255	8.258545
1040602051787757	0.99082947	4.046921	8.280228
1040602060180091	0.9866333	3.9622803	8.314987
1040602068572425	0.98405457	3.958313	8.395966
1040602076964759	0.9484863	4.0569763	8.595673
1040602085357093	0.81788635	4.122772	8.903748
1040602093749427	0.6339264	4.071106	9.184906
1040602102141761	0.47673035	3.9857178	9.441483
1040602110534095	0.4152069	3.937027	9.504623
1040602118926429	0.458313	3.9584198	9.338638
1040602127318763	0.56300354	4.0395966	9.059769
1040602135711097	0.73794556	4.15094	8.730759
1040602144103431	0.86769104	4.257187	8.4769745
1040602152495765	0.95458984	4.298111	8.332855
1040602160888099	1.0079956	4.288864	8.3181
1040602169280433	1.0522156	4.254944	8.362839
1040602177672767	1.1119537	4.2230988	8.355698
1040602186065101	1.1391296	4.2415314	8.46051
1040602194457435	1.0729828	4.2764587	8.721664
1040602202849769	0.9667969	4.255615	8.999359
1040602211242103	0.87413025	4.228256	9.143143
1040602219634437	0.8387604	4.2189636	9.126175
1040602228026771	0.8735504	4.2111053	9.038025
1040602236419105	0.89959717	4.2197876	8.993637
1040602244811439	1.0078888	4.2298737	9.053482
1040602253203772	1.0541992	4.237808	9.050583
1040602261596106	1.0367432	4.2361755	8.9691925
1040602269988440	0.9921417	4.226303	8.845932
1040602278380774	0.9560394	4.2191467	8.734894
1040602286773108	0.8804321	4.244705	8.692993
1040602295165442	0.7779846	4.2239075	8.625229
1040602303557776	0.7673187	4.1997375	8.6475525
1040602311950110	0.7957916	4.179199	8.757065
1040602320342444	0.81941223	4.1483765	8.89859
1040602328734778	0.8286896	4.0855713	8.986313
1040602337127112	0.7650757	4.0209503	9.019104
1040602345519446	0.71466064	4.0582733	8.950485
1040602353911780	0.7105255	4.0796814	8.817642
1040602362304114	0.7510834	4.090622	8.7391815
1040602370696448	0.813324	4.1063995	8.723541
1040602379088782	0.86854553	4.1226044	8.648666
1040602387481116	0.88612366	4.1206512	8.489548
1040602395873450	0.89456177	4.116104	8.374176
1040602404265784	0.92433167	4.1164093	8.365875
1040602412658118	0.94981384	4.125656	8.46611
1040602421050452	0.93533325	4.136322	8.619034
1040602429442786	0.8542175	4.1332245	8.712433
1040602437835120	0.61964417	4.1272583	8.156784
1040602446227454	0.9060974	4.242157	7.5520325
1040602454619788	1.191864	4.2530518	8.369156
1040602463012122	1.3710938	4.138809	9.201706
1040602471404456	1.3930664	3.9899292	9.263153
1040602479796790	1.1829529	3.9409943	9.251694
1040602488189124	1.0525208	3.9419708	9.094009
1040602496581458	1.0424347	3.9567413	9.103714
1040602504973792	1.0144806	4.0460815	9.252411
1040602513366126	0.9959717	4.1620026	9.438736
1040602521758460	1.0766144	4.248886	9.538574
1040602530150794	1.3190765	4.2914276	9.436111
1040602538543128	1.4076538	4.4004517	9.080826
1040602546935462	1.2879028	4.5125275	8.43898
1040602555327796	0.9109497	4.527649	7.9189606
1040602563720130	0.5661621	4.4499054	7.8517
1040602572112464	0.49650574	4.322342	8.290787
1040602580504798	0.68740845	4.18161	8.972076
1040602588897132	0.8698578	4.1028595	9.335983
1040602597289466	0.8614807	4.0490723	9.283173
1040602605681800	0.72595215	4.0594025	9.025955
1040602614074134	0.5447998	4.108841	8.680756
1040602622466468	0.42971802	4.151825	8.323929
1040602630858802	0.4743805	4.160721	7.940033
1040602639251136	0.7010193	4.1000977	6.7213745
1040602647643470	0.87449646	4.2089844	7.586609
1040602656035804	1.0723114	4.1971283	8.618439
1040602664428138	1.2200012	4.11911	9.289566
1040602672820472	1.2488861	4.0763245	9.581284
1040602681212806	1.1794586	4.0697327	9.483414
1040602689605140	1.1834412	4.1154633	9.4039
1040602697997474	1.2728424	4.187271	9.617294
1040602706389808	1.3533783	4.2574005	9.946014
1040602714782142	1.3956146	4.2781525	10.080627
1040602723174476	1.3763733	4.2443542	9.803375
1040602731566810	1.2687683	4.235214	9.226013
1040602739959144	1.1630859	4.036804	8.434372
1040602748351478	1.0236664	4.171234	7.817993
1040602756743812	0.90940857	4.4388733	7.7304077
1040602765136146	0.9560394	4.610977	8.105179
1040602773528480	1.1794891	4.565323	8.632019
1040602781920814	1.3733673	4.403549	9.03746
1040602790313147	1.3823395	4.2669525	9.298676
1040602798705481	1.3055878	4.20076	9.443863
1040602807097815	1.2165833	4.175171	9.519836
1040602815490149	1.1287231	4.1957397	9.505066
1040602823882483	1.0357819	4.25264	9.374237
1040602832274817	0.93522644	4.292679	9.139923
1040602840667151	0.82992554	4.2977295	8.75322
1040602849059485	0.75613403	4.3068085	8.377823
1040602857451819	0.69551086	4.301544	8.1609955
1040602865844153	0.6339569	4.2850494	8.125595
1040602874236487	0.43444824	4.270355	8.212769
1040602882628821	-0.23524475	4.270279	8.277481
1040602891021155	-0.15846252	4.081848	8.621445
1040602899413489	0.2403717	3.9572754	8.9223175
1040602907805823	0.5762329	3.9350433	9.197006
1040602916198157	0.7004242	4.0080414	9.384247
1040602924590491	0.6058197	4.111664	9.429718
1040602932982825	0.3752594	4.1214905	9.394943
1040602941375159	0.2053833	4.1088104	9.254364
1040602949767493	0.07661438	4.074173	9.090805
1040602958159827	0.022445679	4.0552216	8.915756
1040602966552161	0.032714844	4.0621643	8.757874
1040602974944495	0.07337952	4.092209	8.6345215
1040602983336829	0.12512207	4.1546936	8.5242
1040602991729163	0.21450806	4.199829	8.426392
1040603000121497	0.24006653	4.2653046	8.428757
1040603008513831	0.1512146	4.3104706	8.502274
1040603016906165	0.0023956299	4.3043365	8.591034
1040603025298499	-0.12084961	4.2398834	8.656235
1040603033690833	-0.17585754	4.1505127	8.723999
1040603042083167	-0.1842041	4.090973	8.810898
1040603050475501	-0.23568726	4.0851135	8.856964
1040603058867835	-0.3469391	4.066864	8.979431
1040603067260169	-0.4691925	4.020172	9.19809
1040603075652503	-0.54782104	3.954605	9.464493
1040603084044837	-0.5976715	3.8718414	9.676849
1040603092437171	-0.47972107	3.9048462	9.845581
1040603100829505	-0.28182983	3.9923553	9.8880005
1040603109221839	-0.10308838	4.139511	9.771011
1040603117614173	0.039855957	4.3017426	9.4767
1040603126006507	0.18870544	4.427002	9.040543
1040603134398841	0.36717224	4.5316925	8.573944
1040603142791175	0.50071716	4.635849	8.20253
1040603151183509	0.53593445	4.7261505	7.962082
1040603159575843	0.45655823	4.7788086	7.8310394
1040603167968177	0.280365	4.778305	7.810211
1040603176360511	0.042785645	4.71875	7.9031067
1040603184752845	-0.19985962	4.605194	8.047714
1040603193145179	-0.4390869	4.409912	8.204834
1040603201537513	-0.65582275	4.270813	8.396591
1040603209929847	-0.83461	4.1758575	8.5681
1040603218322181	-0.968277	4.153839	8.716309
1040603226714515	-1.0380707	4.2333984	8.855499
1040603235106849	-0.97325134	4.3341064	8.932266
1040603243499183	-0.912735	4.378311	8.8923645
1040603251891517	-0.7401428	4.4647675	8.828934
1040603260283851	-0.4954834	4.571991	8.858215
1040603268676185	-0.20143127	4.6701508	8.933487
1040603277068519	0.3380432	4.6954803	8.979614
1040603285460853	1.9901123	4.44223	9.198959
1040603293853187	2.8462982	4.331024	9.9938965
1040603302245521	2.1766663	4.5482635	9.793655
1040603310637855	1.0177612	4.8899536	8.849472
1040603319030189	0.22944641	5.181427	7.697891
1040603327422522	0.0708313	5.34729	6.8177643
1040603335814856	0.2807312	5.351181	6.2671356
1040603344207190	-1.8515778	5.2065735	10.664368
1040603352599524	-2.1700745	5.4534454	9.657501
1040603360991858	-2.4410553	5.6251373	8.1683655
1040603369384192	-2.58667	5.3378143	8.197113
1040603377776526	-1.4173431	4.6591034	8.206284
1040603386168860	-1.0153198	4.6698	8.017441
1040603394561194	-0.63990784	4.9328156	7.383972
1040603402953528	0.17939758	5.167755	6.5879517
1040603411345862	0.87557983	5.4477997	5.7070923
1040603419738196	1.2671356	5.7729187	5.1523285
1040603428130530	1.496933	6.067993	5.469116
1040603436522864	1.2369843	6.3320313	6.358673
1040603444915198	-3.1331177	6.5049133	8.503067
1040603453307532	-2.9820404	7.1400146	7.079117
1040603461699866	-2.2536774	7.704483	6.373337
1040603470092200	-2.5271606	7.9580536	7.5246277
1040603478484534	-2.6900635	8.003586	8.234558
1040603486876868	-3.8336334	7.8271027	7.6154175
1040603495269202	-3.5690002	6.824051	7.0521393
1040603503661536	-2.5072632	5.7821045	6.363693
1040603512053870	-1.1887817	4.9972534	5.775223
1040603520446204	-0.3553772	4.7094574	5.794647
1040603528838538	-0.22007751	4.730133	6.415741
1040603537230872	1.5885315	3.2789612	4.7050934
1040603545623206	2.8054047	1.6008911	1.1609802
1040603554015540	-0.067855835	2.739441	1.398346
1040603562407874	-4.417465	6.302353	5.161438
1040603570800208	-7.115341	9.595093	9.481674
1040603579192542	-6.2630157	9.459518	10.634277
1040603587584876	-3.825348	7.002899	8.0221405
1040603595977210	-3.7420044	5.146942	5.468155
1040603604369544	-4.936371	6.08963	5.050125
1040603612761878	-4.753433	6.8209686	5.4350433
1040603621154212	-2.7572021	6.1940765	5.3105164
1040603629546546	-0.8771515	5.5923157	4.296585
1040603637938880	-1.4922943	6.057907	3.780136
1040603646331214	-1.7638397	6.490509	3.0874329
1040603654723548	-3.412033	7.3947754	4.2666626
1040603663115882	-6.3569336	8.60733	5.1673584
1040603671508216	-9.190781	9.625671	4.7268677
1040603679900550	-9.91687	10.017822	3.9471893
1040603688292884	-8.079941	10.656967	3.6151886
1040603696685218	-5.288101	10.856598	3.6573792
1040603705077552	-2.7932434	10.442902	2.9833374
1040603713469886	-1.2460785	9.623657	2.0316467
1040603721862220	-0.48486328	8.738876	1.2552338
1040603730254554	0.103515625	8.05249	0.73612976
1040603738646888	-0.062942505	7.624588	0.3816681
1040603747039222	-1.6990204	7.88031	0.8295746
1040603755431556	-3.97052	8.558533	1.2220154
1040603763823890	-5.898575	9.481262	1.4738922
1040603772216224	-6.9144135	10.437134	1.5798492
1040603780608558	-7.009598	11.228317	1.4555206
1040603789000892	-6.218979	11.652054	0.89320374
1040603797393226	-5.0820007	11.611237	1.4883118
1040603805785560	-4.387863	11.005325	1.8294373
1040603814177894	-3.559845	9.875519	1.5883636
1040603822570228	-2.0900726	8.5728	1.1902313
1040603830962562	-0.044631958	7.6645355	1.3719177
1040603839354896	0.81121826	7.655609	1.2039337
1040603847747230	0.20970154	8.324692	1.3740845
1040603856139564	-0.62124634	9.0168915	0.9963684
1040603864531897	-1.3475037	9.554581	0.1745758
1040603872924231	-1.9339142	9.871216	-0.6388397
1040603881316565	-2.5128326	9.970276	-0.96591187
1040603889708899	-2.8691711	9.854095	-0.9493103
1040603898101233	-2.93042	9.820053	-0.7465515
1040603906493567	-2.8466797	9.948349	-0.38412476
1040603914885901	-2.6714935	10.024307	-0.006881714
1040603923278235	-2.4289093	9.909149	0.31221008
1040603931670569	-2.1358948	9.660507	0.6346741
1040603940062903	-1.9704132	9.430389	1.053772
1040603948455237	-1.7592773	9.180237	1.1200409
1040603956847571	-1.35672	8.975037	1.0303955
1040603965239905	-0.83558655	8.895325	1.0034485
1040603973632239	-0.38163757	8.9552	1.0115814
1040603982024573	-0.18171692	9.096069	0.720932
1040603990416907	0.23675537	9.142792	0.06489563
1040603998809241	0.6485443	9.4145355	-0.69184875
1040604007201575	0.9246826	9.506714	-0.90849304
1040604015593909	1.007782	9.338699	-0.59269714
1040604023986243	0.87127686	9.04248	-0.015258789
1040604032378577	0.5312195	8.88266	0.5177002
1040604040770911	0.062057495	8.689819	1.1439209
1040604049163245	-0.42053223	8.377945	1.6901703
1040604057555579	-1.6028595	7.8564453	2.1232758
1040604065947913	-1.7098846	7.4683228	2.1746216
1040604074340247	-0.28659058	7.64122	1.542633
1040604082732581	-0.014572144	8.527191	0.20272827
1040604091124915	0.7342377	9.763168	-0.49920654
1040604099517249	0.9644165	11.003052	-0.88690186
1040604107909583	0.5593872	11.849991	-0.9750366
1040604116301917	-0.08946228	12.157349	-0.3849182
1040604124694251	-0.52285767	11.946243	0.40249634
1040604133086585	-0.4025116	11.379654	-0.21076965
1040604141478919	0.48086548	10.532181	-0.30249023
1040604149871253	0.8376312	10.066254	0.21380615
1040604158263587	0.5977936	9.735855	0.72439575
1040604166655921	0.45532227	9.175903	1.25
1040604175048255	0.73960876	8.332886	1.9093018
1040604183440589	0.7766876	7.6802216	2.6343231
1040604191832923	0.5822754	7.753006	2.9154816
1040604200225257	0.649292	8.190659	2.6154175
1040604208617591	0.9462738	8.5195465	2.3039246
1040604217009925	1.3784485	8.578613	2.0484314
1040604225402259	1.8440704	8.410782	1.6248016
1040604233794593	2.2996063	8.233658	0.7499695
1040604242186927	2.0583344	8.051224	1.6053925
1040604250579261	0.9707031	8.583237	2.6895752
1040604258971595	-0.8024292	9.964539	3.4548187
1040604267363929	-1.5831451	10.903915	3.9063263
1040604275756263	-0.6851654	10.466263	4.2478485
1040604284148597	-0.10089111	9.462769	4.5324707
1040604292540931	0.3513794	8.941589	4.2005615
1040604300933265	0.8198395	8.799713	3.5041199
1040604309325599	1.527298	8.637192	4.1158447
1040604317717933	2.2048798	8.446884	5.6567993
1040604326110267	2.3878784	8.534195	6.786545
1040604334502601	1.7445374	9.339218	6.548889
1040604342894935	1.7147217	9.672211	5.5787354
1040604351287269	1.9330902	9.374359	5.337036
1040604359679603	2.3036957	9.125153	5.3120575
1040604368071937	2.2264557	8.982574	5.5582733
1040604376464271	1.3219757	8.76532	6.232071
1040604384856605	0.039535522	8.409973	7.264801
1040604393248939	-0.17680359	8.358124	7.4871216
1040604401641272	-0.13471985	8.569061	7.2603607
1040604410033606	-0.7943878	8.531479	7.439499
1040604418425940	-2.4292297	8.20401	7.6430054
1040604426818274	-1.5979614	8.726318	3.8610382
1040604435210608	11.225311	12.879013	-12.904373
1040604443602942	11.192215	11.188187	-9.17131
1040604451995276	1.9165344	8.542206	0.009597778
1040604460387610	-3.8489227	6.923706	5.5891724
1040604468779944	-2.9143524	6.760193	5.8270416
1040604477172278	0.8258972	7.164551	4.014206
1040604485564612	2.7274475	6.861374	3.3193817
1040604493956946	1.7355499	6.438919	5.376175
1040604502349280	0.032608032	6.180725	6.931885
1040604510741614	-1.4802399	6.227539	7.4517975
1040604519133948	-2.3615112	6.218704	7.0574036
1040604527526282	-2.5953217	5.4952393	6.2024384
1040604535918616	-2.2355042	3.3938904	5.006653
1040604544310950	-2.3142853	2.0453644	5.225296
1040604552703284	-4.176132	2.5396576	6.616806
1040604561095618	-6.5183563	3.8491364	8.317184
1040604569487952	-7.5987854	4.700119	9.339523
1040604577880286	-6.3332977	4.196701	8.770828
1040604586272620	-4.6074524	3.106964	6.527527
1040604594664954	-3.789856	2.4718323	4.622513
1040604603057288	-3.700943	2.0048065	3.8842926
1040604611449622	-3.8303986	1.970459	4.084244
1040604619841956	-4.060211	2.3331451	5.274994
1040604628234290	-4.667877	2.811432	7.398834
1040604636626624	-6.3279114	3.0676727	9.6740265
1040604645018958	-7.9866333	3.1755524	10.25824
1040604653411292	-8.754013	3.1242523	9.191238
1040604661803626	-8.182571	3.047348	6.82518
1040604670195960	-6.515518	2.9751892	3.9428864
1040604678588294	-4.6314697	2.8647614	1.4956055
1040604686980628	-3.6364594	2.7002563	0.26431274
1040604695372962	-3.3833313	3.1128082	0.57385254
1040604703765296	-3.328476	3.6042023	1.560318
1040604712157630	-3.6398468	4.1255035	2.8728943
1040604720549964	-4.039871	4.509796	4.031204
1040604728942298	-4.339737	4.659317	4.0064087
1040604737334632	-5.518631	4.8680573	0.53930664
1040604745726966	-5.0698853	4.6611786	1.8187866
1040604754119300	-6.113785	4.687454	2.7560883
1040604762511634	-7.5429535	4.9471893	2.871521
1040604770903968	-8.148544	5.2151184	2.4248962
1040604779296302	-7.228012	5.1897125	1.9613037
1040604787688636	-6.2559357	4.966385	1.3022919
1040604796080970	-6.171219	4.7379456	0.4759674
1040604804473304	-5.8966217	4.4796295	-0.68466187
1040604812865638	-5.55809	4.125519	-1.8421783
1040604821257972	-5.5300903	3.7542267	-2.6878662
1040604829650306	-6.2296143	3.5549774	-2.9111176
1040604838042640	-7.5426636	3.6626434	-2.183319
1040604846434974	-8.776596	4.354553	-0.8796234
1040604854827308	-9.367477	5.325012	0.9471741
1040604863219642	-9.402481	6.087509	2.6699219
1040604871611976	-9.263153	6.334503	3.6545258
1040604880004310	-9.341782	6.081375	3.5654144
1040604888396644	-9.387634	5.831131	2.9592285
1040604896788978	-8.924835	5.4556427	2.1132965
1040604905181312	-8.481552	4.822464	1.180542
1040604913573646	-8.163101	4.04216	0.024093628
1040604921965980	-8.087021	3.231018	-1.3461304
1040604930358314	-8.301514	2.5037231	-2.7165222
1040604938750647	-8.4032135	1.9174652	-3.6956024
1040604947142981	-8.23584	1.470108	-4.5882263
1040604955535315	-8.026382	1.3052673	-5.354782
1040604963927649	-8.076614	1.2949066	-5.8863525
1040604972319983	-8.251007	1.2063904	-5.8991547
1040604980712317	-8.232086	0.84465027	-5.0590363
1040604989104651	-8.728592	0.57644653	-3.4568481
1040604997496985	-9.732803	0.9708252	-1.6792603
1040605005889319	-10.859314	1.4175415	-0.11352539
1040605014281653	-12.294189	1.689621	0.99697876
1040605022673987	-13.695221	1.7263641	1.5454559
1040605031066321	-14.241272	1.5912476	1.5436401
1040605039458655	-13.638077	1.2353058	1.0022583
1040605047850989	-13.272003	0.71868896	0.16926575
1040605056243323	-12.916183	0.23220825	-0.7538147
1040605064635657	-12.453033	-0.21781921	-1.6327667
1040605073027991	-12.028473	-0.61361694	-2.5827332
1040605081420325	-11.923416	-0.9352722	-3.7775116
1040605089812659	-11.978256	-1.2612915	-4.5791016
1040605098204993	-11.876862	-1.6433258	-4.738571
1040605106597327	-11.764252	-1.8469086	-4.5749207
1040605114989661	-12.115707	-1.8583527	-3.9972992
1040605123381995	-12.963486	-1.6729279	-2.897461
1040605131774329	-13.809296	-1.3098297	-1.3370667
1040605140166663	-14.353653	-0.89608765	0.05076599
1040605148558997	-15.19072	-0.42152405	1.3072357
1040605156951331	-15.564438	0.3262329	2.5063019
1040605165343665	-15.247696	1.0577545	3.17984
1040605173735999	-14.589401	1.5313873	3.1349792
1040605182128333	-14.3415985	1.6728363	2.5954132
1040605190520667	-13.484116	1.5453339	1.3431091
1040605198913001	-12.307404	1.2214508	0.090042114
1040605207305335	-11.240265	0.74082947	-0.59106445
1040605215697669	-10.24173	0.07388306	-0.8598633
1040605224090003	-10.446564	-0.54922485	-0.75730896
1040605232482337	-13.813995	-0.6835327	0.029922485
1040605240874671	-18.089066	0.19485474	1.7190399
1040605249267005	-18.12674	0.86912537	2.756134
1040605257659339	-16.202332	1.1127472	3.2464294
1040605266051673	-13.914993	1.1067352	3.4978333
1040605274444007	-12.101639	0.95726013	3.57135
1040605282836341	-10.824661	0.6456604	3.2100525
1040605291228675	-10.157669	0.36351013	2.3825378
1040605299621009	-9.484421	-0.14518738	1.3026123
1040605308013343	-9.754898	-0.59799194	0.34716797
1040605316405677	-10.337738	-0.79615784	-0.32836914
1040605324798011	-10.65831	-0.8408356	-0.8523407
1040605333190345	-10.501083	-1.1023254	-1.5765076
1040605341582679	-9.74324	-1.5342255	-2.4117737
1040605349975013	-9.285568	-1.7789612	-2.7658997
1040605358367347	-10.224899	-1.7120972	-1.9926453
1040605366759681	-11.566605	-1.7754822	0.68281555
1040605375152015	-11.729294	-2.3485718	5.9604797
1040605383544349	-9.766602	-3.2365112	13.389175
1040605391936683	-6.8034515	-1.5710144	13.474991
1040605400329017	-5.552704	-0.20101929	10.378418
1040605408721351	-5.902359	0.34492493	5.884247
1040605417113685	-7.7858124	-1.1396637	0.89512634
1040605425506019	-10.370789	-4.048477	-3.0161896
1040605433898353	-12.001205	-5.290283	-4.158951
1040605442290687	-10.761917	-3.5255432	-5.7492065
1040605450683021	-9.857269	-3.681778	-3.9815521
1040605459075355	-9.931778	-4.021408	-1.4839478
1040605467467689	-11.598038	-3.789383	0.2929077
1040605475860022	-14.007111	-3.127884	0.7591553
1040605484252356	-14.507233	-3.1054688	0.42269897
1040605492644690	-13.178192	-3.7565308	-0.7866974
1040605501037024	-11.614487	-4.080536	-1.416214
1040605509429358	-9.521713	-4.4699554	-2.1887817
1040605517821692	-7.188095	-4.9848175	-2.2764893
1040605526214026	-5.0475464	-5.5683136	-1.203949
1040605534606360	-3.4842987	-6.0944366	0.3196869
1040605542998694	-3.3009644	-6.1270447	0.82185364
1040605551391028	-4.5565186	-5.477356	1.1720276
1040605559783362	-5.4073334	-4.5922394	0.9692688
1040605568175696	-7.0071716	-4.9627533	0.8024292
1040605576568030	-9.333984	-6.9961853	1.4846039
1040605584960364	-9.768433	-9.036346	3.40477
1040605593352698	-9.320251	-8.276459	2.9983368
1040605601745032	-9.584122	-6.999359	1.7409515
1040605610137366	-9.554718	-6.0961456	1.1338196
1040605618529700	-9.594589	-5.7967834	1.101654
1040605626922034	-9.864822	-6.068741	1.3000641
1040605635314368	-9.709076	-6.7380524	1.6819153
1040605643706702	-9.199158	-7.113785	2.2475128
1040605652099036	-8.067383	-7.14386	2.4093323
1040605660491370	-7.0806427	-6.938202	2.2309418
1040605668883704	-6.229126	-6.449829	3.5209503
1040605677276038	-4.7463226	-5.617676	6.3862762
1040605685668372	-1.4577179	-4.5080566	7.6740417
1040605694060706	-2.178543	-4.8350525	5.123703
1040605702453040	-3.8527374	-5.2480927	3.2427673
1040605710845374	-5.0529175	-5.5438232	0.45373535
1040605719237708	-5.520401	-5.822769	-2.3311462
1040605727630042	-5.405945	-6.1477203	-3.9616547
1040605736022376	-4.901993	-6.3738556	-4.343857
1040605744414710	-3.9017181	-6.777237	-3.882431
1040605752807044	-2.8070068	-7.196747	-3.613449
1040605761199378	-1.8441162	-7.6440735	-3.2803192
1040605769591712	-1.2076569	-7.979187	-2.450348
1040605777984046	-1.3298492	-7.684616	-0.7825775
1040605786376380	-3.4568024	-5.302536	2.0763092
1040605794768714	-3.002121	-3.9384613	-0.42601013
1040605803161048	-2.522232	-3.4877777	-1.3184814
1040605811553382	-2.2765198	-3.3092957	-1.3705597
1040605819945716	-2.2978058	-3.2183075	-1.2307434
1040605828338050	-2.717453	-3.2160187	-1.1253662
1040605836730384	-4.1181183	-3.3915253	-0.5132141
1040605845122718	-6.5186462	-4.473007	0.28697205
1040605853515052	-4.4940796	-4.921692	-0.1899414
1040605861907386	-2.62323	-6.222046	-0.35777283
1040605870299720	-0.985672	-9.784683	1.0935059
1040605878692054	2.320053	-16.694702	3.893402
1040605887084388	9.265381	-27.376984	5.279541
1040605895476722	13.232162	-37.05275	2.8665924
1040605903869056	7.5420227	-37.881973	2.5250092
1040605912261390	-0.060684204	-33.325623	4.5255585
1040605920653724	-4.111145	-26.989807	6.05809
1040605929046058	-2.7575378	-21.223312	4.9568787
1040605937438392	0.74316406	-15.786377	2.749878
1040605945830726	3.194641	-11.530579	-0.037231445
1040605954223060	4.3749237	-8.190704	-1.9785461
1040605962615394	4.8289795	-6.0285645	-2.764389
1040605971007728	4.6506042	-4.873657	-3.046814
1040605979400062	3.9783936	-4.370407	-3.4674225
1040605987792396	3.4668274	-4.195862	-3.7693481
1040605996184730	3.3651276	-4.259674	-4.131256
1040606004577064	2.0606537	-4.0291595	-4.0943756
1040606012969397	1.5032654	-3.8621979	-3.5733643
1040606021361731	4.1800537	-4.311432	-3.0769653
1040606029754065	10.240723	-5.5351563	-3.0647583
1040606038146399	14.299866	-6.655197	-3.2887726
1040606046538733	12.701355	-6.6820526	-2.1981964
1040606054931067	9.544846	-6.660797	-1.077591
1040606063323401	6.9694366	-6.752136	0.07948303
1040606071715735	5.9815216	-7.0524597	0.7622223
1040606080108069	6.3365326	-7.4936676	0.63609314
1040606088500403	6.2758026	-7.6963654	0.42459106
1040606096892737	5.9487305	-7.962082	0.20651245
1040606105285071	5.502777	-8.210297	-0.09329224
1040606113677405	5.0650635	-8.448013	-0.3997345
1040606122069739	4.7308807	-8.68898	-0.6452942
1040606130462073	4.5575867	-8.92128	-0.77804565
1040606138854407	4.5556335	-9.0638275	-0.7633972
1040606147246741	4.499405	-9.037125	-0.6988678
1040606155639075	4.5927277	-8.939789	-0.5301361
1040606164031409	4.8099365	-8.722748	-0.20742798
1040606172423743	5.1241455	-8.454407	0.14134216
1040606180816077	5.4884186	-8.23793	0.34458923
1040606189208411	5.7875366	-8.080414	0.37649536
1040606197600745	5.8917847	-8.00441	0.3291626
1040606205993079	5.922333	-7.97583	0.19519043
1040606214385413	5.8344574	-7.9371033	0.017578125
1040606222777747	5.679062	-7.8872833	-0.12471008
1040606231170081	5.5457764	-7.8601685	-0.16638184
1040606239562415	5.462784	-7.887497	-0.12635803
1040606247954749	5.3966827	-7.9311066	0.04283142
1040606256347083	5.374283	-8.06723	0.3083496
1040606264739417	5.3386993	-8.246933	0.6253662
1040606273131751	5.2762604	-8.420441	0.9337158
1040606281524085	5.2043457	-8.553894	1.1690826
1040606289916419	5.1360016	-8.644699	1.2764893
1040606298308753	5.02713	-8.805267	1.1803894
1040606306701087	4.816864	-8.839584	0.9903412
1040606315093421	3.2671967	-9.029892	-4.570343
1040606323485755	1.7738342	-9.369919	-10.079712
1040606331878089	2.3037415	-9.666321	-7.0238495
1040606340270423	2.3437805	-9.858643	-2.2956238
1040606348662757	3.3168945	-9.620071	6.104477
1040606357055091	4.5833435	-9.596481	10.564667
1040606365447425	5.677231	-8.609451	10.98114
1040606373839759	7.0317535	-7.3775177	7.4989624
1040606382232093	8.942108	-7.439804	0.943985
1040606390624427	8.6081085	-7.728943	-3.917389
1040606399016761	7.539612	-8.247726	-3.9382172
1040606407409095	6.7545624	-8.157379	-3.1657257
1040606415801429	6.415207	-7.793396	-2.238327
1040606424193763	6.4644012	-7.563431	-1.386673
1040606432586097	6.6150208	-7.594696	-0.5835724
1040606440978431	6.3533783	-7.6025085	0.17306519
1040606449370765	5.940094	-7.5673523	0.5550842
1040606457763099	5.7956085	-7.5496826	0.8162384
1040606466155433	5.8175354	-7.5910187	1.0691223
1040606474547767	5.8272247	-7.6633453	1.2565613
1040606482940101	5.6920624	-7.6954346	1.2630463
1040606491332435	5.275177	-7.6378174	1.294281
1040606499724769	4.94545	-7.781082	0.998291
1040606508117103	4.8144836	-8.0499115	0.7965698
1040606516509437	4.756363	-8.3450775	0.4524536
1040606524901771	4.751236	-8.625534	-0.047454834
1040606533294105	4.8447723	-8.872833	-0.46063232
1040606541686439	4.8321533	-8.924271	-0.54507446
1040606550078772	4.958496	-8.969101	-0.7116394
1040606558471106	4.8700714	-9.107376	-1.3566742
1040606566863440	4.4904633	-9.2760315	-1.6530914
1040606575255774	3.8614502	-9.36734	-1.166565
1040606583648108	3.179779	-9.327087	-0.27134705
1040606592040442	3.0599518	-9.380112	0.29634094
1040606600432776	3.3975525	-9.439911	0.68681335
1040606608825110	3.8737946	-9.47493	0.80981445
1040606617217444	4.2161255	-9.342178	0.7672272
1040606625609778	4.4510803	-9.028793	0.62246704
1040606634002112	4.859726	-8.669434	0.35908508
1040606642394446	5.622528	-8.501007	0.060424805
1040606650786780	6.235489	-8.284607	-0.28829956
1040606659179114	6.5901184	-7.9872894	-0.6223755
1040606667571448	6.6957703	-7.681793	-0.7057495
1040606675963782	6.691391	-7.4485474	-0.51013184
1040606684356116	6.763199	-7.3272095	-0.2526245
1040606692748450	6.7352905	-7.190613	-0.34036255
1040606701140784	6.6987305	-7.0587463	-0.50712585
1040606709533118	6.8566284	-6.9061584	-0.82211304
1040606717925452	7.1864014	-6.8212585	-1.1481171
1040606726317786	7.46344	-6.8573303	-1.3762207
1040606734710120	7.350174	-7.0123596	-1.4764099
1040606743102454	6.766144	-7.3243713	-1.2924042
1040606751494788	5.8324585	-7.506134	-0.86987305
1040606759887122	5.572693	-7.736786	-0.5725708
1040606768279456	5.865814	-8.047974	-0.7645874
1040606776671790	5.9633636	-8.242676	-1.1438446
1040606785064124	5.0693207	-8.0368805	-0.8269348
1040606793456458	4.746155	-8.14328	-0.8503723
1040606801848792	5.15979	-8.470673	-1.2335815
1040606810241126	5.392761	-8.707001	-1.0783997
1040606818633460	5.0231323	-8.584244	-0.3434906
1040606827025794	4.294922	-8.194473	0.57089233
1040606835418128	3.9449005	-7.976761	1.1503754
1040606843810462	4.2410126	-8.286835	1.175293
1040606852202796	4.766678	-8.899002	0.90766907
1040606860595130	5.2441406	-9.391937	0.61402893
1040606868987464	5.5730286	-9.54541	0.4245758
1040606877379798	5.8271484	-9.354523	0.39234924
1040606885772132	6.2371216	-8.994476	0.5319519
1040606894164466	7.0187683	-8.85289	0.72836304
1040606902556800	7.9426575	-9.429504	0.4806671
1040606910949134	8.899872	-10.202484	0.35421753
1040606919341468	9.153412	-10.500885	0.9611969
1040606927733802	8.098251	-9.836441	2.2972717
1040606936126136	5.742462	-8.167572	3.4520416
1040606944518470	3.2544403	-6.3097534	4.683609
1040606952910804	1.9110107	-5.0178375	4.3565216
1040606961303138	1.2935638	-4.340988	3.3125458
1040606969695472	1.9680481	-4.397934	1.8884125
1040606978087806	4.023285	-5.2120056	0.3508911
1040606986480140	6.249878	-6.5640106	-1.0567474
1040606994872474	7.5953674	-7.838791	-2.4670715
1040607003264808	7.986862	-8.70607	-1.6862488
1040607011657142	7.089203	-9.1020355	-0.7598419
1040607020049476	5.677185	-9.112137	-0.10609436
1040607028441810	4.8274384	-9.031586	0.31459045
1040607036834144	5.2088623	-9.273376	0.3453827
1040607045226478	5.87088	-9.43541	0.08294678
1040607053618812	6.3615875	-9.47139	0.020553589
1040607062011146	6.3128815	-9.093948	0.28656006
1040607070403480	6.0690155	-8.486374	0.76008606
1040607078795814	5.999283	-7.9709473	1.2697754
1040607087188147	6.00119	-7.760895	1.7457123
1040607095580481	5.281494	-7.715851	1.8064117
1040607103972815	3.6561737	-7.607895	1.6246796
1040607112365149	2.8310852	-7.5012665	0.95751953
1040607120757483	3.6811829	-7.6675873	0.2220459
1040607129149817	5.5732117	-8.089264	-0.18334961
1040607137542151	5.890335	-8.074524	-0.477005
1040607145934485	6.326645	-8.061371	-0.50027466
1040607154326819	7.059616	-7.998642	0.05897522
1040607162719153	8.056	-6.884247	0.8644562
1040607171111487	9.534225	-5.6188354	1.931488
1040607179503821	10.161972	-5.693344	2.9270935
1040607187896155	6.032654	-7.9014587	2.7851257
1040607196288489	3.254013	-7.924423	3.1710052
1040607204680823	3.0898438	-8.61676	5.3541565
1040607213073157	3.7718353	-9.7677	7.307831
1040607221465491	4.3257294	-11.085007	8.2760315
1040607229857825	4.357544	-12.076675	8.131607
1040607238250159	3.7249756	-11.918045	6.7940216
1040607246642493	3.2181091	-10.5308075	4.0764465
1040607255034827	3.469925	-8.818817	2.2474518
1040607263427161	3.6552734	-7.270859	1.51268
1040607271819495	3.8789063	-6.2427673	1.626297
1040607280211829	4.362503	-5.7130737	2.1160126
1040607288604163	4.518036	-5.167694	2.6962738
1040607296996497	4.9505615	-4.750992	3.9909668
1040607305388831	5.8822784	-4.7622223	4.9900208
1040607313781165	7.0600586	-5.105377	5.372696
1040607322173499	8.197662	-5.5956116	5.2373962
1040607330565833	9.011627	-6.0542145	4.914749
1040607338958167	9.38649	-6.5128326	4.6555176
1040607347350501	9.689331	-7.571121	3.0223389
1040607355742835	8.370987	-8.0542755	0.8329773
1040607364135169	7.1297607	-8.02948	0.8397827
1040607372527503	6.5086517	-7.573929	1.8746948
1040607380919837	6.3120728	-6.9652557	1.7562714
1040607389312171	6.5598145	-6.862442	1.620163
1040607397704505	6.477539	-7.251343	1.9300995
1040607406096839	6.452362	-7.4650726	2.1395264
1040607414489173	6.349106	-7.4496765	2.2459412
1040607422881507	6.2075043	-7.3362427	2.3757935
1040607431273841	6.094864	-7.2960052	2.5970764
1040607439666175	5.8675537	-7.454529	2.7037659
1040607448058509	5.26886	-7.331665	2.3692017
1040607456450843	5.4477997	-7.681595	1.5298309
1040607464843177	6.1375275	-8.613068	0.94673157
1040607473235511	6.7097626	-9.85054	0.7761383
1040607481627845	6.4641266	-10.715897	0.75460815
1040607490020179	4.9383087	-9.8749695	0.7019348
1040607498412513	3.6295624	-8.194199	0.5544739
1040607506804847	3.3220367	-7.142029	0.7029114
1040607515197181	3.7181396	-6.8790436	1.0723724
1040607523589515	4.4240875	-7.2385254	1.5563049
1040607531981849	5.054596	-7.780548	2.0312042
1040607540374183	5.2700195	-7.7247314	2.3122406
1040607548766517	5.423691	-7.732025	2.5220947
1040607557158851	5.5406036	-7.8262787	2.5774384
1040607565551185	5.6275024	-7.966263	2.5088654
1040607573943519	5.7470703	-8.110138	2.3201141
1040607582335853	5.9499054	-8.225311	2.0506897
1040607590728187	6.1369324	-8.286011	1.909668
1040607599120521	6.122162	-8.173523	1.6237183
1040607607512855	6.2532043	-7.8746643	1.3932495
1040607615905189	6.423752	-7.5264893	1.2520599
1040607624297522	6.67276	-7.2851563	1.290451
1040607632689856	7.099411	-7.2217407	1.5220184
1040607641082190	7.552948	-7.1852875	1.5473175
1040607649474524	7.8665314	-7.0388794	1.625534
1040607657866858	8.319641	-6.933182	1.5296783
1040607666259192	8.644302	-6.8595276	1.4037628
1040607674651526	8.618149	-6.8645935	1.340744
1040607683043860	8.248291	-7.0337524	1.2627258
1040607691436194	8.109268	-7.3627625	0.7310333
1040607699828528	8.095383	-8.084991	0.30622864
1040607708220862	7.931488	-8.646317	0.1463623
1040607716613196	7.5789795	-8.898865	0.29013062
1040607725005530	7.103821	-8.869278	0.580307
1040607733397864	6.640503	-8.7827	0.75453186
1040607741790198	6.308502	-9.137634	0.7654877
1040607750182532	6.1041718	-9.490326	0.58576965
1040607758574866	6.019989	-9.609787	0.16426086
1040607766967200	6.0949707	-9.395935	-0.15434265
1040607775359534	6.3274384	-9.030273	-0.19207764
1040607783751868	6.6479187	-8.85643	-0.07368469
1040607792144202	6.8931885	-8.885345	-0.21525574
1040607800536536	7.2426605	-9.210892	-0.67736816
1040607808928870	7.260376	-9.323074	-1.2436371
1040607817321204	6.961838	-9.372467	-1.7344666
1040607825713538	6.4525146	-9.477966	-2.0637512
1040607834105872	5.835617	-9.583527	-2.2621613
1040607842498206	5.049988	-9.433975	-2.3538818
1040607850890540	4.6007843	-9.031418	-2.3431244
1040607859282874	4.7145996	-8.777908	-1.931015
1040607867675208	5.079132	-8.724228	-1.3417358
1040607876067542	5.363678	-8.895218	-0.7874603
1040607884459876	5.368744	-9.2960205	-0.32118225
1040607892852210	5.0475616	-9.5329895	0.20172119
1040607901244544	4.5877075	-9.276871	0.7904358
1040607909636878	4.0354004	-8.732773	1.4968567
1040607918029212	3.6847076	-8.28804	2.0161438
1040607926421546	3.6625671	-8.165955	2.1824493
1040607934813880	3.77388	-8.310852	2.0974731
1040607943206214	3.5747223	-8.755081	1.715744
1040607951598548	3.0038147	-9.270172	1.4252625
1040607959990882	1.9801025	-9.186035	1.3432465
1040607968383216	0.987442	-8.790634	1.3330078
1040607976775550	0.4701233	-8.48349	1.3869629
1040607985167884	0.52731323	-8.468506	1.6394348
1040607993560218	0.99290466	-8.937103	1.5008545
1040608001952552	1.9130249	-9.747131	1.3883362
1040608010344886	3.2161255	-10.556946	1.7667236
1040608018737220	4.5585938	-11.12178	2.3036194
1040608027129554	5.3629303	-11.115173	2.58255
1040608035521888	5.017273	-10.2417145	2.3960419
1040608043914222	4.6394196	-10.225754	1.4379272
1040608052306556	4.797699	-10.475342	0.49676514
1040608060698890	5.310837	-10.568359	0.62342834
1040608069091224	5.6842957	-10.258575	1.2575073
1040608077483558	5.3173676	-9.50116	1.6305847
1040608085875892	3.7248688	-8.548981	1.3991699
1040608094268226	1.8140411	-8.436081	0.49876404
1040608102660560	0.13565063	-8.652496	-0.3655548
1040608111052894	-0.8711548	-9.041138	-1.4663086
1040608119445228	-1.2526398	-9.512207	-2.3282013
1040608127837562	-0.9921417	-10.048325	-2.7197876
1040608136229896	0.10432434	-10.6475525	-2.9918518
1040608144622230	-0.19548035	-10.445084	-3.1105957
1040608153014564	-0.4666443	-10.578415	-2.942566
1040608161406897	0.3757019	-11.258774	-2.0667267
1040608169799231	2.1526031	-12.323929	-1.0265808
1040608178191565	3.9188843	-13.492981	-0.30491638
1040608186583899	4.5287323	-14.548676	0.36805725
1040608194976233	4.0392	-14.84079	2.2095184
1040608203368567	2.184784	-14.311691	3.978302
1040608211760901	-0.22392273	-13.652878	5.418213
1040608220153235	-2.619461	-13.031631	6.5954437
1040608228545569	-4.6510773	-12.429352	7.4953003
1040608236937903	-6.1870728	-11.854172	7.7226563
1040608245330237	-6.62706	-11.554367	7.239853
1040608253722571	-6.1726685	-11.860153	5.664139
1040608262114905	-5.25914	-12.7682495	3.4407654
1040608270507239	-4.310837	-13.740265	1.2004242
1040608278899573	-3.706192	-14.165527	-0.49975586
1040608287291907	-3.6384277	-13.878311	-1.5036774
1040608295684241	-3.8292236	-13.644684	-1.7431335
1040608304076575	-4.077667	-13.5368805	-1.2975311
1040608312468909	-4.5284424	-13.376221	-0.25106812
1040608320861243	-5.230606	-13.1640625	1.1764832
1040608329253577	-6.1896515	-12.974319	2.6743927
1040608337645911	-7.43367	-12.850693	3.96904
1040608346038245	-8.912231	-12.736038	5.3439026
1040608354430579	-10.412323	-13.060074	6.158066
1040608362822913	-11.761826	-13.839493	5.787735
1040608371215247	-12.810318	-14.930145	3.963562
1040608379607581	-13.496979	-16.104172	0.7111664
1040608387999915	-13.924683	-17.112152	-3.6905975
1040608396392249	-13.720581	-17.199432	-7.8345184
1040608404784583	-12.556519	-16.60228	-10.935654
1040608413176917	-10.234512	-15.678421	-12.655182
1040608421569251	-6.8829803	-14.776001	-12.857849
1040608429961585	-3.0327148	-14.005859	-11.561661
1040608438353919	0.2606659	-12.941467	-8.829193
1040608446746253	1.7762756	-11.435593	-5.563385
1040608455138587	2.0836945	-9.963043	-2.2755127
1040608463530921	1.5925446	-9.031204	0.24827576
1040608471923255	0.6783142	-8.83522	1.4484558
1040608480315589	-0.40075684	-9.194672	1.1521149
1040608488707923	-1.4934998	-9.411011	0.012496948
1040608497100257	-2.1476288	-9.198822	-1.3833466
1040608505492591	-1.7525635	-8.893494	-2.7599487
1040608513884925	-0.64056396	-8.604752	-3.6949463
1040608522277259	0.7330322	-8.365173	-4.0031433
1040608530669593	2.0061798	-8.125885	-3.6313477
1040608539061927	3.1650543	-7.770508	-2.5535126
1040608547454261	3.9021454	-7.2402954	-0.88002014
1040608555846595	3.7769318	-6.753433	0.66563416
1040608564238929	3.173111	-6.3423157	1.8032684
1040608572631263	2.4028625	-6.0031586	2.478302
1040608581023597	1.7467041	-5.756775	2.7912598
1040608589415931	1.4196777	-5.776657	2.8628235
1040608597808265	0.9683838	-5.8367615	3.0786285
1040608606200599	0.500824	-6.182495	3.175827
1040608614592933	-0.38981628	-6.5216675	2.936325
1040608622985267	-1.696518	-6.6281433	2.3904266
1040608631377601	-3.0116425	-6.407959	1.8750153
1040608639769935	-3.5647583	-6.046356	2.2019958
1040608648162269	-3.2934113	-6.000992	3.025711
1040608656554603	-2.9660187	-6.040085	3.7345123
1040608664946937	-2.646576	-6.1046906	4.363632
1040608673339271	-2.4672394	-6.1482544	4.855316
1040608681731605	-2.602234	-6.040558	5.1140137
1040608690123939	-3.115219	-5.3815765	5.2356873
1040608698516272	-3.3396149	-4.63649	5.627655
1040608706908606	-3.4294586	-4.0160217	5.834305
1040608715300940	-3.2685242	-3.578537	6.0746
1040608723693274	-2.9673615	-3.2452545	6.248871
1040608732085608	-2.7316284	-2.9480438	5.9648438
1040608740477942	-2.4240265	-2.9782257	4.911606
1040608748870276	-1.5340576	-3.4824219	3.8661652
1040608757262610	-1.0184784	-3.5963287	3.0016174
1040608765654944	3.7797241	-3.6234283	6.116455
1040608774047278	7.842148	-4.022812	16.430817
1040608782439612	2.341568	-4.525482	30.422852
1040608790831946	-2.2981567	-1.3713989	17.59938
1040608799224280	-4.7785797	-1.4832458	10.001709
1040608807616614	-7.505768	-2.6119995	5.9215546
1040608816008948	-6.6303253	-3.558014	4.9779663
1040608824401282	-3.8856812	-3.489746	6.082321
1040608832793616	-4.6016846	-2.3599243	7.6801147
1040608841185950	-5.8679047	-1.8454742	8.509644
1040608849578284	-6.169815	-1.7529755	8.498749
1040608857970618	-6.4667816	-2.1093292	8.525482
1040608866362952	-6.349045	-2.7667084	7.929352
1040608874755286	-5.694412	-3.269699	6.7000427
1040608883147620	-4.715317	-3.346344	5.8207855
1040608891539954	-3.2944489	-4.1683807	7.3425903
1040608899932288	-3.2566986	-4.1314697	7.8584137
1040608908324622	-3.9795074	-3.3866577	7.672989
1040608916716956	-4.9225616	-2.587799	7.7412567
1040608925109290	-5.929413	-1.9690399	8.39743
1040608933501624	-7.1565704	-1.3243103	9.210159
1040608941893958	-8.270233	-0.9205322	9.572067
1040608950286292	-8.78212	-1.0352325	9.989502
1040608958678626	-8.231079	-1.5845947	10.436203
1040608967070960	-6.97023	-2.078003	10.555923
1040608975463294	-5.7615356	-2.110794	9.937546
1040608983855628	-5.412689	-1.5632324	8.529373
1040608992247962	-5.637802	-0.9754791	8.70256
1040609000640296	-5.8537292	-0.4144287	9.1203
1040609009032630	-5.7080536	0.12680054	8.718704
1040609017424964	-5.3945923	0.6999054	7.927536
1040609025817298	-5.1716156	1.2619476	7.3245697
1040609034209632	-5.156082	1.7011108	7.245819
1040609042601966	-4.774231	2.214569	7.415329
1040609050994300	-4.4584503	2.5430298	7.530197
1040609059386634	-3.4908447	2.5264282	7.2245026
1040609067778968	-2.7763824	2.4582367	6.768036
1040609076171302	-2.6299133	2.4251251	6.2588043
1040609084563636	-2.3490143	2.2518158	5.548477
1040609092955970	-1.472641	2.3016663	5.064926
1040609101348304	-0.70129395	2.3612213	5.4616547
1040609109740638	0.16096497	2.5200348	5.9460754
1040609118132972	1.1100616	2.7995148	6.3623657
1040609126525306	1.9126282	3.208786	6.587555
1040609134917640	2.1493988	3.7217255	6.433548
1040609143309974	1.6349487	4.1015778	5.9200745
1040609151702308	1.7495117	4.226898	5.334137
1040609160094642	2.4548798	4.323715	5.002716
1040609168486976	3.4486084	4.614105	4.8359375
1040609176879310	4.389511	5.105728	4.607071
1040609185271644	5.024048	5.562683	4.054413
1040609193663978	5.2624207	6.2726746	2.7454834
1040609202056312	6.0840607	8.792053	2.1192322
1040609210448646	6.1197205	9.479111	2.8455963
1040609218840980	6.7252502	8.996536	3.5919495
1040609227233314	8.074036	8.536499	3.6212158
1040609235625647	8.122147	8.367828	3.8239136
1040609244017981	7.668503	8.016861	4.4241333
1040609252410315	7.048462	7.4893646	4.8917084
1040609260802649	6.4661713	6.8384094	5.2566376
1040609269194983	6.095169	6.133499	5.3989716
1040609277587317	5.945053	5.533325	5.329422
1040609285979651	5.7776184	5.3211975	5.306839
1040609294371985	5.1274567	5.8819885	5.5111237
1040609302764319	4.9259186	6.5555725	4.123169
1040609311156653	4.9459686	7.0255737	4.55777
1040609319548987	5.078354	7.275879	5.3259735
1040609327941321	5.233078	7.2530212	5.2630463
1040609336333655	5.291992	6.7617645	5.7290344
1040609344725989	4.8712616	6.201462	6.018158
1040609353118323	4.2604218	5.806671	5.9289856
1040609361510657	3.5919647	5.682785	6.4376984
1040609369902991	2.8309937	5.764282	7.2302094
1040609378295325	2.0899048	5.9072266	7.698471
1040609386687659	1.7256317	5.948471	7.4663696
1040609395079993	1.4355011	5.6892548	7.2589874
1040609403472327	0.6751251	5.9742737	7.272629
1040609411864661	0.39723206	6.0844116	7.525009
1040609420256995	0.7029419	5.9276123	7.8956146
1040609428649329	1.3683014	5.691284	8.07106
1040609437041663	2.0593262	5.6595	7.5809326
1040609445433997	1.7472687	5.463089	6.502182
1040609453826331	1.2643585	5.567337	6.1034546
1040609462218665	1.8527832	6.037033	5.7347107
1040609470610999	2.8899689	6.3236847	5.4023895
1040609479003333	3.634491	6.0911407	5.1999054
1040609487395667	4.1388855	5.660385	5.040695
1040609495788001	4.567581	5.630478	4.99382
1040609504180335	4.491974	5.8324127	5.2467194
1040609512572669	4.813324	6.0268097	5.5096283
1040609520965003	5.4413147	6.164093	5.9012146
1040609529357337	5.9417267	6.243576	6.672058
1040609537749671	5.955307	6.241638	8.010422
1040609546142005	5.9044495	6.1978455	9.409012
1040609554534339	5.098068	6.219803	9.658951
1040609562926673	4.808319	6.0747223	9.118835
1040609571319007	4.9902954	5.876175	8.241425
1040609579711341	5.2436066	5.825485	7.3734894
1040609588103675	5.4195404	6.0260315	6.59021
1040609596496009	5.2969055	5.7488556	5.9880066
1040609604888343	5.0364075	5.5850677	5.673767
1040609613280677	5.3750153	5.4246216	5.4688416
1040609621673011	6.4697723	5.117996	5.2350464
1040609630065345	7.8142548	4.638489	5.099045
1040609638457679	8.153091	4.2132263	5.6293793
1040609646850013	6.677231	4.4975433	6.652298
1040609655242347	5.1035767	4.830368	7.7789917
1040609663634681	3.7736511	4.917221	8.582428
1040609672027015	2.781128	4.961624	9.001068
1040609680419349	1.999527	5.226822	9.106079
1040609688811683	1.0936127	5.653549	8.897522
1040609697204017	0.56381226	5.807617	8.364731
1040609705596351	0.35256958	5.740326	7.6025543
1040609713988685	0.48301697	5.6250763	7.2180634
1040609722381019	0.7118683	5.5695343	7.3815613
1040609730773353	0.85139465	5.577133	7.912781
1040609739165687	1.1009064	5.501602	8.341202
1040609747558021	-0.6946869	6.4413147	7.754425
1040609755950355	-0.17012024	6.4146423	8.550018
1040609764342689	-1.046875	7.1970673	10.206207
1040609772735022	-2.0996552	8.234268	11.355377
1040609781127356	-1.2161865	8.314606	10.934784
1040609789519690	-0.2937622	7.5720673	9.531235
1040609797912024	0.665802	6.427475	8.441879
1040609806304358	1.7711945	5.0095215	8.601837
1040609814696692	2.5203857	3.7577667	9.238434
1040609823089026	2.3882294	2.9900818	9.528717
1040609831481360	1.5056305	2.8007202	8.917694
1040609839873694	1.6183014	2.9482727	7.469055
1040609848266028	2.927536	3.418213	6.489441
1040609856658362	3.665039	3.9721222	6.2191925
1040609865050696	3.857727	4.1852264	6.420471
1040609873443030	4.113739	3.9660187	6.8235474
1040609881835364	4.779373	3.4751892	7.1729736
1040609890227698	4.695877	2.9901123	7.2355804
1040609898620032	3.0255127	2.8484802	8.000839
1040609907012366	1.3018188	2.7696533	9.140213
1040609915404700	0.039016724	2.9553375	11.074692
1040609923797034	-0.65512085	3.6217499	13.358002
1040609932189368	-0.93455505	4.8287506	14.96048
1040609940581702	-1.0063324	6.2405396	14.653397
1040609948974036	-0.25512695	7.072525	13.323288
1040609957366370	1.4799042	6.9873505	10.776154
1040609965758704	3.4309082	6.588745	7.8502197
1040609974151038	4.287674	5.9539337	5.2335052
1040609982543372	3.3905792	4.965515	3.5180206
1040609990935706	2.8876038	4.1036987	3.6482239
1040609999328040	2.8457794	3.1672363	5.64151
1040610007720374	2.7563019	3.1336212	6.7636566
1040610016112708	2.8464355	3.9411774	6.591095
1040610024505042	3.2543182	5.152405	6.7478485
1040610032897376	4.0308228	6.2170258	9.001617
1040610041289710	5.30217	6.8223724	11.48465
1040610049682044	5.985153	6.6385803	11.955658
1040610058074378	6.113327	6.9084625	10.028366
1040610066466712	5.835037	6.878479	8.000046
1040610074859046	5.3767548	5.97435	6.572006
1040610083251380	5.0564423	4.250717	4.9506073
1040610091643714	5.416275	3.119522	1.849289
1040610100036048	6.106247	3.6894379	1.7196808
1040610108428382	5.32222	4.6712646	2.6109009
1040610116820716	4.1233673	5.6298523	3.903473
1040610125213050	3.901825	6.2247314	4.9655457
1040610133605384	5.128006	6.3890686	5.6118317
1040610141997718	5.8635864	6.7111206	6.9746094
1040610150390052	6.281204	6.7846527	6.988739
1040610158782386	6.2167664	6.6637573	7.2109222
1040610167174720	6.268112	6.2529297	7.700119
1040610175567054	6.7305145	5.8234253	7.6908417
1040610183959388	7.3679657	5.6710663	6.6163483
1040610192351722	7.504547	4.904373	7.1018677
1040610200744056	7.438675	5.450241	7.9518585
1040610209136390	9.09198	6.5866394	9.034729
1040610217528724	10.879593	7.1273804	8.939987
1040610225921058	11.26683	6.8572845	7.6159515
1040610234313392	9.703598	6.5055847	6.1109924
1040610242705726	8.046585	6.8306274	4.076248
1040610251098060	6.892441	7.3070526	4.4673615
1040610259490394	5.7249146	7.1364136	5.4580383
1040610267882728	5.1845856	6.4204407	5.3184204
1040610276275062	5.4918823	5.600998	3.9008942
1040610284667396	6.114624	5.1043854	2.6764374
1040610293059730	5.2875977	4.9960327	3.5909119
1040610301452064	3.7790527	4.541214	2.965271
1040610309844397	1.8898468	4.296417	2.5603638
1040610318236731	0.26882935	4.53067	1.8934174
1040610326629065	-0.45516968	5.3736877	0.46810913
1040610335021399	0.11834717	6.791916	-1.6431885
1040610343413733	2.7891083	7.968384	-3.1822968
1040610351806067	5.186325	7.8168945	-2.6766205
1040610360198401	6.2787323	7.0945587	-0.78266907
1040610368590735	5.851715	6.001663	1.1391449
1040610376983069	3.996048	5.239517	0.44088745
1040610385375403	1.2215118	5.786316	-5.2008057
1040610393767737	0.5513458	6.3825836	-6.3862457
1040610402160071	-1.8648682	6.5503387	-6.6451263
1040610410552405	-3.762741	6.6359406	-6.3462677
1040610418944739	-4.645447	7.31868	-5.9257507
1040610427337073	-3.9699554	8.521011	-5.9273834
1040610435729407	-1.2254944	9.296707	-6.8181915
1040610444121741	0.9130707	8.990631	-8.2140045
1040610452514075	0.83644104	8.391449	-9.04628
1040610460906409	0.87031555	8.02478	-8.565872
1040610469298743	1.4957275	8.003799	-6.830368
1040610477691077	2.1908417	8.072571	-4.1832275
1040610486083411	1.8838806	7.754257	-1.1407318
1040610494475745	1.1588745	7.49617	0.7525482
1040610502868079	0.65626526	7.717743	1.1177979
1040610511260413	0.8559265	7.7321777	0.4627533
1040610519652747	0.8536682	7.747696	-0.4871521
1040610528045081	0.043807983	7.9200745	-1.379715
1040610536451663	-1.319809	8.041306	-2.3795013
1040610544843997	-2.8606415	7.3250427	-3.2786713
1040610553236331	-3.9746704	6.9594116	-4.251297
1040610561628665	-4.609894	7.01799	-5.375473
1040610570020999	-4.6640015	7.317459	-6.1279907
1040610578413333	-4.245041	7.649872	-6.0776825
1040610586805667	-3.7572632	7.9081116	-5.2533875
1040610595198001	-3.826065	8.300949	-4.8894806
1040610603590335	-4.1572723	8.577896	-4.408844
1040610611982669	-3.7920685	9.0885315	-6.1906433
1040610620375003	-3.7540436	9.405045	-7.7795563
1040610628767337	-4.600876	9.281494	-6.9292603
1040610637159671	-5.149597	9.153183	-4.4797363
1040610645552005	-4.8175964	8.762543	-3.0056305
1040610653944339	-4.548065	8.270309	-2.2290344
1040610662336673	-4.40419	8.360016	-1.9782562
1040610670729007	-4.3268433	8.880539	-1.8529816
1040610679121341	-4.2309875	9.42308	-1.6208801
1040610687513675	-4.1002655	9.7903595	-1.5301056
1040610695906009	-4.061325	9.433121	-0.98306274
1040610704298343	-3.7183228	9.425934	1.2134705
1040610712690677	-3.1480713	9.304489	2.1093292
1040610721083011	-2.668274	9.230667	0.8702698
1040610729475345	-2.3523865	9.331451	-1.0935211
1040610737867679	-1.7952576	9.302429	-0.41818237
1040610746260013	-1.8691406	9.078812	-0.08325195
1040610754652347	-1.6299744	8.88887	-0.19029236
1040610763044681	-1.2314453	8.743774	-0.7592468
1040610771437015	-1.0420532	8.646469	-1.4545746
1040610779829349	-1.1418152	8.560913	-1.9905701
1040610788221683	-0.9021301	8.381424	-2.3848114
1040610796614017	-0.6120453	8.3541565	-2.3166656
1040610805006351	-0.5922241	8.163559	-2.1776733
1040610813398685	-0.64071655	8.054062	-2.1968384
1040610821791019	-0.66049194	8.113403	-2.1339722
1040610830183353	-0.6357422	8.290527	-1.8365936
1040610838575687	-0.58810425	8.469513	-1.7085266
1040610846968020	-0.6903076	8.480209	-1.0086365
1040610855360354	-0.7887573	8.553543	-0.6156769
1040610863752688	-1.0600281	8.519669	-0.9267273
1040610872145022	-1.2185669	8.198532	-1.9149628
1040610880537356	-0.9630432	7.6169586	-3.2280273
1040610888929690	-0.44714355	7.1409607	-4.495407
1040610897322024	-0.4817047	6.8037415	-4.7572327
1040610905714358	-0.66744995	6.3363495	-3.7857666
1040610914106692	-0.7565155	5.9066315	-1.7940674
1040610922499026	-0.95552063	6.179001	1.3229675
1040610930891360	-1.5409393	7.636612	4.4861603
1040610939283694	-2.4900055	9.903656	3.9790192
1040610947676028	-3.257843	8.329987	0.4176178
1040610956068362	-2.6904602	6.0917053	-6.702133
1040610964460696	-1.2284393	3.0066986	-14.156097
1040610972853030	-1.3374939	1.2163391	-15.905869
1040610981245364	-3.9294128	2.4558563	-10.08902
1040610989637698	-4.511673	5.004242	-6.3820953
1040610998030032	-4.9598083	5.593155	-4.8861084
1040611006422366	-4.938034	5.3448944	-4.8944855
1040611014814700	-3.9572601	4.3171844	-5.813217
1040611023207034	-0.1929779	1.0237579	-11.277634
1040611031599368	4.3180084	-3.5299225	-19.725159
1040611039991702	-3.0823822	-0.663208	-11.883408
1040611048384036	-3.7347107	2.030365	-4.78096
1040611056776370	-4.2866364	4.143799	-2.0856934
1040611065168704	-4.5562897	5.173294	-2.3324585
1040611073561038	-4.804825	5.2341614	-3.784668
1040611081953372	-5.099716	4.777817	-6.167053
1040611090345706	-4.059143	4.3699646	-12.069855
1040611098738040	-4.265274	2.5776215	-13.287506
1040611107130374	-3.8893585	2.0088196	-12.745178
1040611115522708	-4.188858	2.302658	-10.7704315
1040611123915042	-4.6985474	3.1618042	-7.806534
1040611132307376	-4.4973145	4.2614594	-4.830902
1040611140699710	-4.5681	4.757965	-3.9555206
1040611149092044	-3.62529	5.097885	-4.594284
1040611157484378	-3.5102844	5.1920013	-4.636566
1040611165876712	-3.5860138	5.3051605	-4.256851
1040611174269046	-3.7680664	5.559738	-3.722992
1040611182661380	-4.168518	5.823715	-3.7089233
1040611191053714	-4.1445923	5.484741	-6.3220825
1040611199446048	-4.731018	5.849228	-7.9295654
1040611207838382	-5.3569794	6.1795807	-7.906143
1040611216230716	-6.0111694	6.5553894	-7.057541
1040611224623050	-6.626648	6.8252563	-5.8953094
1040611233015384	-6.8307495	6.4966583	-5.0346985
1040611241407718	-5.284683	4.482559	-6.347748
1040611249800052	-4.2968903	3.3526917	-5.422394
1040611258192386	-3.549057	2.8303223	-4.578888
1040611266584720	-3.267929	2.7786255	-4.6665344
1040611274977054	-3.1986847	3.184906	-5.2556
1040611283369388	-2.7094727	3.9775696	-5.287689
1040611291761722	-0.9492035	4.2275085	-4.3855743
1040611300154056	1.7580109	3.6544952	-2.673706
1040611308546390	2.4808655	3.9912262	-2.078125
1040611316938724	1.612442	5.2085266	-3.260559
1040611325331058	0.14804077	6.498474	-5.52034
1040611333723392	-0.9877167	7.026291	-7.5023346
1040611342115726	-0.5274811	6.95372	-8.072891
1040611350508060	0.08531189	7.110199	-8.186569
1040611358900394	-0.027069092	7.3703156	-8.469849
1040611367292728	-0.9792175	7.4069214	-8.4142
1040611375685062	-2.6189575	6.9668884	-7.638748
1040611384077395	-4.46109	6.081665	-6.171158
1040611392469729	-5.9456177	5.291046	-4.2987823
1040611400862063	-6.790848	4.8476563	-2.5446625
1040611409254397	-7.154068	4.8033905	-1.539566
1040611417646731	-7.127762	4.993927	-1.4936676
1040611426039065	-6.986145	5.2640533	-2.225769
1040611434431399	-7.071518	5.574936	-3.1968842
1040611442823733	-7.4142	6.103119	-3.8392944
1040611451216067	-7.6308746	6.7709045	-4.215393
1040611459608401	-7.810028	7.4361267	-4.5780487
1040611468000735	-8.056198	8.119156	-5.096161
1040611476393069	-8.1649475	8.726074	-5.7265015
1040611484785403	-7.806244	9.07489	-6.2551727
1040611493177737	-7.453308	9.046967	-6.3259583
1040611501570071	-7.9619293	8.661972	-6.505539
1040611509962405	-8.830017	8.020493	-6.921982
1040611518354739	-9.473541	7.3004456	-7.193756
1040611526747073	-9.586929	6.6994476	-7.0003815
1040611535139407	-9.190063	6.3897552	-6.225281
1040611543531741	-8.776321	6.350876	-5.344925
1040611551924075	-8.490662	6.403244	-4.850586
1040611560316409	-8.162415	6.700943	-4.630951
1040611568708743	-7.840271	7.2683716	-4.614029
1040611577101077	-7.6650543	7.932617	-4.783386
1040611585493411	-7.771103	8.388809	-5.21698
1040611593885745	-8.139999	8.6609955	-6.1382294
1040611602278079	-8.345001	8.710617	-6.8067627
1040611610670413	-8.336319	8.5448	-6.7145996
1040611619062747	-8.234924	8.302002	-6.057831
1040611627455081	-8.22966	8.10495	-5.360382
1040611635847415	-8.4544525	7.961975	-5.140106
1040611644239749	-8.726639	7.7067566	-5.6446075
1040611652632083	-8.525452	7.5073853	-6.280777
1040611661024417	-8.158203	7.449051	-6.717972
1040611669416751	-7.7507324	7.608444	-6.9990234
1040611677809085	-7.25737	7.9914856	-7.162674
1040611686201419	-6.4935303	8.531235	-7.1284485
1040611694593753	-5.637909	8.904053	-6.992981
1040611702986087	-4.976822	9.0746765	-6.1720886
1040611711378421	-4.498398	9.112564	-5.113205
1040611719770755	-4.2691193	9.060638	-4.403946
1040611728163089	-4.262268	8.910522	-4.2830048
1040611736555423	-4.3753815	8.574966	-4.4324646
1040611744947757	-4.719345	8.231995	-4.108444
1040611753340091	-4.908661	7.972351	-3.791031
1040611761732425	-5.216873	7.724045	-3.7251434
1040611770124759	-5.6631927	7.4877777	-3.676712
1040611778517093	-6.108795	7.368164	-3.4600983
1040611786909427	-6.315735	7.565262	-3.3200073
1040611795301761	-6.0433807	8.31871	-4.4044647
1040611803694095	-5.4768066	8.777283	-5.143463
1040611812086429	-4.7462006	8.786926	-5.0042267
1040611820478763	-4.189575	8.520187	-3.954605
1040611828871097	-4.0370483	8.266846	-2.4253387
1040611837263431	-4.221222	8.186783	-1.0342407
1040611845655765	-4.5209656	8.1819	-1.1143036
1040611854048099	-4.5169067	8.015915	-1.2150726
1040611862440433	-4.172577	8.052689	-1.1010742
1040611870832767	-3.7365417	8.363693	-0.9180603
1040611879225101	-3.4776306	8.865356	-0.7830963
1040611887617435	-3.4599915	9.47081	-0.5538788
1040611896009769	-3.450058	10.130829	-1.0449219
1040611904402103	-2.9501953	10.817673	-1.9320679
1040611912794437	-2.3354034	11.396454	-2.4114227
1040611921186770	-1.9359894	11.642715	-2.3238373
1040611929579104	-1.975357	11.421127	-1.7887115
1040611937971438	-2.3719482	10.893997	-0.9877472
1040611946363772	-2.6281738	10.342636	-0.20806885
1040611954756106	-2.931015	9.801315	0.25120544
1040611963148440	-3.389801	9.22847	0.23982239
1040611971540774	-3.7703247	8.688156	-0.24121094
1040611979933108	-4.0354614	8.280899	-0.5335388
1040611988325442	-4.804947	8.045654	0.8561249
1040611996717776	-4.849716	7.544342	0.8084259
1040612005110110	-5.2538605	6.7540894	2.0477142
1040612013502444	-6.18486	6.458618	3.357544
1040612021894778	-7.06752	6.60141	3.2638245
1040612030287112	-7.33873	6.704651	1.561615
1040612038679446	-6.9853363	6.2198486	0.30171204
1040612047071780	-7.0067444	5.379776	0.2793274
1040612055464114	-7.7130127	4.569153	0.29644775
1040612063856448	-8.672516	3.8643188	0.13330078
1040612072248782	-9.458984	3.4028778	-0.29330444
1040612080641116	-9.7934265	3.2656403	-0.78704834
1040612089033450	-9.604263	3.4135437	-0.8345642
1040612097425784	-9.3160095	3.6093597	-0.83654785
1040612105818118	-9.0828705	3.4971619	-0.7333679
1040612114210452	-9.041931	3.4054565	-0.39683533
1040612122602786	-8.978867	3.5825348	-0.043121338
1040612130995120	-8.609772	4.153488	0.051193237
1040612139387454	-8.035477	4.971054	0.0053253174
1040612147779788	-7.36055	6.323868	-0.3544922
1040612156172122	-6.600647	7.54895	-0.90063477
1040612164564456	-6.0259094	8.215668	-1.0544128
1040612172956790	-5.7990723	8.339386	-0.77874756
1040612181349124	-5.8859406	8.235947	-0.3308258
1040612189741458	-6.0743866	8.086395	0.24046326
1040612198133792	-5.9250183	7.101593	1.0795135
1040612206526126	-5.968811	6.940216	1.6730042
1040612214918460	-5.8755493	6.736923	2.0487518
1040612223310794	-5.53183	6.319031	1.83107
1040612231703128	-5.1534424	6.093216	0.8123169
1040612240095462	-5.289627	6.570343	-0.34570313
1040612248487796	-5.8373413	6.593704	-0.17489624
1040612256880130	-6.336319	6.5977173	0.3478546
1040612265272464	-6.6507263	6.6727295	1.0089874
1040612273664798	-6.894806	7.0199738	1.1584778
1040612282057132	-7.1972504	7.7384033	0.5400238
1040612290449466	-7.2752533	8.554428	0.5600281
1040612298841800	-7.443222	9.030197	1.4880371
1040612307234134	-7.113617	9.121429	2.0554352
1040612315626468	-6.5730286	8.881348	1.9470062
1040612324018802	-5.89859	8.473907	1.524704
1040612332411136	-5.065033	8.107178	1.5944672
1040612340803470	-4.186661	7.7801514	2.6333313
1040612349195804	-3.6296997	7.942688	1.7841797
1040612357588138	-2.5778046	7.9056854	-0.6951599
1040612365980472	-0.8925781	7.627304	-3.8105164
1040612374372806	0.8586731	7.2056274	-7.2131042
1040612382765140	1.5030365	6.8336945	-10.553238
1040612391157474	-0.33943176	6.7429657	-11.324921
1040612399549808	-2.298874	6.9346466	-9.492477
1040612407942142	-3.9281616	7.190628	-5.814926
1040612416334476	-6.12323	7.885391	-0.70274353
1040612424726810	-10.502213	9.465836	7.5270996
1040612433119144	-16.071594	11.212448	17.670135
1040612441511478	-12.552811	8.774139	14.331253
1040612449903812	-5.326935	5.2756653	5.503067
1040612458296145	-1.0657501	3.7215118	-0.9779053
1040612466688479	0.69755554	3.973816	-5.9347687
1040612475080813	-0.23501587	5.381729	-9.944473
1040612483473147	-4.31044	6.876831	-12.359375
1040612491865481	-9.768555	7.5507813	-9.865402
1040612500257815	-21.953781	10.1119995	-2.646698
1040612508650149	-24.770172	10.162338	2.4223328
1040612517042483	-16.339386	8.073349	1.920578
1040612525434817	-5.0328674	6.0245667	-1.8122101
1040612533827151	-4.299103	6.644745	-2.34523
1040612542219485	-6.656067	7.3556213	-0.1278534
1040612550611819	-6.3045654	6.9373016	0.6840973
1040612559004153	-4.8876343	6.208725	0.49186707
1040612567396487	-2.9315643	5.874405	-0.87750244
1040612575788821	-2.5422058	6.147827	-3.5796661
1040612584181155	-6.2299805	6.7749023	-6.810501
1040612592573489	-10.613205	7.052902	-3.5093384
1040612600965823	-11.588181	6.9503784	-0.32676697
1040612609358157	-9.962723	6.557556	0.29341125
1040612617750491	-7.5195007	6.055542	-0.6688385
1040612626142825	-5.725586	5.6274414	-1.7628937
1040612634535159	-5.2803497	5.425003	-1.8553772
1040612642927493	-6.6580353	5.6188354	-1.1197968
1040612651319827	-7.9253387	5.903656	0.5652008
1040612659712161	-8.556686	5.6583557	0.8996887
1040612668104495	-8.689377	5.473175	-0.24255371
1040612676496829	-8.529251	5.4644012	-2.528244
1040612684889163	-8.321564	5.1346436	-4.950653
1040612693281497	-8.438782	4.2915497	-3.0485535
1040612701673831	-9.161789	3.7839508	1.1560364
1040612710066165	-8.150848	2.942093	3.7569122
1040612718458499	-6.465637	1.9644318	3.7583618
1040612726850833	-5.272003	1.2477417	1.5975342
1040612735243167	-5.091751	1.2422943	-1.032547
1040612743635501	-8.769989	3.7990265	-1.3534241
1040612752027835	-10.921112	5.6570435	-1.874527
1040612760420169	-9.192688	5.5010223	-2.206955
1040612768812503	-5.7117157	4.2599792	-2.2137146
1040612777204837	-3.444336	3.4863892	-1.8967896
1040612785597171	-4.0078735	4.2013855	-1.4260864
1040612793989505	-5.1873627	4.7108765	-1.1289825
1040612802381839	-6.249405	4.6495667	-0.25706482
1040612810774173	-7.6989136	4.736679	0.895813
1040612819166507	-8.552582	4.8632813	1.414978
1040612827558841	-8.20285	4.972763	0.98054504
1040612835951175	-7.051132	5.2523956	0.28352356
1040612844343509	-6.253525	5.7698364	-0.095336914
1040612852735843	-5.9578094	6.0285645	-0.2869873
1040612861128177	-5.874405	6.0296326	-0.39205933
1040612869520511	-5.8260956	5.9184113	-0.44429016
1040612877912845	-5.5723267	5.8584137	-0.6226196
1040612886305179	-4.887619	5.975296	-1.2094879
1040612894697513	-4.3538666	6.440796	-1.70047
1040612903089847	-3.8684235	7.020645	-1.6240845
1040612911482181	-3.4899445	7.449829	-1.0039368
1040612919874515	-3.0206146	7.912384	-0.4416809
1040612928266849	-2.3661804	8.578949	-0.33877563
1040612936659183	-1.6685028	9.381027	-0.42936707
1040612945051517	-0.2298584	10.105469	0.020217896
1040612953443851	-0.98088074	11.605362	0.06877136
1040612961836185	-1.453125	12.209854	-0.5979004
1040612970228519	-1.9756622	12.397186	-1.5640869
1040612978620853	-3.1805267	12.80661	-1.9185181
1040612987013187	-4.9541016	13.378754	-0.7247162
1040612995405520	-6.1777344	13.59346	-0.009033203
1040613003797854	-6.4865265	13.199982	0.44502258
1040613012190188	-6.726303	12.998657	0.259964
1040613020582522	-6.555771	13.059128	-0.39387512
1040613028974856	-5.7931824	13.269287	-1.1947174
1040613037367190	-4.9720917	13.532272	-1.8571625
1040613045759524	-4.631119	13.526291	-2.027649
1040613054151858	-4.0914307	12.996506	-1.6747131
1040613062544192	-3.6675262	12.461838	-1.3995209
1040613070936526	-3.281662	12.006485	-1.4588318
1040613079328860	-2.8460846	11.584	-1.728302
1040613087721194	-2.4413605	11.146057	-1.6920166
1040613096113528	-2.2149048	10.758148	-1.5854034
1040613104505862	-2.2476807	10.254898	-1.7475281
1040613112898196	-1.9389648	10.29454	-1.8137665
1040613121290530	-1.3482666	10.63472	-1.8342743
1040613129682864	-0.90615845	10.817062	-1.9065704
1040613138075198	-1.3613892	10.501846	-1.9724121
1040613146467532	-1.2208099	10.116821	-1.6637726
1040613154859866	-1.1292114	9.779037	-1.3390656
1040613163252200	-1.2888794	9.384293	-1.2074738
1040613171644534	-1.3768768	8.537476	-1.0817719
1040613180036868	-1.2849884	7.1485596	-0.86024475
1040613188429202	-1.654602	5.8271484	-0.8697815
1040613196821536	-1.6316681	4.876999	-0.899704
1040613205213870	-0.8060608	3.16008	-1.1955414
1040613213606204	-0.32992554	1.7672272	-1.0619354
1040613221998538	-0.8387146	1.5158234	-0.44277954
1040613230390872	-2.0605316	2.4384308	0.14167786
1040613238783206	-2.4686127	3.3356476	-0.37478638
1040613247175540	-3.2253876	4.7710724	-0.716568
1040613255567874	-3.5935516	6.059616	-0.5453491
1040613263960208	-3.6348724	7.0255737	-0.35810852
1040613272352542	-3.9599152	8.284164	-0.3501587
1040613280744876	-5.0253906	10.374619	-0.5408325
1040613289137210	-6.506439	12.99794	-0.86691284
1040613297529544	-7.390045	14.416031	-1.2157288
1040613305921878	-7.5275116	15.607941	-0.8458557
1040613314314212	-5.8246307	16.53093	0.7940674
1040613322706546	-2.3136292	15.019608	1.971405
1040613331098880	1.7798309	10.238083	1.3092346
1040613339491214	3.933838	6.3415527	0.6004944
1040613347883548	5.3763885	4.805069	-0.5392914
1040613356275882	5.695511	4.274872	-1.510788
1040613364668216	6.193634	5.1817627	0.17778015
1040613373060550	6.248932	7.220825	1.6995697
1040613381452884	5.4839783	9.619308	0.43099976
1040613389845218	6.5485687	11.407532	0.84251404
1040613398237552	6.9790497	12.543228	0.93711853
1040613406629886	6.113785	12.838135	0.086883545
1040613415022220	4.522339	12.550598	-0.8029938
1040613423414554	2.7900543	11.966675	-1.380188
1040613431806888	1.4267273	11.32103	-1.7196045
1040613440199222	0.8016968	10.700851	-2.1223755
1040613448591556	0.89004517	10.146713	-1.8973541
1040613456983890	1.0562592	9.576538	-1.3670197
1040613465376224	1.3192596	8.896774	-1.040329
1040613473768558	1.5727081	8.271057	-0.9369812
1040613482160892	1.678009	7.93013	-0.86935425
1040613490553226	1.6916046	7.873825	-0.92855835
1040613498945560	1.385315	8.302734	-0.55789185
1040613507337894	1.0160217	8.934036	-0.023880005
1040613515730228	0.59007263	9.653305	0.37301636
1040613524122562	0.16845703	10.303131	0.6488495
1040613532514895	-0.14421082	10.702911	0.9252014
1040613540907229	-0.25552368	10.709869	0.9868469
1040613549299563	-0.084243774	10.450958	1.1215057
1040613557691897	0.36535645	9.818024	1.2865753
1040613566084231	0.8637543	9.134003	1.3955536
1040613574476565	1.1218109	8.684341	1.4177094
1040613582868899	0.9898834	8.619507	1.393753
1040613591261233	0.8775635	8.860062	1.4653168
1040613599653567	2.0023956	7.911911	1.7576447
1040613608045901	3.0156097	6.9228516	1.9953766
1040613616438235	3.6640625	6.4674835	2.1616821
1040613624830569	3.8917236	6.5171967	2.3176422
1040613633222903	3.8235474	6.660553	2.5100098
1040613641615237	4.1184998	6.706299	2.6122131
1040613650007571	3.9951324	7.2492523	2.7159576
1040613658399905	3.5338745	8.087875	2.5673828
1040613666792239	2.7189636	9.1349945	2.1687927
1040613675184573	1.6122284	10.316986	1.6231079
1040613683576907	0.46884155	11.457092	1.101059
1040613691969241	0.11256409	11.885391	0.8382416
1040613700361575	0.666275	11.660919	1.1964722
1040613708753909	1.709259	11.108826	1.8522491
1040613717146243	2.9355316	10.293808	2.5877228
1040613725538577	4.0031433	9.393478	3.207077
1040613733930911	4.6805573	8.694458	3.5662231
1040613742323245	5.0145416	8.439011	3.3843231
1040613750715579	5.436386	8.38472	1.9833527
1040613759107913	5.8914795	8.338867	0.111465454
1040613767500247	6.1467133	8.312622	-1.5915833
1040613775892581	5.99794	8.366547	-2.6092834
1040613784284915	5.4080505	8.547791	-2.793686
1040613792677249	4.470642	8.784332	-2.1959991
1040613801069583	3.912918	8.93605	-1.2416992
1040613809461917	3.594162	8.953857	-0.20474243
1040613817854251	3.3053741	8.944565	0.71121216
1040613826246585	2.8835907	8.966263	1.3618469
1040613834638919	2.2955017	8.992249	1.6977539
1040613843031253	1.7807922	9.096191	1.7714233
1040613851423587	1.3182526	9.181213	1.6363525
1040613859815921	0.92445374	9.276276	1.407135
1040613868208255	0.6509094	9.374832	1.1139221
1040613876600589	0.49113464	9.487793	0.7785187
1040613884992923	0.37815857	9.636414	0.4459839
1040613893385257	0.22532654	9.682159	0.2921753
1040613901777591	0.11227417	9.657562	0.27178955
1040613910169925	-0.010498047	9.582916	0.37965393
1040613918562259	-0.12539673	9.512939	0.4678955
1040613926954593	-0.2205658	9.485184	0.46188354
1040613935346927	-0.28399658	9.495316	0.4152069
1040613943739261	-0.07028198	9.474442	0.33766174
1040613952131595	0.53616333	9.386215	0.3528595
1040613960523929	1.0006104	9.316498	0.41584778
1040613968916263	1.2869568	9.262909	0.5349121
1040613977308597	1.235611	8.928543	3.3993988
1040613985700931	0.47572327	7.862198	12.437302
1040613994093265	-1.4682922	6.945999	10.730103
1040614002485599	1.8100586	4.8346405	4.822998
1040614010877933	2.5454254	6.7562866	0.25109863
1040614019270267	2.7227173	9.605255	-0.51768494
1040614027662601	4.4722443	10.605606	-0.24098206
1040614036054935	5.9004517	11.115829	-4.8446198
1040614044447269	4.9153748	11.152832	-1.8241577
1040614052839603	4.389206	10.644287	-1.5834198
1040614061231937	3.3910828	10.270706	-1.7985382
1040614069624270	2.3368835	10.189819	-1.8316498
1040614078016604	1.6056366	10.211304	-1.6711578
1040614086408938	0.8982086	9.974548	-1.3861389
1040614094801272	0.5722656	9.855377	-1.3056793
1040614103193606	0.7427826	9.643402	-1.3463745
1040614111585940	1.1525879	9.309265	-1.3244476
1040614119978274	1.6585999	8.979187	-1.1371918
1040614128370608	2.1432648	8.739456	-0.77474976
1040614136762942	2.544632	8.503265	-0.35827637
1040614145155276	2.8475647	8.449112	-0.05935669
1040614153547610	3.1536255	8.3355255	0.3125763
1040614161939944	3.4458313	8.268097	0.7009125
1040614170332278	3.6895142	8.265762	0.80841064
1040614178724612	3.8537445	8.3558655	0.53074646
1040614187116946	3.9247284	8.620346	0.17353821
1040614195509280	3.8808594	8.818741	-0.057769775
1040614203901614	3.6405182	8.995956	-0.31614685
1040614212293948	3.3262024	9.208054	-0.5736542
1040614220686282	3.0281372	9.39949	-0.7786255
1040614229078616	2.7770996	9.523773	-0.9063263
1040614237470950	2.5467834	9.609528	-0.9781189
1040614245863284	2.3350525	9.621445	-0.99998474
1040614254255618	2.2697754	9.675339	-0.839798
1040614262647952	2.1307983	9.663834	-0.6090393
1040614271040286	1.9620361	9.601196	-0.40170288
1040614279432620	1.8392029	9.547775	-0.26319885
1040614287824954	1.6064606	9.524475	-0.15586853
1040614296217288	1.3465576	9.452438	-0.13835144
1040614304609622	1.2023315	9.284302	-0.20288086
1040614313001956	1.1029816	9.151566	-0.093826294
1040614321394290	1.0324554	9.050232	0.16059875
1040614329786624	0.9846649	8.937271	0.37820435
1040614338178958	0.9078369	8.852737	0.41593933
1040614346571292	0.92822266	8.760529	0.44795227
1040614354963626	1.0077362	8.6409	0.6018982
1040614363355960	0.79174805	8.718094	0.6742859
1040614371748294	0.61190796	8.836945	0.68019104
1040614380140628	0.8201904	8.819321	0.68714905
1040614388532962	0.9988556	8.906204	0.5787811
1040614396925296	1.230072	8.965576	0.31254578
1040614405317630	0.83891296	8.884003	0.079422
1040614413709964	0.282547	9.061279	-0.20465088
1040614422102298	-0.08000183	9.289413	-0.41184998
1040614430494632	-0.111190796	9.27626	-0.36402893
1040614438886966	0.12042236	9.236496	0.0385437
1040614447279300	1.3146515	9.132553	-0.16615295
1040614455671634	1.7471466	9.155533	0.018661499
1040614464063968	1.3179169	9.089813	0.4559784
1040614472456302	0.7929077	9.003082	0.91470337
1040614480848636	1.0013428	9.067551	1.191925
1040614489240970	1.4440155	9.16626	1.2497559
1040614497633304	1.9429474	9.231476	1.258606
1040614506025638	2.1886902	9.187485	1.0944824
1040614514417972	2.3571472	9.16098	1.10495
1040614522810306	2.5609436	9.182022	1.3463287
1040614531202640	2.755783	9.202194	1.6286926
1040614539594974	2.6028137	9.157944	1.7373962
1040614547987308	2.0285492	9.0637665	1.8332367
1040614556379642	1.3104553	8.955566	2.0087738
1040614564771976	0.49554443	8.806564	2.2985687
1040614573164310	0.47306824	8.638046	2.4788818
1040614581556644	1.7726898	8.553986	2.3912811
1040614589948978	2.4599152	8.822647	2.4808197
1040614598341312	2.3110962	9.299576	2.2304535
1040614606733645	1.8391571	9.546158	1.6334534
1040614615125979	1.9878845	9.42392	1.0675659
1040614623518313	2.6279755	9.2187195	0.7318573
1040614631910647	2.7848053	9.355103	0.55662537
1040614640302981	1.4041138	9.815338	0.27134705
1040614648695315	4.3663635	9.139374	0.16499329
1040614657087649	4.835602	8.846664	0.42295837
1040614665479983	3.7305603	8.782852	0.8340912
1040614673872317	3.2015533	8.531174	1.2617188
1040614682264651	4.339737	7.908905	1.7011566
1040614690656985	3.6544495	7.7930756	2.1138763
1040614699049319	0.91996765	8.23465	2.2714386
1040614707441653	0.8798981	8.513779	2.5170746
1040614715833987	1.3279724	8.714233	2.8434448
1040614724226321	0.8550873	8.973312	3.1232605
1040614732618655	-0.098342896	9.326767	3.1783447
1040614741010989	-0.7553711	9.652786	2.7897034
1040614749403323	-1.0621948	9.563156	2.7678833
1040614757795657	-1.5379639	9.5156555	2.885788
1040614766187991	-2.0287628	9.457672	2.950348
1040614774580325	-2.6025238	9.461197	2.8677826
1040614782972659	-3.437973	9.654282	2.7240143
1040614791364993	-3.8405457	9.647324	2.8104858
1040614799757327	-2.883072	9.105743	2.6491547
1040614808149661	-3.2803802	8.8164215	2.2422028
1040614816541995	-3.6344452	8.714371	1.7098999
1040614824934329	-2.483551	8.853516	1.1141815
1040614833326663	0.18041992	9.444397	0.6148224
1040614841718997	-1.0422211	10.049759	1.8314819
1040614850111331	-1.695755	10.121536	1.6678772
1040614858503665	-1.8181152	9.735443	1.476471
1040614866895999	-1.5478058	9.398132	1.5034485
1040614875288333	-1.4612427	9.351746	1.6865387
1040614883680667	-2.2077637	9.383408	1.8145294
1040614892073001	-1.8787537	9.020325	1.5896759
1040614900465335	-0.9721985	9.228806	1.6474915
1040614908857669	-0.5715027	9.507828	1.7013702
1040614917250003	-0.46047974	9.538696	1.6944122
1040614925642337	-0.2970581	9.416641	1.7702484
1040614934034671	0.0104522705	9.570831	2.087265
1040614942427005	0.30343628	9.78595	1.8818817
1040614950819339	0.110443115	10.000412	1.3749542
1040614959211673	0.12730408	10.117004	0.9945221
1040614967604007	0.042404175	10.233841	0.80822754
1040614975996341	-0.2186737	10.383026	0.6874542
1040614984388675	-0.33425903	10.483032	0.45318604
1040614992781009	-0.8196106	10.465668	0.16911316
1040615001173343	-1.4198914	10.506134	-0.10569763
1040615009565677	-1.8896179	10.547913	-0.4216919
1040615017958011	-2.1796417	10.515121	-0.6386719
1040615026350345	-2.142044	10.4627075	-0.6608124
1040615034742679	-1.5802765	10.610611	-0.49787903
1040615043135013	-1.7976227	10.830948	0.1212616
1040615051527347	-1.9950256	10.889084	0.5082245
1040615059919681	-2.2105103	10.946289	0.822464
1040615068312015	-2.0784912	11.038132	1.2449493
1040615076704349	-1.7176819	11.248444	1.7086334
1040615085096683	-1.9275665	11.701309	1.8348236
1040615093489017	-2.253601	12.250671	1.6563568
1040615101881351	-1.59935	11.846558	1.6319427
1040615110273685	-1.3545685	11.378296	1.9649506
1040615118666019	-1.4644165	11.090622	2.2933807
1040615127058353	-1.6504669	10.997086	2.2781677
1040615135450687	-1.9095154	11.002182	1.8734436
1040615143843020	-2.3796692	10.966171	0.9857178
1040615152235354	-2.7101593	10.489746	-0.24279785
1040615160627688	-2.991211	9.907761	-1.1121368
1040615169020022	-3.0864868	9.783249	-1.680603
1040615177412356	-2.5871735	10.271362	-2.1018677
1040615185804690	-1.0305786	10.7408905	-2.2823334
1040615194197024	0.52975464	10.766815	-1.7928009
1040615202589358	0.76264954	11.315979	-1.0259552
1040615210981692	0.58898926	11.641266	-0.6125488
1040615219374026	0.58981323	11.579956	-0.66685486
1040615227766360	0.8540497	11.250259	-0.83558655
1040615236158694	0.7979889	10.8793335	-0.36099243
1040615244551028	-0.0803833	10.710831	-0.011016846
1040615252943362	-0.64175415	10.649643	0.10180664
1040615261335696	-0.75071716	10.640411	-0.3396454
1040615269728030	-0.73405457	10.702972	-0.96087646
1040615278120364	-0.845047	10.741806	-1.2607117
1040615286512698	-0.8296356	10.47377	-1.1444244
1040615294905032	-0.8033447	10.185638	-0.8455963
1040615303297366	-0.8386841	9.874039	-0.12249756
1040615311689700	-1.040451	9.581192	0.5690613
1040615320082034	-1.3278503	9.327713	0.99035645
1040615328474368	-1.5339508	9.099411	1.0514374
1040615336866702	-1.5328674	8.840408	0.81677246
1040615345259036	-1.5029602	8.562256	0.5615387
1040615353651370	-1.4499664	8.368652	0.2590027
1040615362043704	-1.3421478	8.171448	0.02746582
1040615370436038	-1.2212219	7.937668	-0.12176514
1040615378828372	-1.1206207	7.682434	-0.2154541
1040615387220706	-0.98243713	7.464737	-0.24925232
1040615395613040	-0.75379944	7.246399	-0.21585083
1040615404005374	-0.6101227	7.11763	-0.12451172
1040615412397708	-0.5497589	7.0134277	-0.063827515
1040615420790042	-0.5541382	6.884186	-0.057266235
1040615429182376	-0.58529663	6.710373	-0.09176636
1040615437574710	-0.5781555	6.522583	-0.15026855
1040615445967044	-0.57037354	6.3940887	-0.15611267
1040615454359378	-0.45565796	6.3138275	-0.1643982
1040615462751712	-0.27838135	6.3506775	-0.18145752
1040615471144046	-0.14775085	6.4091034	-0.19952393
1040615479536380	-0.16633606	6.3659515	-0.19973755
1040615487928714	-0.31741333	6.265564	-0.16098022
1040615496321048	-0.5273285	6.187454	-0.353302
1040615504713382	-0.5184479	5.9519653	-0.79315186
1040615513105716	-0.49186707	5.6183777	-1.2752075
1040615521498050	-0.5471344	5.27536	-1.7109375
1040615529890384	-0.72654724	5.0008698	-2.1019745
1040615538282718	-1.0857239	4.7993774	-2.4757385
1040615546675052	-1.401001	4.8065186	-3.063568
1040615555067386	-1.6868591	5.2480927	-3.565445
1040615563459720	-2.4144135	6.285324	-4.074234
1040615571852054	-3.4196777	7.754883	-4.5599213
1040615580244388	-4.262558	9.405579	-4.9819946
1040615588636722	-4.9624786	11.506363	-5.529663
1040615597029056	-4.9564056	12.4991	-6.2922516
1040615605421390	-4.9846954	12.420624	-7.3961945
1040615613813724	-5.6054688	11.953339	-7.8384705
1040615622206058	-6.9539948	11.737213	-7.5354614
1040615630598392	-8.510651	11.770325	-6.970978
1040615638990726	-8.766876	10.542007	-6.2930145
1040615647383060	-7.6427	8.972885	-5.6269226
1040615655775394	-7.0870667	8.153336	-5.3936462
1040615664167728	-6.610214	8.388748	-4.830673
1040615672560062	-6.308975	9.388336	-3.4222565
1040615680952395	-6.309723	10.383362	-1.523056
1040615689344729	-5.256485	10.50795	-1.4004059
1040615697737063	-2.9456024	10.167892	-0.8016205
1040615706129397	-0.82473755	9.84613	-0.4031067
1040615714521731	0.10501099	10.218796	-0.8114319
1040615722914065	0.10272217	11.112946	-1.8889313
1040615731306399	0.09667969	11.881836	-2.885376
1040615739698733	-0.04446411	12.613419	-2.7621155
1040615748091067	-0.89416504	13.230118	-2.2691193
1040615756483401	-1.5331726	13.081589	-1.1635437
1040615764875735	-2.0623627	12.714706	-0.13278198
1040615773268069	-2.424286	11.941254	0.31448364
1040615781660403	-2.3684387	10.023819	0.23973083
1040615790052737	-1.6552277	6.8327637	1.1971588
1040615798445071	-1.0864716	4.793579	1.3825684
1040615806837405	-1.183258	4.291168	1.9962616
1040615815229739	-0.50453186	5.167145	3.3031769
1040615823622073	0.51579285	6.4213257	4.914795
1040615832014407	0.19119263	6.8585205	6.0846252
1040615840406741	-1.0209656	8.139938	6.982025
1040615848799075	-2.2778015	10.112228	6.917816
1040615857191409	-2.4030457	11.283722	5.835602
1040615865583743	-1.5388947	11.474899	3.9964142
1040615873976077	-0.68899536	10.874634	2.0111542
1040615882368411	-1.0342255	9.819031	0.5758972
1040615890760745	-2.4135284	8.174957	0.041503906
1040615899153079	-2.8103638	7.2076874	-1.6074524
1040615907545413	-2.5342407	7.315384	-3.0406647
1040615915937747	-1.795105	8.130295	-3.799118
1040615924330081	-0.86772156	9.031921	-3.5585632
1040615932722415	-0.10057068	9.44632	-2.1727753
1040615941114749	-0.1733551	9.517105	-0.39512634
1040615949507083	-0.3094635	9.452332	0.6235962
1040615957899417	-0.31950378	9.0976715	1.0427399
1040615966291751	-0.35343933	8.720215	1.1277313
1040615974684085	-0.52789307	8.529312	1.0535736
1040615983076419	-0.8202362	8.521362	0.87841797
1040615991468753	-0.95529175	8.26445	0.79615784
1040615999861087	-1.2575684	8.166275	0.88253784
1040616008253421	-1.5622406	8.143036	1.1305695
1040616016645755	-1.6468506	8.132278	1.3980408
1040616025038089	-1.4440918	8.148621	1.7214355
1040616033430423	-1.1717377	8.271057	2.3192596
1040616041822757	-1.5167084	8.349823	2.933426
1040616050215091	-1.6291809	8.177673	2.7219849
1040616058607425	-1.6854401	8.206253	2.1924744
1040616066999759	-1.8367004	8.41217	1.604599
1040616075392093	-2.0612488	8.703125	1.1313171
1040616083784427	-2.1817627	9.024231	0.86068726
1040616092176761	-2.4660492	9.333359	0.7115936
1040616100569095	-2.7352142	9.567703	0.72216797
1040616108961429	-2.9489594	9.6528015	0.8256531
1040616117353763	-2.9744873	9.596756	0.9544678
1040616125746097	-2.7905731	9.460373	1.0992584
1040616134138431	-2.5583038	9.354492	1.2721405
1040616142530765	-2.540039	9.260056	0.9949188
1040616150923099	-2.226181	9.308136	0.43249512
1040616159315433	-1.8251343	9.482269	-0.23709106
1040616167707767	-1.553772	9.743225	-0.7024994
1040616176100101	-1.3744049	10.001312	-0.7747345
1040616184492435	-0.91874695	10.141357	-0.5426941
1040616192884769	-0.65852356	10.298904	-0.020263672
1040616201277103	-0.6778412	10.596207	0.551239
1040616209669437	-1.0904999	10.905212	1.029541
1040616218061770	-1.4486084	11.186127	1.3465729
1040616226454104	-1.5824127	11.390045	1.5681
1040616234846438	-1.9185181	11.40506	1.8834839
1040616243238772	-1.9552765	10.858322	2.0121765
1040616251631106	-2.1725159	10.187378	1.9549866
1040616260023440	-2.5832672	9.705368	1.797821
1040616268415774	-2.8802032	9.371414	1.6573639
1040616276808108	-2.9268188	9.150604	1.6151276
1040616285200442	-2.9742737	9.176865	1.6754608
1040616293592776	-3.006775	9.570877	1.732605
1040616301985110	-3.0632782	9.995148	1.6855774
1040616310377444	-3.2537994	10.482925	1.3616486
1040616318769778	-3.594696	10.922989	0.8834381
1040616327162112	-3.8924408	11.139694	0.54652405
1040616335554446	-3.7085571	10.964142	0.72006226
1040616343946780	-2.7962952	10.727844	1.2335358
1040616352339114	-1.8836517	10.536819	1.4166107
1040616360731448	-1.1646423	10.434296	1.3471832
1040616369123782	-0.6653595	10.365021	1.1608429
1040616377516116	-0.4131775	10.254501	0.88630676
1040616385908450	-0.4908905	10.063797	0.37670898
1040616394300784	-0.8448334	9.9800415	-0.14472961
1040616402693118	-0.92836	9.781982	-0.19068909
1040616411085452	-0.92022705	9.50769	0.1071167
1040616419477786	-0.9620819	9.326111	0.4403839
1040616427870120	-1.2581024	9.342651	0.7121582
1040616436262454	-2.0437164	9.495621	1.193634
1040616444654788	-1.6778107	9.488632	0.8386841
1040616453047122	-1.3669434	9.843552	0.77560425
1040616461439456	-1.7818604	10.804108	0.59768677
1040616469831790	-2.5687408	11.775452	0.29107666
1040616478224124	-3.1999817	12.307831	-0.08987427
1040616486616458	-3.4656372	12.655426	-0.5912018
1040616495008792	-3.4795685	13.199142	-1.2353363
1040616503401126	-2.851242	13.520218	-1.5090942
1040616511793460	-1.9550323	13.133926	-1.132721
1040616520185794	-1.2101135	12.343033	-0.5999298
1040616528578128	-0.8368683	11.542435	-0.64172363
1040616536970462	-0.68341064	10.784302	-1.809372
1040616545362796	-1.2267914	10.395462	-2.7854462
1040616553755130	-2.048172	10.175873	-2.7666016
1040616562147464	-2.6988678	9.798187	-1.9691925
1040616570539798	-3.2177582	9.340836	-0.55914307
1040616578932132	-3.744156	8.956177	1.146698
1040616587324466	-4.235443	8.629684	2.5919952
1040616595716800	-4.137741	8.137161	2.7584991
1040616604109134	-3.803711	7.6746826	2.3394623
1040616612501468	-3.7281342	7.3439026	1.7002106
1040616620893802	-3.6711578	7.0513763	1.0813141
1040616629286136	-3.333664	6.731415	0.5529785
1040616637678470	-2.8982086	6.523941	-0.0340271
1040616646070804	-2.5871582	6.3524475	-0.017089844
1040616654463138	-2.4652252	6.2187805	0.075531006
1040616662855472	-2.4230042	6.1360474	0.1817627
1040616671247806	-2.4207764	6.111267	0.12506104
1040616679640140	-2.4150085	6.1526184	-0.21865845
1040616688032474	-2.2907562	6.275879	-0.7643585
1040616696424808	-1.9086914	6.3719788	-0.83610535
1040616704817142	-1.4798126	6.3490295	-0.8055725
1040616713209476	-1.1331329	6.2910156	-0.7220459
1040616721601810	-0.7817688	6.2085724	-0.6696625
1040616729994144	-0.32865906	6.0928345	-0.71469116
1040616738386478	0.109695435	5.9725494	-0.8439026
1040616746778812	0.21083069	5.950592	-0.95640564
1040616755171145	0.18630981	5.9414215	-1.0713501
1040616763563479	0.022079468	5.8621216	-1.0867157
1040616771955813	-0.21850586	5.7840576	-1.167633
1040616780348147	-0.4398651	5.817322	-1.4872742
1040616788740481	-0.56710815	5.964432	-1.8858795
1040616797132815	-0.81781006	6.017227	-2.4585114
1040616805525149	-1.4008331	6.1105194	-3.2178497
1040616813917483	-2.1977844	6.3576813	-3.9278717
1040616822309817	-2.9393005	6.6556244	-4.5169525
1040616830702151	-3.4954376	6.887329	-5.046646
1040616839094485	-4.3095245	7.2352295	-5.653
1040616847486819	-5.378647	7.746155	-6.317993
1040616855879153	-6.6293335	8.564957	-7.010147
1040616864271487	-8.058899	9.643356	-7.3655243
1040616872663821	-9.498245	10.766541	-6.7963257
1040616881056155	-10.722229	11.646851	-5.153366
1040616889448489	-11.624512	12.0346985	-3.9180603
1040616897840823	-12.231232	11.405151	-4.4660034
1040616906233157	-11.997498	9.500992	-5.0979614
1040616914625491	-11.376724	8.05484	-5.380829
1040616923017825	-10.546417	8.235611	-4.500839
1040616931410159	-9.580734	10.0	-2.097763
1040616939802493	-9.021103	10.927414	-0.22406006
1040616948194827	-7.015274	10.561432	0.48831177
1040616956587161	-4.5102234	9.931091	0.8737793
1040616964979495	-2.7660522	10.147797	0.63920593
1040616973371829	-1.6029663	11.402969	-0.077941895
1040616981764163	-0.24917603	13.034256	-0.79289246
1040616990156497	0.27424622	13.764069	-1.0222015
1040616998548831	-0.2830963	13.627197	-0.4853058
1040617006941165	-0.85339355	12.944748	-0.25404358
1040617015333499	-1.555542	11.972046	-0.11764526
1040617023725833	-2.2125854	10.849594	-0.8630066
1040617032118167	-2.4141998	9.617569	-3.3352509
1040617040510501	-2.2322845	8.041077	-5.2666016
1040617048902835	-1.0493622	6.01651	-0.97846985
1040617057295169	-0.38215637	5.529251	1.3598633
1040617065687503	0.15905762	6.3502655	2.653183
1040617074079837	1.1395264	7.2809143	3.9866638
1040617082472171	2.4806519	6.8928223	5.611496
1040617090864505	1.3360901	6.4312134	6.3742065
1040617099256839	-1.3155975	8.300613	6.6371307
1040617107649173	-3.4320526	10.520599	6.1823425
1040617116041507	-4.0622864	11.34697	5.6457367
1040617124433841	-4.0412445	10.419479	5.233368
1040617132826175	-5.072403	8.717468	4.4656067
1040617141218509	-6.9654694	7.628433	2.3115387
1040617149610843	-6.198868	7.3683624	-0.76086426
1040617158003177	-3.4808197	7.5440216	-3.1990356
1040617166395511	-1.3174744	8.28775	-3.7787323
1040617174787845	-0.78282166	9.321487	-2.7018433
1040617183180179	-1.0331879	10.102478	-1.195816
1040617191572513	-1.3171082	10.267502	-0.0929718
1040617199964847	-1.6680298	10.150406	0.15484619
1040617208357181	-1.9025574	9.784485	0.6478882
1040617216749515	-2.3851166	9.354706	1.3285675
1040617225141849	-3.0458221	8.958023	1.864624
1040617233534183	-3.2861786	8.593399	1.9187164
1040617241926517	-2.8764038	8.467789	1.7392578
1040617250318851	-2.9575043	8.43718	1.823349
1040617258711185	-2.6064606	8.254715	1.7352753
1040617267103519	-2.0994873	8.072571	1.575119
1040617275495853	-1.7006073	8.083817	1.5111847
1040617283888187	-1.4469757	8.358002	1.6631927
1040617292280520	-1.5856018	8.329697	2.0703125
1040617300672854	-1.517395	8.428574	2.2464905
1040617309065188	-1.6315613	8.450577	2.2705994
1040617317457522	-1.9108124	8.481995	1.9858704
1040617325849856	-2.147812	8.575226	1.4912567
1040617334242190	-2.1558685	8.662994	1.1434784
1040617342634524	-2.6407318	8.753647	0.84503174
1040617351026858	-3.0543365	8.909454	0.72798157
1040617359419192	-3.1697083	9.002243	0.686676
1040617367811526	-3.2110596	8.800659	0.6105652
1040617376203860	-3.3089294	8.32457	0.46572876
1040617384596194	-3.3338013	7.927841	0.31715393
1040617392988528	-3.0446625	7.9168854	0.18255615
1040617401380862	-2.641632	8.135437	0.08938599
1040617409773196	-2.175705	8.385025	0.06814575
1040617418165530	-1.7030945	8.631165	0.052124023
1040617426557864	-1.4085541	8.920578	0.20779419
1040617434950198	-1.5703278	9.33223	0.9273529
1040617443342532	-1.8009338	9.64534	1.1261597
1040617451734866	-2.1031494	9.897171	1.0103455
1040617460127200	-2.5560303	10.09462	0.9475403
1040617468519534	-3.063568	10.2379	1.0570068
1040617476911868	-3.4783936	10.326111	1.2785339
1040617485304202	-3.698822	10.349289	1.4454346
1040617493696536	-3.579071	10.357071	1.7413483
1040617502088870	-3.3919678	9.702118	1.7934875
1040617510481204	-3.548294	9.220612	1.6000671
1040617518873538	-3.5611115	9.044998	1.1384277
1040617527265872	-3.1883087	9.188858	0.635376
1040617535658206	-2.9903412	9.849457	0.66249084
1040617544050540	-3.0091248	10.5993805	1.2009583
1040617552442874	-3.0015106	11.146332	1.384079
1040617560835208	-2.7766724	11.321182	1.3198242
1040617569227542	-2.5979156	11.206589	1.1946259
1040617577619876	-2.581833	10.932968	1.1396179
1040617586012210	-2.34758	10.579437	1.1849213
1040617594404544	-2.153885	10.470413	1.3231506
1040617602796878	-1.9502716	10.374619	1.7055054
1040617611189212	-1.6644745	10.163681	1.861145
1040617619581546	-1.5094757	9.838333	1.6553497
1040617627973880	-1.5908508	9.544159	1.1261597
1040617636366214	-1.6210175	9.578674	0.35847473
1040617644758548	-1.6687164	9.925201	0.53759766
1040617653150882	-1.576355	10.308884	0.96913147
1040617661543216	-1.2737122	10.561325	1.0630646
1040617669935550	-1.034668	10.6532135	0.8578186
1040617678327884	-1.2248077	10.726166	0.6212616
1040617686720218	-2.0380554	11.068848	0.32641602
1040617695112552	-3.0970306	11.980057	-0.05265808
1040617703504886	-3.8404694	12.428268	-0.23690796
1040617711897220	-4.1672974	12.478165	-0.48997498
1040617720289554	-4.086624	12.343002	-0.78541565
1040617728681888	-3.6795197	12.206894	-0.97740173
1040617737074222	-3.0711517	12.048218	-0.9676666
1040617745466556	-2.6791382	11.637283	-0.8067932
1040617753858890	-2.632553	11.33667	-1.286377
1040617762251224	-2.8072205	11.153152	-1.6744995
1040617770643558	-3.2358093	11.047333	-1.5559998
1040617779035892	-3.930832	10.899948	-0.9262543
1040617787428226	-4.448288	10.400452	-0.42077637
1040617795820560	-4.649582	9.767746	-0.43643188
1040617804212894	-5.113983	9.283066	-0.07824707
1040617812605228	-5.1301727	8.765717	0.5943756
1040617820997562	-4.8757477	8.235352	1.0601044
1040617829389895	-4.9044037	7.7972107	0.83503723
1040617837782229	-4.9931335	7.3804626	0.200943
1040617846174563	-4.879059	7.0700073	-0.2616272
1040617854566897	-4.4229736	6.6969604	-0.53819275
1040617862959231	-3.8015747	6.3417664	-0.54930115
1040617871351565	-3.2760468	6.0785065	-0.40174866
1040617879743899	-3.061325	5.8851013	-0.24838257
1040617888136233	-3.2326202	5.5414886	0.043640137
1040617896528567	-3.6179657	5.267685	0.21411133
1040617904920901	-3.674759	5.1978607	0.22125244
1040617913313235	-3.3217926	5.2180634	0.14448547
1040617921705569	-2.7557678	5.268753	0.017959595
1040617930097903	-2.3785858	5.3384247	-0.050369263
1040617938490237	-2.7763824	5.425171	0.42321777
1040617946882571	-2.18219	5.47377	0.44932556
1040617955274905	-1.4466248	5.663788	0.504776
1040617963667239	-0.896225	5.831955	0.35838318
1040617972059573	-0.62039185	5.8815765	0.015457153
1040617980451907	-0.54953	5.8378906	-0.32373047
1040617988844241	-0.65919495	5.867798	-0.5011902
1040617997236575	-1.026001	5.9472504	-0.5161896
1040618005628909	-1.4064331	5.9983063	-0.5785675
1040618014021243	-1.6659088	6.067688	-0.9044037
1040618022413577	-1.7831116	6.128433	-1.5229492
1040618030805911	-1.8707123	6.1122437	-2.276352
1040618039198245	-2.1109924	6.074356	-3.1547089
1040618047590579	-2.5697937	6.177765	-3.8052979
1040618055982913	-3.4953918	6.4811096	-4.309265
1040618064375247	-4.598114	7.027832	-4.7731476
1040618072767581	-5.3868103	7.6330414	-5.2904053
1040618081159915	-5.55513	8.0905	-5.9636993
1040618089552249	-5.7858276	8.829315	-7.1551666
1040618097944583	-6.1427	9.7803955	-8.08194
1040618106336917	-6.9837494	10.813171	-8.280197
1040618114729251	-8.423691	12.021423	-8.171112
1040618123121585	-9.665558	12.865295	-7.757019
1040618131513919	-9.640106	12.471298	-6.637863
1040618139906253	-9.399704	10.725388	-5.244385
1040618148298587	-8.684067	7.7446747	-4.461975
1040618156690921	-8.341858	5.825989	-3.6580048
1040618165083255	-8.06842	6.0236816	-2.4931488
1040618173475589	-7.554077	8.112259	-0.8113861
1040618181867923	-6.700424	10.373474	1.0626221
1040618190260257	-4.868469	10.5325165	1.3061523
1040618198652591	-3.5951996	10.2269745	1.4673462
1040618207044925	-3.2154083	10.299301	1.3340454
1040618215437259	-3.0844269	11.052963	0.29180908
1040618223829593	-2.8017883	12.247574	-2.2014313
1040618232221927	-2.7279358	13.189743	-5.723404
1040618240614261	-3.909668	13.972366	-5.6611176
1040618249006595	-5.2379913	14.929428	-2.6020203
1040618257398929	-5.3742523	14.433487	-0.17929077
1040618265791263	-4.8667297	12.6783905	0.23669434
1040618274183597	-4.111786	10.306961	-0.57592773
1040618282575931	-2.7174072	7.723465	-0.50531006
1040618290968265	-0.8922577	5.4583282	1.0083618
1040618299360599	-0.71343994	4.7888947	1.3596039
1040618307752933	-0.18263245	5.1313324	1.840744
1040618316145267	0.1823883	5.3657684	2.815979
1040618324537601	-0.25758362	5.0802307	4.1145935
1040618332929935	-1.39357	4.9878387	5.2525787
1040618341322269	-2.1702576	5.975891	5.322357
1040618349714603	-2.5780792	7.6254883	6.167389
1040618358106937	-3.265976	9.496216	6.594528
1040618366499270	-3.7350006	10.748596	5.855896
1040618374891604	-3.452179	10.946899	3.9338531
1040618383283938	-2.5106354	10.657898	1.7777405
1040618391676272	-1.320816	10.354721	-0.9697113
1040618400068606	0.5884094	9.599808	-2.7167206
1040618408460940	1.8588104	8.557465	-2.7954102
1040618416853274	1.3949432	7.7733917	-1.9783173
1040618425245608	-0.5307007	7.734848	-1.2201233
1040618433637942	-1.6814117	8.4153595	-0.66664124
1040618442030276	-2.1636963	9.348709	0.3038025
1040618450422610	-2.7454681	9.910385	1.1400146
1040618458814944	-3.2319794	10.138016	1.7294312
1040618467207278	-3.426712	10.0177	1.99823
1040618475599612	-3.339157	9.604202	1.8488159
1040618483991946	-3.2153625	9.027603	1.1210632
1040618492384280	-2.3659058	8.290817	0.28355408
1040618500776614	-1.9835815	7.7978973	0.7082825
1040618509168948	-1.869751	7.350479	1.434906
1040618517561282	-1.8924103	7.1289825	1.9207153
1040618525953616	-1.9997864	7.2852936	2.0201569
1040618534345950	-2.2860565	7.704651	2.0185852
1040618542738284	-2.5096893	7.9452057	1.4321289
1040618551130618	-2.7687378	8.399811	1.0452881
1040618559522952	-2.786499	8.671921	0.89489746
1040618567915286	-2.7639008	8.843124	0.90000916
1040618576307620	-2.9109192	9.077225	0.9210205
1040618584699954	-2.9836273	9.254868	0.85557556
1040618593092288	-3.2139435	9.225952	0.70103455
1040618601484622	-3.3288727	9.270721	0.67134094
1040618609876956	-3.434082	9.327179	0.69625854
1040618618269290	-3.531952	9.336029	0.718277
1040618626661624	-3.5825348	9.273697	0.7044983
1040618635053958	-3.5474396	9.178909	0.6695709
1040618643446292	-2.860199	9.077667	0.36099243
1040618651838626	-2.4064026	9.022949	0.022460938
1040618660230960	-2.092987	9.030136	-0.30288696
1040618668623294	-1.81427	9.111847	-0.5244446
1040618677015628	-1.5273743	9.2739105	-0.56970215
1040618685407962	-1.3236084	9.529373	-0.4265747
1040618693800296	-1.3046722	9.803543	-0.1513977
1040618702192630	-1.41539	10.032532	0.28056335
1040618710584964	-1.5973969	10.169159	0.6326904
1040618718977298	-1.8088837	10.223129	0.8277283
1040618727369632	-2.0457153	10.16217	0.8614807
1040618735761966	-2.3657837	9.820236	0.7720032
1040618744154300	-3.0378723	9.369797	0.6980591
1040618752546634	-3.5541687	9.036362	0.6541748
1040618760938968	-3.7509766	8.825897	0.55059814
1040618769331302	-3.6542664	8.7388	0.50038147
1040618777723636	-3.4586945	8.7164	0.6081085
1040618786115970	-3.409851	8.574814	0.5542755
1040618794508304	-3.647171	8.516968	0.4608612
1040618802900638	-3.9000092	8.576782	0.31773376
1040618811292972	-3.801422	8.866623	0.23466492
1040618819685306	-3.361969	9.284897	0.3324585
1040618828077640	-2.863083	9.592606	0.65815735
1040618836469974	-2.4832153	9.598587	1.1177826
1040618844862308	-3.0539093	10.42218	1.3213196
1040618853254642	-3.1015015	10.981049	1.1313629
1040618861646976	-2.6623993	11.1905365	0.6277313
1040618870039310	-2.0860443	11.150696	0.10290527
1040618878431644	-1.7202606	11.043457	-0.12069702
1040618886823978	-1.4849548	10.957718	0.07872009
1040618895216312	-1.6047516	10.781052	0.5987396
1040618903608645	-1.9062958	10.630051	0.95248413
1040618912000979	-2.2887573	10.414291	0.956192
1040618920393313	-2.6450958	10.196472	0.6631317
1040618928785647	-2.8531647	10.136429	0.30441284
1040618937177981	-2.8253174	10.217941	-0.032546997
1040618945570315	-2.8050385	10.499435	0.099349976
1040618953962649	-3.2941437	11.03743	0.6495056
1040618962354983	-3.8087616	11.649689	1.2524719
1040618970747317	-4.047058	12.211548	1.7986603
1040618979139651	-4.063339	12.703369	2.338089
1040618987531985	-4.573807	13.31752	2.587326
1040618995924319	-5.1295624	13.701614	3.0
1040619004316653	-5.476288	13.897049	3.4503784
1040619012708987	-5.4364166	13.811279	3.5189362
1040619021101321	-4.876236	13.367371	3.182724
1040619029493655	-3.6286316	12.524399	2.6444855
1040619037885989	-1.7330475	11.6775055	1.7110901
1040619046278323	0.5394592	11.335724	0.06619263
1040619054670657	2.9977112	10.74173	-1.9016418
1040619063062991	5.0556183	9.97287	-3.9272919
1040619071455325	5.8097076	9.25	-5.6892853
1040619079847659	4.3465576	8.83577	-6.633438
1040619088239993	0.9567261	8.715134	-5.316391
1040619096632327	-1.4792633	8.526886	-2.0049438
1040619105024661	-2.5988007	8.214432	0.5814514
1040619113416995	-2.8171387	7.937271	2.1462097
1040619121809329	-2.680191	7.8025055	2.823166
1040619130201663	-2.7692566	7.8124695	2.9898224
1040619138593997	-3.1558533	7.8638916	2.7738953
1040619146986331	-3.5141144	7.8282013	2.197342
1040619155378665	-3.7729645	7.570343	1.7874603
1040619163770999	-3.9199982	7.2109375	1.3994751
1040619172163333	-3.8890991	6.9050293	0.8591919
1040619180555667	-3.5760956	6.76593	0.19136047
1040619188948001	-3.225769	6.9507446	0.19947815
1040619197340335	-2.9836578	6.996216	0.23065186
1040619205732669	-2.7289886	6.8872986	0.37690735
1040619214125003	-2.222702	6.6211395	0.43310547
1040619222517337	-1.4300842	6.247757	0.32481384
1040619230909671	-0.6242981	5.8498993	0.2727661
1040619239302005	-0.06896973	5.474045	0.6227112
1040619247694339	0.6771393	5.099167	0.76535034
1040619256086673	1.4671936	4.707779	0.589859
1040619264479007	2.2368164	4.347458	-0.069229126
1040619272871341	2.9480438	4.064453	-1.2026825
1040619281263675	3.5930786	3.8697052	-2.4480133
1040619289656009	4.165634	3.7673187	-3.272049
1040619298048343	4.618744	3.8378296	-3.7206268
1040619306440677	5.1691895	4.069458	-4.011078
1040619314833011	5.7409363	4.4761353	-4.344574
1040619323225345	5.863617	5.1006775	-4.8250732
1040619331617679	4.8477783	5.949692	-5.379654
1040619340010013	3.0	6.7574615	-5.6475525
1040619348402347	1.5471344	7.466156	-5.1192017
1040619356794681	0.25378418	8.69606	-4.147888
1040619365187015	-0.9891205	10.576538	-3.007492
1040619373579349	-2.246109	12.952133	-2.163269
1040619381971683	-3.5367432	15.488693	-2.1816406
1040619390364017	-5.0507965	17.791748	-3.4956512
1040619398756351	-6.768524	19.044373	-5.954071
1040619407148685	-8.407928	18.667557	-8.846024
1040619415541019	-9.253876	16.542496	-10.749725
1040619423933353	-8.978836	13.320679	-10.713882
1040619432325687	-8.042618	10.419479	-8.963699
1040619440718020	-7.109421	8.527161	-7.088318
1040619449110354	-5.5345917	7.332321	-5.9045105
1040619457502688	-3.66716	6.834488	-5.0835724
1040619465895022	-2.037033	6.8115234	-3.9761353
1040619474287356	-0.89993286	6.920273	-2.2888336
1040619482679690	0.01977539	6.81456	-0.45161438
1040619491072024	0.65335083	6.6291656	1.044754
1040619499464358	0.61073303	7.021576	1.9451447
1040619507856692	0.27539063	8.096359	2.3180084
1040619516249026	-0.06919861	9.762436	2.2917328
1040619524641360	-0.2632599	11.974411	1.9677429
1040619533033694	-0.27435303	15.049622	1.2854767
1040619541426028	0.084198	17.154037	0.054000854
1040619549818362	1.054245	17.465607	-2.0497284
1040619558210696	1.8977051	15.755798	-3.9608765
1040619566603030	2.0281525	12.670944	-4.1849976
1040619574995364	1.517273	9.286209	-2.184433
1040619583387698	1.4977417	6.7194977	0.535553
1040619591780032	1.615036	4.974991	2.124054
1040619600172366	1.3626556	4.1180573	2.6784058
1040619608564700	0.93951416	3.8631744	2.8213043
1040619616957034	0.44943237	4.022827	2.8668976
1040619625349368	-0.02178955	4.476364	2.9394073
1040619633741702	-0.33728027	5.200775	3.0345306
1040619642134036	-0.5341034	6.198761	3.0017242
1040619650526370	-0.7824402	7.089081	3.2161102
1040619658918704	-1.1686707	8.078125	4.064163
1040619667311038	-1.8032227	9.172485	5.460144
1040619675703372	-2.6319275	10.210999	6.9339905
1040619684095706	-3.2373962	10.87973	7.686447
1040619692488040	-3.133377	10.904053	7.4913025
1040619700880374	-2.3813477	10.508484	6.4474487
1040619709272708	-1.4855957	10.135391	5.1997986
1040619717665042	-0.76560974	9.99736	3.9403381
1040619726057376	-0.18733215	10.079025	1.3579712
1040619734449710	0.9077606	10.094589	-6.909256
1040619742842044	2.218048	9.461105	-8.915176
1040619751234378	2.1720886	9.075775	-7.0288696
1040619759626712	1.7107697	8.964996	-4.3442535
1040619768019046	1.4057312	9.047623	-2.0262146
1040619776411380	1.3029175	9.171539	-0.10606384
1040619784803714	0.75920105	9.100967	1.4754028
1040619793196048	0.25053406	8.955933	1.894577
1040619801588382	-0.07273865	8.866669	1.1265411
1040619809980716	-0.19671631	8.928726	0.13816833
1040619818373050	-0.38604736	9.102005	-0.41801453
1040619826765384	-0.8991394	9.28331	-0.33503723
1040619835157718	-1.4915771	9.435394	0.042678833
1040619843550052	-1.8463745	9.072067	0.5397339
1040619851942386	-2.0146484	8.9552	0.8868866
1040619860334720	-1.9513702	8.970139	1.0795288
1040619868727054	-1.8958588	8.918457	1.1446838
1040619877119388	-2.1133728	8.701111	1.1069183
1040619885511722	-2.3470001	8.61058	0.94436646
1040619893904056	-2.5671692	8.6848755	0.8620148
1040619902296390	-2.7340546	8.906006	0.7205658
1040619910688724	-2.832077	9.0928955	0.5930176
1040619919081058	-2.8214874	9.200607	0.5021057
1040619927473392	-2.6544342	9.283142	0.44786072
1040619935865726	-2.3030396	9.352249	0.5481262
1040619944258060	-2.0267487	9.286911	0.78767395
1040619952650394	-1.7917786	9.334793	1.0132141
1040619961042728	-1.5782928	9.664444	1.1101685
1040619969435062	-1.3556671	10.115128	1.0949707
1040619977827395	-1.0958405	10.390228	1.0459747
1040619986219729	-0.81967163	10.677383	0.8655243
1040619994612063	-0.52960205	10.858444	0.5275116
1040620003004397	-0.30534363	10.711014	-0.029632568
1040620011396731	-0.039627075	10.551224	-0.6304474
1040620019789065	0.32240295	10.475586	-0.9388428
1040620028181399	0.70970154	10.305481	-0.67167664
1040620036573733	0.92059326	10.209808	0.03904724
1040620044966067	0.86920166	10.1595	1.2058258
1040620053358401	0.72618103	10.119614	2.4555511
1040620061750735	0.3718567	10.06189	3.2228699
1040620070143069	-0.22917175	9.975876	3.0469055
1040620078535403	-0.9726105	9.874207	1.8479156
1040620086927737	-1.5936432	9.810928	0.7849426
1040620095320071	-1.8808441	9.713089	-3.2043457E-4
1040620103712405	-2.2433014	9.725891	-0.69059753
1040620112104739	-2.440155	9.985291	-1.0409546
1040620120497073	-2.4620361	10.458237	-0.9667969
1040620128889407	-2.65625	10.946426	-0.609375
1040620137281741	-3.4968414	11.123138	-0.38287354
1040620145674075	-4.465927	10.947159	-0.19732666
1040620154066409	-4.795624	10.645859	0.037963867
1040620162458743	-4.084793	10.40683	0.5123291
1040620170851077	-2.6429138	10.330765	1.2922211
1040620179243411	-1.5850983	10.424988	2.191574
1040620187635745	-1.0207977	10.6194	2.4109192
1040620196028079	-0.6987915	10.662674	2.1052856
1040620204420413	-0.22010803	10.540497	1.3213959
1040620212812747	0.24891663	10.391525	0.35839844
1040620221205081	0.31002808	10.351471	-0.32130432
1040620229597415	-0.3822937	10.436523	-0.34751892
1040620237989749	-1.7022552	10.604935	0.065216064
1040620246382083	-2.4082642	11.046768	0.60749817
1040620254774417	-2.5265198	11.684372	1.2962494
1040620263166751	-2.4101105	12.282822	2.1716309
1040620271559085	-2.4045563	12.8233185	3.027771
1040620279951419	-2.6055756	13.57608	3.4218292
1040620288343753	-2.5783234	14.167908	3.4880219
1040620296736087	-2.3931732	14.51506	3.4623718
1040620305128421	-1.5549774	14.508163	3.498108
1040620313520755	-0.2040863	14.035843	3.2564545
1040620321913089	1.3062439	13.007172	2.6211243
1040620330305423	2.7487183	11.290985	1.9375305
1040620338697757	3.8822021	10.263916	0.59609985
1040620347090091	4.8013916	9.29509	-1.2325592
1040620355482425	4.9404297	8.6475525	-3.2000427
1040620363874759	4.037277	8.309769	-4.667221
1040620372267093	2.367569	8.179779	-5.1641693
1040620380659427	0.96383667	8.162201	-4.8919373
1040620389051761	0.20426941	8.072372	-2.6308289
1040620397444095	-0.2803192	8.039261	-0.64276123
1040620405836429	-0.7868805	8.096405	0.25837708
1040620414228763	-1.391037	8.11235	0.36750793
1040620422621097	-2.0295563	7.9242706	0.43702698
1040620431013431	-2.597107	7.4493256	0.94129944
1040620439405765	-3.087204	6.9055176	1.1912384
1040620447798099	-3.138916	6.5660553	1.3192139
1040620456190433	-2.9248047	6.3698273	1.7009583
1040620464582767	-2.740036	6.3262634	2.0812378
1040620472975101	-2.722351	6.421585	2.2490845
1040620481367435	-2.6796112	6.535904	2.5433044
1040620489759769	-2.2639923	6.8714447	2.6697845
1040620498152103	-1.5393524	6.901947	2.7792053
1040620506544437	-0.5641022	6.6550903	2.5020447
1040620514936770	0.323349	6.305069	2.0112305
1040620523329104	0.91659546	5.9874115	1.5698242
1040620531702562	1.5249634	5.5893555	0.9813843
1040620540094896	2.1634674	5.1958923	0.25793457
1040620548487230	2.7398071	4.9013214	-0.59791565
1040620556879564	3.2223206	4.6815186	-1.5850525
1040620565271898	3.7129822	4.510971	-2.7462158
1040620573664232	4.3114014	4.384033	-4.0455017
1040620582056566	4.895874	4.3313446	-5.1717224
1040620590448900	5.354294	4.3763733	-6.064102
1040620598841234	5.4222107	4.5018005	-6.435547
1040620607233568	4.6409454	4.902115	-6.313217
1040620615625902	3.2978973	5.4845276	-5.7279053
1040620624018236	2.066681	6.0570984	-4.7638702
1040620632410570	1.2519379	6.687866	-3.546112
1040620640802904	0.22106934	7.869461	-2.3265686
1040620649195238	-1.0574799	9.56131	-1.0626373
1040620657587572	-2.1118317	11.557541	-0.010040283
1040620665979906	-2.9743652	13.655731	0.5980377
1040620674372240	-3.8945923	15.645401	0.47375488
1040620682764574	-4.8398895	17.05191	-1.2329559
1040620691156908	-5.7636414	17.038269	-5.9961853
1040620699549242	-7.2371674	15.976227	-12.236252
1040620707941576	-8.305756	14.107712	-15.816269
1040620716333910	-8.341202	11.797775	-15.083267
1040620724726244	-7.2594757	9.503586	-11.289581
1040620733118578	-5.511017	7.8356323	-8.431808
1040620741510912	-3.8011627	6.9414673	-7.1406403
1040620749903246	-2.7889404	6.966034	-6.238678
1040620758295580	-2.256836	7.388565	-4.7643585
1040620766687914	-1.699173	7.743698	-1.9634247
1040620775080248	-0.65205383	7.723358	2.1999512
1040620783472582	0.08869934	7.6630096	5.0997467
1040620791864916	0.16998291	9.35141	6.2214813
1040620800257250	-0.072891235	12.185562	6.2687836
1040620808649584	-0.035507202	15.124359	6.040329
1040620817041918	0.80633545	17.465302	5.3623047
1040620825434252	2.6215668	18.915741	3.2805023
1040620833826586	5.4921722	18.581863	-1.1660461
1040620842218920	7.7000275	15.244186	-6.407608
1040620850611254	7.378586	11.053589	-8.927536
1040620859003588	5.693329	7.328644	-7.3126984
1040620867395922	4.004959	4.799881	-2.9207153
1040620875788256	3.005844	3.4410248	0.93855286
1040620884180590	1.8742523	2.9963531	2.713211
1040620892572924	0.646225	2.8720093	3.7121735
1040620900965258	-0.39588928	3.1927032	4.5218506
1040620909357592	-1.0375214	3.8990173	5.2020874
1040620917749926	-1.2404633	4.8669586	5.6236725
1040620926142260	-1.1665955	5.961975	5.6891785
1040620934534594	-1.1023407	7.1368866	6.190506
1040620942926928	-1.0889282	8.532288	6.75325
1040620951319262	-1.0451508	9.836624	7.226822
1040620959711596	-0.719635	10.793549	7.355591
1040620968103930	-0.08934021	11.161316	6.9658203
1040620976496264	0.53959656	10.902069	6.1078033
1040620984888598	0.7362213	10.57695	5.037033
1040620993280932	0.77363586	10.197739	3.871872
1040621001673266	0.743454	9.814972	2.684143
1040621010065600	0.6941223	9.512619	0.53622437
1040621018457934	0.19277954	9.24617	-5.8523254
1040621026850268	-1.1566162	8.889786	-18.49588
1040621035242602	0.48150635	8.68898	-11.462265
1040621043634936	1.0388184	9.346893	-3.838562
1040621052027269	1.2107239	10.110077	1.2501984
1040621060419603	1.0886383	10.559311	3.5793915
1040621068811937	0.6480713	10.533722	3.8441467
1040621077204271	-0.07015991	10.146759	2.8040466
1040621085596605	-0.28237915	9.674561	1.8220673
1040621093988939	-0.2545929	9.161697	0.96022034
1040621102381273	-0.3403778	8.518738	0.27778625
1040621110773607	-0.4041748	7.9311523	-0.069000244
1040621119165941	-0.3243103	7.614914	0.0011749268
1040621127558275	-0.19062805	7.646744	0.37028503
1040621135950609	-0.12814331	7.9669647	0.77838135
1040621144342943	-0.25712585	8.357925	0.8999481
1040621152735277	-0.49865723	8.8675995	0.8255768
1040621161127611	-0.8027191	9.345108	0.6921234
1040621169519945	-1.1439514	9.553558	0.63998413
1040621177912279	-1.528183	9.344406	0.7413788
1040621186304613	-2.0032043	9.223694	0.9097748
1040621194696947	-2.3585968	9.307861	0.9780731
1040621203089281	-2.5878296	9.383682	0.97540283
1040621211481615	-2.7134247	9.324524	0.931839
1040621219873949	-2.7599945	9.22345	0.85131836
1040621228266283	-2.7267914	9.379135	0.70103455
1040621236658617	-2.5780945	9.681656	0.536026
1040621245050951	-2.40065	9.454254	0.44865417
1040621253443285	-2.082611	9.174805	0.33174133
1040621261835619	-1.6497345	9.078415	0.22492981
1040621270227953	-1.2023773	9.265701	0.16537476
1040621278620287	-0.8608093	9.688202	0.08699036
1040621287012621	-0.5457001	10.162338	-0.30465698
1040621295404955	-0.42486572	10.403534	-0.7607727
1040621303797289	-0.4151764	10.633133	-1.0154419
1040621312189623	-0.40219116	10.943146	-0.8584442
1040621320581957	-0.2949829	11.304733	-0.2059021
1040621328974291	-0.07788086	11.555603	0.8310394
1040621337366625	0.3017578	11.333679	1.9066467
1040621345758959	0.6448822	10.82428	2.7806091
1040621354151293	0.6454773	10.307297	3.016983
1040621362543627	0.09866333	9.939133	2.3763275
1040621370935961	-0.9256592	9.783295	0.93029785
1040621379328295	-1.8718567	9.807648	-0.729126
1040621387720629	-1.9536133	9.9127655	-1.4455566
1040621396112963	-1.8119507	9.884598	-1.6383514
1040621404505297	-1.7795563	9.879456	-1.3913116
1040621412897631	-1.927002	10.070404	-0.8092499
1040621421289965	-2.182022	10.544388	-0.10133362
1040621429682299	-2.4691925	11.14888	0.33280945
1040621438074633	-2.7760468	11.489746	0.24020386
1040621446466967	-3.1166534	11.305267	0.1333313
1040621454859301	-3.3059845	10.93457	0.38761902
1040621463251635	-3.0738525	10.548889	0.8970642
1040621471643969	-2.2847137	10.20369	1.3611603
1040621480036303	-1.3547058	9.933762	1.6575623
1040621488428637	-0.9955292	9.883133	1.8775635
1040621496820971	-0.8248596	9.800827	1.703537
1040621505213305	-0.786438	9.777359	1.4168701
1040621513605639	-0.6906433	9.731369	1.0741577
1040621521997973	-0.39079285	9.53508	0.59394836
1040621530390307	-0.06378174	9.241959	-0.033172607
1040621538782641	-0.84217834	9.715256	-0.1720581
1040621547174975	-1.9935913	10.155609	0.009246826
1040621555567309	-2.6718292	10.348572	0.42271423
1040621563959643	-2.6925201	10.334457	0.98498535
1040621572351977	-2.42659	10.4192505	1.5718536
1040621580744311	-2.4720764	11.128555	1.9163513
1040621589136644	-2.873825	12.255035	2.382782
1040621597528978	-3.0800018	13.158295	2.5424957
1040621605921312	-3.024704	13.943222	2.2029114
1040621614313646	-2.7183838	14.732132	1.5307617
1040621622705980	-2.0849304	15.40126	1.0270538
1040621631098314	-0.5291443	14.915787	1.6589966
1040621639490648	1.3751526	13.648788	2.0628052
1040621647882982	3.188919	12.7621765	1.9911194
1040621656275316	4.0617523	11.933762	0.5752106
1040621664667650	3.5909119	11.148727	-1.8261871
1040621673059984	1.8973846	10.638901	-3.8822937
1040621681452318	-0.37719727	10.357773	-4.0992584
1040621689844652	-1.5315857	10.032547	-2.97818
1040621698236986	-1.9524689	9.792679	-1.6516266
1040621706629320	-2.223755	9.532028	-0.5831604
1040621715021654	-2.6410522	9.205475	0.03378296
1040621723413988	-3.1159668	8.771759	0.33210754
1040621731806322	-3.2934265	7.9432373	0.8146515
1040621740198656	-3.285492	6.926529	1.489212
1040621748590990	-3.3492737	6.035095	1.7987671
1040621756983324	-3.3940887	5.302765	2.024353
1040621765375658	-3.458374	4.7819977	2.2705994
1040621773767992	-3.6386719	4.5177	2.4506989
1040621782160326	-3.6473541	4.4665833	2.5278778
1040621790552660	-3.1818848	4.674698	2.3122559
1040621798944994	-2.6286316	5.003006	2.00383
1040621807337328	-2.0595398	5.3237915	1.5944519
1040621815729662	-1.3282013	5.528015	1.1707306
1040621824121996	-0.23652649	5.529129	0.9082184
1040621832514330	0.7932739	5.311447	0.7750244
1040621840906664	1.8908997	5.0384064	0.2811432
1040621849298998	3.0492554	4.7664337	-0.32687378
1040621857691332	4.0988464	4.5356903	-0.9849701
1040621866083666	4.8902893	4.3731537	-1.6655579
1040621874476000	5.374939	4.279114	-2.3572388
1040621882868334	5.597	4.208832	-3.0774078
1040621891260668	5.989319	4.058441	-3.6773071
1040621899653002	6.6259766	3.7796173	-4.289337
1040621908045336	7.5730896	3.463562	-5.1065674
1040621916437670	8.65242	3.2415314	-5.8452606
1040621924830004	9.33223	3.276001	-5.8595123
1040621933222338	7.933655	4.356491	-5.1418304
1040621941614672	4.920212	6.3852234	-4.4641876
1040621950007006	3.4001617	7.94458	-3.4671936
1040621958399340	3.1013184	9.589233	-2.5319061
1040621966791674	2.604538	12.466187	-2.1326141
1040621975184008	0.17500305	17.463257	-2.6797638
1040621983576342	-4.092163	21.869019	-5.6289063
1040621991968676	-7.781128	22.34787	-11.225418
1040622000361010	-9.918076	19.56778	-15.881027
1040622008753344	-10.507034	15.442993	-17.579315
1040622017145678	-9.692123	11.482285	-15.926086
1040622025538012	-7.7834625	8.576767	-12.530945
1040622033930346	-5.026703	7.01445	-9.003479
1040622042322680	-3.620346	6.9264526	-5.190567
1040622050715014	-3.157135	7.1480713	-1.8968811
1040622059107348	-2.7306213	7.130707	1.0968628
1040622067499682	-1.8643951	6.8765717	3.6555939
1040622075892016	-0.89990234	7.0390625	4.9947357
1040622084284350	-1.477417	9.068832	5.8615265
1040622092676684	-1.8431549	11.815399	5.6702576
1040622101069018	-1.5761871	15.4175415	6.505188
1040622109461352	-0.7003021	19.125671	6.5530853
1040622117853686	0.4827423	20.731415	3.367752
1040622126246019	1.614624	17.478973	-3.5799103
1040622134638353	3.8643494	11.898636	-6.786026
1040622143030687	5.5721893	7.3703156	-5.2440033
1040622151423021	5.7577667	4.2458496	-2.6841736
1040622159815355	5.1100616	2.1612701	-0.70770264
1040622168207689	4.367859	0.75634766	0.36343384
1040622176600023	3.5381927	0.034194946	1.030838
1040622184992357	2.192688	0.31115723	1.4069824
1040622193384691	1.0241394	1.421814	1.91539
1040622201777025	0.29859924	2.8252563	3.0238647
1040622210169359	-0.16744995	4.720642	4.356079
1040622218561693	-0.60964966	7.3651276	5.673355
1040622226954027	-1.0778351	10.643127	7.2865143
1040622235346361	-0.49658203	12.675018	8.77803
1040622243738695	0.057876587	13.42392	9.922028
1040622252131029	0.84854126	13.098541	9.57019
1040622260523363	1.472641	12.1779175	8.044174
1040622268915697	1.499649	11.115311	6.067856
1040622277308031	0.85491943	10.142227	4.1929474
1040622285700365	0.4851532	9.493149	2.6253967
1040622294092699	-0.57850647	8.8927	-3.1977997
1040622302485033	-2.8681793	8.487579	-12.999695
1040622310877367	-3.9236603	8.453918	-16.174805
1040622319269701	-2.5145874	8.971329	-8.013489
1040622327662035	-1.378952	10.188004	-0.2753601
1040622336054369	-0.42959595	10.649246	3.0270233
1040622344446703	0.4206543	10.37355	3.197754
1040622352839037	0.8670349	9.867126	2.25914
1040622361231371	0.8782501	9.408524	1.2062073
1040622369623705	0.63764954	9.095703	0.47442627
1040622378016039	0.4875641	8.839752	0.12133789
1040622386408373	0.4706726	8.246323	0.11836243
1040622394800707	0.40142822	8.061127	0.7407379
1040622403193041	0.29507446	8.127487	1.5206604
1040622411585375	0.18644714	8.256165	1.8870697
1040622419977709	0.07563782	8.369507	1.6121674
1040622428370043	-0.12454224	8.642044	1.247467
1040622436762377	-0.1111145	8.779037	0.90927124
1040622445154711	-0.30654907	9.2569275	0.67051697
1040622453547045	-0.6608734	9.625	0.5766907
1040622461939379	-1.1526642	9.529724	0.62739563
1040622470331713	-1.6786041	9.044113	0.7330322
1040622478724047	-1.9109039	9.072037	0.65226746
1040622487116381	-1.9606323	9.246353	0.65138245
1040622495508715	-1.9254456	9.273132	0.72343445
1040622503901049	-1.9107819	9.251053	0.83303833
1040622512293383	-1.9019623	9.292099	0.9128113
1040622520685717	-1.8321686	9.489914	0.91130066
1040622529078051	-1.6681671	9.891495	0.85365295
1040622537470385	-1.5904694	10.412262	0.7626648
1040622545862719	-1.519516	10.918213	0.6889496
1040622554255053	-1.1895142	11.328964	-0.9490051
1040622562647387	-0.6024933	11.504272	-4.0354767
1040622571039721	-0.075790405	11.348648	-6.7342987
1040622579432055	-0.37001038	10.974899	-5.195587
1040622587824389	-0.9594116	10.726135	-1.071518
1040622596216723	-0.9674835	10.4019165	3.175705
1040622604609057	-0.45503235	9.782776	5.2844543
1040622613001391	-0.18952942	9.0377655	4.596237
1040622621393725	-0.9002838	8.565933	2.1338196
1040622629786059	-1.9559174	8.721008	0.69847107
1040622638178393	-2.660843	9.694611	-0.48738098
1040622646570727	-2.6971283	10.664169	-1.5869904
1040622654963061	-2.9703827	11.329773	-1.991684
1040622663355394	-3.7816467	11.694504	-1.6657715
1040622671747728	-4.8159485	11.876053	-0.9985657
1040622680140062	-5.2493134	11.711044	-0.38127136
1040622688532396	-4.1395874	11.592087	0.67581177
1040622696924730	-2.8671112	11.308426	1.4360352
1040622705317064	-1.7556915	10.971832	1.7954407
1040622713709398	-0.83140564	10.659988	1.906311
1040622722101732	0.032913208	10.4387665	1.9754486
1040622730494066	0.84947205	10.546448	1.786026
1040622738886400	1.4732666	10.786652	1.458725
1040622747278734	0.68070984	10.831924	1.5699005
1040622755671068	-0.51123047	10.846924	2.0525055
1040622764063402	-1.4766846	11.127029	2.5431213
1040622772455736	-2.2183838	11.969177	2.7096405
1040622780848070	-3.1655273	13.510559	3.1194
1040622789240404	-3.6546936	15.143204	3.632965
1040622797632738	-3.5866394	16.63501	3.8162537
1040622806025072	-3.0077667	17.653107	3.6376343
1040622814417406	-1.8549805	17.872559	3.359787
1040622822809740	0.078308105	17.018936	3.2803192
1040622831202074	2.739273	14.952393	3.1500854
1040622839594408	4.7206726	12.984772	1.562851
1040622847986742	6.781891	11.083206	-1.2568359
1040622856379076	8.107849	9.450607	-3.3900757
1040622864771410	8.006165	8.126022	-3.5570068
1040622873163744	6.3715363	7.009506	-1.7541809
1040622881556078	4.34317	6.521637	-0.120391846
1040622889948412	3.497696	6.0533295	0.85754395
1040622898340746	2.8056488	5.6992188	0.8973694
1040622906733080	2.1663666	5.6893616	0.08451843
1040622915125414	1.3839417	6.097	-1.1795197
1040622923517748	0.09008789	6.664795	-2.1335907
1040622931910082	-1.8005219	6.901367	-2.1435242
1040622940302416	-3.026596	6.939316	-1.7214203
