accelerometer_timestamp	accelerometer_x_data	accelerometer_y_data	accelerometer_z_data
1442741529388470645	1.4003754	10.652298	-0.010543823
1442741529464001651	0.21554565	8.8715515	0.6554413
1442741529472393985	0.2943573	8.660782	0.89704895
1442741529480786319	0.41326904	8.552078	1.1511993
1442741529489178653	0.52156067	8.546036	1.3908844
1442741529497570987	0.59288025	8.621689	1.6388397
1442741529505963321	0.63087463	8.587936	1.774765
1442741529514355655	0.5997009	8.497742	1.722992
1442741529522747989	0.45062256	8.249268	1.8326721
1442741529531140323	0.05682373	8.268509	1.8852386
1442741529539532657	-0.18190002	8.528305	1.9051666
1442741529547924991	-0.40794373	8.933914	1.8814545
1442741529556317325	-0.47483826	9.409988	1.6684418
1442741529564709659	-0.12573242	9.720154	1.2915192
1442741529573101993	0.23716736	10.258774	0.61761475
1442741529581494327	-0.03527832	10.158539	0.53022766
1442741529589886661	0.061935425	9.687698	0.16017151
1442741529598278994	0.0967865	9.393585	0.4393921
1442741529606671328	-0.06718445	9.38678	1.1674652
1442741529615063662	-0.536026	9.893173	1.7558594
1442741529623455996	-1.1285248	10.658356	1.7050934
1442741529631848330	-2.0645294	11.440567	1.7287445
1442741529640240664	-2.376419	11.460281	1.9283905
1442741529648632998	-3.481308	11.497162	2.3026428
1442741529657025332	-4.085861	11.366562	2.5767822
1442741529665417666	-4.1092834	11.417709	2.6480103
1442741529673810000	-3.3920593	12.051559	2.2184448
1442741529682202334	-2.460266	12.949188	1.5063171
1442741529690594668	-1.49617	13.657913	1.1504059
1442741529698987002	-0.79530334	13.056442	1.2729187
1442741529707379336	-0.64889526	11.6884	1.0524445
1442741529715771670	-0.9108124	10.7456665	0.2542572
1442741529724164004	-1.25531	10.151459	-1.0707703
1442741529732556338	-1.4247894	9.976776	-2.0636444
1442741529740948672	-1.2381439	9.972519	-1.8811035
1442741529749341006	0.20233154	9.915115	-0.2635498
1442741529757733340	1.3847046	10.058197	0.03804016
1442741529766125674	2.5322876	11.10936	-0.22210693
1442741529774518008	3.2445068	13.0516815	-0.24571228
1442741529782910342	4.9635468	15.113144	0.49143982
1442741529791302676	7.8488617	16.075317	1.9383545
1442741529799695010	10.205017	15.767639	3.0781708
1442741529808087344	10.320343	14.017502	2.9179535
1442741529816479678	8.648682	12.377548	1.2497253
1442741529824872012	5.6381836	10.830765	-0.20050049
1442741529833264346	2.8955536	10.513565	-0.19689941
1442741529841656680	-0.5758972	10.559113	-0.118392944
1442741529850049014	-3.5713959	10.807175	-0.25228882
1442741529858441348	-5.0595856	11.02095	-0.33035278
1442741529866833682	-6.1380157	10.777847	-0.29077148
1442741529875226016	-6.590393	10.770996	-0.7885742
1442741529883618350	-5.3684387	10.551514	-1.5131989
1442741529892010684	-3.979477	10.273361	-1.6326599
1442741529900403018	-2.155304	9.593475	-1.1795197
1442741529908795352	-0.7811737	8.501511	-0.73638916
1442741529917187686	-0.28720093	7.4654083	-0.7805023
1442741529925580020	0.26704407	6.6677856	-0.81643677
1442741529933972354	0.7220154	6.636078	-0.7667389
1442741529942364688	1.3699493	6.360214	-0.5320282
1442741529950757022	1.3904419	6.080887	-0.22573853
1442741529959149356	1.3609314	5.6959686	0.042892456
1442741529967541690	1.3310394	5.345215	0.14938354
1442741529975934024	1.2703247	5.1230316	0.19204712
1442741529984326358	1.2232819	4.892563	0.44088745
1442741529992718692	1.0382233	4.638092	0.7827606
1442741530001111026	1.045166	4.4844055	0.84880066
1442741530009503360	1.072403	4.407608	0.5836487
1442741530017895694	1.0899963	4.3480225	0.19178772
1442741530026288028	1.1095123	4.3842316	-0.17840576
1442741530034680362	1.131546	4.5150604	-0.4966278
1442741530043072696	1.1405792	4.7942047	-0.96466064
1442741530051465030	1.1782684	5.08638	-1.3356476
1442741530059857364	1.2644043	5.6080627	-1.8436279
1442741530068249698	1.3360596	6.035019	-1.9848022
1442741530076642032	1.4240417	6.593521	-1.9904785
1442741530085034366	1.5524902	7.30809	-1.8399048
1442741530093426700	1.6708832	8.184189	-1.6705933
1442741530101819034	1.4835815	9.609039	-1.6504517
1442741530110211368	0.7433014	10.799988	-1.7275696
1442741530118603702	-1.2541351	13.142151	-2.0926514
1442741530126996036	-2.8050385	14.840118	-2.911499
1442741530135388369	-4.0761566	16.026428	-4.9678955
1442741530143780703	-5.0631866	16.453476	-7.7936096
1442741530152173037	-6.767456	17.028152	-9.365402
1442741530160565371	-10.38298	18.217072	-6.7642365
1442741530168957705	-11.280075	17.1212	-3.9410248
1442741530177350039	-8.184769	12.098206	-3.8951569
1442741530185742373	-6.391815	9.809906	-3.1753693
1442741530194134707	-4.8321686	8.400299	-1.9025421
1442741530202527041	-3.6792603	8.009964	-0.87550354
1442741530210919375	-2.4749603	8.070953	-0.26019287
1442741530219311709	-0.34451294	8.923798	0.1608429
1442741530227704043	2.0896606	10.212418	0.26365662
1442741530236096377	6.8452454	13.963669	0.3976593
1442741530244488711	7.5664215	16.74263	2.033142
1442741530252881045	8.139999	17.927933	2.4191742
1442741530261273379	8.078293	16.375366	0.8705597
1442741530269665713	6.999283	13.317352	-0.57974243
1442741530278058047	4.2275696	9.015106	-0.81347656
1442741530286450381	2.2449493	6.216797	-2.7190094
1442741530294842715	0.8365936	3.4847717	-1.3756409
1442741530303235049	1.1925964	2.760376	2.9686584
1442741530311627383	0.51268005	2.7913055	7.659363
1442741530320019717	-0.39456177	3.968567	8.7278595
1442741530328412051	-0.80844116	5.8125305	7.5490265
1442741530336804385	-0.3869171	7.865082	6.028015
1442741530345196719	0.42962646	8.434006	5.2697296
1442741530353589053	2.649414	8.203644	4.6243896
1442741530361981387	3.5404968	8.973068	3.0007172
1442741530370373721	4.315033	10.662918	-0.113357544
1442741530378766055	4.995636	11.887512	-2.6987915
1442741530387158389	5.598404	12.339432	-3.296524
1442741530395550723	5.304306	11.992279	-1.3736267
1442741530403943057	3.668686	11.426804	-0.8569641
1442741530412335391	-1.4818573	9.999466	0.7023468
1442741530420727725	-1.6112366	8.920761	1.5205994
1442741530429120059	-2.024643	7.8270264	2.776413
1442741530437512393	-2.0023193	7.3098755	3.163269
1442741530445904727	-1.8054199	7.3511047	3.007904
1442741530454297061	-1.8619843	8.094543	2.7216797
1442741530462689395	-1.9828033	8.827972	2.3918152
1442741530471081729	-1.1605377	9.410446	1.1849823
1442741530479474063	-0.58561707	9.590378	0.50639343
1442741530487866397	0.003921509	9.691727	-0.0026245117
1442741530496258731	0.2513275	9.6466675	-0.008911133
1442741530504651065	0.3121643	9.382172	0.15353394
1442741530513043399	0.27372742	8.858154	0.3444519
1442741530521435733	0.23345947	8.533417	0.56721497
1442741530529828067	0.07783508	8.528915	1.462616
1442741530538220401	0.0632782	8.51265	2.1694794
1442741530546612735	0.17402649	8.268982	2.7742767
1442741530555005069	0.41896057	8.134567	2.7219696
1442741530563397403	0.569458	8.17775	2.3359985
1442741530571789737	0.4975586	8.415314	1.8469696
1442741530580182071	0.45191956	8.664124	1.5309143
1442741530588574405	0.5929718	9.175568	1.130722
1442741530596966739	0.5124359	9.484009	0.9422302
1442741530605359073	0.42549133	9.852753	0.83384705
1442741530613751407	0.38494873	10.096817	0.7474365
1442741530622143741	0.32499695	10.21434	0.66316223
1442741530630536075	0.23048401	10.175354	0.65119934
1442741530638928409	0.17704773	10.103668	0.7180786
1442741530647320743	0.012191772	9.753296	0.7485199
1442741530655713077	-0.4761963	9.456848	1.0458221
1442741530664105411	-1.3262024	9.632965	1.7896881
1442741530672497744	-1.9397125	10.33551	1.9505463
1442741530680890078	-2.4471283	11.090164	1.9932709
1442741530689282412	-3.0644531	11.452499	2.2394104
1442741530697674746	-3.7916718	11.41185	2.4683838
1442741530706067080	-4.3630676	11.363846	2.2224884
1442741530714459414	-4.0400543	11.615753	2.1959229
1442741530722851748	-3.3481598	12.396118	1.9563751
1442741530731244082	-2.5337524	13.134705	1.1735382
1442741530739636416	-1.6766052	13.60704	0.4151764
1442741530748028750	-1.208435	13.362274	0.30136108
1442741530756421084	-1.31073	12.574951	0.630661
1442741530764813418	-1.6468048	10.947998	0.27571106
1442741530773205752	-1.6031036	9.953262	-0.5074005
1442741530781598086	-1.5707245	9.625	-0.88049316
1442741530789990420	-1.22435	9.645706	-0.2788086
1442741530798382754	-0.5859833	9.752502	0.45648193
1442741530806775088	0.37394714	9.952896	1.0743866
1442741530815167422	2.1538696	10.891495	0.085128784
1442741530823559756	3.3283997	13.189178	-0.5221405
1442741530831952090	5.1036987	14.949905	0.26782227
1442741530840344424	8.350128	16.177612	2.0400543
1442741530848736758	9.849075	15.904678	2.7703094
1442741530857129092	9.759872	14.607239	2.433731
1442741530865521426	8.063843	12.65683	1.1276093
1442741530873913760	6.171219	11.165817	-0.020629883
1442741530882306094	3.5554047	10.680862	-0.39076233
1442741530890698428	0.2796173	10.3802185	-0.1015625
1442741530899090762	-2.9971619	10.611649	-0.30897522
1442741530907483096	-4.529434	10.383804	0.0440979
1442741530915875430	-5.6044006	9.958603	0.13452148
1442741530924267764	-5.97493	9.80452	-0.35604858
1442741530932660098	-5.6676636	9.981857	-0.94589233
1442741530941052432	-4.0427856	9.8452	-1.6190338
1442741530949444766	-2.506546	9.215439	-1.3311462
1442741530957837100	-1.1207123	7.9680634	-0.8343506
1442741530966229434	-0.4887085	7.204529	-0.7618561
1442741530974621768	-0.073150635	6.7563477	-0.7817688
1442741530983014102	0.25291443	6.565933	-0.81425476
1442741530991406436	0.8821106	6.578125	-0.76808167
1442741530999798770	1.1357269	6.4950104	-0.45791626
1442741531008191104	1.2514496	6.180084	0.032180786
1442741531016583438	1.3279724	5.9071198	0.197052
1442741531024975772	1.3094482	5.6174927	0.40422058
1442741531033368106	1.2025757	5.2621	0.6986847
1442741531041760440	1.161911	4.9059906	0.8638458
1442741531050152774	1.2323456	4.5657654	0.8315582
1442741531058545108	1.2657623	4.398697	0.54881287
1442741531066937442	1.2262726	4.334656	0.16204834
1442741531075329776	1.1289978	4.2408752	-0.15530396
1442741531083722110	1.0731812	4.268509	-0.48124695
1442741531092114444	1.081955	4.5068054	-0.7551117
1442741531100506778	1.0963287	4.7920074	-0.9521637
1442741531108899112	1.1657562	5.214966	-1.2743683
1442741531117291446	1.2539978	5.6510773	-1.5074158
1442741531125683780	1.4451141	6.3227997	-1.7033081
1442741531134076114	1.5057068	7.042099	-1.6079254
1442741531142468448	1.4641266	8.225082	-1.3281403
1442741531150860782	1.1839294	9.848206	-1.0088501
1442741531159253116	0.64915466	11.460663	-0.8727112
1442741531167645450	-0.6525879	13.675812	-1.3889465
1442741531176037784	-1.6285095	14.758835	-2.5979156
1442741531184430118	-2.8903503	14.948669	-4.769989
1442741531192822452	-4.235092	14.684937	-6.8697205
1442741531201214786	-6.4321747	15.291992	-8.187485
1442741531209607119	-8.870636	16.350174	-6.9656067
1442741531217999453	-10.278458	16.480072	-4.478592
1442741531226391787	-8.935593	14.074478	-3.582138
1442741531234784121	-6.3694763	11.871658	-3.6121216
1442741531243176455	-4.0666504	10.519226	-2.692337
1442741531251568789	-3.0037384	10.167343	-2.1678314
1442741531259961123	-1.926239	10.0247345	-1.5985565
1442741531268353457	-0.5673523	10.542358	-1.0697479
1442741531276745791	1.2559204	11.882492	-0.530777
1442741531285138125	4.829956	15.07225	0.8342438
1442741531293530459	7.224701	17.674347	2.1777039
1442741531301922793	7.792801	17.648132	2.71315
1442741531310315127	7.8007507	15.086929	1.5802155
1442741531318707461	6.7759857	10.747131	0.84584045
1442741531327099795	4.945511	6.737076	0.5348358
1442741531335492129	3.3570862	4.176285	0.13386536
1442741531343884463	2.5077362	2.1670074	0.545166
1442741531352276797	2.5925598	1.2373505	3.2389984
1442741531360669131	1.9281921	2.2398376	7.3712616
1442741531369061465	1.3933868	4.3949585	7.907364
1442741531377453799	1.3601379	7.0786285	7.0153656
1442741531385846133	1.6057892	8.870346	5.7136993
1442741531394238467	1.8683014	9.595032	4.6851807
1442741531402630801	2.558487	9.7894745	3.1156769
1442741531411023135	2.9226227	10.282135	1.6034393
1442741531419415469	3.8536682	11.039154	-1.1171417
1442741531427807803	4.6129913	11.595047	-2.1554718
1442741531436200137	3.9378052	12.032761	-1.332962
1442741531444592471	2.3311157	11.834427	2.1362305E-4
1442741531452984805	0.6261444	11.030106	0.7526245
1442741531461377139	-1.2998962	9.544556	1.5524597
1442741531469769473	-1.0831299	8.720322	2.0031433
1442741531478161807	-1.2430115	7.6091156	3.0152283
1442741531486554141	-1.0904694	7.2233887	2.9065704
1442741531494946475	-1.0513	7.6818542	2.7219543
1442741531503338809	-1.1246033	8.546661	2.3107452
1442741531511731143	-1.1532135	9.17923	1.6871185
1442741531520123477	-1.0245209	9.427124	0.9949951
1442741531528515811	-0.9165497	9.487106	0.8125
1442741531536908145	-0.7077637	9.570633	0.8397827
1442741531545300479	-0.53500366	9.502426	0.7896576
1442741531553692813	-0.4746399	9.156891	0.6865692
1442741531562085147	-0.46974182	8.76712	0.7441864
1442741531570477481	-0.4863739	8.456497	1.0402985
1442741531578869815	-0.47956848	8.24913	1.6725006
1442741531587262149	-0.18312073	8.3185425	2.1822968
1442741531595654483	-0.12628174	8.409225	2.185257
1442741531604046817	0.028335571	8.404312	1.840744
1442741531612439151	0.02633667	8.415573	1.604599
1442741531620831485	-0.08929443	8.623566	1.3341064
1442741531629223819	-0.23243713	8.921127	1.045578
1442741531637616153	-0.43432617	9.234238	0.94763184
1442741531646008487	-0.61595154	9.60524	1.0153198
1442741531654400821	-1.0341797	10.050537	1.1430511
1442741531662793155	-0.89967346	10.05397	1.0213776
1442741531671185489	-0.93055725	9.935165	1.0588379
1442741531679577823	-1.0155182	9.71669	1.1300507
1442741531687970157	-1.0660248	9.44928	1.1918182
1442741531696362491	-1.0745697	9.20607	1.3215332
1442741531704754825	-1.0540161	9.186371	1.4723358
1442741531713147159	-1.3815918	9.442215	1.8681335
1442741531721539493	-1.6429291	9.939178	2.2588348
1442741531729931827	-2.0495148	10.730682	2.3762665
1442741531738324743	-2.3255005	11.383316	2.595169
1442741531746717076	-2.632904	11.80748	2.9483032
1442741531755109410	-2.9670563	11.911758	3.0645447
1442741531763501744	-2.8565369	11.839798	2.6978302
1442741531771894078	-2.1651	12.074951	2.3174133
1442741531780286412	-1.8755035	12.817795	1.5728607
1442741531788678746	-1.0820618	13.56897	0.21548462
1442741531797071080	-0.6128082	13.43898	-0.23600769
1442741531805463414	-0.63093567	12.424072	0.052352905
1442741531813855748	-1.1226501	10.684814	0.5007019
1442741531822248082	-1.5227814	9.590683	0.36961365
1442741531830640416	-1.8751221	8.650116	-0.4220581
1442741531839032750	-1.7988586	8.582443	-0.6525421
1442741531847425084	-1.3619843	8.664124	0.022964478
1442741531855817418	-0.39987183	8.951828	0.39682007
1442741531864209752	0.72380066	9.538208	0.1676178
1442741531872602086	1.6828613	10.911148	-0.61802673
1442741531880994420	2.321228	12.727493	-1.2545929
1442741531889386754	5.1995087	15.6592865	0.03201294
1442741531897779088	7.894211	16.34732	1.9410095
1442741531906171422	10.088333	16.381348	3.1810455
1442741531914563756	9.902878	15.016663	2.5978546
1442741531922956090	8.334106	12.882919	1.113327
1442741531931348424	5.5491943	10.969742	-0.24316406
1442741531939740758	2.762268	10.364838	-0.41212463
1442741531948133092	-0.3827057	10.230362	0.27020264
1442741531956525426	-2.96167	10.477982	-0.111068726
1442741531964917760	-5.1341705	10.609543	-0.03805542
1442741531973310094	-6.1728973	10.447403	0.011001587
1442741531981702428	-6.7334747	10.375656	-0.39385986
1442741531990094762	-6.102051	10.314575	-1.003479
1442741531998487096	-4.378845	9.925415	-1.0543671
1442741532006879430	-2.7577057	9.472061	-1.0835876
1442741532015271764	-1.9120483	8.531296	-0.9482269
1442741532023664098	-1.0830383	7.4794617	-0.7770691
1442741532032056432	-0.51200867	6.8915405	-0.6420288
1442741532040448766	0.14169312	6.5718994	-0.6287079
1442741532048841100	0.72984314	6.401123	-0.5597687
1442741532057233434	0.97517395	6.1682587	-0.23452759
1442741532065625768	1.2580109	5.992523	0.015029907
1442741532074018102	1.4422302	5.852005	0.12556458
1442741532082410436	1.4477692	5.7981415	0.45619202
1442741532090802770	1.4725952	5.6124573	0.6885071
1442741532099195104	1.4961853	5.304886	0.9220276
1442741532107587438	1.4521332	5.0583344	1.0354309
1442741532115979772	1.3769836	4.9674683	0.8938904
1442741532124372106	1.3730164	4.498108	0.19142151
1442741532132764440	1.1759491	4.326767	-0.123031616
1442741532141156774	1.0900269	4.2772217	-0.5602875
1442741532149549108	1.2467804	4.444458	-0.8040619
1442741532157941442	1.394989	4.721527	-1.0688477
1442741532166333776	1.4736481	5.094742	-1.4271545
1442741532174726110	1.5571136	5.5082245	-1.7499084
1442741532183118444	1.6777954	6.256851	-1.7185516
1442741532191510778	1.7729034	6.90889	-1.4915009
1442741532199903112	1.6758881	8.071259	-1.1615906
1442741532208295446	1.2862244	9.231796	-0.93040466
1442741532216687780	0.26078796	10.804077	-0.81062317
1442741532225080114	-1.3728638	12.623962	-1.0894928
1442741532233472448	-2.9023438	14.143402	-1.8210754
1442741532241864782	-4.3281555	15.2715	-3.8563232
1442741532250257116	-4.957062	15.466858	-5.8013
1442741532258649450	-6.3823395	16.32547	-8.805481
1442741532267041784	-8.924454	17.604477	-7.544281
1442741532275434118	-10.721313	17.50476	-4.995453
1442741532283826451	-9.671707	14.888321	-3.7826233
1442741532292218785	-7.023285	11.622467	-4.0118866
1442741532300611119	-4.6601563	9.515472	-2.6625977
1442741532309003453	-3.655136	8.890854	-1.9677277
1442741532317395787	-2.703247	8.330856	-0.9483948
1442741532325788121	-1.9036255	8.420792	-0.2711029
1442741532334180455	-0.019363403	9.208084	0.27235413
1442741532342572789	3.063858	11.429855	0.67951965
1442741532350965123	5.992584	14.630341	1.3766632
1442741532359357457	7.727844	18.659851	3.2196808
1442741532367749791	8.536652	19.131927	2.8109894
1442741532376142125	8.300903	14.933365	-0.06765747
1442741532384534459	6.027878	10.855591	0.23382568
1442741532392926793	3.8425446	6.6524353	-0.99095154
1442741532401319127	2.7905579	3.6636963	-1.4095612
1442741532409711461	2.4549866	2.1267548	1.078949
1442741532418103795	2.3132935	2.5449219	6.6805267
1442741532426496129	1.5361633	3.8344269	9.46347
1442741532434888463	0.22946167	5.9119415	7.769455
1442741532443280797	0.192276	7.0106964	6.5081787
1442741532451673131	0.78959656	7.896652	5.185196
1442741532460065465	1.843216	8.493881	4.0548553
1442741532468457799	2.8340454	9.092545	2.9872894
1442741532476850133	3.6800385	10.208145	0.9631958
1442741532485242467	4.740753	11.226028	-1.582367
1442741532493634801	5.7388306	12.46637	-1.8392181
1442741532502027135	5.6073456	12.250351	-1.7582703
1442741532510419469	4.4812164	11.537506	-1.2502289
1442741532518811803	2.4936981	10.419495	-0.04598999
1442741532527204137	0.2822113	8.897827	2.7002869
1442741532535596471	-0.83958435	7.689636	3.3459473
1442741532543988805	-1.375946	7.1884003	2.8824158
1442741532552381139	-1.8366089	7.134613	2.5332031
1442741532560773473	-2.1716309	7.8549347	2.5159302
1442741532569165807	-2.2634125	9.036758	2.3043976
1442741532577558141	-2.1736145	9.541473	1.632431
1442741532585950475	-2.0262146	9.737061	1.0352325
1442741532594342809	-1.8557129	9.789337	0.76960754
1442741532602735143	-1.4205017	9.808777	0.5411072
1442741532611127477	-0.9831238	9.694138	0.3733673
1442741532619519811	-0.7276459	9.349319	0.38861084
1442741532627912145	-0.42700195	8.96727	0.75476074
1442741532636304479	-0.16703796	8.622253	1.4865417
1442741532644696813	0.0079956055	8.373306	2.1407318
1442741532653089147	0.055984497	8.315903	2.3737793
1442741532661481481	0.4754181	8.417801	2.3866577
1442741532669873815	0.49131775	8.287094	2.2892303
1442741532678266149	0.5016937	8.122498	2.1967773
1442741532686658483	0.4976349	8.206207	1.9164581
1442741532695050817	0.4235382	8.535843	1.539154
1442741532703443151	0.19474792	9.095673	1.316391
1442741532711835485	-0.030593872	9.518936	1.0782013
1442741532720227819	-0.19189453	10.020004	0.8392639
1442741532728620153	-0.12490845	10.08226	0.7360687
1442741532737012487	-0.07925415	9.909164	0.7277069
1442741532745404821	-0.1449585	9.716049	0.88931274
1442741532753797155	-0.2931366	9.727646	1.1046753
1442741532762189489	-0.5947418	10.131973	1.2950897
1442741532770581823	-0.99916077	10.541534	1.4990082
1442741532778974157	-1.484909	11.227432	1.8561096
1442741532787366491	-2.0711212	11.607956	1.7250519
1442741532795758825	-2.910965	11.745529	1.7327576
1442741532804151159	-3.754425	11.396637	2.002182
1442741532812543493	-4.369873	10.898468	2.3140106
1442741532820935826	-4.381485	10.890106	2.3338165
1442741532829328160	-3.8699799	11.76918	1.9593964
1442741532837720494	-2.7451935	13.516403	0.83128357
1442741532846112828	-1.8782654	13.820358	0.7045288
1442741532854505162	-1.3221741	13.028824	0.9891815
1442741532862897496	-1.1722565	11.693314	1.0196075
1442741532871289830	-1.1753387	10.515198	0.539093
1442741532879682164	-1.3168182	9.791672	-0.3270111
1442741532888074498	-1.4230652	9.816513	-0.61660767
1442741532896466832	-0.7723541	9.7673645	0.24208069
1442741532904859166	0.6243744	9.952393	0.64027405
1442741532913251500	1.7611542	10.6010895	0.28967285
1442741532921643834	2.5900574	11.9444275	-0.3925171
1442741532930036168	3.905716	13.691605	-0.46359253
1442741532938428502	6.565033	15.397797	0.78990173
1442741532946820836	8.922943	15.898163	1.848053
1442741532955213170	10.562195	15.4122925	2.6634521
1442741532963605504	9.296707	13.717545	1.5744629
1442741532971997838	7.0436554	11.45462	0.1366272
1442741532980390172	4.323242	10.479553	-0.19593811
1442741532988782506	1.4512329	10.298462	0.13998413
1442741532997174840	-1.5631866	10.315674	0.26385498
1442741533005567174	-3.8405457	10.542725	-0.24508667
1442741533013959508	-5.802826	10.403305	0.29814148
1442741533022351842	-6.994644	10.727173	-0.2339325
1442741533030744176	-6.750122	10.564758	-0.5489044
1442741533039136510	-5.3769073	10.106857	-0.79704285
1442741533047528844	-3.7146301	9.607849	-1.1066132
1442741533055921178	-2.01503	8.961014	-1.2705994
1442741533064313512	-0.8746033	8.201874	-1.0538177
1442741533072705846	-0.2744751	7.0839844	-0.653595
1442741533081098180	0.15136719	6.8937836	-0.7658539
1442741533089490514	0.903183	6.6634216	-0.745636
1442741533097882848	1.4852753	6.426941	-0.49676514
1442741533106275182	1.8511658	6.1832886	-0.30195618
1442741533114667516	1.8959961	5.901169	-0.23953247
1442741533123059850	1.710083	5.6021576	-0.009063721
1442741533131452184	1.7363586	5.466858	0.20558167
1442741533139844518	1.5632782	5.2809296	0.60227966
1442741533148236852	1.5094452	4.9743195	0.8539429
1442741533156629186	1.5076294	4.777237	0.7492676
1442741533165021520	1.4780121	4.5613556	0.4443512
1442741533173413854	1.3635254	4.2899017	0.029937744
1442741533181806188	1.1977081	4.158066	-0.26942444
1442741533190198522	1.0805511	4.1711426	-0.69488525
1442741533198590856	1.2005005	4.411911	-0.98020935
1442741533206983190	1.2556763	4.797241	-1.4510193
1442741533215375524	1.303421	5.191635	-1.8662262
1442741533223767858	1.3560944	5.6914673	-2.0559387
1442741533232160192	1.3203735	6.410431	-1.8700714
1442741533240552526	1.1814117	7.1584473	-1.6098633
1442741533248944860	1.2771454	8.771744	-1.332367
1442741533257337194	1.0269623	10.1957855	-1.2826843
1442741533265729528	-0.07034302	12.196426	-1.3160858
1442741533274121862	-1.50177	13.786148	-1.8961945
1442741533282514196	-2.892334	14.908463	-3.1651611
1442741533290906530	-4.0513	15.113571	-5.2608185
1442741533299298864	-5.059128	14.801987	-7.2542725
1442741533307691198	-7.2416077	15.458466	-8.311539
1442741533316083532	-9.340775	16.028244	-6.179825
1442741533324475866	-9.904175	14.95343	-4.04776
1442741533332868200	-8.211548	12.877319	-3.726715
1442741533341260534	-6.0113983	10.634476	-3.4285736
1442741533349652868	-4.286621	9.213821	-2.6223755
1442741533358045201	-3.2266998	8.909454	-1.9847565
1442741533366437535	-2.1548615	9.318222	-0.94810486
1442741533374829869	-1.4437103	9.871719	-0.45973206
1442741533383222203	0.93937683	11.380829	0.37472534
1442741533391614537	4.363907	13.709198	0.8547363
1442741533400006871	6.7321167	16.59227	2.295807
1442741533408399205	7.413452	18.338013	3.556305
1442741533416791539	7.9039917	17.746735	2.8174438
1442741533425183873	6.679291	12.6714325	0.58602905
1442741533433576207	4.3453064	9.225311	1.050415
1442741533441968541	3.4706573	5.55394	-0.68711853
1442741533450360875	3.179718	3.8416595	0.5302124
1442741533458753209	2.5062714	2.8958435	3.8783112
1442741533467145543	1.6902924	2.9597626	7.171768
1442741533475537877	1.2154846	3.6952972	8.29631
1442741533483930211	0.51524353	5.3670044	6.73909
1442741533492322545	0.6788788	6.569107	5.3724976
1442741533500714879	1.1542358	7.775879	3.5891724
1442741533509107213	2.1296844	8.715363	2.5335236
1442741533517499547	2.780182	10.183441	1.2842865
1442741533525891881	3.4686432	12.000626	-0.4769287
1442741533534284215	4.625656	13.30365	-2.0541534
1442741533542676549	5.2132416	12.971725	-1.7222137
1442741533551068883	3.8637848	11.367783	-1.3349304
1442741533559461217	1.7855682	9.500793	1.4142151
1442741533567853551	0.06088257	8.516815	4.091385
1442741533576245885	-0.96881104	7.835312	5.205597
1442741533584638219	-1.2268066	7.5401306	4.3157654
1442741533593030553	-1.367981	7.6074677	3.2495575
1442741533601422887	-1.3555756	8.616089	2.7825012
1442741533609815221	-1.859375	9.041931	1.6737823
1442741533618207555	-1.3791351	9.341797	0.6641693
1442741533626599889	-1.0632477	9.47403	0.40545654
1442741533634992223	-0.6663513	9.66272	0.3113556
1442741533643384557	-0.2507782	9.706009	0.4880371
1442741533651776891	0.14352417	9.575012	0.75608826
1442741533660169225	0.79992676	9.35379	0.68481445
1442741533668561559	1.0184021	8.75148	0.6548157
1442741533676953893	0.78097534	8.360687	1.7061157
1442741533685346227	0.6351013	8.2113495	2.5299377
1442741533693738561	0.42080688	8.041031	2.9439545
1442741533702130895	0.30122375	7.896179	2.8874512
1442741533710523229	0.32806396	7.8079376	2.6892395
1442741533718915563	0.33099365	7.8598633	2.236435
1442741533727307897	0.088516235	8.241989	1.7823334
1442741533735700231	-0.29211426	9.050262	1.2432861
1442741533744092565	-0.48294067	9.596222	0.91677856
1442741533752484899	-0.5414276	10.068466	0.6488342
1442741533760877233	-0.48349	10.255005	0.60539246
1442741533769269567	-0.40252686	10.210907	0.74105835
1442741533777661901	-0.2655487	9.941177	1.0302429
1442741533786054235	-0.13360596	9.750107	1.1878967
1442741533794446569	-0.17887878	9.630142	1.3291626
1442741533802838903	-0.43974304	9.399124	1.5250397
1442741533811231237	-1.0287476	9.460892	1.7717896
1442741533819623571	-1.6502075	9.886459	1.7932739
1442741533828015905	-2.1059418	10.400345	1.6766968
1442741533836408239	-2.5836792	10.891525	1.839447
1442741533844800573	-3.2682648	11.152863	2.4229279
1442741533853192907	-3.8791046	11.086533	2.8387756
1442741533861585241	-3.9020844	11.337479	2.6962128
1442741533869977575	-3.312561	11.829346	2.3218536
1442741533878369909	-2.7953644	12.28421	1.8304596
1442741533886762243	-2.3216095	12.504059	1.0562897
1442741533895154576	-1.284256	12.35582	-0.35575867
1442741533903546910	-1.0075073	12.188751	-0.88098145
1442741533911939244	-1.4502869	11.684189	-0.15562439
1442741533920331578	-1.5895691	10.700195	0.048187256
1442741533928723912	-1.606247	9.458374	-0.075149536
1442741533937116246	-1.4272919	8.871582	-0.011550903
1442741533945508580	-1.1653595	8.921082	0.38726807
1442741533953900914	-0.64430237	9.480743	0.90960693
1442741533962293248	0.2930603	9.973404	0.9961395
1442741533970685582	0.740921	11.049713	0.47094727
1442741533979077916	1.1878815	12.258041	-0.24261475
1442741533987470250	3.188736	14.360947	0.28445435
1442741533995862584	5.6991577	16.370132	1.3827972
1442741534004254918	7.776886	17.61673	2.131668
1442741534012647252	9.419373	17.746109	2.2987366
1442741534021039586	9.577972	15.437424	1.4473724
1442741534029431920	7.079117	12.556061	-0.6999054
1442741534037824254	5.1256104	11.044662	-1.0434723
1442741534046216588	1.8365021	9.769409	-0.96661377
1442741534054608922	-0.9386749	9.432739	-0.32585144
1442741534063001256	-3.0216827	9.598465	0.34899902
1442741534071393590	-4.9392395	10.103134	0.7637024
1442741534079785924	-6.7102203	9.926895	0.37268066
1442741534088178258	-6.628998	10.022629	-0.073791504
1442741534096570592	-5.8032074	10.080994	-0.70536804
1442741534104962926	-4.2864227	9.962372	-1.2111206
1442741534113355260	-2.4593658	9.600403	-1.4427795
1442741534121747594	-0.59750366	8.769455	-1.3195496
1442741534130139928	-0.19480896	8.077164	-1.2492981
1442741534138532262	0.158432	7.9102325	-0.8924103
1442741534146924596	0.5482025	7.793762	-0.56048584
1442741534155316930	1.0712585	7.5087433	-0.1537323
1442741534163709264	1.4086456	7.2364655	0.04748535
1442741534172101598	1.5109253	6.9175415	0.15792847
1442741534180493932	1.407135	6.3649445	0.40098572
1442741534188886266	1.3899994	6.0487823	0.62290955
1442741534197278600	1.3863678	5.5026093	1.1407776
1442741534205670934	1.4162445	5.3042145	1.1700592
1442741534214063268	1.4151306	4.883774	0.8070221
1442741534222455602	1.3855438	4.5795746	0.41903687
1442741534230847936	1.3153229	4.3853455	0.06515503
1442741534239240270	1.2109528	4.175598	-0.38327026
1442741534247632604	1.2297974	4.0444946	-0.59147644
1442741534256024938	1.3110199	4.147354	-0.734375
1442741534264417272	1.5603485	4.3075714	-0.8945923
1442741534272809606	1.634903	4.612671	-1.0479279
1442741534281201940	1.5278778	5.002228	-1.1970062
1442741534289594274	1.4005737	5.5086365	-1.315445
1442741534297986608	1.3542175	6.260742	-1.2761688
1442741534306378942	1.3944855	6.933319	-1.089386
1442741534314771276	1.4631195	8.324997	-0.84606934
1442741534323163610	1.2129364	9.376282	-0.74754333
1442741534331555944	0.31391907	10.816895	-0.72724915
1442741534339948278	-0.97036743	12.356644	-1.0862122
1442741534348340612	-2.346527	13.982773	-2.0790558
1442741534356732946	-3.5768433	15.242218	-3.9632874
1442741534365125280	-4.251999	15.392166	-5.4969635
1442741534373517614	-5.3632355	15.483551	-8.903107
1442741534381909948	-7.279907	16.684784	-9.270676
1442741534390302282	-10.080444	17.828262	-6.226227
1442741534398694616	-9.629868	16.721634	-4.3000336
1442741534407086950	-7.131592	14.703583	-3.2957153
1442741534415479284	-4.3018646	13.375198	-2.1597443
1442741534423871618	-2.932663	13.296387	-1.4271698
1442741534432263951	-1.6190491	11.94516	-1.2425079
1442741534440656285	-0.35523987	11.851761	-0.82095337
1442741534449048619	1.5480499	13.152679	0.28967285
1442741534457440953	3.8015442	14.777863	1.3119202
1442741534465833287	5.9328003	15.117645	1.7046967
1442741534474225621	6.747116	12.725281	1.2159729
1442741534482617955	6.0621643	9.570068	0.7919464
1442741534491010289	5.1845245	5.8911896	1.3709564
1442741534499402623	3.9456024	4.732788	1.2578583
1442741534507794957	3.3095703	3.329605	1.4910583
1442741534516187291	3.1246338	2.4866486	3.1255188
1442741534524579625	2.802246	2.3857727	5.488205
1442741534532971959	2.4505157	3.5756683	7.375351
1442741534541364293	2.4792175	5.2738647	7.810211
1442741534549756627	1.8524628	7.671631	6.6268463
1442741534558148961	1.9269867	8.495865	5.4787445
1442741534566541295	2.0425415	9.306152	3.6237183
1442741534574933629	2.3666077	10.052673	1.4230652
1442741534583325963	2.6203613	11.051102	-0.7740631
1442741534591718297	2.6887512	12.022629	-2.1961212
1442741534600110631	2.7730103	12.402481	-2.5532837
1442741534608502965	2.625885	12.225113	-0.41362
1442741534616895299	1.4357758	11.747009	-0.17030334
1442741534625287633	-0.02633667	10.545456	-0.12730408
1442741534633679967	-0.17425537	9.365326	0.91148376
1442741534642072301	0.27453613	8.297577	2.6840363
1442741534650464635	0.35839844	7.7280273	3.9741058
1442741534658856969	-0.33416748	7.708908	3.8578796
1442741534667249303	-0.6197052	8.335571	2.8073425
1442741534675641637	-1.1320648	8.990158	2.2281494
1442741534684033971	-1.1676483	9.631027	1.4589386
1442741534692426305	-1.0435486	9.711334	0.9539032
1442741534700818639	-1.1227875	9.47641	0.6740875
1442741534709210973	-1.1914673	9.121613	0.6871033
1442741534717603307	-0.95861816	8.920395	0.79678345
1442741534725995641	-0.7888489	8.753571	0.95210266
1442741534734387975	-0.62519836	8.581345	0.8972626
1442741534742780309	-0.24890137	8.437592	1.1954193
1442741534751172643	-0.06793213	8.42215	1.5346985
1442741534759564977	0.18173218	8.476898	1.9100037
1442741534767957311	0.47091675	8.573303	2.130844
1442741534776349645	0.62524414	8.639191	2.1127014
1442741534784741979	0.5943756	8.618652	1.9069214
1442741534793134313	0.48042297	8.687195	1.7775269
1442741534801526647	0.103881836	8.890045	1.6066437
1442741534809918981	-0.1483612	9.139496	1.405899
1442741534818311315	-0.35002136	9.375168	1.2315826
1442741534826703649	-0.4324646	9.61232	1.107132
1442741534835095983	-0.43481445	9.843826	1.0218658
1442741534843488317	-0.49964905	9.873337	1.0937347
1442741534851880651	-0.5142212	9.744812	1.0757446
1442741534860272985	-0.65489197	9.602921	1.0063324
1442741534868665319	-0.6290436	9.501999	0.9106903
1442741534877057653	-0.73091125	9.415253	1.0214081
1442741534885449987	-1.1106415	9.37468	1.4645844
1442741534893842321	-1.6216736	9.441574	2.0029144
1442741534902234655	-2.292694	9.932404	2.4140472
1442741534910626989	-2.5831451	10.352249	2.1330109
1442741534919019323	-2.4288177	10.862854	2.261734
1442741534927411657	-2.7583313	11.158356	2.6422882
1442741534935803991	-2.9328613	11.369919	2.9069977
1442741534944196325	-2.596161	11.684494	2.894104
1442741534952588659	-2.0108032	12.246231	2.6005096
1442741534960980993	-1.2832336	13.2682495	1.459198
1442741534969373326	-0.6526184	13.748932	0.4490204
1442741534977765660	-0.15063477	13.515869	0.26651
1442741534986157994	-0.60440063	12.406921	0.6617737
1442741534994550328	-1.2811584	10.878693	0.66841125
1442741535002942662	-1.8179626	9.818848	0.20022583
1442741535011334996	-2.0719604	9.403152	-0.2781067
1442741535019727330	-1.8292999	9.319809	-0.36213684
1442741535028119664	-1.3417816	9.402054	0.29673767
1442741535036511998	-0.09132385	9.511765	1.1097412
1442741535044904332	0.9629364	9.843384	0.55973816
1442741535053296666	1.7440491	10.846222	-0.628067
1442741535061689000	2.818924	12.54866	-1.0315552
1442741535070081334	4.665344	14.397491	-0.3540039
1442741535078473668	7.8393555	16.032135	1.0300446
1442741535086866002	10.020767	16.33287	1.802887
1442741535095258336	10.388168	14.693192	2.274765
1442741535103650670	8.671326	12.6753235	1.2118988
1442741535112043004	6.0073395	10.71788	0.18988037
1442741535120435338	3.1206818	9.902573	0.09454346
1442741535128827672	0.28945923	9.838165	0.55862427
1442741535137220006	-2.8582	10.201736	0.91539
1442741535145612340	-4.6480865	11.011444	0.582077
1442741535154004674	-5.565857	10.704742	0.11062622
1442741535162397008	-6.6412506	10.810379	-0.6812744
1442741535170789342	-5.9396515	10.676666	-1.4423523
1442741535179181676	-4.329468	10.402832	-1.943161
1442741535187574010	-2.959381	10.09462	-2.069641
1442741535195966344	-1.4728394	9.557404	-1.4116211
1442741535204358678	-0.47711182	8.246124	-1.061264
1442741535212751012	-0.3588562	7.3295593	-1.0709686
1442741535221143346	0.11216736	7.2076416	-0.9058838
1442741535229535680	0.61528015	6.9579315	-0.45283508
1442741535237928014	0.83891296	6.567978	-0.10644531
1442741535246320348	0.8721924	6.154724	0.04598999
1442741535254712682	0.81222534	5.730591	0.11798096
1442741535263105016	0.93055725	5.578903	0.096191406
1442741535271497350	0.86979675	5.4567413	0.35487366
1442741535279889684	0.8786621	5.21669	0.631073
1442741535288282018	0.9794159	4.9704437	0.7559967
1442741535296674352	1.0623627	4.827881	0.69773865
1442741535305066686	1.053482	4.7661896	0.3269043
1442741535313459020	1.0963135	4.5125732	0.0158844
1442741535321851354	1.4462738	4.191757	-0.3323059
1442741535330243688	1.1469421	4.349518	-0.7355499
1442741535338636022	0.9692383	4.539917	-1.0619354
1442741535347028356	0.88108826	4.799408	-1.2992554
1442741535355420690	0.81399536	5.1450806	-1.5675507
1442741535363813024	0.8738556	5.631256	-1.8839874
1442741535372205358	0.83529663	6.0682373	-1.9285431
1442741535380597692	0.8864136	7.0191193	-1.7320404
1442741535388990026	0.8036194	7.8575897	-1.6834106
1442741535397382360	0.46214294	9.107803	-1.7155457
1442741535405774694	-0.35057068	10.592224	-1.7723389
1442741535414167028	-1.6010437	12.28479	-1.9672852
1442741535422559362	-3.346756	14.385376	-2.771164
1442741535430951696	-4.2258606	15.582352	-3.8293304
1442741535439344030	-5.225754	16.096191	-7.1369934
1442741535447736364	-6.9930573	16.937164	-8.837219
1442741535456128698	-10.180649	17.794434	-7.1119995
1442741535464521032	-10.974136	16.555038	-4.8670197
1442741535472913366	-9.130615	13.798859	-3.9742584
1442741535481305700	-5.817444	10.849945	-3.6478577
1442741535489698034	-4.4911346	9.907455	-2.3652344
1442741535498090368	-3.3621826	9.457108	-1.2740326
1442741535506482701	-2.299759	9.188919	-0.6956787
1442741535514875035	-0.358078	9.258713	0.048690796
1442741535523267369	2.061203	10.529449	0.52568054
1442741535531659703	4.954239	13.096497	0.83070374
1442741535540052037	7.8607025	16.81137	1.5315704
1442741535548444371	8.201706	18.63292	2.9272919
1442741535556836705	8.367966	16.498322	0.5818939
1442741535565229039	6.6200867	12.37027	-0.19265747
1442741535573621373	3.9435577	7.914459	-1.1369019
1442741535582013707	2.387619	5.136627	-1.4316559
1442741535590406041	1.8627472	3.3722534	0.0637207
1442741535598798375	1.6697388	2.5398712	4.698517
1442741535607190709	0.89604187	2.6101227	8.735825
1442741535615583043	-0.28137207	4.770172	8.975586
1442741535623975377	0.049362183	6.2353363	7.4598694
1442741535632367711	0.46453857	7.421631	5.910736
1442741535640760045	1.0651245	7.7921906	4.7966156
1442741535649152379	1.9685364	8.201508	3.6733704
1442741535657544713	2.9151917	9.426987	2.0449371
1442741535665937047	3.0556946	10.874115	0.29364014
1442741535674329381	4.5180054	12.278534	-2.874237
1442741535682721715	5.209442	12.634964	-2.1836548
1442741535691114049	4.189636	12.354996	-0.5501709
1442741535699506383	2.2490234	11.316132	0.1273346
1442741535707898717	0.33390808	9.874329	0.66529846
1442741535716291051	-0.8158417	8.360962	1.9669495
1442741535724683385	-0.9319763	7.477127	3.1865692
1442741535733075719	-1.163971	7.232071	2.6748047
1442741535741468053	-1.2076721	7.7298737	2.7005157
1442741535749860387	-1.4043579	8.512512	2.515854
1442741535758252721	-1.3836365	9.111755	1.9143829
1442741535766645055	-1.1781464	9.478775	1.1371918
1442741535775037389	-0.93066406	9.548752	0.54989624
1442741535783429723	-0.8457794	9.522354	0.40509033
1442741535791822057	-0.71850586	9.377396	0.36514282
1442741535800214391	-0.5779877	9.1323395	0.2211914
1442741535808606725	-0.47348022	8.983398	0.13438416
1442741535816999059	-0.45645142	8.839111	0.43255615
1442741535825391393	-0.4474182	8.586563	1.2335663
1442741535833783727	-0.36541748	8.355652	2.2341614
1442741535842176061	-0.21951294	8.354004	2.5978851
1442741535850568395	-0.048034668	8.064423	2.390442
1442741535858960729	0.11732483	8.096985	2.1368256
1442741535867353063	0.014602661	8.312454	1.845047
1442741535875745397	-0.09434509	8.609314	1.5308533
1442741535884137731	-0.19932556	9.0061035	1.2151794
1442741535892530065	-0.3004303	9.489426	1.0068207
1442741535900922399	-0.33235168	9.881897	0.9222107
1442741535909314733	-0.072509766	10.111298	0.8205414
1442741535917707067	0.21537781	10.071884	1.0527344
1442741535926099401	0.23460388	9.989899	1.1612396
1442741535934491735	0.3434143	9.90181	0.8729248
1442741535942884069	0.37882996	9.801941	0.639801
1442741535951276403	0.09623718	9.675873	0.75990295
1442741535959668737	-0.3804016	9.569321	1.0831604
1442741535968061071	-1.2843628	9.825378	1.8963165
1442741535976453405	-2.0023804	10.40802	2.4052734
1442741535984845739	-2.796753	11.246414	2.4453583
1442741535993238073	-3.2451782	11.706055	2.649826
1442741536001630407	-3.7516174	12.035187	2.855423
1442741536010022741	-4.0621185	12.269089	2.8142853
1442741536018415075	-3.8942566	12.502045	2.5168915
1442741536026807409	-3.066864	13.296448	1.3222504
1442741536035199743	-2.5562134	14.071854	0.4526062
1442741536043592076	-1.619873	14.122147	0.031295776
1442741536051984410	-1.2534943	13.06105	0.26766968
1442741536060376744	-1.2097168	11.484741	0.35256958
1442741536068769078	-1.3863678	10.046082	-0.0786438
1442741536077161412	-1.5114746	9.219086	-0.69021606
1442741536085553746	-1.3065796	8.935867	-1.0562439
1442741536093946080	-0.891037	8.951294	-0.53616333
1442741536102338414	0.18943787	9.057571	0.37594604
1442741536110730748	1.1417847	9.38707	0.046813965
1442741536119123082	2.2051392	10.466614	-0.9348297
1442741536127515416	3.506775	12.453415	-1.4162292
1442741536135907750	5.1759644	14.54332	-0.7246399
1442741536144300084	8.598526	16.551315	1.5611115
1442741536152692418	10.340439	16.931747	2.8934784
1442741536161084752	10.121643	15.429306	2.5240326
1442741536169477086	8.263641	13.21817	0.9397888
1442741536177869420	5.154831	11.297485	-0.029769897
1442741536186261754	2.005844	10.36525	0.13648987
1442741536194654088	-0.2133789	10.073196	0.45613098
1442741536203046422	-2.3486786	10.430191	0.07380676
1442741536211438756	-3.620163	10.744629	-0.3014679
1442741536219831090	-5.4669495	10.617935	-0.44544983
1442741536228223424	-6.237732	10.449417	-1.1464844
1442741536236615758	-5.8163605	10.31163	-1.8022003
1442741536245008092	-4.441025	10.150726	-1.916626
1442741536253400426	-3.0756989	9.802307	-1.552414
1442741536261792760	-1.7140045	8.817352	-0.6796875
1442741536270185094	-1.6249084	8.196182	-0.645401
1442741536278577428	-1.1529083	7.586136	-0.4747467
1442741536286969762	-0.6648407	7.3860016	-0.13673401
1442741536295362096	-0.2077179	6.924164	0.1402893
1442741536303754430	0.098526	6.357605	0.16645813
1442741536312146764	0.34187317	5.94133	0.05029297
1442741536320539098	0.6536102	5.6484833	-0.08457947
1442741536328931432	0.8018341	5.472824	-0.10256958
1442741536337323766	1.0743256	4.95932	0.02281189
1442741536345716100	1.2370605	4.6612854	0.14567566
1442741536354108434	1.2267151	4.5062256	0.2944641
1442741536362500768	1.1994781	4.2990417	0.21684265
1442741536370893102	1.201477	3.9689636	-0.048706055
1442741536379285436	1.0301971	3.624527	-0.3940735
1442741536387677770	0.9745178	3.4137573	-0.73851013
1442741536396070104	0.9120636	3.2780762	-0.93426514
1442741536404462438	0.8525543	3.3308563	-1.1090698
1442741536412854772	0.8022461	3.6828766	-1.2753754
1442741536421247106	0.71572876	4.1934814	-1.4314117
1442741536429639440	0.48155212	5.0368805	-1.5260773
1442741536438031774	0.51239014	5.664917	-1.4703827
1442741536446424108	0.35758972	6.7569275	-1.2559052
1442741536454816442	0.32792664	7.7646027	-1.2220764
1442741536463208776	0.17997742	9.098877	-1.1960144
1442741536471601110	-0.31585693	10.598358	-1.2830658
1442741536479993444	-1.1624146	12.046967	-1.589035
1442741536488385778	-2.8261871	13.671204	-2.5162506
1442741536496778112	-4.1422424	14.460327	-3.579544
1442741536505170446	-5.847534	15.480377	-5.2138824
1442741536513562780	-7.481476	16.24881	-6.598999
1442741536521955114	-9.623535	16.744888	-6.6266785
1442741536530347448	-10.91629	16.694183	-5.3382416
1442741536538739782	-10.452652	15.809189	-4.266739
1442741536547132116	-7.0324707	12.648956	-4.23909
1442741536555524450	-5.084976	10.456406	-3.869812
1442741536563916784	-3.3083649	9.0923	-2.7842712
1442741536572309118	-2.5151367	9.114914	-1.9468079
1442741536580701451	-1.8374939	9.141281	-1.2473297
1442741536589093785	-0.7082062	9.054184	-0.4793396
1442741536597486119	1.5305939	9.378128	0.2821045
1442741536605878453	5.9171753	11.644699	0.6886444
1442741536614270787	8.0429535	14.646973	1.3184052
1442741536622663121	7.5617676	18.183044	3.2352295
1442741536631055455	7.223984	18.056137	2.1406708
1442741536639447789	6.7581024	15.444748	1.0184174
1442741536647840123	5.4236755	11.769867	-1.1453552
1442741536656232457	3.6346283	8.306274	-3.503891
1442741536664624791	2.2731018	4.8873596	-2.8908691
1442741536673017125	1.9569397	3.7640839	0.6494293
1442741536681409459	1.6130829	3.0806122	7.236496
1442741536689801793	0.5798645	3.9093628	8.676666
1442741536698194127	-0.26306152	5.5937195	7.6535187
1442741536706586461	-0.9594879	7.226471	6.141449
1442741536714978795	-1.2009888	8.267212	5.2061462
1442741536723371129	0.271286	8.604523	4.1141663
1442741536731763463	2.3524475	8.912109	3.4355927
1442741536740155797	3.23201	10.338165	1.3225403
1442741536748548131	3.0869904	11.428467	-0.56510925
1442741536756940465	3.6101227	11.801926	-0.9797516
1442741536765332799	4.1110687	11.223328	-0.7613678
1442741536773725133	3.6601563	10.407532	-0.350235
1442741536782117467	1.5596161	9.647705	0.9990845
1442741536790509801	0.07647705	9.001678	1.9895782
1442741536798902135	-1.0306396	7.942108	2.8532867
1442741536807294469	-1.1000366	7.521408	2.76503
1442741536815686803	-1.3653412	7.4623413	2.3330994
1442741536824079137	-1.1323242	7.916458	2.279602
1442741536832471471	-0.9057617	8.586868	2.191803
1442741536840863805	-1.201767	9.353607	1.3891907
1442741536849256139	-1.0072784	9.903671	0.79629517
1442741536857648473	-0.8099823	10.141281	0.5842743
1442741536866040807	-0.5786438	10.023895	0.54229736
1442741536874433141	-0.3031006	9.43573	0.4646759
1442741536882825475	-0.07218933	8.860504	0.36662292
1442741536891217809	-0.030563354	8.397202	0.39349365
1442741536899610143	-0.3015442	8.138046	0.79956055
1442741536908002477	-0.4703369	8.302551	1.3539124
1442741536916394811	-0.69929504	8.3736725	2.1483002
1442741536924787145	-0.82696533	8.237442	2.2528381
1442741536933179479	-0.812912	8.061508	2.2255707
1442741536941571813	-0.7966919	8.073654	2.108841
1442741536949964147	-0.81884766	8.280121	1.924469
1442741536958356481	-0.8739166	8.721695	1.6347351
1442741536966748815	-0.955307	9.160385	1.3871155
1442741536975141149	-0.9300842	9.589142	1.0970612
1442741536983533483	-0.8101349	9.781937	0.8263092
1442741536991925817	-0.6555939	10.059769	0.6837158
1442741537000318151	-0.45581055	10.151871	0.8408203
1442741537008710485	-0.23098755	10.143234	1.09906
1442741537017102819	-0.06436157	10.104187	1.2555237
1442741537025495153	-0.027801514	10.064682	1.2197723
1442741537033887487	-0.05305481	9.546509	1.461441
1442741537042279821	-0.36836243	9.040985	1.8435669
1442741537050672155	-1.0731506	9.005951	2.378357
1442741537059064489	-1.8132935	9.770905	2.6294098
1442741537067456823	-2.5681	10.772736	2.7660522
1442741537075849157	-3.4575653	11.639084	2.9674683
1442741537084241491	-4.3560944	12.213699	3.2316132
1442741537092633825	-4.654236	12.884003	2.9446259
1442741537101026159	-4.3243713	13.647415	2.6293182
1442741537109418493	-3.4181213	14.776047	1.9329681
1442741537117810826	-2.635147	15.065582	1.6306763
1442741537126203160	-2.0191345	14.395355	1.4351044
1442741537134595494	-1.5826263	12.741989	0.96325684
1442741537142987828	-1.2787323	11.272079	0.25471497
1442741537151380162	-1.407196	10.265976	-0.7783356
1442741537159772496	-1.342926	10.182007	-0.8280182
1442741537168164830	-0.62590027	10.180283	-0.3403473
1442741537176557164	0.4750824	10.304001	0.07575989
1442741537184949498	1.7141876	10.624603	-0.042037964
1442741537193341832	2.984253	11.507568	-0.7593384
1442741537201734166	4.183609	12.808777	-1.2740479
1442741537210126500	6.6854095	14.9618225	-0.69898987
1442741537218518834	9.218124	15.547012	0.61361694
1442741537226911168	10.956284	15.119888	2.259201
1442741537235303502	10.17189	13.692413	2.1212006
1442741537243695836	7.995056	11.546326	1.1365967
1442741537252088170	5.087906	9.882889	0.39486694
1442741537260480504	2.5910492	9.679199	0.5567169
1442741537268872838	-1.1023102	9.711395	1.0026245
1442741537277265172	-2.3952026	9.274414	1.3307648
1442741537285657506	-3.645584	9.438202	0.7724762
1442741537294049840	-4.9945984	9.632111	0.107788086
1442741537302442174	-6.0188446	9.743469	-0.4544983
1442741537310834508	-5.654129	9.960098	-0.81437683
1442741537319226842	-4.3418427	10.271011	-1.0582123
1442741537327619176	-2.9792633	9.813705	-1.295517
1442741537336011510	-1.8199768	9.063141	-1.2809448
1442741537344403844	-1.1690063	7.869705	-0.83869934
1442741537352796178	-0.83135986	7.314377	-0.6173248
1442741537361188512	-0.1076355	7.0026093	-0.7345886
1442741537369580846	0.6184387	6.809326	-0.8255005
1442741537377973180	0.8772888	6.567459	-0.56829834
1442741537386365514	1.2596283	6.045578	-0.3300476
1442741537394757848	1.2664795	5.816818	-0.123550415
1442741537403150182	0.95251465	5.2554016	0.39970398
1442741537411542516	0.857605	4.945526	0.7476654
1442741537419934850	0.87220764	4.5692444	1.0162964
1442741537428327184	0.9236603	4.208786	1.0218658
1442741537436719518	0.9352112	3.9983215	0.78674316
1442741537445111852	0.86691284	3.8544464	0.28987122
1442741537453504186	0.7778168	3.725937	-0.07940674
1442741537461896520	0.775177	3.6378784	-0.65171814
1442741537470288854	0.8690033	3.7513275	-1.1114044
1442741537478681188	0.86968994	3.9940338	-1.5909424
1442741537487073522	0.8357239	4.371231	-2.0001373
1442741537495465856	0.8966675	4.8474884	-2.2780151
1442741537503858190	1.1042938	5.751999	-2.28833
1442741537512250524	1.2242432	6.6105347	-2.0552673
1442741537520642858	1.176239	8.178772	-1.6995087
1442741537529035192	0.56422424	9.7756195	-1.5603943
1442741537537427526	-0.63082886	12.128815	-1.6605072
1442741537545819860	-2.149704	14.407471	-2.154358
1442741537554212194	-3.4363708	15.931091	-2.9785004
1442741537562604528	-4.339432	16.9404	-4.7332153
1442741537570996862	-5.6519775	17.658722	-8.704514
1442741537579389196	-8.277054	18.390259	-8.660904
1442741537587781530	-10.54129	17.95906	-6.2503357
1442741537596173864	-9.4109955	14.074966	-4.340042
1442741537604566198	-6.7972107	10.483902	-4.125061
1442741537612958532	-4.919876	8.724503	-3.3151093
1442741537621350866	-3.4215393	8.506851	-1.8113708
1442741537629743200	-2.8543396	8.996948	-1.167923
1442741537638135534	-1.8987122	10.016113	-0.4011383
1442741537646527868	0.33070374	11.331055	0.59436035
1442741537654920201	4.9655304	14.630417	1.3122864
1442741537663312535	8.635574	18.37088	2.6950226
1442741537671704869	9.910416	20.474014	4.0284424
1442741537680097203	9.510284	19.511826	2.8623505
1442741537688489537	8.187134	12.811005	0.35736084
1442741537696881871	5.4548187	8.6388855	0.22061157
1442741537705274205	3.2518768	5.1823425	-0.69369507
1442741537713666539	2.66391	3.369217	0.059677124
1442741537722058873	2.471634	2.8229828	3.565445
1442741537730451207	0.86787415	2.9012299	8.197891
1442741537738843541	0.2184143	3.2747955	9.004135
1442741537747235875	-0.10569763	4.6034546	6.942627
1442741537755628209	0.4783783	5.7037964	5.251938
1442741537764020543	1.4269867	7.036728	3.857727
1442741537772412877	2.3140717	8.340683	3.2914124
1442741537780805211	2.8583221	9.584213	2.9434814
1442741537789197545	3.1974487	11.4153595	1.122879
1442741537797589879	4.3061676	12.563507	-1.394455
1442741537805982213	5.8845673	13.428131	-2.442047
1442741537814374547	5.6569977	12.437027	-1.5512085
1442741537822766881	4.0347443	10.797562	-0.51698303
1442741537831159215	1.7800598	9.208572	1.3838196
1442741537839551549	-0.09439087	8.017899	3.458435
1442741537847943883	-1.3946838	7.2983246	3.3453217
1442741537856336217	-1.4837952	7.2966156	2.2212067
1442741537864728551	-2.0152283	7.826935	2.385849
1442741537873120885	-2.5453491	8.65416	2.2552032
1442741537881513219	-2.5880127	9.404877	1.6856537
1442741537889905553	-2.3328857	9.727661	0.9360657
1442741537898297887	-2.118805	9.670685	0.34481812
1442741537906690221	-1.7970886	9.129288	0.08830261
1442741537915082555	-1.5271912	8.821701	0.20654297
1442741537923474889	-1.0506134	8.898331	0.39404297
1442741537931867223	-0.751709	8.8537445	0.6433258
1442741537940259557	-0.5263672	8.545578	1.1705322
1442741537948651891	-0.45124817	8.246826	1.9566193
1442741537957044225	-0.47351074	8.074387	2.6785736
1442741537965436559	-0.4933319	8.003693	2.9524689
1442741537973828893	-0.2088623	8.181046	2.866806
1442741537982221227	-0.06619263	8.565887	2.6648407
1442741537990613561	0.103881836	8.774887	2.2642822
1442741537999005895	0.19303894	9.181015	1.6986542
1442741538007398229	0.20698547	9.627487	1.2437897
1442741538015790563	0.21594238	10.003525	0.92622375
1442741538024182897	0.26672363	10.2000885	0.74147034
1442741538032575231	0.38839722	10.071564	0.7740326
1442741538040967565	0.32481384	9.641541	1.1218872
1442741538049359899	0.28666687	9.764511	1.08107
1442741538057752233	0.109054565	10.114304	1.0496216
1442741538066144567	-0.4666443	10.342224	1.3161163
1442741538074536901	-1.3382263	10.555115	1.83844
1442741538082929235	-2.4297333	11.016296	2.3230286
1442741538091321569	-3.1794434	11.285324	2.1353912
1442741538099713903	-3.8592682	11.337906	1.986206
1442741538108106237	-4.596115	11.181122	2.150711
1442741538116498571	-4.9322968	11.018829	2.4659576
1442741538124890905	-4.3569336	11.40564	2.4088135
1442741538133283239	-3.402359	12.356445	1.6310577
1442741538141675573	-2.2865753	13.546036	0.06071472
1442741538150067907	-1.2009888	13.765366	-0.64616394
1442741538158460241	-0.41856384	12.665817	0.10499573
1442741538166852575	-0.5419464	11.347168	0.32263184
1442741538175244909	-0.8917084	9.760941	-0.17555237
1442741538183637243	-1.2606812	9.20166	-0.6321564
1442741538192029576	-1.4198151	9.34758	-0.38316345
1442741538200421910	-0.96543884	9.893494	0.5744171
1442741538208814244	-0.1000824	10.360458	0.7517853
1442741538217206578	1.0520782	11.896317	-0.9419861
1442741538225598912	2.0005646	14.00148	-0.92741394
1442741538233991246	4.5695496	16.51094	0.33885193
1442741538242383580	7.585205	17.49266	1.7096558
1442741538250775914	10.065781	17.068588	2.7178497
1442741538259168248	10.501068	15.111267	2.4381409
1442741538267560582	8.933975	13.127777	0.5831604
1442741538275952916	5.3687744	11.160828	-1.061203
1442741538284345250	2.7872467	10.774414	-0.48286438
1442741538292737584	-0.1025238	10.339813	0.13995361
1442741538301129918	-1.9359589	10.2721405	-0.255188
1442741538309522252	-4.078842	10.234848	-0.7120819
1442741538317914586	-6.5370026	10.019806	-0.6623535
1442741538326306920	-7.31398	9.86853	-0.7726288
1442741538334699254	-6.8905945	10.265778	-1.0639191
1442741538343091588	-5.3371735	10.3094635	-1.0099335
1442741538351483922	-3.0076752	9.540451	-0.49908447
1442741538359876256	-1.8488159	8.556244	-0.26307678
1442741538368268590	-1.1552582	7.547806	-0.17002869
1442741538376660924	-0.52565	6.772476	-0.20704651
1442741538385053258	-0.07194519	6.5106354	-0.45048523
1442741538393445592	0.4106598	6.557068	-0.33831787
1442741538401837926	0.7576599	6.180084	-0.08128357
1442741538410230260	1.1660156	5.5832977	0.25604248
1442741538418622594	1.4709473	5.2045746	0.32792664
1442741538427014928	1.6275024	4.89032	0.3831482
1442741538435407262	1.5995789	4.571945	0.6757355
1442741538443799596	1.5752106	4.3177643	1.1072845
1442741538452191930	1.6481934	4.264374	1.3373413
1442741538460584264	1.7287292	4.117859	1.1282959
1442741538468976598	1.6337585	3.847351	0.51083374
1442741538477368932	1.4850616	3.6956177	-0.005126953
1442741538485761266	1.3057709	3.6982117	-0.5310974
1442741538494153600	1.1536713	3.8336182	-1.0366974
1442741538502545934	1.0952759	3.944748	-1.3937836
1442741538510938268	1.0316925	4.3390045	-1.9666595
1442741538519330602	0.9477234	4.847107	-2.215149
1442741538527722936	1.2113037	5.801712	-2.1350403
1442741538536115270	1.4809113	6.825485	-1.8792725
1442741538544507604	1.4384155	8.314331	-1.6204681
1442741538552899938	0.632843	10.343155	-1.5245972
1442741538561292272	-0.67767334	12.301743	-1.6640625
1442741538569684606	-3.0677032	15.113922	-2.6567993
1442741538578076940	-4.1789703	16.57219	-3.759491
1442741538586469274	-4.7394104	17.615723	-6.8287354
1442741538594861608	-6.4145355	18.386307	-9.272842
1442741538603253942	-9.459793	18.913666	-8.603241
1442741538611646276	-11.229874	17.60736	-5.6142883
1442741538620038610	-9.854279	14.575806	-4.2670593
1442741538628430944	-5.593933	10.738892	-4.1018524
1442741538636823278	-4.0773926	10.041458	-2.7549744
1442741538645215612	-2.846527	10.127106	-1.7664185
1442741538653607946	-2.0830383	10.099518	-1.1597748
1442741538662000280	-0.497818	10.25914	-0.14352417
1442741538670392614	2.342987	11.718124	0.8681488
1442741538678784948	5.4162903	14.33699	1.4871368
1442741538687177282	8.360825	17.869858	2.797165
1442741538695569616	7.9272766	18.006943	2.5049896
1442741538703961950	7.8180695	15.213242	0.20913696
1442741538712354284	6.2411346	11.130417	4.119873E-4
1442741538720746618	3.852768	6.9829254	-0.7464142
1442741538729138951	2.206833	4.0743103	-1.0846863
1442741538737531285	1.8765869	2.3357239	0.6194153
1442741538745923619	1.9215698	1.6427612	6.2091217
1442741538754315953	0.8557129	2.3153381	9.249039
1442741538762708287	-0.119140625	4.185074	8.520126
1442741538771100621	0.41711426	5.861923	7.1155396
1442741538779492955	1.3515015	7.3578033	5.6350403
1442741538787885289	2.019287	8.376999	4.314377
1442741538796277623	2.3110046	9.293091	2.9818726
1442741538804669957	2.7239838	11.015427	0.28886414
1442741538813062291	3.4034424	12.137833	-2.8033142
1442741538821454625	4.3325806	12.655731	-3.3925934
1442741538829846959	4.7525635	12.517242	-1.7770538
1442741538838239293	3.125595	11.621063	-0.7233124
1442741538846631627	0.25308228	10.044312	0.35932922
1442741538855023961	-1.7296143	8.509537	2.0211945
1442741538863416295	-1.9378662	7.3822937	3.163681
1442741538871808629	-1.7193756	7.032715	2.7618408
1442741538880200963	-1.9139557	7.393112	2.8514557
1442741538888593297	-2.012436	8.192108	2.7870483
1442741538896985631	-1.6305237	9.229691	1.9206085
1442741538905377965	-1.2904205	9.685822	1.0231628
1442741538913770299	-1.1244049	9.718018	0.47592163
1442741538922162633	-0.8600464	9.338638	0.19630432
1442741538930554967	-0.68011475	9.078171	0.1320343
1442741538938947301	-0.47572327	8.808441	0.1912384
1442741538947339635	-0.28512573	8.611328	0.23721313
1442741538955731969	-0.19445801	8.560043	0.38005066
1442741538964124303	-0.2151947	8.590073	0.80255127
1442741538972516637	-0.35025024	8.333359	2.2692719
1442741538980908971	-0.2863617	7.9952545	2.941101
1442741538989301305	-0.1672821	7.9147186	2.852005
1442741538997693639	0.12974548	7.8826294	2.7545624
1442741539006085973	0.30218506	8.113068	2.4047089
1442741539014478307	0.37251282	8.665207	1.6051788
1442741539022870641	0.36878967	9.182861	0.93156433
1442741539031262975	0.29804993	9.666748	0.5122528
1442741539039655309	0.23721313	10.190247	0.39743042
1442741539048047643	-0.027664185	10.461914	0.6586304
1442741539056439977	-0.078567505	10.253357	0.9211731
1442741539064832311	-0.1237793	10.020538	1.1899414
1442741539073224645	-0.17092896	9.883606	1.1635284
1442741539081616979	-0.29180908	9.766327	0.9903412
1442741539090009313	-0.8146057	9.577148	1.3010559
1442741539098401647	-1.3209839	9.661118	1.9316559
1442741539106793981	-2.2188568	10.5168	2.396408
1442741539115186315	-2.6769104	11.257416	2.4635925
1442741539123578649	-3.2617035	11.805801	2.619629
1442741539131970983	-3.9009094	11.963425	2.652298
1442741539140363317	-4.347702	12.023575	2.5527344
1442741539148755651	-4.1840363	12.448654	2.372345
1442741539157147985	-3.7239227	13.153824	1.6500397
1442741539165540319	-2.7902222	14.215652	0.4552765
1442741539173932653	-1.9556122	14.036224	-0.017654419
1442741539182324987	-1.3959045	13.055618	0.20043945
1442741539190717321	-1.3931274	11.651306	0.5682373
1442741539199109655	-1.6208801	10.308548	0.5371399
1442741539207501989	-1.8422089	9.09407	-0.015579224
1442741539215894323	-1.8824768	8.704239	-0.49710083
1442741539224286657	-1.371582	8.574753	-0.009719849
1442741539232678991	-0.45307922	8.740982	0.4216919
1442741539241071325	0.6120758	9.285065	0.41145325
1442741539249463659	1.5056915	10.220352	-0.3385315
1442741539257855993	2.487671	11.629486	-0.98298645
1442741539266248326	4.403778	13.989853	-0.20428467
1442741539274640660	6.572342	15.40358	1.2668304
1442741539283032994	9.500458	16.273865	3.1386871
1442741539291425328	10.263351	15.684204	3.30513
1442741539299817662	9.182022	14.171631	1.8468933
1442741539308209996	6.66185	12.665802	0.14035034
1442741539316602330	3.8547974	11.655151	-0.74461365
1442741539324994664	0.97839355	11.075867	-0.55674744
1442741539333386998	-0.69670105	10.530075	-0.17718506
1442741539341779332	-3.142929	10.284225	-0.3594818
1442741539350171666	-3.8765259	10.19841	-0.18338013
1442741539358564000	-4.8801727	10.058395	-0.7449646
1442741539366956334	-5.1985016	9.845123	-0.94374084
1442741539375348668	-4.710205	9.752121	-0.7853546
1442741539383741002	-3.5286865	9.8181305	-0.79649353
1442741539392133336	-2.9349213	9.459976	-0.72880554
1442741539400525670	-1.6549835	7.9638214	-0.47642517
1442741539408918004	-1.1134949	7.292099	-0.51498413
1442741539417310338	-0.55882263	6.734619	-0.7557373
1442741539425702672	-0.021087646	6.585022	-0.7993927
1442741539434095006	0.4860382	6.480377	-0.5937042
1442741539442487340	0.8655243	6.0580444	-0.2109375
1442741539450879674	1.0994415	5.557678	0.0460968
1442741539459272008	1.4883118	5.2478485	0.026031494
1442741539467664342	1.4557495	5.032791	0.09286499
1442741539476056676	1.3023071	4.6846466	0.42234802
1442741539484449010	1.2819214	4.4207	0.6730957
1442741539492841344	1.3610992	4.184906	0.7146454
1442741539501233678	1.4175568	3.926651	0.48654175
1442741539509626012	1.3858643	3.7844238	0.22949219
1442741539518018346	1.1864929	3.4403229	-0.32211304
1442741539526410680	1.1342163	3.3640747	-0.6100006
1442741539534803014	0.9662323	3.5081177	-1.1036835
1442741539543195348	0.79756165	3.90477	-1.6034851
1442741539551587682	0.6538696	4.521225	-2.0933685
1442741539559980016	0.602005	5.4506836	-2.4109192
1442741539568372350	0.68855286	6.3229065	-2.3629303
1442741539576764684	0.85043335	8.0923	-2.1779785
1442741539585157018	0.63194275	9.705658	-1.914093
1442741539593549352	-0.41807556	12.455566	-1.7734528
1442741539601941686	-1.8334961	14.674927	-2.1364899
1442741539610334020	-3.1994324	16.431519	-3.1483002
1442741539618726354	-4.083267	17.397476	-5.5625153
1442741539627118688	-4.416275	17.44374	-8.62204
1442741539635511022	-7.9367676	17.86525	-10.61821
1442741539643903356	-10.334076	17.948349	-6.8011627
1442741539652295690	-9.617569	14.80864	-4.3672943
1442741539660688024	-7.2657623	11.328171	-3.9918213
1442741539669080358	-5.1131287	8.75618	-3.5538177
1442741539677472692	-3.9600067	7.9845886	-2.280487
1442741539685865026	-3.4709015	8.330338	-1.1507874
1442741539694257360	-2.1195374	9.049469	-0.5203552
1442741539702649694	-0.5018616	9.593552	0.5129547
1442741539711042028	2.7172394	11.782898	1.2642975
1442741539719434362	6.370392	15.013565	1.9878235
1442741539727826696	8.304993	18.088333	3.2788086
1442741539736219030	7.9572754	18.833862	3.4522858
1442741539744611364	7.9815216	16.946457	1.1973267
1442741539753003698	5.1124268	10.246124	-0.03831482
1442741539761396032	3.0124207	6.65184	-0.96707153
1442741539769788366	2.0544434	3.382721	-1.6376343
1442741539778180700	1.8946686	2.125702	1.8184814
1442741539786573034	1.3566437	1.8553925	6.341812
1442741539794965368	0.12774658	2.7950592	8.523392
1442741539803357701	-0.9898834	4.3537903	7.869232
1442741539811750035	-0.9193268	6.8747864	5.7399597
1442741539820142369	0.040298462	7.6767426	4.6706696
1442741539828534703	1.7734528	8.561676	3.377304
1442741539836927037	2.4702759	9.789124	2.5892792
1442741539845319371	3.291397	11.514938	0.43658447
1442741539853711705	4.93219	12.88353	-2.9784698
1442741539862104039	6.586014	13.083038	-4.9151154
1442741539870496373	5.77153	11.787064	-1.4111328
1442741539878888707	3.81456	10.696335	-0.35211182
1442741539887281041	0.16847229	9.341568	2.1769257
1442741539895673375	-1.7158203	8.41951	3.6304474
1442741539904065709	-2.7449036	7.475174	3.6309204
1442741539912458043	-2.8812103	6.897064	2.538208
1442741539920850377	-2.7307434	7.0047913	1.9730225
1442741539929242711	-3.227295	8.273682	2.332718
1442741539937635045	-2.6806488	8.821182	1.6584015
1442741539946027379	-2.0333405	9.221664	0.23468018
1442741539954419713	-1.5446167	9.208923	-0.11483765
1442741539962812047	-0.8839264	9.125763	0.048446655
1442741539971204381	-0.16140747	9.108322	0.4249878
1442741539979596715	0.34632874	9.0924225	0.6529083
1442741539987989049	0.6167145	8.6835785	0.77731323
1442741539996381383	1.0990906	8.500229	1.3582153
1442741540004773717	1.4624176	8.567276	1.7928009
1442741540013166051	1.4478912	8.467758	2.0130615
1442741540021558385	1.2125397	8.37056	1.945404
1442741540029950719	0.75753784	8.411575	1.5935822
1442741540038343053	0.24859619	8.602203	1.2506104
1442741540046735387	-0.34309387	9.135834	0.95407104
1442741540055127721	-0.62413025	9.410873	0.8366852
1442741540063520055	-0.6043701	9.366959	0.8330536
1442741540071912389	-0.478302	9.119659	0.8019409
1442741540080304723	-0.1706543	8.593323	0.5356293
1442741540088697057	-0.0816803	8.397934	0.4252777
1442741540097089391	-0.30336	8.698059	0.71173096
1442741540105481725	-0.7023468	9.685837	1.5234375
1442741540113874059	-1.202713	10.334442	1.6759491
1442741540122266393	-2.3437958	10.932022	1.7945709
1442741540130658727	-3.1515198	11.096329	1.6425171
1442741540139051061	-3.4962158	11.1931305	1.561554
1442741540147443395	-3.8176117	11.234741	1.8970032
1442741540155835729	-4.383255	11.227966	2.3883362
1442741540164228063	-4.7756653	11.114883	2.5100098
1442741540172620397	-4.460373	11.280106	1.9185944
1442741540181012731	-3.6096497	11.573685	1.3611298
1442741540189405065	-2.6249542	11.634674	1.3048096
1442741540197797399	-1.6092987	11.3112335	1.7291107
1442741540206189733	-0.5997772	10.896561	1.7988739
1442741540214582067	0.4342804	10.4605255	-0.12783813
1442741540222974401	0.24064636	10.080963	-2.107895
1442741540231366735	0.7180481	9.801483	-2.2880096
1442741540239759069	2.275406	9.955063	-1.635376
1442741540248151403	4.157501	11.270203	-0.87384033
1442741540256543737	5.5798035	13.965057	0.06529236
1442741540264936071	6.799713	16.85971	1.1799774
1442741540273328405	9.88176	19.584274	2.5102692
1442741540281720739	11.971497	20.16774	3.045761
1442741540290113073	12.071762	18.76175	2.3996887
1442741540298505407	9.369461	16.472717	0.01512146
1442741540306897741	5.707245	13.8624115	-1.9625092
1442741540315290075	2.160553	12.210968	-2.3886414
1442741540323682409	-0.60494995	11.4561	-2.0477905
1442741540332074743	-2.243744	10.388107	-1.6528778
1442741540340467076	-2.7432709	9.515015	-1.625473
1442741540348859410	-3.9407501	8.891663	-0.57510376
1442741540357251744	-4.011795	8.247742	-0.83003235
1442741540365644078	-3.9191132	7.8829346	-1.6133423
1442741540374036412	-3.4365845	7.8831787	-1.8326874
1442741540382428746	-2.5028229	7.7527924	-1.3041229
1442741540390821080	-1.0368042	6.844513	-0.5942993
1442741540399213414	-0.5235748	6.2404785	-0.35523987
1442741540407605748	-0.3215332	5.752838	-0.38858032
1442741540415998082	-0.01574707	5.741638	-0.3907013
1442741540424390416	0.41140747	5.913452	-0.3073578
1442741540432782750	0.803421	6.0282135	-0.20831299
1442741540441175084	1.142807	5.967453	-0.13043213
1442741540449567418	1.5191193	5.731415	-0.004714966
1442741540457959752	1.5945282	5.5489197	0.07496643
1442741540466352086	1.412323	5.3664093	0.116500854
1442741540474744420	1.6044922	5.262192	0.15330505
1442741540483136754	1.5765381	5.042465	0.17144775
1442741540491529088	1.2130737	4.6763763	0.13137817
1442741540499921422	0.70854187	4.198761	0.04660034
1442741540508313756	0.17912292	3.567566	-0.11651611
1442741540516706090	0.11228943	3.2899628	-0.31443787
1442741540525098424	0.28363037	3.2287598	-0.7310486
1442741540533490758	0.39611816	3.5703735	-1.1065979
1442741540541883092	0.5689087	4.1312103	-1.4083099
1442741540550275426	0.61424255	4.795166	-1.36232
1442741540558667760	0.52423096	5.588791	-1.056488
1442741540567060094	0.32077026	6.9568176	-0.6624603
1442741540575452428	0.098861694	8.445938	-0.72843933
1442741540583844762	-1.3864441	11.39827	-1.4857025
1442741540592237096	-2.5605927	13.278687	-2.5714722
1442741540600629430	-3.882782	14.426086	-4.5062714
1442741540609021764	-5.137375	14.846939	-6.2638245
1442741540617414098	-6.8459473	15.317749	-6.8996887
1442741540625806432	-9.638138	15.721451	-5.1583557
1442741540634198766	-11.322601	14.959763	-2.743042
1442741540642591100	-9.906616	12.551865	-3.0917053
1442741540650983434	-7.047592	11.001755	-3.022049
1442741540659375768	-3.8139648	9.95668	-2.3185272
1442741540667768102	-1.9967194	10.6805725	-1.7446136
1442741540676160436	-0.82040405	12.169647	-1.4733887
1442741540684552770	0.9059601	13.290085	-1.3133392
1442741540692945104	2.759262	13.415176	-1.21138
1442741540701337438	5.3436737	15.507065	-1.1825562
1442741540709729772	7.2081146	18.534195	-0.89808655
1442741540718122106	7.9430084	21.232101	0.1567688
1442741540726514440	7.364029	19.990097	0.3563385
1442741540734906774	6.5808105	15.728912	0.14761353
1442741540743299108	5.291794	10.055283	-0.6079712
1442741540751691442	2.7736664	7.5859833	-3.1912231
1442741540760083776	2.673462	4.3865814	-2.4726563
1442741540768476110	1.971756	3.3592834	-0.6031189
1442741540776868444	1.3092804	2.350235	3.8879547
1442741540785260778	0.83244324	1.9630127	7.2319794
1442741540793653112	0.279953	2.48201	8.691635
1442741540802045446	-0.017227173	4.434372	8.540939
1442741540810437780	0.63394165	6.3510284	8.609482
1442741540818830114	2.1664581	8.493332	7.549423
1442741540827222448	2.9427185	9.726273	6.18454
1442741540835614782	3.703003	11.086807	3.6377258
1442741540844007116	3.941162	12.043152	0.027267456
1442741540852399450	4.150284	12.620468	-2.5500336
1442741540860791784	4.2356415	12.457214	-1.1304932
1442741540869184118	3.609314	11.78891	2.615509
1442741540877576451	2.0003052	10.61319	2.6747742
1442741540885968785	-0.35250854	9.873764	1.7485504
1442741540894361119	-1.1519012	8.622787	1.8595581
1442741540902753453	-1.0424194	7.586609	2.274002
1442741540911145787	-1.0988159	6.9425354	2.3627167
1442741540919538121	-1.2989349	7.191864	2.1334534
1442741540927930455	-1.1219635	8.10231	2.1426086
1442741540936322789	-1.2479858	9.829178	2.3072968
1442741540944715123	-0.9446869	10.596863	2.3124237
1442741540953107457	-0.80651855	10.637039	2.4703064
1442741540961499791	-0.7963104	10.059357	2.5363007
1442741540969892125	-0.81843567	9.3535	2.5961304
1442741540978284459	-0.9191742	8.812225	2.606659
1442741540986676793	-1.0925751	8.56105	2.4351807
1442741540995069127	-1.3674774	8.127838	1.9150238
1442741541003461461	-1.4668732	7.9119263	1.9321747
1442741541011853795	-1.2141876	7.9320374	2.2570343
1442741541020246129	-0.8760681	8.082672	2.3877563
1442741541028638463	-0.6651764	8.378998	2.2276154
1442741541037030797	-0.57180786	8.866272	1.8347778
1442741541045423131	-0.42347717	9.32193	1.5469818
1442741541053815465	-0.60813904	9.798019	1.2098389
1442741541062207799	-0.74438477	9.913681	1.1430054
1442741541070600133	-0.8731384	9.96579	1.0275726
1442741541078992467	-0.9738312	9.852142	0.9846649
1442741541087384801	-1.228302	9.59819	0.98672485
1442741541095777135	-1.5890656	9.211319	1.146225
1442741541104169469	-1.8013306	8.846085	1.4649963
1442741541112561803	-2.0637054	8.47081	1.962326
1442741541120954137	-2.3815765	8.383423	2.1482544
1442741541129346471	-2.8773346	8.466568	2.399643
1442741541137738805	-2.9393616	8.708435	2.437851
1442741541146131139	-3.079239	9.077454	2.2756958
1442741541154523473	-3.274704	9.6792145	2.192688
1442741541162915807	-3.1840057	10.419373	2.4678802
1442741541171308141	-2.4330292	11.52803	3.220749
1442741541179700475	-1.6730499	12.148346	3.324417
1442741541188092809	-0.94869995	12.318527	2.9985352
1442741541196485143	-0.5325775	11.954834	2.2539825
1442741541204877477	-0.15390015	11.501572	0.82276917
1442741541213269811	0.165802	11.328445	-0.6000824
1442741541221662145	0.37504578	11.50737	-0.95106506
1442741541230054479	0.3772583	12.058655	0.62231445
1442741541238446813	0.35412598	11.880432	0.9581909
1442741541246839147	0.14208984	11.00824	0.48753357
1442741541255231481	-0.0057525635	9.885559	0.040649414
1442741541263623815	-0.013931274	9.289993	0.2707367
1442741541272016149	-0.01687622	9.441605	0.8410797
1442741541280408483	0.9059906	9.749039	1.3119202
1442741541288800817	1.3079834	10.561539	0.5997925
1442741541297193151	1.4510651	11.774765	-0.34954834
1442741541305585485	2.6178741	14.245453	-0.6669159
1442741541313977819	4.2717896	16.482788	-0.37205505
1442741541322370153	6.9557343	18.419159	0.3857422
1442741541330762487	9.625748	18.825165	1.0794067
1442741541339154821	10.806229	17.732193	1.082016
1442741541347547155	8.762711	14.507126	-0.3221588
1442741541355939489	6.511902	12.31543	-1.1832428
1442741541364331823	4.047928	10.4370575	-0.72431946
1442741541372724157	0.8481293	8.741287	0.8127594
1442741541381116491	-2.7401733	8.195282	2.3570251
1442741541389508825	-5.712967	8.722031	2.6303864
1442741541397901159	-8.10199	9.619446	1.4699707
1442741541406293493	-9.452316	10.406845	0.9473114
1442741541414685826	-9.094055	10.876068	-0.67022705
1442741541423078160	-6.916214	10.715622	-1.2680206
1442741541431470494	-4.1940002	10.023361	-1.5259247
1442741541439862828	-2.25354	9.377594	-1.6835022
1442741541448255162	-1.3401031	9.289642	-1.7633667
1442741541456647496	0.09718323	9.087753	-1.2527161
1442741541465039830	0.97540283	8.787018	-0.68807983
1442741541473432164	2.0410614	7.9199677	-0.08744812
1442741541481824498	1.90625	7.150482	0.26420593
1442741541490216832	1.4816437	6.256851	0.6087036
1442741541498609166	0.8824768	5.605057	0.86808777
1442741541507001500	0.17866516	5.280472	1.0767975
1442741541515393834	-0.5146637	4.565048	1.5110321
1442741541523786168	-0.38272095	4.056961	1.127182
1442741541532178502	-0.15333557	3.3333588	0.3184967
1442741541540570836	-0.08746338	3.199417	-0.33901978
1442741541548963170	0.1078186	3.174652	-1.2075043
1442741541557355504	0.27349854	3.2216187	-1.9375
1442741541565747838	0.20674133	3.3143463	-2.2599487
1442741541574140172	-0.19281006	3.4032135	-2.1723022
1442741541582532506	-0.47213745	3.4743347	-1.9409637
1442741541590924840	-0.7268219	3.7616272	-1.7191315
1442741541599317174	-0.6967621	4.2316437	-1.6722565
1442741541607709508	-0.5689392	4.7661896	-1.8054504
1442741541616101842	-0.30566406	5.34581	-1.9078827
1442741541624494176	-7.4768066E-4	5.9536743	-1.8727112
1442741541632886510	0.10380554	6.630417	-1.9039154
1442741541641278844	-0.23034668	7.027115	-1.9570313
1442741541649671178	-1.143158	7.793396	-2.1296387
1442741541658063512	-2.227707	8.754288	-2.4714203
1442741541666455846	-4.1647644	10.541885	-3.203247
1442741541674848180	-6.2154083	12.906113	-4.0532684
1442741541683240514	-7.6282654	15.403198	-4.812439
1442741541691632848	-8.397903	18.490723	-5.73851
1442741541700025182	-9.103073	19.77681	-6.1172333
1442741541708417516	-10.545349	18.29927	-4.613571
1442741541716809850	-8.138977	14.412567	-3.932602
1442741541725202184	-4.818466	10.617233	-3.16156
1442741541733593086	-1.9868927	9.595749	-1.9709473
1442741541741985420	-0.12062073	10.298843	-0.6882324
1442741541750377754	0.4455719	10.658707	-0.13418579
1442741541758770088	0.50982666	9.901291	-0.66625977
1442741541767162422	3.0868835	11.176117	-1.2129822
1442741541775554756	5.60083	14.307922	-0.6734314
1442741541783947090	6.333313	18.234436	0.7103424
1442741541792339424	6.236191	19.700165	0.69451904
1442741541800731758	6.2873535	18.331314	-0.7961273
1442741541809124092	5.1983337	14.018692	-3.214737
1442741541817516426	3.3031006	10.719147	-6.0652924
1442741541825908760	1.252243	6.670349	-2.9249573
1442741541834301094	0.12347412	5.2674103	-0.1529541
1442741541842693428	-0.01133728	3.8636017	3.4218597
1442741541851085762	0.59643555	3.5211182	6.2495117
1442741541859478096	0.8378601	3.880188	7.7707214
1442741541867870430	0.34049988	4.5056763	7.667557
1442741541876262764	0.8314667	5.374481	7.557892
1442741541884655098	2.883728	6.2526703	7.59758
1442741541893047432	3.6085205	6.748993	7.230118
1442741541901439766	3.682434	8.084213	5.515503
1442741541909832100	3.9642944	9.461273	2.615326
1442741541918224434	4.2391815	10.723572	-0.35331726
1442741541926616768	3.6712494	12.156815	-1.9650726
1442741541935009102	3.436493	12.882523	-1.1228333
1442741541943401436	1.4282532	12.626389	1.0111237
1442741541951793769	0.1096344	11.584518	1.2021942
1442741541960186103	-1.0615997	10.076126	1.3050842
1442741541968578437	-1.4593506	8.780746	1.6074219
1442741541976970771	-1.3015289	7.754471	2.2169495
1442741541985363105	-1.0458527	7.2156982	3.0633392
1442741541993755439	-1.7278442	7.5190125	3.4557495
1442741542002147773	-1.1777954	8.41156	2.901245
1442741542010540107	-1.1914978	9.14328	2.4942627
1442741542018932441	-1.1439362	9.762054	2.086197
1442741542027324775	-0.61279297	9.855118	1.2797089
1442741542035717109	-0.23005676	9.799637	0.5568085
1442741542044109443	-0.5510864	9.782837	0.5864563
1442741542052501777	-0.6444702	9.599487	0.8366394
1442741542060894111	-0.5228729	8.923538	1.4753265
1442741542069286445	-0.6479645	8.661346	2.1008148
1442741542077678779	-0.7258911	8.345703	2.5118713
1442741542086071113	-0.7317352	8.236618	2.6704865
1442741542094463447	-0.7876129	8.287872	2.7479553
1442741542102855781	-0.9698334	8.453217	2.6285553
1442741542111248115	-1.1120605	8.578293	2.2866974
1442741542119640449	-1.0112305	9.0173645	1.4869843
1442741542128032783	-0.79190063	9.137329	1.2179413
1442741542136425117	-1.124649	9.355133	1.23172
1442741542144817451	-1.1882935	9.541794	1.2487335
1442741542153209785	-1.0267639	9.653778	1.2474823
1442741542161602119	-0.9122925	9.585754	1.3748932
1442741542169994453	-0.91970825	9.381531	1.5872345
1442741542178386787	-1.0766754	9.334396	1.750061
1442741542186779121	-1.1537781	9.374664	1.7603302
1442741542195171455	-1.3673706	9.518097	1.7358551
1442741542203563789	-1.6172028	9.645081	1.7637024
1442741542211956123	-1.8482819	9.793884	1.8056946
1442741542220348457	-2.125061	10.046356	1.9098358
1442741542228740791	-2.4847565	10.325165	2.1194458
1442741542237133125	-2.6715393	10.444412	2.0931091
1442741542245525459	-2.746933	10.355301	2.1505127
1442741542253917793	-3.0582886	10.151337	2.2957
1442741542262310127	-3.2748413	10.084	2.3306427
1442741542270702461	-3.3715363	10.129944	2.3037567
1442741542279094795	-3.1435394	10.1449585	2.278946
1442741542287487129	-2.621399	10.004715	2.2611084
1442741542295879463	-1.9873657	10.074448	1.4868317
1442741542304271797	-1.3498993	10.293777	0.550354
1442741542312664131	-0.69503784	10.453888	0.35458374
1442741542321056465	-0.59817505	10.449448	1.0569305
1442741542329448799	-0.6311035	10.139236	1.6766052
1442741542337841133	-0.6446533	9.273239	1.974762
1442741542346233467	-0.61701965	8.261795	2.33107
1442741542354625801	0.39808655	7.654175	1.9642792
1442741542363018135	0.2661438	8.528961	0.45716858
1442741542371410469	-0.0023345947	10.828171	-1.7209778
1442741542379802803	1.6996002	12.929626	-2.097046
1442741542388195137	3.7551117	15.337891	-0.93989563
1442741542396587471	5.6146545	17.776703	0.8912506
1442741542404979805	7.591095	19.392029	1.7098389
1442741542413372139	10.404877	19.90947	1.5179443
1442741542421764473	12.066238	17.856537	1.2103424
1442741542430156807	10.904205	14.097015	0.058746338
1442741542438549141	7.535324	11.453934	-0.124923706
1442741542446941475	3.4185028	9.21994	0.28356934
1442741542455333809	-0.642807	8.3461	1.2984161
1442741542463726143	-4.070587	8.834473	2.3693237
1442741542472118477	-8.00267	9.398422	2.0539246
1442741542480510811	-10.164368	10.348618	0.82270813
1442741542488903144	-11.992798	11.36554	-1.7042694
1442741542497295478	-10.559204	11.493698	-3.1122284
1442741542505687812	-6.5735474	10.982941	-3.3080902
1442741542514080146	-2.878006	9.992233	-2.5508423
1442741542522472480	-1.7677765	8.99913	-1.9721222
1442741542530864814	-0.12612915	7.175827	-1.1812744
1442741542539257148	0.28242493	8.01944	-1.3040619
1442741542547649482	1.74823	7.587097	-0.33595276
1442741542556041816	2.4204254	6.990082	0.06611633
1442741542564434150	2.564743	6.43985	0.16043091
1442741542572826484	2.213684	5.943222	0.18060303
1442741542581218818	1.6830139	5.4768066	0.36480713
1442741542589611152	0.78318787	4.737549	1.0216217
1442741542598003486	0.41732788	4.3262787	1.4988708
1442741542606395820	0.32380676	3.9005585	1.6153107
1442741542614788154	0.41682434	3.6948853	1.3639221
1442741542623180488	0.5432739	3.6924133	0.84298706
1442741542631572822	0.7531128	3.9667358	0.18296814
1442741542639965156	1.0293579	4.267807	-0.33995056
1442741542648357490	1.3712158	4.296936	-0.614975
1442741542656749824	1.7285614	4.3447723	-0.8793793
1442741542665142158	1.6966705	4.516342	-1.1349945
1442741542673534492	1.5849457	4.764633	-1.3615723
1442741542681926826	1.5357208	5.0200043	-1.529953
1442741542690319160	1.5668793	5.221466	-1.6578064
1442741542698711494	1.8222046	5.540085	-1.5687103
1442741542707103828	2.081833	6.0053406	-1.2919617
1442741542715496162	2.0620422	6.8569946	-0.9501343
1442741542723888496	1.4510956	8.129349	-0.71243286
1442741542732280830	-0.024246216	10.588135	-0.5573425
1442741542740673164	-1.9924469	13.797958	-1.153122
1442741542749065498	-3.450714	16.21518	-2.660965
1442741542757457832	-4.202957	17.425522	-6.40567
1442741542765850166	-3.9690552	18.730423	-11.006683
1442741542774242500	-8.494537	21.177948	-11.712418
1442741542782634834	-16.001236	21.038956	-8.471497
1442741542791027168	-15.339401	16.697052	-4.5600433
1442741542799419502	-8.533585	12.348801	-2.1831207
1442741542807811836	-5.305237	12.016541	-1.478363
1442741542816204170	-4.007904	12.797821	-1.5135803
1442741542824596504	-2.6079102	13.251923	-1.4150391
1442741542832988838	1.2662659	15.363647	-0.5286865
1442741542841381172	4.681305	16.341156	0.82655334
1442741542849773506	7.101959	16.320847	1.4655304
1442741542858165840	7.4064484	14.418121	1.0362701
1442741542866558174	6.7191315	11.240601	0.48414612
1442741542874950508	6.011902	6.5380554	0.53260803
1442741542883342842	5.3710175	4.748169	1.0938263
1442741542891735176	3.1310272	3.8703156	1.27771
1442741542900127510	2.7196503	3.14122	1.8888245
1442741542908519844	2.0305786	2.9501038	4.1930237
1442741542916912178	1.4533691	3.8254395	6.75264
1442741542925304512	1.3397064	5.1621094	8.03334
1442741542933696846	1.1595154	6.5535126	8.057236
1442741542942089180	1.2511902	7.1172943	7.460907
1442741542950481514	2.193634	7.397354	6.3159485
1442741542958873848	2.6673737	7.81839	4.9175873
1442741542967266182	2.8243866	9.066895	2.423874
1442741542975658516	2.8905792	10.594803	0.24110413
1442741542984050850	3.2994995	11.768173	-0.8792114
1442741542992443184	4.1123047	12.605576	-1.30513
1442741543000835518	3.1689758	12.673264	-1.2819977
1442741543009227852	1.7349548	11.45871	0.23973083
1442741543017620186	1.3528748	10.254318	-0.28697205
1442741543026012519	1.0409698	8.957825	0.05380249
1442741543034404853	0.5774536	8.1263275	1.5316315
1442741543042797187	0.04008484	7.7872314	2.7742767
1442741543051189521	-0.5472717	8.0950775	2.4964752
1442741543059581855	-1.4443817	8.842209	2.1306152
1442741543067974189	-2.6513367	9.636475	2.0131836
1442741543076366523	-2.8987122	9.74147	1.7560272
1442741543084758857	-3.146576	9.650284	1.7760773
1442741543093151191	-3.3133698	9.327942	1.8292542
1442741543101543525	-3.2837524	8.864243	1.7736359
1442741543109935859	-2.8601837	8.274216	1.7364044
1442741543118328193	-2.4840393	8.031738	1.6438751
1442741543126720527	-1.8154755	8.248291	1.3274078
1442741543135112861	-1.2678986	8.367325	1.2979889
1442741543143505195	-0.61180115	8.383942	1.4351807
1442741543151897529	-0.038864136	8.343292	1.4236908
1442741543160289863	0.3747406	8.3728485	1.3175049
1442741543168682197	0.5497589	8.604279	1.3600616
1442741543177074531	0.6405945	8.861313	1.3549347
1442741543185466865	0.14646912	9.131317	1.8350067
1442741543193859199	0.120773315	9.381805	1.7860565
1442741543202251533	-0.2046051	9.725372	1.6769257
1442741543210643867	-0.37275696	9.946274	1.4744568
1442741543219036201	-0.44895935	9.95929	1.1529694
1442741543227428535	-0.7691345	9.604706	0.6781616
1442741543235820869	-1.0064697	9.136032	0.40226746
1442741543244213203	-1.2121735	8.760056	0.9328766
1442741543252605537	-1.5274963	8.886856	1.4632568
1442741543260997871	-1.9564819	9.196548	1.9970093
1442741543269390205	-2.3016663	9.8728485	2.260849
1442741543277782539	-2.4988708	10.797272	2.394165
1442741543286174873	-2.603363	11.755707	2.5583801
1442741543294567207	-2.8835297	12.157532	2.782013
1442741543302959541	-3.2557068	11.839691	2.9773865
1442741543311351875	-3.3105469	11.809708	2.7289276
1442741543319744209	-2.888977	12.63446	1.928482
1442741543328136543	-2.2410278	13.494995	1.2450104
1442741543336528877	-1.7059784	13.710571	0.86972046
1442741543344921211	-1.4998169	12.7659	0.7427826
1442741543353313545	-1.5075378	11.588669	0.59198
1442741543361705879	-1.6380463	9.995773	-0.20121765
1442741543370098213	-1.6054993	9.614502	-0.3006134
1442741543378490547	-1.1546478	9.444717	0.15367126
1442741543386882881	-0.18244934	9.669571	0.24888611
1442741543395275215	1.0418243	10.339294	-0.26179504
1442741543403667549	2.27565	11.820892	-1.1629944
1442741543412059883	3.058792	13.449692	-1.5237274
1442741543420452217	4.989563	16.164963	-0.52427673
1442741543428844551	7.4512177	16.898407	0.20916748
1442741543437236885	10.43222	16.769623	1.6684113
1442741543445629219	11.284515	15.465378	2.2053375
1442741543454021553	9.774033	13.3945465	1.2379913
1442741543462413887	6.3098297	11.221176	-0.5952301
1442741543470806221	4.2914124	10.35701	-0.6786194
1442741543479198555	-0.42471313	9.901108	0.25476074
1442741543487590889	-2.755188	9.558395	1.2229462
1442741543495983223	-5.630768	9.418121	0.530365
1442741543504375557	-7.220825	9.363846	0.19642639
1442741543512767891	-8.151459	9.472656	-0.20727539
1442741543521160225	-7.9950256	9.965637	-1.1392517
1442741543529552559	-6.6646576	10.55574	-1.6308441
1442741543537944893	-3.792572	10.607986	-1.072525
1442741543546337227	-2.0806885	9.683502	-0.90289307
1442741543554729561	-1.5541077	8.390503	-0.63723755
1442741543563121894	-0.95259094	7.508194	-0.4973755
1442741543571514228	0.13424683	6.945099	-0.5843353
1442741543579906562	1.3460083	6.5727234	-0.80589294
1442741543588298896	2.02919	6.117462	-0.8140869
1442741543596691230	2.142517	5.490677	-0.7013855
1442741543605083564	2.0045624	5.190811	-0.44006348
1442741543613475898	1.666214	4.8046875	0.12109375
1442741543621868232	1.358551	4.604828	0.6721039
1442741543630260566	1.1824646	4.3954926	1.1342316
1442741543638652900	1.1647644	4.1266174	1.3020477
1442741543647045234	1.1319122	3.9234009	1.1927948
1442741543655437568	0.9042206	3.823944	0.6421509
1442741543663829902	0.7945404	3.738266	0.053527832
1442741543672222236	0.72673035	3.769333	-0.60401917
1442741543680614570	0.7418518	3.838791	-1.0554504
1442741543689006904	0.64863586	3.981491	-1.5130768
1442741543697399238	0.5278778	4.3033295	-1.9412537
1442741543705791572	0.5995331	4.7445526	-2.2291412
1442741543714183906	0.9306183	5.6631165	-2.3756561
1442741543722576240	1.2442017	6.609024	-2.2214355
1442741543730968574	1.3381958	8.232132	-1.8205109
1442741543739360908	0.7914734	9.74884	-1.4762268
1442741543747753242	-0.7111511	11.876877	-1.1326141
1442741543756145576	-2.7101288	14.259476	-1.2962189
1442741543764537910	-4.013199	15.937378	-2.2224274
1442741543772930244	-4.862213	17.213898	-5.2292175
1442741543781322578	-5.9263916	17.538635	-9.269974
1442741543789714912	-10.230377	18.210464	-9.165253
1442741543798107246	-12.352722	17.19011	-6.10347
1442741543806499580	-11.246887	13.96962	-4.2017975
1442741543814891914	-7.615631	10.644562	-3.536911
1442741543823284248	-4.961487	9.691147	-2.3027802
1442741543831676582	-4.1234283	10.564865	-1.4007568
1442741543840068916	-3.1381073	10.912735	-0.96806335
1442741543848461250	-0.6677246	11.457687	-0.4184265
1442741543856853584	1.7609558	13.310806	0.38087463
1442741543865245918	4.2227936	15.793198	1.4659271
1442741543873638252	6.7080994	18.637741	2.7194214
1442741543882030586	7.6523285	19.105667	1.9917755
1442741543890422920	7.84169	16.176208	-0.22566223
1442741543898815254	6.7954865	10.470215	-0.2796936
1442741543907207588	4.480728	7.4114227	-1.6625214
1442741543915599922	2.764801	4.8655243	-2.5664978
1442741543923992256	2.328537	2.7902832	-0.46817017
1442741543932384590	1.9593964	1.8210754	3.5735168
1442741543940776924	0.8236847	1.5860443	9.080917
1442741543949169258	0.37471008	2.6210632	9.848602
1442741543957561592	0.07577515	5.0293274	9.039261
1442741543965953926	0.3955536	6.4498444	7.636017
1442741543974346260	1.8717957	7.6115417	5.864929
1442741543982738594	3.4992676	8.886475	3.6935577
1442741543991130928	3.7707672	10.352768	1.3881836
1442741543999523262	3.1815643	12.669388	-2.3382416
1442741544007915596	3.5559845	13.3059845	-4.4279785
1442741544016307930	3.931076	12.952789	-1.5235596
1442741544024700264	3.4107666	12.319794	0.25657654
1442741544033092598	0.9298248	10.95961	0.70280457
1442741544041484932	-1.6310883	9.23671	1.1196594
1442741544049877266	-2.0929413	8.019272	2.4568176
1442741544058269600	-1.9980774	7.02005	3.176422
1442741544066661934	-2.5601501	6.9001007	2.605774
1442741544075054268	-2.4127808	7.9235992	1.813034
1442741544083446602	-2.1733246	8.725876	1.6216278
1442741544091838936	-1.7195129	9.272247	1.0972595
1442741544100231269	-1.2345734	9.455429	0.49137878
1442741544108623603	-0.9195099	9.478577	0.34950256
1442741544117015937	-0.46038818	9.38765	0.7931366
1442741544125408271	-0.221344	9.248856	1.1786957
1442741544133800605	-0.15008545	8.846359	1.2422333
1442741544142192939	-0.19299316	8.39711	1.3132172
1442741544150585273	-0.20301819	8.02507	1.5440369
1442741544158977607	-0.31098938	7.867584	1.8219147
1442741544167369941	-0.5031891	7.8569183	1.9872437
1442741544175762275	-0.5119171	8.090332	1.9906006
1442741544184154609	-0.4887848	8.454468	1.8509521
1442741544192546943	-0.53063965	8.969574	1.6992188
1442741544200939277	-0.7194214	9.246826	1.7273712
1442741544209331611	-1.0131989	9.481323	1.8026581
1442741544217723945	-1.2523804	9.671631	1.8144379
1442741544226116279	-1.3751678	9.810196	1.7303162
1442741544234508613	-1.4425354	9.767166	1.5162201
1442741544242900947	-1.459671	9.566666	1.3157196
1442741544251293281	-1.3817139	9.153839	1.0183105
1442741544259685615	-1.3698273	8.899414	0.8443756
1442741544268077949	-1.3871613	8.889496	0.9328003
1442741544276470283	-1.5200806	9.205048	1.3787231
1442741544284862617	-1.7223511	9.622635	1.8566437
1442741544293254951	-2.0068054	10.171127	1.9880829
1442741544301647285	-2.491745	10.8420105	1.8124237
1442741544310039619	-3.0097046	11.612991	2.3315887
1442741544318431953	-3.48674	11.794189	2.5351868
1442741544326824287	-4.0673065	11.899094	2.3623657
1442741544335216621	-4.1647797	11.96582	1.9195557
1442741544343608955	-3.7695313	12.15097	1.2001038
1442741544352001289	-2.944809	12.659988	-0.32269287
1442741544360393623	-2.1805573	12.805649	-1.0783997
1442741544368785957	-1.6600647	12.259308	-0.5531006
1442741544377178291	-1.5602264	11.045563	-0.35539246
1442741544385570625	-1.476593	9.622025	-0.44877625
1442741544393962959	-1.3494873	8.933487	-0.41062927
1442741544402355293	-1.0559235	9.01326	-0.079574585
1442741544410747627	-0.24061584	9.991425	0.055664063
1442741544419139961	0.6787567	11.16954	-0.95796204
1442741544427532295	1.8167725	14.006592	-1.4283447
1442741544435924629	3.605011	16.154114	-0.3347473
1442741544444316963	6.5462036	18.148804	1.2713623
1442741544452709297	9.532074	18.669022	3.1565857
1442741544461101631	11.290558	17.952255	4.010971
1442741544469493965	10.066513	15.802261	1.7395477
1442741544477886299	7.574951	13.663696	-0.74946594
1442741544486278633	4.022339	12.045334	-1.5125885
1442741544494670967	1.1470032	11.668015	-1.030304
1442741544503063301	-1.7087097	11.23938	-1.0719604
1442741544511455635	-4.190399	10.433563	-0.877182
1442741544519847969	-5.832855	9.51474	-0.4095459
1442741544528240303	-5.6451263	8.979782	-0.4819641
1442741544536632637	-5.406082	8.894104	-1.4295807
1442741544545024971	-5.3068237	8.603729	-1.0938263
1442741544553417305	-4.218704	8.395538	-0.82736206
1442741544561809639	-2.530426	7.83873	-0.6749878
1442741544570201973	-1.6994934	6.981247	-0.5516205
1442741544578594307	-1.3205261	6.0141907	-0.27059937
1442741544586986641	-0.6453247	5.2503204	0.14350891
1442741544595378975	-0.03526306	5.195465	0.16664124
1442741544603771309	0.66755676	5.300812	0.07299805
1442741544612163643	1.0531311	5.02063	0.25549316
1442741544620555977	1.5623932	4.729141	0.386261
1442741544628948311	1.8553619	4.520111	0.33874512
1442741544637340644	1.9369202	4.301758	0.39634705
1442741544645732978	1.8565063	3.997223	0.74113464
1442741544654125312	1.8402252	3.7341766	0.90992737
1442741544662517646	1.7646637	3.4473724	0.9185486
1442741544670909980	1.5504608	3.3342743	0.6615143
1442741544679302314	1.1987152	3.2569427	0.13328552
1442741544687694648	0.9254761	3.4142456	-0.3659668
1442741544696086982	0.73121643	3.7555542	-0.8811798
1442741544704479316	0.5485382	4.2950745	-1.4828644
1442741544712871650	0.3231964	4.8160095	-1.933548
1442741544721263984	0.3950348	5.987335	-2.4380035
1442741544729656318	0.55781555	7.0103455	-2.1843872
1442741544738048652	0.94924927	8.428513	-1.6248779
1442741544746440986	1.043396	9.84137	-1.2423248
1442741544754833320	0.37123108	11.590439	-1.1186523
1442741544763225654	-1.3012085	13.825562	-1.5929565
1442741544771617988	-2.6631622	15.5954895	-2.5619354
1442741544780010322	-3.3099518	16.767471	-5.585022
1442741544788402656	-4.167633	16.69635	-9.971924
1442741544796794990	-7.9086	17.476898	-11.658493
1442741544805187324	-11.940048	17.677078	-7.598938
1442741544813579658	-13.131119	15.790756	-3.793045
1442741544821971992	-9.722305	12.140244	-3.3893127
1442741544830364326	-6.2612305	10.484482	-3.316864
1442741544838756660	-5.0884247	11.111206	-1.9346008
1442741544847148994	-4.0508423	11.556747	-1.2782898
1442741544855541328	-1.5379181	11.589478	-0.60995483
1442741544863933662	0.8082123	12.320343	0.045654297
1442741544872325996	3.72435	14.157715	0.8148651
1442741544880718330	6.8841553	16.528946	1.5520935
1442741544889110664	8.5672455	17.648102	1.9489594
1442741544897502998	8.333237	15.569092	1.3144226
1442741544905895332	8.049637	11.863434	0.6923981
1442741544914287666	4.5704956	8.070099	0.15638733
1442741544922680000	3.1520538	5.8552704	-1.0982513
1442741544931072334	2.6592712	4.1783752	-0.33888245
1442741544939464668	2.1558228	3.243103	3.789505
1442741544947857002	1.4837799	3.0467682	7.796234
1442741544956249336	-0.09950256	3.8297272	10.418442
1442741544964641670	-0.27687073	4.7053986	9.30629
1442741544973034004	0.18141174	6.043701	7.412735
1442741544981426338	0.63412476	7.115555	5.4145966
1442741544989818672	1.3230133	8.168564	3.0856934
1442741544998211006	1.9584808	9.508316	1.0948029
1442741545006603340	2.1352386	11.082718	-0.0048065186
1442741545014995674	2.9917908	12.944794	-1.4637604
1442741545023388008	4.4792023	13.094742	-1.719101
1442741545031780342	5.3247375	12.144608	-0.78004456
1442741545040172676	4.087494	11.034271	-0.546875
1442741545048565010	2.0533752	9.657806	0.9976196
1442741545056957344	0.39622498	8.335999	3.1978455
1442741545065349678	-0.34391785	7.5249023	3.7575989
1442741545073742012	-0.9796448	7.312866	2.3539124
1442741545082134346	-1.1518707	8.123398	1.4602661
1442741545090526680	-1.5281677	9.304581	1.9008484
1442741545098919014	-1.7560272	9.681061	1.8316956
1442741545107311348	-1.9204712	9.653687	1.2737732
1442741545115703682	-2.0236053	9.298416	0.78744507
1442741545124096016	-2.07872	8.923859	0.7668762
1442741545132488350	-1.9913177	8.667679	0.93481445
1442741545140880684	-1.72258	8.47876	0.99331665
1442741545149273018	-1.2541504	8.520325	0.9611206
1442741545157665352	-1.0658417	8.451508	1.1047974
1442741545166057686	-0.94184875	8.245132	1.5644531
1442741545174450019	-0.85266113	8.075394	2.1702423
1442741545182842353	-0.75172424	8.080399	2.5262146
1442741545191234687	-0.50141907	8.287048	2.3441315
1442741545199627021	-0.35061646	8.51239	2.2815857
1442741545208019355	-0.19703674	8.929138	2.1822052
1442741545216411689	-0.053375244	9.231812	1.947586
1442741545224804023	0.043685913	9.548065	1.639328
1442741545233196357	0.08001709	9.875931	1.2903748
1442741545241588691	-0.014450073	9.931839	1.1451416
1442741545249981025	-0.12257385	9.877594	1.0224304
1442741545258373359	-0.27764893	9.4449005	0.977005
1442741545266765693	-0.45547485	9.249481	1.0928497
1442741545275158027	-0.548996	9.300949	1.0328217
1442741545283550361	-0.7872772	9.514374	0.9846039
1442741545291942695	-1.3479156	9.661575	1.3379669
1442741545300335029	-2.3397064	10.051559	2.5036469
1442741545308727363	-2.8495026	10.359146	2.7881012
1442741545317119697	-3.2266235	10.853424	3.0252228
1442741545325512031	-3.4795227	11.255737	3.1044006
1442741545333904365	-3.8520813	11.840698	2.999115
1442741545342296699	-3.9134674	12.412384	2.716095
1442741545350689033	-3.5467377	12.726517	2.292511
1442741545359081367	-3.1946259	12.884323	0.8206177
1442741545367473701	-2.5734406	12.701828	-0.45343018
1442741545375866035	-1.8604736	12.271652	-1.9329071
1442741545384258369	-1.8696594	11.903458	-1.7460175
1442741545392650703	-2.0180664	11.157639	-1.2619629
1442741545401043037	-2.1425781	10.075836	-0.915802
1442741545409435371	-2.1889343	9.1175995	-0.6848755
1442741545417827705	-1.9903412	8.545715	-0.2705841
1442741545426220039	-1.6690369	8.825043	0.102127075
1442741545434612373	-1.1174164	9.940445	0.21206665
1442741545443004707	-0.4535675	11.1757965	-0.2961731
1442741545451397041	0.22651672	12.918549	-0.9714508
1442741545459789375	1.792038	14.512527	-0.829422
1442741545468181709	4.379822	15.506973	0.37127686
1442741545476574043	8.058777	16.108124	2.8490753
1442741545484966377	9.698685	16.223785	3.8215332
1442741545493358711	8.340927	14.449432	1.5280304
1442741545501751045	6.566818	12.529572	-0.08592224
1442741545510143379	3.5907745	11.29776	-0.83818054
1442741545518535713	0.45672607	10.792557	-0.39831543
1442741545526928047	-2.082138	10.313019	0.20584106
1442741545535320381	-4.941513	9.804352	-0.09463501
1442741545543712715	-6.3449554	9.660416	-0.34739685
1442741545552105049	-6.2742615	9.708939	-0.59724426
1442741545560497383	-5.9302673	9.699753	-0.74331665
1442741545568889717	-5.1331787	9.603439	-0.9849396
1442741545577282051	-3.5569153	9.362701	-1.2200928
1442741545585674385	-1.7440948	8.908966	-1.3300171
1442741545594066719	-0.41615295	7.865799	-1.213623
1442741545602459053	-0.24307251	7.04068	-1.0988159
1442741545610851387	0.13032532	6.483658	-1.0614624
1442741545619243721	0.7018738	6.375351	-0.8822174
1442741545627636055	1.3149109	6.0727386	-0.5022888
1442741545636028389	1.5896149	5.7780457	-0.17871094
1442741545644420723	1.5628662	5.591736	0.058761597
1442741545652813057	1.2885742	5.3878937	0.46420288
1442741545661205391	1.0323944	5.2859344	0.80947876
1442741545669597725	0.7104492	5.048645	1.2076263
1442741545677990059	0.7173462	4.8089447	1.1343231
1442741545686382393	0.63934326	4.574936	0.8859253
1442741545694774727	0.6383209	4.3408356	0.45211792
1442741545703167061	0.7268524	4.1031494	-0.05845642
1442741545711559394	0.8076782	3.9486847	-0.56921387
1442741545719951728	0.8882141	3.9958038	-0.7868347
1442741545728344062	0.8306732	4.1631775	-1.5836029
1442741545736736396	0.90231323	4.5217896	-2.2709045
1442741545745128730	1.0671387	5.142441	-2.826477
1442741545753521064	1.2425537	5.940567	-2.8105469
1442741545761913398	1.4181061	6.930908	-2.4062042
1442741545770305732	1.4703827	8.499069	-1.7817535
1442741545778698066	1.071106	10.040497	-1.4990082
1442741545787090400	-0.83021545	12.99884	-1.516571
1442741545795482734	-2.7068481	15.07959	-1.9158173
1442741545803875068	-4.1989136	16.980347	-3.527359
1442741545812267402	-4.725281	17.7191	-7.350891
1442741545820659736	-6.0723724	18.05626	-11.0742035
1442741545829052070	-10.211838	18.216843	-10.437973
1442741545837444404	-13.566208	17.373764	-5.52594
1442741545845836738	-9.82164	13.191406	-4.5408783
1442741545854229072	-7.0815887	11.903641	-3.5041504
1442741545862621406	-5.254532	11.532822	-2.4339752
1442741545871013740	-4.401413	11.404755	-1.8193359
1442741545879406074	-3.0480957	11.325684	-1.2541351
1442741545887798408	-0.39453125	12.394058	-0.2944641
1442741545896190742	1.5341187	14.626007	0.6111908
1442741545904583076	6.3118286	17.681427	2.6979523
1442741545912975410	7.828369	16.906876	2.405777
1442741545921367744	7.7852325	13.33876	1.587738
1442741545929760078	6.3418884	9.283829	1.5131683
1442741545938152412	4.6441345	6.01828	1.9777374
1442741545946544746	3.457962	3.9682465	2.4190063
1442741545954937080	3.293457	2.780716	2.4661255
1442741545963329414	2.9156952	1.8116608	5.050583
1442741545971721748	2.4161835	2.4114227	7.640747
1442741545980114082	1.2228699	3.7233734	8.575043
1442741545988506416	1.0498352	5.118088	7.8693085
1442741545996898750	1.6242981	6.358307	6.8431244
1442741546005291084	2.223526	7.533493	5.52623
1442741546013683418	2.1952362	8.731293	3.8503418
1442741546022075752	2.3272247	10.657974	0.55101013
1442741546030468086	3.1754608	12.060562	-0.9766693
1442741546038860420	4.528473	13.198883	-3.295761
1442741546047252754	4.754547	13.554398	-2.4773712
1442741546055645088	4.260849	12.993011	-1.4654541
1442741546064037422	2.866684	11.2854	-1.984787
1442741546072429756	0.8335724	9.822952	-1.7123413
1442741546080822090	-0.25564575	8.161514	2.7224884
1442741546089214424	-0.61979675	7.4049683	3.801178
1442741546097606758	-1.1232147	7.2098694	3.763153
1442741546105999092	-1.8510132	7.8175507	2.9561157
1442741546114391426	-2.4134216	8.731552	2.3728485
1442741546122783760	-2.599594	9.441925	2.214447
1442741546131176094	-2.7923584	9.555847	1.8631897
1442741546139568428	-2.7596588	9.1579895	0.73516846
1442741546147960762	-2.5291748	8.94635	0.56295776
1442741546156353096	-2.1747894	8.806046	0.7724457
1442741546164745430	-1.9312592	8.785767	1.0500336
1442741546173137764	-1.5642853	8.723389	1.2649536
1442741546181530098	-1.0506744	8.529434	1.385788
1442741546189922432	-0.68211365	8.312302	1.4826202
1442741546198314766	0.036987305	8.116119	1.9005585
1442741546206707100	0.49710083	8.008163	2.0941925
1442741546215099434	0.85861206	8.161545	2.0630798
1442741546223491768	1.1070862	8.343079	2.024582
1442741546231884102	1.3990326	8.738327	1.8196411
1442741546240276436	1.4390106	9.247314	1.4741364
1442741546248668769	1.0678711	9.486465	1.2743073
1442741546257061103	0.5860596	9.8042145	0.8580017
1442741546265453437	0.36157227	10.099823	0.76290894
1442741546273845771	-0.0539093	10.356323	0.9414215
1442741546282238105	-0.30137634	10.366821	0.8305969
1442741546290630439	-0.50320435	10.16275	0.4718628
1442741546299022773	-0.7988434	9.806183	0.2537079
1442741546307415107	-1.234787	9.560654	0.51712036
1442741546315807441	-2.1644592	9.712784	1.6568756
1442741546324199775	-2.722229	10.200302	2.2823486
1442741546332592109	-3.1269836	10.703461	2.277481
1442741546340984443	-3.655716	11.137085	2.1636047
1442741546349376777	-4.524338	11.206802	2.2645874
1442741546357769111	-5.222046	11.16124	2.425827
1442741546366161445	-5.5969696	11.383606	2.5224762
1442741546374553779	-5.0966034	12.27124	2.1960297
1442741546382946113	-3.917572	13.753387	1.2298279
1442741546391338447	-2.513153	14.401291	0.44422913
1442741546399730781	-2.0454407	13.61702	0.56929016
1442741546408123115	-1.8879395	11.980347	0.7289429
1442741546416515449	-1.999054	10.277267	0.50431824
1442741546424907783	-2.2299194	9.362534	0.034805298
1442741546433300117	-2.5366516	9.3394165	-0.31336975
1442741546441692451	-2.157959	9.504776	0.15187073
1442741546450084785	-1.0225372	9.671494	1.0254974
1442741546458477119	0.066833496	10.130737	0.7848511
1442741546466869453	0.99642944	10.895447	0.16903687
1442741546475261787	1.8430328	12.052032	-0.57115173
1442741546483654121	3.501175	14.293015	-0.11921692
1442741546492046455	5.7674103	15.567078	0.9286499
1442741546500438789	8.905197	16.240128	2.433197
1442741546508831123	9.753769	15.615723	2.7725372
1442741546517223457	8.696625	13.840439	1.6641846
1442741546525615791	6.1076813	11.85994	0.17878723
1442741546534008125	3.6701355	11.047409	-0.0076904297
1442741546542400459	-0.05154419	10.8311615	0.002029419
1442741546550792793	-1.8825226	10.43103	0.1708374
1442741546559185127	-3.725647	9.25296	0.084121704
1442741546567577461	-5.0241547	8.999924	0.045684814
1442741546575969795	-6.0484314	8.924805	-0.1281128
1442741546584362129	-6.0122986	8.942215	-0.58496094
1442741546592754463	-5.1627502	9.173813	-1.0471039
1442741546601146797	-4.284668	9.641602	-0.9700012
1442741546609539131	-2.6464386	9.220047	-0.9759979
1442741546617931465	-1.3354645	8.349365	-0.9863434
1442741546626323799	-1.1069641	7.9252777	-0.73947144
1442741546634716133	-0.6354065	7.6937103	-0.5497284
1442741546643108467	0.093948364	7.572006	-0.32318115
1442741546651500801	0.5736084	7.414032	0.010681152
1442741546659893135	0.87631226	7.010193	0.13601685
1442741546668285469	1.2764282	6.594635	0.47444153
1442741546676677803	1.5271301	6.0910034	0.44960022
1442741546685070137	1.5453796	5.7414703	0.5543518
1442741546693462471	1.5619965	5.2825623	0.78079224
1442741546701854805	1.5828552	4.905365	0.95669556
1442741546710247139	1.5970917	4.7188873	0.9397278
1442741546718639473	1.6316986	4.5315704	0.5499573
1442741546727031807	1.3977966	4.481888	0.22950745
1442741546735424141	1.3468475	4.3592834	-0.36819458
1442741546743816475	1.3647003	4.4394226	-0.7154236
1442741546752208809	1.4759216	4.6249847	-0.98306274
1442741546760601143	1.5370483	4.9114075	-1.1847839
1442741546768993477	1.5056152	5.2333527	-1.4040985
1442741546777385811	1.6107025	5.6853943	-1.7398224
1442741546785778144	1.8291779	6.2380524	-1.8392181
1442741546794170478	2.0605621	7.4216614	-1.6308289
1442741546802562812	1.894928	8.529709	-1.3695831
1442741546810955146	1.2291412	10.096588	-1.1874084
1442741546819347480	-0.09915161	11.869583	-1.1478577
1442741546827739814	-1.712204	13.573532	-1.3929901
1442741546836132148	-3.5644226	15.353699	-2.7785187
1442741546844524482	-4.4657745	15.776108	-4.4021454
1442741546852916816	-5.959839	15.846344	-7.938629
1442741546861309150	-8.103577	16.340149	-8.730515
1442741546869701484	-11.01828	16.231293	-6.306793
1442741546878093818	-11.508972	14.606888	-3.9705353
1442741546886486152	-9.350479	12.303604	-3.4825745
1442741546894878486	-5.7041626	10.418991	-2.8489838
1442741546903270820	-4.190201	10.138824	-1.9082184
1442741546911663154	-2.7737732	10.13681	-1.318512
1442741546920055488	-1.8021393	9.965546	-1.0160522
1442741546928447822	-0.3210144	10.038849	-0.50102234
1442741546936840156	1.3513947	11.452988	0.19062805
1442741546945232490	3.4029999	13.977127	0.8665161
1442741546953624824	6.354843	17.16623	1.4103851
1442741546962017158	6.7455444	18.418045	1.6965637
1442741546970409492	6.7309113	15.357758	-0.23132324
1442741546978801826	4.547806	11.517761	0.17752075
1442741546987194160	3.019165	7.484009	-0.4550476
1442741546995586494	2.5984497	4.9610443	-0.27548218
1442741547003978828	2.381546	3.421875	1.7475739
1442741547012371162	1.8311005	2.4871368	5.7611084
1442741547020763496	1.2973175	2.7467499	8.017914
1442741547029155830	-0.037597656	4.4399414	7.675125
1442741547037548164	0.29023743	5.7958527	6.574112
1442741547045940498	0.815979	7.01268	5.210968
1442741547054332832	1.5681	7.8681335	4.0079193
1442741547062725166	2.3316193	8.826492	2.8265076
1442741547071117500	2.7902985	10.419403	1.2347565
1442741547079509834	2.9102478	11.825409	-0.2295227
1442741547087902168	3.8389893	12.4687195	-2.36557
1442741547096294502	4.832855	11.832306	-0.792511
1442741547104686836	4.706833	11.154129	0.5038605
1442741547113079170	3.0244446	10.262817	1.1129608
1442741547121471504	1.1587372	9.187546	2.0745392
1442741547129863838	-0.022460938	8.067764	3.8666687
1442741547138256172	-1.000946	7.3283386	4.194824
1442741547146648506	-1.7464294	7.120987	2.3724976
1442741547155040840	-2.1979675	8.060059	1.8686981
1442741547163433174	-2.6555939	9.197205	1.9440765
1442741547171825508	-2.7527618	9.801315	1.6473083
1442741547180217842	-2.654068	10.012222	1.0439606
1442741547188610176	-2.4827728	9.903748	0.718338
1442741547197002510	-2.3131256	9.639008	0.7757416
1442741547205394844	-1.7319946	9.10968	1.0216217
1442741547213787178	-1.455246	8.839783	1.0498962
1442741547222179512	-1.0381012	8.4357605	1.2662811
1442741547230571846	-0.6637268	8.059662	1.573822
1442741547238964180	-0.33607483	7.81131	1.8956299
1442741547247356514	0.030288696	7.8097076	2.1097565
1442741547255748848	0.44325256	7.9048157	2.0694885
1442741547264141182	0.8755646	8.513687	1.9054413
1442741547272533516	0.85328674	8.806702	1.7289429
1442741547280925850	0.8506317	8.939056	1.6797333
1442741547289318184	0.52726746	9.221283	1.5743408
1442741547297710518	0.114868164	9.581223	1.361969
1442741547306102852	-0.1925354	9.7939	1.1143188
1442741547314495186	-0.45729065	9.819611	1.000351
1442741547322887519	-0.59121704	9.726776	0.985199
1442741547331279853	-0.6246338	9.629959	0.9560547
1442741547339672187	-0.7332611	9.472916	0.8116455
1442741547348064521	-0.76885986	9.500427	0.75798035
1442741547356456855	-0.9132385	9.742096	0.8597412
1442741547364849189	-1.3731842	10.246689	1.2907867
1442741547373241523	-1.8941956	10.753616	1.901825
1442741547381633857	-2.8633728	11.460861	2.1728363
1442741547390026191	-3.6456146	11.526825	2.2002563
1442741547398418525	-4.445053	11.190262	2.4120789
1442741547406810859	-5.0711365	10.904129	2.4521027
1442741547415203193	-5.312134	11.136627	2.212906
1442741547423595527	-4.817444	12.254654	1.6083221
1442741547431987861	-4.1014557	13.49231	0.99095154
1442741547440380195	-3.177185	14.07196	0.69654846
1442741547448772529	-2.5345764	13.212585	0.9356079
1442741547457164863	-2.1699219	11.745041	0.98054504
1442741547465557197	-2.175003	10.541412	0.38478088
1442741547473949531	-2.1270294	9.571289	-0.21783447
1442741547482341865	-1.7858887	9.10878	-0.12246704
1442741547490734199	-1.2709961	9.124939	0.4959259
1442741547499126533	0.29626465	9.772858	0.55615234
1442741547507518867	1.3304443	10.914139	-0.25953674
1442741547515911201	2.5359802	13.282669	-0.9203644
1442741547524303535	4.086197	15.3550415	-0.3580475
1442741547532695869	6.454056	17.212418	1.0741882
1442741547541088203	9.298767	17.898773	2.9034271
1442741547549480537	11.227051	17.12378	3.968979
1442741547557872871	10.449692	14.292557	1.9456024
1442741547566265205	7.93927	12.340775	-0.10385132
1442741547574657539	4.4461517	11.032455	-0.82196045
1442741547583049873	1.5433197	10.674942	-0.480011
1442741547591442207	-0.927536	10.41275	-0.1035614
1442741547599834541	-3.1404114	10.025101	-0.11997986
1442741547608226875	-5.237976	9.58551	-0.28923035
1442741547616619209	-5.520279	9.004288	0.36047363
1442741547625011543	-5.0850067	8.940872	-0.4235077
1442741547633403877	-4.431549	9.12413	-1.818924
1442741547641796211	-4.1389923	9.212509	-1.5210571
1442741547650188545	-3.2146454	9.076569	-1.131424
1442741547658580879	-1.4166412	8.679947	-1.0908203
1442741547666973213	-0.94680786	7.9450073	-0.5743408
1442741547675365547	-0.827713	7.4532166	-0.26931763
1442741547683757881	-0.23014832	7.1323853	-0.4134369
1442741547692150215	0.5290985	6.9910126	-0.5426636
1442741547700542549	1.1800842	6.653595	-0.3620758
1442741547708934883	1.5241394	6.059601	0.02760315
1442741547717327217	1.6833038	5.5963593	0.16862488
1442741547725719551	1.6816711	5.2048035	0.18891907
1442741547734111885	1.4190826	4.837036	0.6316681
1442741547742504219	1.3968048	4.6262665	0.971817
1442741547750896553	1.3943939	4.3394165	1.0059052
1442741547759288887	1.3984528	4.12735	0.77697754
1442741547767681221	1.3946381	3.875351	0.36439514
1442741547776073555	1.3585815	3.6626282	-0.07867432
1442741547784465889	1.3111877	3.566452	-0.40818787
1442741547792858223	1.3162384	3.6960297	-0.77023315
1442741547801250557	1.335083	3.9564972	-1.0932465
1442741547809642891	1.2592926	4.3816986	-1.4513245
1442741547818035225	1.130127	5.029831	-1.8634338
1442741547826427559	1.044754	5.9007416	-2.0886993
1442741547834819893	1.0633087	6.7929535	-2.04747
1442741547843212227	1.1676178	8.200424	-1.9578705
1442741547851604561	1.0956421	9.543015	-1.9621582
1442741547859996894	-0.07978821	11.993378	-1.9167938
1442741547868389228	-1.838913	14.027252	-2.3999329
1442741547876781562	-3.857895	15.873795	-3.452179
1442741547885173896	-5.3669586	16.909164	-5.5227966
1442741547893566230	-6.4452667	17.276474	-7.936661
1442741547901958564	-9.918777	17.9263	-8.930588
1442741547910350898	-12.835327	17.550156	-6.045746
1442741547918743232	-11.628906	14.061493	-4.6373596
1442741547927135566	-8.951065	11.012756	-4.3710938
1442741547935527900	-6.2092896	8.787918	-3.595993
1442741547943920234	-4.362808	8.115158	-2.3141937
1442741547952312568	-3.2947388	8.254425	-1.2635498
1442741547960704902	-2.002182	8.806702	-0.37094116
1442741547969097236	-0.5978546	9.383347	0.22625732
1442741547977489570	3.547943	11.988815	0.113204956
1442741547985881904	6.986618	15.598129	1.0091858
1442741547994274238	8.285355	19.531311	2.59169
1442741548002666572	8.272751	20.848068	2.2583466
1442741548011058906	8.580322	18.68721	0.12104797
1442741548019451240	6.5934906	11.454941	-0.8813019
1442741548027843574	3.8148956	7.900955	-3.2049255
1442741548036235908	2.3924255	4.4296417	-3.862976
1442741548044628242	2.252533	3.647583	-0.247406
1442741548053020576	1.5279541	3.0229034	4.5852203
1442741548061412910	0.02633667	2.83255	8.265167
1442741548069805244	-1.277298	3.382965	9.776932
1442741548078197578	-1.2831116	5.149521	8.068588
1442741548086589912	-0.97550964	6.4989777	7.0858307
1442741548094982246	0.6498718	7.513794	5.3729095
1442741548103374580	1.8563995	8.104996	4.499649
1442741548111766914	2.3049316	9.352112	2.9442291
1442741548120159248	2.5817719	11.011505	0.2605133
1442741548128551582	3.4123077	12.40123	-2.3276062
1442741548136943916	4.756241	13.016571	-2.4312592
1442741548145336250	4.966156	12.565872	-0.06816101
1442741548153728584	3.7793884	10.486893	-0.019805908
1442741548162120918	1.5923462	9.368286	1.1094971
1442741548170513252	-0.07461548	8.114365	2.9710693
1442741548178905586	-0.8267212	6.9828644	3.6265259
1442741548187297920	-1.2352753	6.3724823	2.867279
1442741548195690254	-1.4362335	7.1861267	1.7510223
1442741548204082588	-1.8714905	8.637543	2.2573853
1442741548212474922	-2.1280365	9.970352	2.1251373
1442741548220867256	-1.7615356	10.076157	1.467392
1442741548229259590	-1.6823425	9.933594	0.70854187
1442741548237651924	-1.6613922	9.649994	0.49508667
1442741548246044258	-1.4861755	9.343018	0.6698456
1442741548254436592	-1.2461853	9.003616	0.8246765
1442741548262828926	-1.0791016	8.814255	0.82125854
1442741548271221260	-1.1155396	8.506866	1.509552
1442741548279613594	-0.96084595	8.273087	1.9247742
1442741548288005928	-0.7205353	8.117203	2.2371826
1442741548296398262	-0.43008423	8.136826	2.343979
1442741548304790596	-0.17868042	8.290848	2.3229065
1442741548313182930	-0.068374634	8.578781	2.1418304
1442741548321575264	-0.0332489	8.694458	1.9524689
1442741548329967598	0.16688538	8.871124	1.8491516
1442741548338359932	0.18260193	9.240372	1.6362762
1442741548346752266	-0.03590393	9.683807	1.3815918
1442741548355144600	-0.25413513	9.929459	1.1554871
1442741548363536934	-0.40112305	9.994049	0.94854736
1442741548371929268	-0.49964905	9.909592	0.7922363
1442741548380321602	-0.40968323	9.815353	0.80337524
1442741548388713936	-0.55540466	9.918915	1.1594696
1442741548397106269	-0.6573639	9.992584	1.0917969
1442741548405498603	-1.1811066	10.301086	1.3551178
1442741548413890937	-1.81781	10.750504	1.7245331
1442741548422283271	-2.4872131	11.112259	2.0372314
1442741548430675605	-3.2853546	11.101501	2.3981628
1442741548439067939	-3.7694397	10.787918	2.8634033
1442741548447460273	-4.6220093	10.506592	2.6200562
1442741548455852607	-4.6879883	10.980392	2.5403595
1442741548464244941	-4.1974792	12.073044	1.8237457
1442741548472637275	-3.472412	12.98468	0.7307129
1442741548481029609	-2.720749	13.382263	-0.21182251
1442741548489421943	-2.1017914	12.819275	-0.4295349
1442741548497814277	-2.0212555	11.68486	0.010879517
1442741548506206611	-2.2185974	9.707001	0.044143677
1442741548514598945	-2.2562866	9.012131	-0.35856628
1442741548522991279	-2.236145	8.84259	-0.1769867
1442741548531383613	-1.9474182	9.178757	0.47450256
1442741548539775947	-1.303009	9.843643	0.8197937
1442741548548168281	-0.34461975	11.057159	0.2205658
1442741548556560615	0.20115662	12.296097	-0.61224365
1442741548564952949	1.8140411	14.564407	-0.4624176
1442741548573345283	3.8420715	15.833313	0.2692871
1442741548581737617	7.311554	16.729767	1.9954987
1442741548590129951	9.619705	16.61679	3.2445984
1442741548598522285	10.120941	15.6032715	2.8022919
1442741548606914619	8.243347	13.745377	0.4780426
1442741548615306953	6.0994415	12.426285	-0.6651001
1442741548623699287	2.3972626	11.716034	-0.65670776
1442741548632091621	0.3726349	11.405014	-0.3611145
1442741548640483955	-2.0794067	10.652405	-0.37583923
1442741548648876289	-4.508835	10.133682	-0.31584167
1442741548657268623	-6.0110474	9.750961	-0.076416016
1442741548665660957	-5.983246	9.531357	-0.04550171
1442741548674053291	-6.001648	9.5914	-0.5703125
1442741548682445625	-4.6850586	10.085709	-0.9630585
1442741548690837959	-3.2858734	9.893784	-0.9904785
1442741548699230293	-1.643631	9.054092	-1.2050476
1442741548707622627	-1.0836334	8.099991	-0.9075012
1442741548716014961	-0.85409546	7.174713	-0.5244751
1442741548724407295	-0.4496765	6.5402374	-0.44721985
1442741548732799629	0.10496521	6.322586	-0.52511597
1442741548741191963	0.8106842	5.8249054	-0.11540222
1442741548749584297	1.1816864	5.398224	0.22903442
1442741548757976631	1.3578796	4.9394684	0.5075226
1442741548766368965	1.332962	4.565262	0.7627716
1442741548774761299	1.3040619	4.1820984	1.0916138
1442741548783153633	1.3597565	3.8232574	1.3621979
1442741548791545967	1.4619598	3.556244	1.3903809
1442741548799938301	1.5983582	3.2172241	0.87368774
1442741548808330635	1.6566315	3.1092682	0.3390503
1442741548816722969	1.7840881	3.0426483	-0.28390503
1442741548825115303	1.8235931	3.2160645	-0.64598083
1442741548833507637	1.8364716	3.5200348	-1.0054474
1442741548841899971	1.7538757	3.9492645	-1.4274902
1442741548850292305	1.5621643	4.449127	-1.8280029
1442741548858684639	1.38414	5.571335	-2.4456482
1442741548867076973	1.2701874	6.551544	-2.546753
1442741548875469307	1.2473907	8.149155	-2.3025513
1442741548883861641	1.1415253	9.685089	-1.9574127
1442741548892253975	0.6287689	11.647827	-1.6367035
1442741548900646309	-0.58039856	13.7873535	-1.6164703
1442741548909038643	-2.0077057	15.367386	-2.0252686
1442741548917430977	-3.65979	16.220078	-3.9936829
1442741548925823311	-4.579132	15.867081	-6.7148743
1442741548934215644	-7.604477	16.705948	-11.227539
1442741548942607978	-11.641571	18.006638	-9.045898
1442741548951000312	-14.184723	17.508163	-5.506027
1442741548959392646	-12.654861	14.1345825	-3.9885101
1442741548967784980	-9.149338	10.3706665	-4.1482086
1442741548976177314	-6.3114166	8.136673	-2.793686
1442741548984569648	-5.4563293	7.474365	-1.7749481
1442741548992961982	-3.977707	7.5704956	-0.6135254
1442741549001354316	-2.3064728	8.185699	0.20025635
1442741549009746650	0.0980072	9.8845215	0.92352295
1442741549018138984	3.587677	12.76532	1.5691986
1442741549026531318	6.9576874	15.865921	2.4791412
1442741549034923652	8.151199	19.906586	4.4674683
1442741549043315986	9.1219635	21.001602	2.6004639
1442741549051708320	9.401413	15.708481	-0.96484375
1442741549060100654	7.0241547	10.360092	-0.16209412
1442741549068492988	4.216751	5.83165	-1.6441956
1442741549076885322	2.8481293	3.8989258	-2.1508026
1442741549085277656	2.5795898	3.6894379	1.1989899
1442741549093669990	1.4065857	4.071411	5.6891327
1442741549102062324	0.276474	4.3207397	7.8936768
1442741549110454658	-1.3951416	5.561844	8.642441
1442741549118846992	-1.2445221	6.457306	7.0149536
1442741549127239326	0.28068542	7.0989685	5.237854
1442741549135631660	1.9758911	7.6918945	4.3150635
1442741549144023994	2.81044	8.587311	3.7471924
1442741549152416328	3.236374	10.263824	1.9272156
1442741549160808662	3.8301392	11.348526	-0.3167572
1442741549169200996	5.6718903	12.669693	-2.1818237
1442741549177593330	5.9824524	12.679398	-1.5332031
1442741549185985664	4.1484528	11.836487	-1.0592804
1442741549194377998	1.4365387	10.363098	0.24858093
1442741549202770332	-0.32740784	8.904114	2.277893
1442741549211162666	-1.0590973	7.348175	3.5862274
1442741549219555000	-1.6779175	6.0423584	2.7202454
1442741549227947334	-1.8253632	6.3666687	1.7481079
1442741549236339668	-2.056015	7.462494	1.6375275
1442741549244732002	-2.3000183	8.702866	1.9045563
1442741549253124336	-2.3873444	9.494415	1.5859985
1442741549261516670	-2.3905182	9.840363	0.70033264
1442741549269909004	-2.2602844	9.654449	0.43730164
1442741549278301338	-1.7112274	9.2513275	0.512146
1442741549286693672	-1.4868164	9.086945	0.6725311
1442741549295086006	-1.3451385	8.93457	0.6742554
1442741549303478340	-1.2580566	8.757614	0.6602173
1442741549311870674	-1.1813049	8.562775	0.9168701
1442741549320263008	-1.0207672	8.281601	1.835022
1442741549328655342	-0.84254456	8.1548	2.3131256
1442741549337047676	-0.46876526	8.319382	2.26503
1442741549345440010	-0.32460022	8.452072	2.0359192
1442741549353832344	-0.11909485	8.573944	1.7068024
1442741549362224678	0.13685608	8.729828	1.3946228
1442741549370617012	0.3136444	8.996185	1.1307068
1442741549379009346	0.23345947	9.606552	0.76786804
1442741549387401680	0.045806885	10.004974	0.6316376
