linearaccelerometer_timestamp	linearaccelerometer_x_data	linearaccelerometer_y_data	linearaccelerometer_z_data
1176772967060353	0.8126235	1.9626279	-0.37508583
1176772975361134	2.2238803	1.530364	1.4683762
1176772983661915	2.8732464	1.2062402	2.5630665
1176772991962696	3.0822408	0.6433482	2.4438992
1176773000263478	3.076312	-0.2335906	1.0256929
1176773008564259	2.8264933	-0.20435047	1.0261965
1176773016865040	1.0670241	0.46164322	-3.1297045
1176773025165821	0.04192567	1.974947	-4.493968
1176773033466603	-0.5090685	2.468842	-4.556485
1176773041767384	-0.4982891	2.146522	-3.316515
1176773050068165	0.11727023	1.4779491	-1.4194403
1176773058368946	1.0643823	0.9373684	0.16569996
1176773066669728	1.2365558	0.57794714	0.76938725
1176773074970509	-0.1588254	0.3874817	0.8787966
1176773083271290	-1.1838858	0.09737635	1.1953354
1176773091572071	-1.1058962	-0.13412523	1.5461273
1176773099872853	-0.27347636	-0.2003107	1.5571547
1176773108173634	-0.21440887	-0.26476908	1.5605278
1176773116474415	0.5649731	-0.32245827	-0.12486076
1176773124775196	0.44197202	-0.21167564	-1.0625505
1176773133075978	0.12635827	0.336092	-1.944335
1176773141376759	-0.067545176	0.8459091	-2.7620049
1176773149677540	-0.15824556	0.7752347	-2.6612654
1176773157978321	-0.22727823	1.0812693	-3.3178291
1176773166279103	-0.45505214	1.1552482	-3.5310974
1176773174579884	-0.4418993	0.78928614	-3.3117952
1176773182880665	-0.26144433	0.60779524	-3.0283852
1176773191181446	-0.23076558	0.4495859	-2.4810362
1176773199482228	-0.2540686	0.40058327	-2.4095945
1176773207783009	-0.36068845	0.16310692	-1.7568779
1176773216083790	0.02007842	-0.2239685	-1.4173927
1176773224384571	0.4044578	-0.27212143	-1.5839252
1176773232685353	0.62216115	-0.25111818	-1.6208544
1176773240986134	0.8353131	-0.25207615	-1.4836845
1176773249286915	0.81296444	-0.26697397	-1.4481812
1176773257587696	0.74935627	-0.11772728	-0.9668665
1176773265888478	0.12547708	0.21144485	-0.8278575
1176773274189259	-0.49109578	0.5609169	-0.8446951
1176773282490040	-0.9492264	0.79843616	-0.96157026
1176773290790821	-1.1085224	0.8846173	-1.1751742
1176773299091603	-0.96508	0.8145571	-1.3843579
1176773307392384	-0.95474744	0.78194	-1.3501577
1176773315693165	-0.17404652	0.41403008	-0.87287664
1176773323993946	0.15777636	0.109642506	-0.09725189
1176773332294728	0.12591624	-0.17188454	-0.076054096
1176773340595509	0.057844162	-0.42486858	-0.28811312
1176773348896290	0.066872835	-0.43556452	-0.27652168
1176773357197071	0.10753918	-0.55307245	-0.3778515
1176773365497853	0.022871733	-0.1563158	-0.81888056
1176773373798634	-0.060306072	0.02905035	-2.6589527
1176773382099415	0.30362725	0.15363932	-2.9746976
1176773390400196	0.29098177	0.1276083	-2.9210715
1176773398700978	0.38046718	0.11752081	-2.0835352
1176773407001759	-0.0066611767	-0.029676437	-0.9060898
1176773415302540	-0.06311774	0.058614254	-1.231226
1176773423603321	-0.4254992	0.15489626	-1.4796066
1176773431904103	-0.7832689	0.23648071	-1.3399386
1176773440204884	-0.77735925	0.23384094	-1.3271375
1176773448505665	-0.94082975	0.28167343	-1.0598793
1176773456806446	-0.8260417	0.26410913	-0.8477254
1176773465107228	-0.23042417	-0.0019993782	-0.50393915
1176773473408009	-0.23797631	0.007921219	-0.5045285
1176773481708790	0.0021111965	-0.025256634	-0.66581964
1176773490009571	0.2888093	-0.05482769	-0.97810507
1176773498310353	0.4228797	-0.23882532	-1.5870371
1176773506611134	0.24620461	-0.4617219	-2.1705585
1176773514911915	-0.21292853	-0.3320179	-1.885284
1176773523212696	-0.2514794	0.06867075	-0.33385468
1176773531513478	-0.41886735	-0.012077808	1.3751497
1176773539814259	-0.39615703	-0.008317947	1.3523321
1176773548115040	-0.45762992	-0.2541008	1.2106066
1176773556415821	-0.40859413	-0.379148	0.7359896
1176773564716603	-0.36584044	-0.28179836	0.024527073
1176773573017384	-0.06298876	0.34205627	-1.3176689
1176773581318165	-0.22551298	0.5852318	-1.5399084
1176773589618946	-0.22593498	0.5473876	-1.4961152
1176773597919728	-0.43111515	0.5986233	-1.611875
1176773606220509	-0.41139555	0.35255337	-2.5554724
1176773614521290	0.6678555	-0.22296762	-3.2824812
1176773622822071	0.64215755	-0.23424911	-3.2363458
1176773631122853	0.29686093	0.0074248314	-0.37760258
1176773639423634	-0.023112535	0.22571754	0.6835046
1176773647724415	-0.18573737	0.26312685	0.03565836
1176773656025196	-0.25492978	0.10062647	-1.1351886
1176773664325978	-0.2867434	-0.10130072	-1.049748
1176773672626759	-0.550797	0.18965149	0.120479584
1176773680927540	-0.65156364	0.41144037	-0.047775745
1176773689228321	-0.7944062	0.5253997	-0.98563814
1176773697529103	-0.9095957	0.5017004	-2.3807826
1176773705829884	-0.9517019	0.3960867	-3.7122045
1176773714130665	-0.93505454	0.38614178	-3.6841006
1176773722431446	-0.45672774	0.33812952	-3.7848296
1176773730732228	0.8214371	-0.029984951	-3.2059493
1176773739033009	0.78210783	-0.30238008	-2.2263007
1176773747333790	0.09416175	-0.46080065	-0.81276417
1176773755634571	-0.26601386	-0.5706315	0.75611925
1176773763935353	-0.3351891	-0.6304965	1.8197122
1176773772236134	-0.22528172	-0.50267696	1.8234973
1176773780536915	-0.2182393	-0.3664236	1.2172127
1176773788837696	-0.23966908	-0.24505281	0.42842627
1176773797138478	-0.26179576	-0.15318108	-0.22943068
1176773805439259	-0.26599145	-0.09863949	-0.55755234
1176773813740040	-0.22403145	-0.079072	-0.514719
1176773822040821	-0.077708006	-0.06378603	-0.3700738
1176773830341603	0.18172288	-0.1148901	-0.35738802
1176773838642384	0.35769653	-0.1555314	-0.49256802
1176773846943165	0.3861928	-0.17029667	-0.51492167
1176773855243946	0.2726102	-0.17120886	-0.24906111
1176773863544728	0.2867279	-0.13900614	-0.27813196
1176773871845509	-0.07794809	-0.057361126	0.28908587
1176773880146290	-0.25226212	0.049405098	0.30176163
1176773888447071	-0.34170008	0.17591381	0.112109184
1176773896747853	-0.25009274	0.2755227	-0.31552076
1176773905048634	-0.2281735	0.29431152	-0.33634663
1176773913349415	-0.12401247	0.31118202	-0.7981672
1176773921650196	-0.7603576	-0.23063278	-0.5525961
1176773929950978	-0.5698743	-0.43623877	-0.60974693
1176773938251759	-0.18143487	-0.42499065	-0.7244115
1176773946552540	0.22161484	-0.31246233	-0.9446187
1176773954853321	0.2474513	-0.301507	-0.9549403
1176773963154103	0.38548422	-0.17907143	-1.8810706
1176773971454884	0.10517144	-0.07691574	-2.3675723
1176773979755665	-0.20834517	0.024281979	-2.5694265
1176773988056446	-0.56340647	0.09545517	-2.3814926
1176773996357228	-0.9011724	0.1798482	-1.71556
1176774004658009	-1.1452367	0.28832722	-0.53337145
1176774012958790	-1.2389784	0.29005957	0.95433474
1176774021259571	-1.5126777	0.12735653	2.1042395
1176774029560353	-1.4126976	-0.20653152	2.3347006
1176774037861134	-0.932009	-0.51375866	2.0786352
1176774046161915	-0.30039334	-0.7029896	1.5349178
1176774054462696	0.20785904	-0.74492025	0.85899544
1176774062763478	0.513325	-0.61018324	0.4669342
1176774071064259	0.5823498	-0.33075953	0.33318138
1176774079365040	0.5081949	-0.10901976	0.14693642
1176774087665821	0.36553764	0.047851086	-0.06794739
1176774095966603	0.13933945	0.17460299	-0.32580566
1176774104267384	0.15014648	0.16437578	-0.32096958
1176774112568165	-0.7647164	0.52322626	-1.0531874
1176774120868946	-0.9436281	0.57841873	-1.3275385
1176774129169728	-0.71528924	0.39308786	-1.4272661
1176774137470509	-0.37507427	0.087100506	-1.3884315
1176774145771290	-0.36685932	0.08142424	-1.3794794
1176774154072071	-0.033720613	-0.17170382	-1.1801844
1176774162372853	0.44897473	-0.25374365	-0.2713604
1176774170673634	0.48295462	-0.19089603	0.18197727
1176774178974415	0.43717754	-0.11710119	0.44675827
1176774187275196	0.3339963	-0.05904436	0.5093832
1176774195575978	0.33632946	-0.039124012	0.49336147
1176774203876759	0.21457338	0.021893978	0.4143324
1176774212177540	-0.09036982	0.13104439	-0.13786125
1176774220478321	-0.07879913	0.12869263	-0.13873005
1176774228779103	-0.25919282	0.17846537	-0.7099066
1176774237079884	-0.38305974	0.40646887	-1.3625793
1176774245380665	-0.37152612	0.39043045	-1.3492908
1176774253681446	-0.28530633	0.3881569	-1.4140558
1176774261982228	-0.06813073	0.29414177	-1.4054403
1176774270283009	0.30541778	0.116286755	-1.3150635
1176774278583790	0.73875463	0.0062203407	-1.1325331
1176774286884571	1.1565375	-0.05935669	-0.9670296
1176774295185353	1.5118778	-0.054018497	-0.9276438
1176774303486134	1.7808905	0.04065895	-1.1046524
1176774311786915	1.9439999	0.21984243	-1.522232
1176774320087696	1.6289209	0.57666683	-2.5361328
1176774328388478	1.1384096	0.6762767	-2.984191
1176774336689259	1.1709782	0.6654177	-2.9741602
1176774344990040	0.76159954	0.81607723	-3.4288568
1176774353290821	0.44392562	1.0780368	-3.7950144
1176774361591603	0.09482181	1.4450378	-3.935338
1176774369892384	-0.2498796	1.8189569	-3.9077377
1176774378193165	-0.4731804	2.1128283	-3.8558512
1176774386493946	-0.404912	2.1709404	-3.8361397
1176774394794728	0.0115658045	2.002955	-3.8134928
1176774403095509	0.06172192	2.0198355	-3.8221254
1176774411396290	1.4966636	1.2042623	-3.3343935
1176774419697071	1.8745	0.69168377	-2.7178183
1176774427997853	1.963256	0.26840782	-1.5187311
1176774436298634	1.773582	0.15207434	-0.38171768
1176774444599415	1.3392444	0.21837139	0.46748352
1176774452900196	1.4193432	0.26477194	0.42461586
1176774461200978	0.09890711	0.47786427	1.3159227
1176774469501759	-0.56938916	0.74592257	1.4340429
1176774477802540	-1.0133128	0.93907833	1.1256542
1176774486103321	-1.1814706	0.964025	0.5408287
1176774494404103	-1.1626165	0.86001825	-0.14435387
1176774502704884	-1.0598657	0.71276045	-0.7725849
1176774511005665	-1.0064914	0.6990032	-0.76584816
1176774519306446	-0.7730148	0.551424	-1.2429619
1176774527607228	-0.66103375	0.3262205	-0.9841814
1176774535908009	-0.58011436	0.041131496	-0.48941612
1176774544208790	-0.5599015	0.07531071	-0.50842
1176774552509571	-0.3914817	-0.21248531	0.1619978
1176774560810353	-0.16700768	-0.6321893	1.8549118
1176774569111134	-0.36953866	-0.49127626	2.7856026
1176774577411915	-0.66803694	-0.24338055	3.423973
1176774585712696	-0.8418702	-0.096673965	3.6179848
1176774594013478	-0.7797513	-0.04349947	3.5745564
1176774602314259	-0.86005604	0.008002281	3.3706875
1176774610615040	-0.8419269	0.15508604	1.7728739
1176774618915821	-0.73186034	0.20299625	0.5928316
1176774627216603	-0.6524147	0.14430046	-0.36360455
1176774635517384	-0.528872	0.07490349	-1.0224218
1176774643818165	-0.541348	0.045225143	-1.0029402
1176774652118946	-0.4385886	-0.07281351	-1.3739157
1176774660419728	-0.2647956	-0.47369003	-0.9146185
1176774668720509	-0.20638533	-0.76409197	-0.24344063
1176774677021290	-0.23766811	-1.0464492	0.4210186
1176774685322071	-0.20062202	-0.99918175	0.3967476
1176774693622853	-0.3134391	-1.217288	1.0658646
1176774701923634	-0.8243579	-1.287096	2.1639872
1176774710224415	-0.7815647	-1.204545	2.1178703
1176774718525196	-1.1478788	-0.6480403	2.3548317
1176774726825978	-1.1205	-0.29170656	2.1322021
1176774735126759	-0.9945503	-0.032094	1.987565
1176774743427540	-0.84095335	0.07247019	1.8035393
1176774751728321	-0.84672695	0.11997843	1.7750826
1176774760029103	-0.7003345	0.036051273	1.4541187
1176774768329884	-0.38581997	-0.3205657	0.37128067
1176774776630665	-0.28500128	-0.30671597	-0.28068447
1176774784931446	-0.09087519	-0.29036903	-0.8699112
1176774793232228	-0.12006827	-0.29134488	-0.8664532
1176774801533009	0.26982227	-0.298769	-1.2765617
1176774809833790	0.8363442	-0.36639333	-1.5077295
1176774818134571	1.0468749	-0.8733101	-1.6954422
1176774826435353	0.389464	-1.2105839	-1.0188065
1176774834736134	0.38541585	-1.189719	-1.0223742
1176774843036915	0.13321108	-1.4993546	-0.024100304
1176774851337696	-0.07567877	-1.6251879	0.66720676
1176774859638478	-0.38312542	-1.5001428	0.8349323
1176774867939259	-0.5327174	-0.8422549	0.87251186
1176774876240040	-0.51735103	-0.79849315	0.85301304
1176774884540821	-0.5678561	-0.44826746	0.7471752
1176774892841603	-0.5883872	-0.17162323	0.5707855
1176774901142384	-0.6201422	0.020437479	0.35563183
1176774909443165	-0.6224383	0.0183599	0.35512257
1176774917743946	-0.5617717	-0.193681	-0.2674446
1176774926044728	-0.5684207	-0.20797038	-0.2606907
1176774934345509	0.019805782	-0.22456312	-1.265768
1176774942646290	0.29676557	-0.19218206	-1.5942707
1176774950947071	0.2805136	-0.21779251	-1.5783129
1176774959247853	0.39127487	-0.20022464	-1.6913643
1176774967548634	0.26845425	-0.16456866	-1.5241032
1176774975849415	0.07460423	-0.19725943	-1.0928736
1176774984150196	-0.014502667	-0.21304798	-0.6584196
1176774992450978	-0.13572921	-0.1530459	-0.2783556
1176775000751759	-0.24737182	-0.024878025	-0.030778885
1176775009052540	-0.29690295	0.1408267	0.05891323
1176775017353321	-0.3197445	0.31783152	0.06413555
1176775025654103	-0.30675974	0.42031646	0.043258667
1176775033954884	-0.32157996	0.43945432	0.07602787
1176775042255665	-0.30995092	0.35264802	0.0841732
1176775050556446	-0.25258255	0.14161563	0.005399704
1176775058857228	-0.1831621	-0.11349201	-0.16468716
1176775067158009	-0.19825903	-0.17961526	-0.34243202
1176775075458790	-0.17664574	-0.06467605	-0.4771347
1176775083759571	-0.10422939	0.058663845	-0.5918083
1176775092060353	-0.13709378	0.15679598	-0.7496395
1176775100361134	-0.28783643	0.18694544	-0.8748789
1176775108661915	-0.45569515	0.13756895	-0.8952875
1176775116962696	-0.44726044	0.06648731	-0.858161
1176775125263478	-0.3651154	0.076675415	-0.7173462
1176775133564259	-0.29228067	0.10445356	-0.567647
1176775141865040	-0.20533413	0.09964132	-0.48267365
1176775150165821	-0.078059524	0.017382622	-0.55029774
1176775158466603	-0.05355981	-0.018239498	-0.53060913
1176775166767384	0.113363	-0.30476856	-1.2224159
1176775175068165	0.22724384	-0.3900199	-1.5141048
1176775183368946	0.41948846	-0.23417616	-1.8291645
1176775191669728	0.68731844	-0.17213869	-1.8232393
1176775199970509	0.8367418	-0.24824095	-1.4450388
1176775208271290	0.8844069	-0.2822628	-1.4191189
1176775216572071	0.51865095	-0.23369932	-0.174016
1176775224872853	0.12497759	-0.15367413	0.291214
1176775233173634	-0.30666465	0.009391308	0.60676
1176775241474415	-0.47051787	0.15712738	0.76526356
1176775249775196	-0.3415814	0.24753428	0.848073
1176775258075978	-0.07763022	0.298141	0.99683857
1176775266376759	0.08073789	0.3823228	1.4264812
1176775274677540	0.35037	0.31716585	1.3658142
1176775282978321	0.5927661	0.28886652	1.0318584
1176775291279103	0.6971077	0.21048212	0.5317774
1176775299579884	0.6764138	0.0729146	-0.044725418
1176775307880665	0.6986894	0.056527615	-0.03421402
1176775316181446	0.48715705	-0.088127136	-1.1897249
1176775324482228	0.3492818	-0.050218582	-1.4142046
1176775332783009	0.21021998	0.041276455	-1.6296625
1176775341083790	0.08785331	0.08571482	-1.8657331
1176775349384571	0.17255354	0.03187895	-1.8206434
1176775357685353	-0.05733347	0.10263729	-2.043867
1176775365986134	-0.98072577	0.583025	-2.221696
1176775374286915	-1.1210302	0.60921097	-1.9024687
1176775382587696	-1.1562026	0.57185316	-1.4743853
1176775390888478	-1.0747905	0.4932232	-1.0820999
1176775399189259	-0.9973011	0.50169086	-1.0693111
1176775407490040	-0.58165145	0.26792288	-0.7069044
1176775415790821	-0.32341087	0.20309734	-0.66775227
1176775424091603	-0.12200749	0.20071077	-0.5960007
1176775432392384	-0.017420769	0.4307351	-0.39775562
1176775440693165	-0.013734579	0.5083113	-0.43734264
1176775448993946	-0.40308726	0.71392536	0.77183056
1176775457294728	0.14484096	-0.2298088	4.5282965
1176775465595509	0.048111558	-0.48076296	4.215394
1176775473896290	0.69372094	0.15722847	2.5519571
1176775482197071	1.4309714	0.32484293	1.8414822
1176775490497853	2.4024444	0.013294935	1.9612312
1176775498798634	2.4078643	0.060529947	1.9377022
1176775507099415	2.606413	-0.19827533	1.9405956
1176775515400196	-2.5240035	1.5833476	-0.59634686
1176775523700978	-1.1239446	1.2849035	-0.924304
1176775532001759	0.1426419	0.94747543	-1.4279642
1176775540302540	0.20111442	0.98831725	-1.4285183
1176775548603321	0.8126111	0.5825832	-1.9579954
1176775556904103	0.85161924	0.06471181	-2.2324982
1176775565204884	1.0268342	0.0037455559	-1.1947107
1176775573505665	1.2286246	-0.047810555	0.55996513
1176775581806446	1.2568612	0.082202196	0.5195122
1176775590107228	1.3961635	-0.12835169	3.069211
1176775598408009	1.9602411	-0.078053	4.6095066
1176775606708790	2.5942364	0.4075384	3.8712902
1176775615009571	2.3342493	0.544713	0.59440804
1176775623310353	1.483772	0.25455332	0.20550251
1176775631611134	1.5023766	0.3260312	0.19087505
1176775639911915	1.3953125	0.3825631	1.7094774
1176775648212696	1.4343686	0.452945	1.6973591
1176775656513478	1.4376178	1.0201263	2.2998705
1176775664814259	2.2201731	2.3370473	1.9304113
1176775673115040	1.7551723	1.9677916	1.7451038
1176775681415821	1.8146014	2.0260847	1.7435827
1176775689716603	1.2414479	0.7433317	1.133914
1176775698017384	1.278168	0.7942798	1.1308928
1176775706318165	1.2915459	0.5505804	0.5766878
1176775714618946	1.8179023	1.4455544	0.35518456
1176775722919728	1.8325055	1.484979	0.35121918
1176775731220509	2.169764	1.9898756	0.46955585
1176775739521290	2.4726799	2.2439723	0.40358734
1176775747822071	2.723305	2.2160265	-0.0647974
1176775756122853	3.10191	1.7795011	-0.44203663
1176775764423634	3.8005712	0.95716786	0.0718174
1176775772724415	3.6624327	1.1335913	-1.1927404
1176775781025196	3.438221	0.87593555	-0.9635925
1176775789325978	2.5411313	0.8382367	-1.3316193
1176775797626759	1.3017261	0.6440774	-2.2614536
1176775805927540	-0.110275984	0.3360449	-2.894761
1176775814228321	-2.4644427	1.1674917	-1.7315617
1176775822529103	-2.4057178	1.2207121	-1.7176428
1176775830829884	-1.707505	1.5637932	-1.3297386
1176775839130665	-1.0042179	1.5314744	-0.5667496
1176775847431446	-0.6597154	1.3192824	0.12687492
1176775855732228	-0.4138093	1.0987158	0.38076687
1176775864033009	0.2458663	0.82940054	0.26487446
1176775872333790	0.5492437	0.41795862	-1.3865986
1176775880634571	0.44529986	0.0044632554	-2.4400043
1176775888935353	-0.20099092	-0.57382435	-2.573989
1176775897236134	-0.847662	-1.0449283	-2.090475
1176775905536915	-1.077635	-1.1356082	-1.3103828
1176775913837696	-1.0284538	-1.0911245	-1.2905779
1176775922138478	-0.82215714	-0.38589954	-0.36076355
1176775930439259	-0.367918	-0.10367012	-0.5977249
1176775938740040	-0.6107998	0.27701312	-1.1588402
1176775947040821	-0.9822264	0.60724527	-1.6647844
1176775955341603	-1.0703459	0.8428159	-1.4711266
1176775963642384	-1.5360265	1.3137171	-0.122413635
1176775971943165	-2.4930906	2.2768464	-0.22605705
1176775980243946	-1.6562419	2.8463793	-0.99394894
1176775988544728	-0.5995498	2.8281198	-1.3291807
1176775996845509	-0.10808325	2.5495665	-1.3715582
1176776005146290	-0.14105606	2.2613509	-1.4774599
1176776013447071	0.026266575	1.8923631	-1.6693859
1176776021747853	0.4874549	1.6488854	-1.2254572
1176776030048634	0.6305852	1.5426779	-1.1763239
1176776038349415	0.89297724	1.4428006	-1.172862
1176776046650196	1.3276324	1.415973	-1.0862322
1176776054950978	1.3455405	1.4091768	-1.0729446
1176776063251759	1.9157352	1.3998833	-0.89399815
1176776071552540	3.0012865	-0.038950443	0.48439407
1176776079853321	2.2995186	0.045147777	0.07502556
1176776088154103	1.9211664	0.2788592	-0.3262539
1176776096454884	1.8253474	0.3301344	-0.6216898
1176776104755665	1.8494916	0.3066395	-0.60328007
1176776113056446	1.5014601	0.22085387	-1.0514803
1176776121357228	0.37241983	0.7645605	-1.7980452
1176776129658009	0.62474585	1.307205	-1.7117462
1176776137958790	0.87049055	1.4680195	-1.1713676
1176776146259571	1.0649095	1.2189062	-0.4957323
1176776154560353	1.0742202	1.171677	-0.4823885
1176776162861134	1.1644559	0.988749	-0.6121092
1176776171161915	1.1239262	0.93810666	-0.70740986
1176776179462696	0.9753475	0.77767134	-0.34676456
1176776187763478	0.5993128	0.6381843	0.07769871
1176776196064259	0.57829285	0.5922785	0.07395935
1176776204365040	0.36298323	0.7721665	-0.0023498535
1176776212665821	0.16874743	1.0983433	-1.5120468
1176776220966603	1.029943	1.6818444	-1.1537514
1176776229267384	1.7082615	1.8503015	-0.94736385
1176776237568165	2.043363	1.8602719	-1.1325912
1176776245868946	1.9730163	1.9182857	-1.4427862
1176776254169728	2.0490527	1.8664262	-1.3862715
1176776262470509	1.6139245	1.9712192	-1.3979359
1176776270771290	1.4498534	1.7562407	-0.9818945
1176776279072071	1.2613163	1.5554292	-0.49812794
1176776287372853	1.0058179	1.321979	-0.090807915
1176776295673634	1.1520462	1.1814313	0.043013573
1176776303974415	0.91507673	0.8554709	0.42400122
1176776312275196	0.66152143	0.3257513	1.3960419
1176776320575978	0.76440954	0.1680758	1.8337579
1176776328876759	0.49463797	0.25370622	1.9671354
1176776337177540	0.6612916	0.07410765	2.1816702
1176776345478321	0.18886709	0.12522626	2.2310643
1176776353779103	-0.26125097	-0.026519537	2.3753724
1176776362079884	-1.0433292	-0.5135741	3.3033133
1176776370380665	-0.84402084	-0.89985824	3.5713124
1176776378681446	-1.1335602	-1.1543379	3.5375366
1176776386982228	-1.018249	-1.3028984	3.7737465
1176776395283009	-1.749927	-1.675283	2.9547963
1176776403583790	-2.1458993	-1.8157039	2.8638582
1176776411884571	-2.584566	-1.9146862	3.1132612
1176776420185353	-2.620985	-1.9573064	3.2314715
1176776428486134	-2.7599807	-1.9149604	3.2869616
1176776436786915	-2.9123063	-1.7585683	3.1855454
1176776445087696	-2.8759775	-1.852704	3.3413525
1176776453388478	-3.0284214	-1.6140828	3.1207948
1176776461689259	-3.111908	-1.2766647	2.3759513
1176776469990040	-3.0505228	-1.3891015	2.1140559
1176776478290821	-3.0254426	-1.4521866	2.2384315
1176776486591603	-2.9110541	-1.5205326	1.9111919
1176776494892384	-2.841693	-1.5634866	1.441915
1176776503193165	-2.8399382	-1.5552039	0.9724798
1176776511493946	-2.824162	-1.4932098	0.7099414
1176776519794728	-2.5723014	-1.5557418	0.08953595
1176776528095509	-2.5466723	-1.5757017	0.17846775
1176776536396290	-2.3910055	-1.4863071	-0.052865505
1176776544697071	-2.1805696	-1.3245635	-0.15667653
1176776552997853	-2.012362	-1.1298699	-0.15044808
1176776561298634	-1.96452	-0.96507597	-0.15721965
1176776569599415	-1.9141512	-0.8656173	-0.36061692
1176776577900196	-1.9610896	-0.7890892	-0.525537
1176776586200978	-1.991499	-0.80673313	-0.62932897
1176776594501759	-1.9548593	-0.7906108	-0.6401427
1176776602802540	-1.8999896	-0.6473594	-0.52966666
1176776611103321	-1.9204803	-0.4065876	-0.37052393
1176776619404103	-1.865108	-0.35713768	-0.63024473
1176776627704884	-1.5991793	-0.21593475	-0.7789004
1176776636005665	-1.3793087	-0.18063164	-0.810014
1176776644306446	-1.1787643	-0.17066622	-0.731009
1176776652607228	-1.0515585	-0.15864801	-0.51492
1176776660908009	-1.1061068	-0.20081377	-0.12622535
1176776669208790	-1.0164003	-0.33470583	0.17326999
1176776677509571	-0.9805107	-0.48050022	0.17508483
1176776685810353	-0.8120575	-0.62719107	0.16225445
1176776694111134	-0.6945801	-0.71311474	0.09754443
1176776702411915	-0.6147232	-0.7702093	-0.045196652
1176776710712696	-0.35864925	-0.92193747	-0.22606802
1176776719013478	-0.17791748	-1.1476355	-0.44372535
1176776727314259	0.007634163	-1.2105675	-0.37331045
1176776735615040	0.1133461	-1.1852078	-0.16603374
1176776743915821	0.16145039	-1.1297655	0.14966655
1176776752216603	0.18749905	-1.0811844	0.14192188
1176776760517384	0.08808231	-0.98590183	0.30800414
1176776768818165	0.2379179	-1.1640601	0.18768752
1176776777118946	0.29262066	-1.4309373	0.32727623
1176776785419728	0.3785534	-1.5640836	0.52304554
1176776793720509	0.48527145	-1.664721	0.6317278
1176776802021290	0.5001564	-1.6401911	0.64923227
1176776810322071	0.60851	-1.7204456	0.64606583
1176776818622853	0.9683409	-1.5550909	0.7203704
1176776826923634	1.1832628	-1.4746699	0.82675314
1176776835224415	1.4281788	-1.3598704	0.8834382
1176776843525196	1.7202988	-1.1965461	1.0733274
1176776851825978	2.0802975	-1.1283412	1.2758723
1176776860126759	2.0581808	-1.1616592	1.2860764
1176776868427540	2.4972372	-1.549962	-0.5546626
1176776876728321	1.7646427	-0.76013994	-2.114987
1176776885029103	1.0968828	-0.21820211	-2.6660225
1176776893329884	0.7539406	0.05453968	-2.522839
1176776901630665	0.7645407	0.27262068	-2.0942986
1176776909931446	0.71316814	0.17426968	-2.0161781
1176776918232228	1.0549526	0.7461257	-0.5613843
1176776926533009	1.3681898	0.68100977	0.17316759
1176776934833790	0.9459982	0.78987026	0.37660325
1176776943134571	0.43900537	0.92302036	0.18907917
1176776951435353	0.3379588	0.7772255	0.23827064
1176776959736134	0.31402302	0.72373295	-0.04961139
1176776968036915	-0.2958007	0.50467825	0.5115191
1176776976337696	-1.0401373	0.011269093	1.6781669
1176776984638478	-1.8648448	-0.5716386	2.323322
1176776992939259	-2.7357216	-1.1680965	2.3429635
1176777001240040	-2.8903418	-1.3262405	2.294211
1176777009540821	-3.7108226	-1.791934	1.904344
1176777017841603	-4.25135	-1.0688939	1.0507292
1176777026142384	-3.770905	-0.71127033	0.77811754
1176777034443165	-3.1341796	-0.55730724	0.7109721
1176777042743946	-2.4438405	-0.5776291	0.98198056
1176777051044728	-2.5646567	-0.6737323	0.936679
1176777059345509	-1.9389362	-0.98102283	1.491373
1176777067646290	-0.77668333	-0.8966594	1.037565
1176777075947071	0.053910255	-0.5398307	0.63219774
1176777084247853	0.32393122	-0.9716635	0.08603823
1176777092548634	0.6450486	-1.6781864	-0.41368246
1176777100849415	1.463851	-2.1130743	-0.8277099
1176777109150196	1.2854061	-2.215745	-0.8407433
1176777117450978	1.1130319	-2.1470385	-1.9393033
1176777125751759	0.37588596	-1.6307888	-0.65511096
1176777134052540	0.66841936	-1.3063002	0.42788768
1176777142353321	0.82268953	-1.4087267	0.386065
1176777150654103	0.7472038	-1.4570684	0.4678067
1176777158954884	0.024120808	-2.0185022	-0.7427428
1176777167255665	1.4079347	-2.9204302	-1.5155156
1176777175556446	1.1614866	-2.9785423	-1.3021916
1176777183857228	1.0725431	-2.9284554	-0.9679055
1176777192158009	1.2420666	-2.8781128	-0.92328197
1176777200458790	1.0977132	-2.9363594	-0.9004483
1176777208759571	2.7778637	-2.7191877	-4.216677
1176777217060353	4.8262186	-2.2601385	-5.962369
1176777225361134	4.2686214	-1.9347277	-4.824251
1176777233661915	2.133519	-1.7760897	-2.0294282
1176777241962696	1.9191325	-1.8398657	-2.0204158
1176777250263478	-0.49277782	-1.842515	1.0816534
1176777258564259	-1.7307327	-1.9631643	3.232053
1176777266865040	5.338131	-2.0597477	-0.37857854
1176777275165821	5.118807	-2.0963488	-0.44279063
1176777283466603	8.14965	-1.4443712	0.16087115
1176777291767384	2.6044204	-0.39331818	1.2655873
1176777300068165	-4.6015453	0.30852413	0.44919658
1176777308368946	-3.0089092	0.033013344	-2.397317
1176777316669728	-0.38216454	-0.41272068	-4.6836824
1176777324970509	1.8793654	-1.0445356	-0.80079937
1176777333271290	2.267223	-0.9941654	0.75370014
1176777341572071	2.2652287	-0.81208897	0.795941
1176777349872853	2.3846836	-0.26371384	-0.43632257
1176777358173634	2.6321297	1.2843122	-2.5714297
1176777366474415	3.468113	4.6581593	-3.3442225
1176777374775196	5.247763	16.37048	-5.782849
1176777383075978	7.0525255	20.82204	0.6236775
1176777391376759	5.5448084	13.302169	5.2784815
1176777399677540	1.8959585	0.27848053	4.526164
1176777407978321	-0.64645135	-6.837143	0.3886119
1176777416279103	-1.694506	-3.1021595	-1.6966333
1176777424579884	-0.17578006	-0.39529133	-1.6271229
1176777432880665	-0.10594487	-0.22750092	-1.06902
1176777441181446	-0.716583	-0.4495821	-0.46523297
1176777449482228	-1.0087065	-0.17630482	-0.22835565
1176777457783009	-0.5353049	0.32009983	-0.55669975
1176777466083790	-0.6128777	0.51204205	-0.6855408
1176777474384571	-1.0228263	0.5935402	-0.7071345
1176777482685353	-1.2888899	0.58213615	-0.6850952
1176777490986134	-1.444696	0.5568886	-0.7337074
1176777499286915	-1.5262706	0.58949757	-0.7622535
1176777507587696	-1.5434561	0.59379387	-0.7696377
1176777515888478	-2.2317896	1.0410528	0.519227
1176777524189259	-3.044255	2.0560884	1.6078876
1176777532490040	-3.5047405	2.6942568	1.7063104
1176777540790821	-3.08951	2.4496794	-0.62056065
1176777549091603	-2.2984104	1.8720503	-3.654211
1176777557392384	-2.3181505	1.8641891	-3.5963724
1176777565693165	-2.0721297	2.0150928	-1.9034915
1176777573993946	-2.070364	1.9749899	-0.56169295
1176777582294728	-1.8906509	2.2081938	-0.18707669
1176777590595509	-1.8752543	2.1984177	-0.16820538
1176777598896290	-1.802303	2.2709837	-1.8120211
1176777607197071	-1.1913407	2.0963917	-2.088651
1176777615497853	-1.0033059	2.050208	-1.9843206
1176777623798634	-0.8835182	1.9373493	-1.9740193
1176777632099415	-0.68788445	1.7877979	-1.9855049
1176777640400196	-1.1306388	1.5782776	-1.7823716
1176777648700978	-1.5455701	1.2330179	-1.325537
1176777657001759	-0.5712837	0.71713734	-0.8061554
1176777665302540	0.1800816	0.39306355	-0.62362015
1176777673603321	0.73087823	0.135458	-0.9032201
1176777681904103	1.3368943	-0.14659405	-1.3440843
1176777690204884	1.7875414	-0.42295265	-1.4591563
1176777698505665	2.1726747	-0.87517166	-1.1528958
1176777706806446	2.2003398	-0.8797636	-0.9374213
1176777715107228	2.641096	-2.4669542	-0.7074187
1176777723408009	1.89608	-2.6080027	-0.55077446
1176777731708790	1.086711	-3.3825378	5.8692174
1176777740009571	1.0454543	-3.5998716	8.648291
1176777748310353	1.0587562	-3.570242	8.855989
1176777756611134	1.568348	-3.1519957	3.6022203
1176777764911915	0.9784273	1.0886507	-10.21241
1176777773212696	0.8870392	3.542471	-7.007623
1176777781513478	0.84851694	3.582284	-6.7936287
1176777789814259	1.3024055	4.615737	-3.2035735
1176777798115040	2.7710485	6.0471582	-0.9240937
1176777806415821	2.8364975	6.044423	-0.8443532
1176777814716603	1.8294395	4.139616	2.1417215
1176777823017384	1.0489105	2.0288877	2.7785375
1176777831318165	1.1965923	2.0271997	2.8390555
1176777839618946	0.020819306	-0.50799656	2.4889812
1176777847919728	0.18002087	-0.49118137	2.5772402
1176777856220509	0.23076552	-1.7448244	2.4962506
1176777864521290	-0.6712122	-3.1824236	2.2135098
1176777872822071	-1.3195854	-2.841362	2.003817
1176777881122853	-1.249015	-2.7114172	1.9132218
1176777889423634	-1.1567075	-2.6637526	2.0291777
1176777897739808	-1.1663189	-2.8756027	2.1832612
1176777906040589	-1.4662738	-3.1831703	2.259586
1176777914341371	-1.0784537	-2.9217138	1.5673454
1176777922642152	-0.8064204	-3.0481167	1.4889858
1176777930942933	-0.77060825	-2.9985209	1.5849206
1176777939243714	0.063304216	-3.801406	2.593223
1176777947544496	0.7084048	-4.5176916	3.4208326
1176777955845277	0.64210886	-4.56653	2.6980329
1176777964146058	0.2707442	-4.6349792	-0.11757898
1176777972446839	0.25512445	-4.581748	-0.026661396
1176777980747621	0.018142015	-4.7010098	0.05113983
1176777989048402	-0.25885847	-4.655184	0.41239452
1176777997349183	-0.47351912	-4.4137297	0.7016878
1176778005649964	-0.58870006	-4.0288057	0.7347641
1176778013950746	-0.52856445	-2.9636164	0.9719286
1176778022251527	-0.54630494	-2.9612904	0.9633398
1176778030552308	-0.3054718	-2.7831125	0.92614555
1176778038853089	-0.24321999	-2.9035683	0.669261
1176778047153871	-0.22622806	-3.1669397	0.3442788
1176778055454652	-0.029060125	-3.5490894	0.027566433
1176778063755433	0.39683825	-4.081558	-0.34149837
1176778072056214	0.4627655	-4.190959	-0.6509552
1176778080356996	0.46310675	-4.0465393	-0.90877914
1176778088657777	0.2264003	-3.5970488	-1.1179562
1176778096958558	0.23241729	-2.7331085	-1.3682456
1176778105259339	0.7939677	-1.3216867	-1.6216698
1176778113560121	1.3638446	0.8736553	-1.5530849
1176778121860902	1.8793024	2.9517307	-1.1831138
1176778130161683	1.7419217	2.433711	-1.1751513
1176778138462464	0.7017209	2.6086388	-1.8964186
1176778146763246	-0.29362977	4.041382	-3.2011423
1176778155064027	-0.7317587	5.784709	-4.547623
1176778163364808	-2.0728655	6.762226	-5.3540354
1176778171665589	-2.981919	5.173876	-5.3848686
1176778179966371	-3.3593185	3.5441017	-4.964177
1176778188267152	-2.8348153	2.3591642	-4.0651035
1176778196567933	-1.8260515	1.5875959	-3.0215638
1176778204868714	-1.7956867	1.6111517	-2.9504735
1176778213169496	-0.8966766	0.36484623	-1.830446
1176778221470277	-2.0249538	0.07592201	-1.4220431
1176778229771058	-1.7381374	-0.17580032	-1.2286487
1176778238071839	-0.6606383	-0.070845604	-1.0855532
1176778246372621	0.3179287	0.27367496	-0.94745445
1176778254673402	0.7936099	0.5210962	-0.8609586
1176778262974183	2.075705	0.4583931	-0.9093356
1176778271274964	3.4578338	0.69139004	-0.17399454
1176778279575746	4.8180747	1.1900129	1.3941245
1176778287876527	6.3741612	1.5364113	3.281262
1176778296177308	7.991754	1.7358866	4.828607
1176778304478089	9.24675	1.9648829	5.4720163
1176778312778871	9.61423	2.151641	5.284607
1176778321079652	8.208919	1.1559563	3.1844013
1176778329380433	5.6133265	-0.32441044	0.5783441
1176778337681214	3.068309	-1.7067394	-1.4910858
1176778345981996	3.1239228	-1.7114534	-1.5030224
1176778354282777	-0.4911009	-2.4731274	-2.0105486
1176778362583558	-1.2771213	-2.368925	-0.51558137
1176778370884339	-1.515599	-2.5727262	0.8601222
1176778379185121	-1.6330919	-2.9745407	1.5251338
1176778387485902	-1.2388085	-3.5565805	2.0469415
1176778395786683	-0.35924774	-3.9324608	2.7517557
1176778404087464	-0.39951563	-3.9511414	2.6704137
1176778412388246	0.75949633	-2.2633152	4.3279
1176778420689027	-0.28022107	-0.7800884	6.1951265
1176778428989808	-1.2166536	0.05155945	7.58864
1176778437290589	-1.831093	0.40557384	8.499088
1176778445591371	-1.8671587	0.34741116	8.269887
1176778453892152	-2.8389199	0.7519121	7.7904863
1176778462192933	-3.3450832	0.6471958	4.866185
1176778470493714	-3.7270153	0.32646942	1.0644614
1176778478794496	-3.3931246	-0.012811661	-1.9181353
1176778487095277	-3.4039388	-0.024027824	-1.9829332
1176778495396058	-2.5163498	-0.432127	-3.7979898
1176778503696839	-0.19898075	-1.3933125	-2.2752995
1176778511997621	0.81376636	-1.5011187	0.18366241
1176778520298402	1.3584301	-1.1526518	1.9123269
1176778528599183	1.6838353	-0.7479067	3.0421886
1176778536899964	1.5943193	-0.7578745	2.8848698
1176778545200746	1.6382489	-0.5052843	3.2000108
1176778553501527	0.9797785	-0.6958437	1.5544662
1176778561802308	0.5084882	-0.98555565	0.48051518
1176778570103089	0.34737027	-1.173706	0.081992865
1176778578403871	0.14968407	-1.2557039	0.08504081
1176778586704652	0.10457587	-1.2512789	-0.00418368
1176778595005433	-0.2829188	-1.3188105	0.33706522
1176778603306214	-0.37713206	-1.3912201	0.3913547
1176778611606996	-0.3036003	-1.3841295	0.40040907
1176778619907777	-0.2261759	-1.4528008	0.5811177
1176778628208558	-0.28748	-1.5929403	0.8302513
1176778636509339	-0.3657967	-1.7871838	1.1460334
1176778644810121	-0.39466357	-1.7769327	1.0548381
1176778653110902	-0.41905737	-1.963459	1.4219646
1176778661411683	-0.3663069	-1.9120569	2.1231332
1176778669712464	-0.2341733	-1.7164879	2.1759207
1176778678013246	-0.044485927	-1.4700108	1.9650667
1176778686314027	-0.07867408	-1.4569387	1.8972548
1176778694614808	-0.0028290749	-1.1007395	1.35747
1176778702915589	-0.16855037	-0.6538086	0.37122554
1176778711216371	-1.1046268	0.04731083	-2.460339
1176778719517152	-1.3554676	0.23192692	-2.8085036
1176778727817933	-1.3886285	0.24454308	-2.8674195
1176778736118714	-1.3596936	0.2594347	-1.949853
1176778744419496	-0.82605016	-0.01606369	1.0057315
1176778752720277	-0.8605232	0.005961418	0.8849902
1176778761021058	-0.6326275	-0.028694153	1.6460844
1176778769321839	-0.108757734	0.34725285	1.5252483
1176778777622621	-0.15083814	0.3700428	1.4338785
1176778785923402	-0.22977972	0.8368225	0.82441556
1176778794224183	-0.3999641	1.4687357	0.24050093
1176778802524964	-0.65066004	2.1652164	-0.12545133
1176778810825746	-1.0662935	2.6785975	-0.13918948
1176778819126527	-1.485755	2.615693	0.23071921
1176778827427308	-2.2015228	2.6704035	0.4923712
1176778835728089	-2.9711308	2.7409067	0.034196377
1176778844028871	-3.7585635	2.6979074	-0.76915765
1176778852329652	-4.398475	2.4439592	-1.5354698
1176778860630433	-4.5186224	1.9546633	-2.236549
1176778868931214	-4.3195214	1.3321142	-2.268968
1176778877231996	-3.8864248	0.8301935	-2.060201
1176778885532777	-3.7121778	0.8073683	-1.8805859
1176778893833558	-3.5912454	1.3312712	-1.7563341
1176778902134339	-3.2166042	2.2357016	-1.7096816
1176778910435121	-2.5443215	3.151744	-1.7761152
1176778918735902	-2.2299423	4.2882977	-0.72987056
1176778927036683	-2.2173338	4.2703686	-0.6852484
1176778935337464	-2.0980513	4.4906263	-0.14027
1176778943638246	-1.8898692	4.501236	-0.11414516
1176778951939027	-1.5982323	4.309145	-0.41059518
1176778960239808	-1.5666795	4.281455	-0.321149
1176778968540589	-1.0951056	3.136032	-0.052507162
1176778976841371	-0.7062936	2.485632	-0.03594017
1176778985142152	-0.1194706	2.0425014	-0.5259284
1176778993442933	0.5250747	1.7357187	-1.3250917
1176779001743714	1.0671358	1.4837751	-2.0224578
1176779010044496	1.3784779	1.3252306	-2.1129317
1176779018345277	1.4345672	1.4948997	-1.3209872
1176779026646058	1.4556236	1.6964645	0.0751899
1176779034946839	1.7338537	1.6860332	1.6940163
1176779043247621	2.3936784	1.5042038	2.6739268
1176779051548402	3.2796383	1.3085709	2.3717356
1176779059849183	3.8930755	1.2509394	1.050004
1176779068149964	4.0550017	1.3266315	0.29060304
1176779076450746	4.6175494	1.1547956	0.32230985
1176779084751527	5.623041	0.60955906	0.6484256
1176779093052308	5.247835	0.5914631	0.87285745
1176779101353089	5.2875233	0.6061878	1.0055093
1176779109653871	1.0308619	1.0788164	1.1644224
1176779117954652	1.3165975	0.45155716	0.8956615
1176779126255433	0.6978977	-0.07268238	1.0116196
1176779134556214	0.17774302	-0.29360294	1.4910588
1176779142856996	0.24952358	-0.34935188	2.070183
1176779151157777	0.7978219	-0.43929482	2.4682076
1176779159458558	1.0126643	-0.55566883	2.639247
1176779167759339	0.86184764	-0.67489815	2.8072593
1176779176060121	0.5963999	-0.9919033	3.4422836
1176779184360902	0.26988077	-1.2926884	3.9549453
1176779192661683	0.10574455	-1.6797562	4.243249
1176779200962464	0.19486	-1.6326532	4.36012
1176779209263246	0.63473356	-3.1083965	4.0855474
1176779217564027	0.90890515	-4.0987034	3.7224612
1176779225864808	1.1795282	-5.09797	3.2188413
1176779234165589	1.4860733	-5.971469	2.6234467
1176779242466371	1.5009482	-5.8998365	2.7568576
1176779250767152	1.7582765	-6.531234	2.2138464
1176779259067933	1.5867233	-6.9009666	1.765861
1176779267368714	1.3679926	-6.7037106	1.8947902
1176779275669496	1.2037486	-6.4601727	1.9080968
1176779283970277	1.0805488	-6.2420855	1.8385277
1176779292271058	1.0601377	-6.1981764	1.8963022
1176779300571839	0.8132472	-5.877881	1.7542896
1176779308872621	0.8787192	-5.8936443	1.6317043
1176779317173402	0.86853474	-6.030843	1.5124207
1176779325474183	0.75274956	-6.2630033	1.2351732
1176779333774964	0.5494599	-6.485922	0.8948469
1176779342075746	0.29759404	-6.612479	0.56209135
1176779350376527	0.050407946	-6.5680647	0.25218964
1176779358677308	-0.15077221	-6.2725935	-0.13489771
1176779366978089	-0.24001864	-5.6650724	-0.57491636
1176779375278871	-0.33254015	-4.663828	-0.99514747
1176779383579652	-0.5881536	-3.0147438	-1.2800374
1176779391880433	-0.96324605	-0.46311474	-1.3775668
1176779400181214	-0.9983059	-0.5414696	-1.5781417
1176779408481996	-1.0182602	9.426312	-1.011379
1176779416782777	0.9038745	16.723232	0.03943491
1176779425083558	2.715667	21.38459	-0.36687064
1176779433384339	2.725984	21.46951	-2.541354
1176779441685121	2.6120484	21.394653	-2.6633697
1176779449985902	0.5485949	16.31368	-5.0462437
1176779458286683	-3.537869	2.070653	-5.253087
1176779466587464	-3.978466	-0.6737423	-4.737606
1176779474888246	-4.2754574	-2.4321966	-4.2598915
1176779483189027	-4.2203693	-2.3928604	-4.1246767
1176779491489808	-4.261532	-3.581953	-4.010682
1176779499790589	-3.0965347	-3.907156	-4.430361
1176779508091371	-1.5263486	-2.4564075	-2.9953566
1176779516392152	0.8905705	0.018336296	-0.5272162
1176779524692933	0.9095369	0.044136047	-0.45254183
1176779532993714	3.5372906	2.468792	1.4186726
1176779541294496	5.60475	4.4879227	3.4833958
1176779549595277	7.2929435	5.6117334	6.135803
1176779557896058	9.208432	5.3444033	8.883769
1176779566196839	10.665813	3.4846916	9.223358
1176779574497621	9.837251	-0.41260242	6.7719097
1176779582798402	8.52159	-3.2265205	3.3871539
1176779591099183	6.635796	-4.3234463	0.2151525
1176779599399964	3.898564	-4.2044125	-2.6584613
1176779607700746	0.4925012	-4.0418816	-4.919881
1176779616001527	-1.170474	-4.4500837	-1.6781504
1176779624302308	-2.527616	-2.8644724	2.4584
1176779632603089	-2.4487062	-2.8898964	2.371134
1176779640903871	-2.890898	-2.6004477	1.7943113
1176779649204652	-2.682963	-2.840539	1.2876093
1176779657505433	-1.609103	-2.8491507	1.0271568
1176779665806214	0.6296666	-2.0262928	0.8343122
1176779674106996	3.1234016	-1.000206	3.4807503
1176779682407777	3.0142088	-1.0152864	3.401272
1176779690708558	2.7069921	-0.41192532	6.3146276
1176779699009339	2.2588315	-0.057932854	8.792161
1176779707310121	2.1576967	1.1792603	12.651712
1176779715610902	2.0800183	1.1189737	12.328802
1176779723911683	-0.029081047	2.2150316	10.825542
1176779732212464	-1.3406277	2.3965092	7.395766
1176779740513246	-1.6860806	1.8397541	3.658011
1176779748814027	-1.3002218	0.96420765	0.5964438
1176779757114808	-0.54448235	0.23596287	-1.6904153
1176779765415589	-0.35642326	0.12445927	-4.1261024
1176779773716371	-0.9781631	0.090224266	-4.900028
1176779782017152	-0.6957308	-0.38563347	-3.732479
1176779790317933	0.3332336	-1.1075783	-1.8313394
1176779798618714	1.4491174	-1.7890797	-0.22667098
1176779806919496	1.8830198	-2.184495	0.7333131
1176779815220277	1.6337647	-2.1257744	1.455672
1176779823521058	1.3934405	-2.0289316	2.0822322
1176779831821839	0.94835365	-1.9340343	2.4357266
1176779840122621	0.42452264	-1.872592	2.4614253
1176779848423402	-0.051842213	-1.8981295	2.3274565
1176779856724183	-0.3785714	-2.0439825	2.2763832
1176779865024964	-0.089262605	-2.037366	1.6760598
1176779873325746	-0.27433145	-1.7176428	0.8241187
1176779881626527	-0.5991559	-1.403801	0.2917881
1176779889927308	-1.0600748	-1.1467257	0.13463855
1176779898228089	-1.5380553	-0.98458004	0.2065975
1176779906528871	-1.7580557	-0.9808245	0.27246684
1176779914829652	-1.7966951	-1.076868	0.24693412
1176779923130433	-2.0091991	-0.9811268	0.011158586
1176779931431214	-2.4200897	-0.6775894	-0.49988854
1176779939731996	-2.9420993	-0.29170418	-1.2380595
1176779948032777	-3.4386306	0.012755394	-1.96812
1176779956333558	-3.4750304	0.032221794	-2.0485148
1176779964634339	-3.7536097	0.04157257	-1.9123034
1176779972935121	-3.3597503	-0.045381546	-1.2735319
1176779981235902	-2.6212962	-0.052350044	-0.5726888
1176779989536683	-1.8974125	0.118284225	-0.053914666
1176779997837464	-1.958333	0.14944267	-0.14747322
1176780006138246	-1.5914693	0.5982151	-0.033845782
1176780014439027	-1.5181694	2.3395329	-0.79178286
1176780022739808	-1.460434	3.0574036	-0.38810778
1176780031040589	-1.5091815	3.3086233	0.2468903
1176780039341371	-1.5490873	3.1177235	0.57002735
1176780047642152	-1.5830457	3.1367598	0.50276995
1176780055942933	-2.4025986	2.270605	-0.13355803
1176780064243714	-2.6494873	2.2237034	-0.80507016
1176780072544496	-3.0263648	2.314211	-1.7708995
1176780080845277	-3.3411045	2.3318691	-2.8041644
1176780089146058	-3.662788	2.2639828	-3.2251182
1176780097446839	-3.8968909	2.199708	-2.6227725
1176780105747621	-3.8888695	2.1908293	-2.5984795
1176780114048402	-3.410147	2.7894335	-1.0151446
1176780122349183	-3.3098252	3.2745085	-1.8626108
1176780130649964	-3.4691384	3.4849157	-2.5472302
1176780138950746	-3.4703295	3.3987722	-2.5451527
1176780147251527	-3.4479477	3.3717375	-2.4639597
1176780155552308	-2.9429219	3.1189032	-1.7429001
1176780163853089	-2.0380125	3.0312452	-0.13813734
1176780172153871	-2.0377958	3.195897	0.18124628
1176780180454652	-1.9644339	3.0942593	0.12957442
1176780188755433	-1.9090414	3.0571184	0.24547756
1176780197056214	-1.5802848	2.788413	-0.11388862
1176780205356996	-0.6368568	2.6991758	-1.153635
1176780213657777	-0.5201404	2.8853579	-1.3902645
1176780221958558	0.5424073	2.8501625	-1.5178791
1176780230259339	1.5099424	2.8428774	-1.0672146
1176780238560121	1.977205	3.013712	-0.02288942
1176780246860902	1.9393576	3.3359175	1.4814618
1176780255161683	1.7263751	3.5025978	3.3416996
1176780263462464	2.059185	3.256074	4.3112373
1176780271763246	2.9284983	2.9623537	3.7072108
1176780280064027	4.201325	2.6636257	2.3524444
1176780288364808	4.227392	2.6733704	2.5440543
1176780296665589	5.6836243	2.5028543	1.0862086
1176780304966371	7.9955397	2.5014448	-0.74138355
1176780313267152	7.965078	2.5269594	-0.56393147
1176780321567933	7.3651147	2.226715	-0.6854677
1176780329868714	1.0837083	1.4321022	1.3802714
1176780338169496	1.2030213	1.4392414	1.5048609
1176780346470277	-0.4924158	0.8646145	2.466923
1176780354771058	-0.27805686	0.43758392	2.676979
1176780363071839	-0.5362889	-0.25732327	3.6432061
1176780371372621	-0.17741773	-1.4894695	3.77239
1176780379673402	-0.37642938	-1.9019737	3.5976222
1176780387974183	-0.2457149	-1.8629646	3.7263803
1176780396274964	-0.60519254	-2.3632698	3.9233363
1176780404575746	-0.73814124	-3.894556	5.135757
1176780412876527	-0.5340462	-4.827877	5.197605
1176780421177308	-0.20545803	-5.891924	4.9732065
1176780429478089	0.41704243	-6.9186716	4.397613
1176780437778871	0.45745212	-6.842396	4.5448027
1176780446079652	1.3813925	-7.7306557	3.7028594
1176780454380433	2.9578476	-8.4926605	2.093089
1176780462681214	2.893468	-7.859578	1.7112646
1176780470981996	2.8695645	-7.777705	1.8482552
1176780479282777	2.6930995	-7.053049	1.6843162
1176780487583558	2.435328	-6.51099	1.8115454
1176780495884339	2.1153088	-6.2266264	2.045115
1176780504185121	1.5025055	-6.361414	1.8779616
1176780512485902	1.4885772	-6.340208	1.8895345
1176780520786683	1.2067637	-6.6235285	1.584063
1176780529087464	0.95583403	-6.9434834	1.2084355
1176780537388246	0.7879888	-7.2636757	0.7891526
1176780545689027	0.72093695	-7.50908	0.32506847
1176780553989808	0.8814828	-7.3408766	-0.4953003
1176780562290589	0.98877364	-6.6391735	-0.81621265
1176780570591371	0.95666933	-6.684808	-0.93833256
1176780578892152	0.9961019	-5.4170256	-1.3162386
1176780587192933	0.5614437	-3.6503296	-1.4118054
1176780595493714	-0.43504167	-1.0767908	-1.1954832
1176780603794496	-1.4652369	10.940196	-0.23313975
1176780612095277	-1.5076118	10.837789	-0.45588994
1176780620396058	-0.5502627	20.807716	1.4879107
1176780628696839	1.1516936	27.327744	2.0418453
1176780636997621	0.86441207	26.751862	-0.41302323
1176780645298402	0.77492154	26.67989	-0.48865056
1176780653599183	-4.570321	7.503289	-6.1500745
1176780661899964	-5.670468	0.25404644	-5.6705546
1176780670200746	-6.307115	-3.697937	-5.9024253
1176780678501527	-6.477692	-6.0760384	-7.3277683
1176780686802308	-6.422733	-6.014721	-7.157925
1176780695103089	-6.374992	-6.8599854	-8.546917
1176780703403871	-2.4730535	-4.631957	-5.555109
1176780711704652	2.6945205	-1.903121	-0.41349173
1176780720005433	6.766766	1.381177	3.2712412
1176780728306214	8.78626	4.392357	6.766632
1176780736606996	8.752981	4.3623	6.696844
1176780744907777	10.360915	6.5049124	12.015694
1176780753208558	10.294673	6.4609995	11.901762
1176780761509339	9.382658	-0.23498821	7.4627743
1176780769810121	8.812043	-2.972475	2.6448865
1176780778110902	8.760863	-2.965826	2.6362503
1176780786411683	7.0230913	-3.3678036	-2.8634167
1176780794712464	3.6216493	-2.9974842	-6.164498
1176780803013246	-0.023765981	-2.8684616	-5.372618
1176780811314027	-2.9971693	-2.2659855	3.0712335
1176780819614808	-3.4871402	-1.7824612	3.5815203
1176780827915589	-3.5942469	-1.9896517	3.0201948
1176780836216371	-3.5725448	-2.0188227	2.9037454
1176780844517152	-2.8647213	-2.5082855	2.3112588
1176780852817933	-1.3875105	-2.998888	1.9004917
1176780861118714	2.2704537	-3.9054337	1.8230367
1176780869419496	2.7107668	-3.0733309	4.2405643
1176780877720277	2.5963407	-3.088296	4.1256256
1176780886021058	3.3665714	-2.400156	6.818589
1176780894321839	3.7217524	-1.7798357	8.825764
1176780902622621	3.2635455	-1.0247679	9.766642
1176780910923402	1.0464907	0.9191017	10.914383
1176780919224183	0.9783782	0.89279175	10.616053
1176780927524964	-0.36014438	1.5703821	9.054018
1176780935825746	-1.063289	1.5982857	5.774247
1176780944126527	-1.3712903	1.5041256	2.3491147
1176780952427308	-1.837407	1.6601229	-1.3085275
1176780960728089	-4.5945697	1.8488016	-11.291485
1176780969028871	-4.601567	1.8477707	-11.251397
1176780977329652	-1.1307018	-1.0837631	-3.1742857
1176780985630433	0.2241453	-1.8339691	0.5339049
1176780993931214	0.19156837	-1.8294687	0.43213105
1176781002231996	0.418445	-2.0315208	2.5054834
1176781010532777	-0.5292773	-1.7605181	3.1447864
1176781018833558	-0.55978477	-1.7505627	2.9860504
1176781027134339	-0.57766473	-1.8396091	1.9913117
1176781035435121	-0.5955572	-1.8291883	1.8912363
1176781043735902	-0.33822978	-1.9437904	1.4490871
1176781052036683	-0.21377254	-2.0430489	1.1796128
1176781060337464	-0.15572155	-2.0304966	0.88575834
1176781068638246	-0.364303	-1.8136492	0.582574
1176781076939027	-0.64966583	-1.4900217	0.36179036
1176781085239808	-0.8885828	-1.1454124	0.20885074
1176781093540589	-1.1033611	-0.8927183	0.10833323
1176781101841371	-1.3219259	-0.7473364	-0.06698507
1176781110142152	-1.3820701	-0.72794914	-0.12623888
1176781118442933	-2.1408997	-0.25564575	-1.9040428
1176781126743714	-2.5347881	0.006955147	-2.7915473
1176781135044496	-2.5341864	0.059253693	-2.4044423
1176781143345277	-2.4792926	-0.026064873	-1.3294102
1176781151646058	-2.517181	-0.14669323	-0.1891824
1176781159946839	-2.4396036	-0.20764732	0.7129718
1176781168247621	-1.9228234	-0.042287827	1.2173434
1176781176548402	-1.6401975	0.5369835	1.0247363
1176781184849183	-1.5319662	1.4338007	0.13421285
1176781193149964	-1.5271721	2.4519444	-0.7520672
1176781201450746	-1.5981412	3.3522806	-0.8890809
1176781209751527	-1.8066814	3.895873	0.10153699
1176781218052308	-2.5349524	3.697626	1.1698182
1176781226353089	-3.193874	3.043868	0.98448205
1176781234653871	-3.559101	2.6483927	0.0076138973
1176781242954652	-3.6582563	2.5747766	-1.2333648
1176781251255433	-3.6742647	2.575613	-1.2269323
1176781259556214	-3.7449613	2.758996	-3.3307376
1176781267856996	-3.547211	2.7504787	-3.457562
1176781276157777	-3.2305884	2.7132568	-2.2358415
1176781284458558	-2.8342547	2.7353563	-1.1028194
1176781292759339	-2.3082738	2.797327	-1.0161276
1176781301060121	-1.8004115	2.8572063	-2.018977
1176781309360902	-1.7773309	2.8364983	-1.9735689
1176781317661683	-2.2155688	2.9002838	-2.3410006
1176781325962464	-2.0775406	2.8556852	-1.0052247
1176781334263246	-1.5525763	2.844717	-0.23760796
1176781342564027	-1.0818298	2.9530811	-0.15737832
1176781350864808	-1.0257711	2.9102287	-0.015547156
1176781359165589	-0.6831255	3.1343164	-0.9421253
1176781367466371	-0.45200086	3.1132813	-1.0307596
1176781375767152	-0.23829365	2.909646	-0.9741099
1176781384067933	0.6115241	2.637267	-1.0382794
1176781392368714	0.72811794	2.5943193	-0.8235486
1176781400669496	1.9492565	2.3717508	-0.7543
1176781408970277	2.5243568	3.0083647	0.524953
1176781417271058	2.1375816	3.8203192	1.9628751
1176781425571839	2.177381	4.0895996	3.1053863
1176781433872621	3.076301	3.8323936	3.4389322
1176781442173402	3.1475892	3.826809	3.618952
1176781450474183	4.4895844	3.2424393	2.8864746
1176781458774964	6.754447	2.3442745	-0.57096064
1176781467075746	7.211031	2.3268013	-1.6098865
1176781475376527	6.91367	1.9973793	-1.0880516
1176781483677308	5.536942	1.6125021	-0.2013458
1176781491978089	5.5834813	1.6328688	-0.034134507
1176781500278871	0.7296016	0.8053608	1.8039906
1176781508579652	-0.98082256	0.42237282	2.423441
1176781516880433	-0.62231743	-0.11965847	2.6545386
1176781525181214	-0.1364004	-0.54020214	3.233127
1176781533481996	0.07974261	-0.80999374	3.2807434
1176781541782777	0.001638025	-1.0188713	3.1754305
1176781550083558	0.1250209	-0.9822626	3.3008163
1176781558384339	-0.10855639	-1.2844496	3.6212053
1176781566685121	-0.50385165	-2.8376455	4.6700573
1176781574985902	-0.27604496	-3.7882366	4.8636074
1176781583286683	-0.07712117	-4.7225914	4.858285
1176781591587464	-0.015228599	-4.6581373	4.9933157
1176781599888246	0.34412536	-5.705982	4.782097
1176781608189027	1.915123	-8.1959915	3.5983043
1176781616489808	2.2688522	-8.963074	2.8563874
1176781624790589	2.4694188	-9.197021	2.0215955
1176781633091371	2.4491436	-9.11185	2.1600337
1176781641392152	2.0325081	-8.6904745	1.4256139
1176781649692933	0.57913136	-7.055278	0.89240503
1176781657993714	0.22281009	-6.479887	1.1535826
1176781666294496	0.13428806	-6.2574854	1.3946438
1176781674595277	0.11336312	-6.2319584	1.4159989
1176781682896058	-0.07778405	-6.307498	1.6357489
1176781691196839	-0.22863849	-6.5333147	1.7591457
1176781699497621	-0.38328913	-6.88873	1.472115
1176781707798402	-0.43825808	-6.942254	0.7864299
1176781716099183	-0.31886148	-6.8482	-0.35634518
1176781724399964	-0.3601893	-6.883728	-0.4555645
1176781732700746	-0.011137582	-5.6111364	-1.6203547
1176781741001527	-0.15975474	-4.1662073	-1.1977184
1176781749302308	-0.21543103	-4.230934	-1.3625917
1176781757603089	-1.0956973	0.6522646	1.3606749
1176781765903871	-0.8466598	6.0938873	2.76163
1176781774204652	0.20674175	15.980204	3.1531353
1176781782505433	2.923368	25.165031	-0.0043945313
1176781790806214	2.8398724	25.054935	-0.20757222
1176781799106996	4.8747597	28.479988	-5.8834324
1176781807407777	3.173743	23.35798	-10.134409
1176781815708558	-0.3507902	9.58761	-9.973108
1176781824009339	-2.780719	1.3510542	-7.724818
1176781832310121	-4.418748	-3.256176	-5.427858
1176781840610902	-5.238816	-5.850004	-4.114063
1176781848911683	-5.198154	-6.93876	-3.9278734
1176781857212464	-4.2984962	-6.4081306	-4.157565
1176781865513246	-2.168113	-3.8240252	-4.0543036
1176781873814027	1.1027844	0.6933842	-2.72777
1176781882114808	4.5851245	5.30365	-0.2655549
1176781890415589	7.1152716	8.541688	5.613873
1176781898716371	9.02886	9.328081	12.628166
1176781907017152	11.044897	7.045577	15.744989
1176781915317933	11.245259	1.6464195	11.841612
1176781923618714	7.9689503	-2.2842503	5.2099504
1176781931919496	5.05083	-4.4892006	0.12618423
1176781940220277	3.0279229	-5.708934	-1.9241717
1176781948521058	1.8738976	-6.2392797	-1.3895609
1176781956821839	1.2925692	-5.911357	-0.16709208
1176781965122621	0.9574357	-4.343276	-0.793164
1176781973423402	-0.8998816	-3.0488644	-1.865958
1176781981724183	-2.2960324	-3.0342379	-0.09660363
1176781990024964	-2.7145033	-3.2893925	1.9468038
1176781998325746	-1.8960843	-2.9576063	2.8625906
1176782006626527	-1.9655972	-2.9640026	2.8138902
1176782014927308	0.88349915	-0.89284706	3.8467097
1176782023228089	1.6382058	-0.43484306	5.7888184
1176782031528871	2.1795883	0.12918568	8.8063345
1176782039829652	2.1480675	1.0010471	11.767466
1176782048130433	1.1432621	2.0761957	13.202192
1176782056431214	-0.9100565	2.9386911	12.004226
1176782064731996	-2.3073237	2.4957142	8.456156
1176782073032777	-2.4510276	1.1384087	5.3173027
1176782081333558	-2.0075498	-0.11101246	3.3754058
1176782089634339	-1.3249929	-0.7289305	1.6768016
1176782097935121	-0.92766404	-0.56236553	-1.2445718
1176782106235902	-0.96118736	-0.5596571	-1.2684765
1176782114536683	-2.3497033	0.3527956	-9.412289
1176782122837464	-1.8372412	-0.21687412	-5.431761
1176782131138246	-0.9147941	-0.7898903	-1.5492955
1176782139439027	-0.2638433	-1.2187824	0.89073884
1176782147739808	-0.30910575	-1.220253	0.7598659
1176782156040589	-0.26699793	-1.4090557	1.7183701
1176782164341371	-0.8563769	-1.1881342	2.0639458
1176782172642152	-1.0716813	-1.2161465	2.2294364
1176782180942933	-0.9948927	-1.3489218	2.3060758
1176782189243714	-0.80156946	-1.5798922	2.2023075
1176782197544496	-0.83180094	-1.5713844	2.108988
1176782205845277	-0.45593035	-2.052476	1.7821505
1176782214146058	-0.21369374	-2.1449194	1.5291862
1176782222446839	-0.075511456	-2.0476913	1.224384
1176782230747621	-0.10166681	-1.8524551	0.9256851
1176782239048402	-0.25591195	-1.6255207	0.6343653
1176782247349183	-0.2985736	-1.6113377	0.576245
1176782255649964	-0.6619359	-1.3280811	0.13461804
1176782263950746	-0.8951454	-1.3089113	-0.2930615
1176782272251527	-1.2698408	-1.1662741	-1.0357668
1176782280552308	-1.5241003	-0.9302988	-1.8609248
1176782288853089	-1.5049837	-0.7686758	-2.0268664
1176782297153871	-1.316963	-0.75396156	-1.3233341
1176782305454652	-1.3783998	-0.72482777	-1.4397622
1176782313755433	-1.3045223	-0.71831703	0.35876095
1176782322056214	-1.2181439	-0.417655	0.6639408
1176782330356996	-1.0849266	0.15664482	0.4928614
1176782338657777	-0.9043741	0.9831114	0.054795504
1176782346958558	-0.97136855	1.020627	-0.059245586
1176782355259339	-0.76865673	2.0108528	-0.36112726
1176782363560121	-1.2577176	3.3872232	0.70012724
1176782371860902	-2.0002022	3.2168112	1.2465495
1176782380161683	-2.8444436	2.7132158	1.0962526
1176782388462464	-2.8921947	2.729414	1.0712645
1176782396763246	-3.5606596	2.2792673	0.11524749
1176782405064027	-4.5884833	2.4723501	-3.0756402
1176782413364808	-5.2282877	2.7578917	-3.545137
1176782421665589	-5.458291	3.0121193	-2.6416636
1176782429966371	-5.460395	3.003396	-2.6035123
1176782438267152	-5.5572977	3.346017	-0.9718032
1176782446567933	-5.4957604	3.784338	0.014956713
1176782454868714	-5.2221756	4.1359186	-0.4407159
1176782463169496	-4.321999	4.1293774	-1.9410248
1176782471470277	-3.6065145	4.284112	-1.5255613
1176782479771058	-3.557082	4.247773	-1.4441066
1176782488071839	-1.655858	4.5567417	-0.8148259
1176782496372621	-1.584801	4.5129776	-0.724398
1176782504673402	-1.3521018	4.93824	0.02338314
1176782512974183	-0.91841936	4.552458	0.473374
1176782521274964	0.4242034	3.664198	-0.63616717
1176782529575746	1.9436479	3.1055574	-1.684704
1176782537876527	2.0394106	3.0591516	-1.5203035
1176782546177308	3.5008237	2.8183556	-2.1305907
1176782554478089	4.669196	2.7346268	-2.0877273
1176782562778871	4.8335977	2.8327818	0.11322744
1176782571079652	4.9255757	2.804657	0.3500262
1176782579380433	4.610752	3.106985	1.8414469
1176782587681214	4.3674707	3.08321	2.9622703
1176782595981996	4.4920278	2.5652971	3.4101791
1176782604282777	5.1177893	1.7916136	3.0814257
1176782612583558	6.429541	1.315917	0.51372445
1176782620884339	6.426818	1.3378763	0.7200929
1176782629185121	6.1996064	1.5613565	-0.20372784
1176782637485902	4.3463993	2.2273703	-0.3554994
1176782645786683	1.7999582	2.8175917	0.18141043
1176782654087464	-0.8715546	2.0692434	1.5729735
1176782662388246	-0.7585192	2.0814953	1.7123067
1176782670689027	-0.73480177	1.5597277	1.0454578
1176782678989808	-1.0082923	1.2863207	1.6658266
1176782687290589	-1.0482529	0.87987614	2.4269028
1176782695591371	-0.6674534	0.17821789	2.919199
1176782703892152	-0.040420562	-0.80274105	3.2565727
1176782712192933	0.2937551	-1.88486	3.7918906
1176782720493714	-0.17453316	-2.6817827	5.070139
1176782728794496	-0.232705	-3.4821062	5.8207464
1176782737095277	0.12089823	-4.3832855	5.9063363
1176782745396058	0.7344235	-5.3876143	5.538179
1176782753696839	1.3717196	-6.421463	5.1424723
1176782761997621	1.9273702	-7.3891745	4.960661
1176782770298402	2.3284662	-8.250828	4.409523
1176782778599183	2.70859	-8.870642	3.6365278
1176782786899964	2.6597614	-8.840526	2.6781244
1176782795200746	2.1709929	-8.111162	1.6820598
1176782803501527	1.1474744	-6.1707535	0.40598392
1176782811802308	1.1254251	-6.1032495	0.51173687
1176782820103089	0.76079696	-5.6175365	0.86850405
1176782828403871	0.49413794	-5.5270033	1.3659043
1176782836704652	0.39776886	-5.640667	1.723072
1176782845005433	0.3511344	-5.8482447	1.828867
1176782853306214	-0.111726366	-6.280032	1.3846779
1176782861606996	-0.13113898	-6.292204	1.3351536
1176782869907777	-0.33008027	-6.3827887	0.76222754
1176782878208558	-0.37692147	-6.3908186	0.04857397
1176782886509339	-0.25834182	-6.333955	-0.7731323
1176782894810121	-0.2889048	-6.3770275	-0.8857317
1176782903110902	-0.07430044	-6.1758556	-1.6280458
1176782911411683	0.086566806	-4.177144	-1.5101879
1176782919712464	-0.39175162	-1.6706762	-0.9343214
1176782928013246	-1.0566442	2.1774902	-0.15855598
1176782936314027	-1.065773	8.279922	0.34398556
1176782944614808	-0.2554855	16.176502	0.96999764
1176782952915589	-0.3000984	16.073124	0.745466
1176782961216371	3.7305927	28.83039	2.4760506
1176782969517152	3.8761568	21.774586	-3.2179234
1176782977817933	0.90945286	11.524982	-7.8136063
1176782986118714	-2.0591285	2.8678885	-9.187942
1176782994419496	-3.971254	-2.4999495	-7.9113526
1176783002720277	-3.943759	-2.4373465	-7.701292
1176783011021058	-6.8286633	-7.440401	-5.2916956
1176783019321839	-6.820211	-7.8967257	-5.924348
1176783027622621	-4.7577715	-6.583914	-6.248254
1176783035923402	-1.3665631	-3.7002068	-4.967451
1176783044224183	-1.3065052	-3.653143	-4.8558817
1176783052524964	2.5002613	0.49603653	-2.0188785
1176783060825746	8.480252	8.962507	8.713515
1176783069126527	11.914688	10.000372	15.24012
1176783077427308	14.230361	7.2962856	14.698461
1176783085728089	13.999038	2.5448713	9.247351
1176783094028871	13.904479	2.5271988	9.184603
1176783102329652	11.0852165	-1.8053141	2.807926
1176783110630433	1.9647413	-3.0249348	-2.868949
1176783118931214	-1.4756482	-3.353342	-2.2797606
1176783127231996	-2.7629273	-3.8498974	-0.71416616
1176783135532777	-2.8418114	-3.9017963	0.08983064
1176783143833558	-2.7492366	-3.9319515	-0.006326914
1176783152134339	-2.733942	-3.5576315	0.053831577
1176783160435121	-2.3278658	-3.6825266	2.7721045
1176783168735902	-0.37386093	-3.9548378	2.9984913
1176783177036683	0.3240286	-3.0885916	4.2393217
1176783185337464	0.24163511	-3.106389	4.1448746
1176783193638246	0.81614023	-2.0308104	6.0599394
1176783201939027	2.1403518	-1.4575949	7.9613414
1176783210239808	3.552998	-0.30681324	9.491763
1176783218540589	3.1106157	0.67169285	9.572248
1176783226841371	1.8904957	1.6500092	9.190166
1176783235142152	0.22999626	2.0165358	7.721501
1176783243442933	0.17220277	1.9886284	7.4646297
1176783251743714	-1.1834375	1.4575205	5.0237346
1176783260044496	-0.5371661	-0.004193306	1.2550857
1176783268345277	-0.16114569	0.24945164	-0.41746068
1176783276646058	-0.79439497	0.8557348	-3.3682592
1176783284946839	-1.9267579	1.065239	-5.7836094
1176783293247621	-1.964835	1.067132	-5.7864776
1176783301548402	-2.5321448	0.43353462	-5.8281703
1176783309849183	0.30653667	-1.5022879	0.13115555
1176783318149964	0.86688673	-1.6740665	2.028395
1176783326450746	0.8235316	-1.6694574	1.9147683
1176783334751527	0.6110982	-1.5246878	2.9610004
1176783343052308	-0.07685673	-1.3715353	3.217578
1176783351353089	-0.6674503	-1.3956432	2.8900404
1176783359653871	-0.5684421	-1.519372	2.2960112
1176783367954652	-0.20600867	-1.8104706	1.6797134
1176783376255433	-0.22897506	-1.8010817	1.6074324
1176783384556214	-0.14049792	-1.8486948	1.4324653
1176783392856996	-0.124965906	-1.7917538	1.2801476
1176783401157777	-0.2962916	-1.6239967	1.1448834
1176783409458558	-0.6812649	-1.498311	1.0238018
1176783417759339	-0.95670366	-1.532157	0.6562093
1176783426060121	-1.4036599	-1.3762875	0.036171854
1176783434360902	-1.9966711	-0.97295284	-0.9975383
1176783442661683	-2.5841608	-0.4078951	-2.2311425
1176783450962464	-2.9550247	0.1539526	-3.030775
1176783459263246	-2.9011848	0.46194267	-2.2594023
1176783467564027	-3.1146142	0.43138313	-1.0275509
1176783475864808	-3.1547487	0.17426014	0.079946995
1176783484165589	-2.599064	-0.038179398	0.8073511
1176783492466371	-1.9037187	0.09639835	0.93287504
1176783500767152	-1.5506127	0.7600317	0.29912996
1176783509067933	-1.5472999	2.6985807	-0.9550648
1176783517368714	-1.607837	2.7241945	-1.0301529
1176783525669496	-1.5386493	3.4124937	-0.07983971
1176783533970277	-2.1330845	3.6226807	0.92181754
1176783542271058	-3.0420036	3.2967043	1.1442573
1176783550571839	-3.6196997	2.714141	0.33745897
1176783558872621	-3.7552211	2.4623842	-1.0127852
1176783567173402	-3.9267018	2.5313091	-2.1529708
1176783575474183	-4.1663895	2.6195889	-2.7096848
1176783583774964	-4.3579135	2.5961704	-2.5162704
1176783592075746	-4.4314594	2.5318804	-2.0161734
1176783600376527	-4.4256926	2.5247364	-1.9982699
1176783608677308	-4.572226	2.816268	-1.1660968
1176783616978089	-4.2635455	3.2689466	-1.7041
1176783625278871	-3.5605597	3.661459	-2.1422095
1176783633579652	-2.7995646	3.76126	-1.6975746
1176783641880433	-2.1233463	3.6248522	-0.748858
1176783650181214	-1.5561693	3.4006004	-0.088858604
1176783658481996	-1.019839	3.1953268	-0.38141203
1176783666782777	-0.4837246	3.4262133	-0.44130325
1176783675083558	-0.18458581	3.6290922	-0.40041327
1176783683384339	0.12534285	3.630497	-0.6132792
1176783691685121	0.5785706	3.4765472	-0.85425603
1176783699985902	1.2583826	3.3163023	-0.8021256
1176783708286683	2.3090768	3.1719923	-0.92253035
1176783716587464	3.493774	2.8967676	-0.6012353
1176783724888246	4.0132174	2.8493538	0.32301617
1176783733189027	4.013204	3.2796268	1.5752802
1176783741489808	3.7692976	3.9201536	2.774365
1176783749790589	3.871121	3.9027157	2.9768462
1176783758091371	4.4481783	3.635623	2.9865685
1176783766392152	5.9506335	2.653367	1.3590446
1176783774692933	6.953796	2.0184975	-0.18979394
1176783782993714	6.9668183	2.0329857	-0.0027518272
1176783791294496	7.2263002	2.109435	-1.202092
1176783799595277	7.22536	2.1316051	-1.0211399
1176783807896058	5.290605	2.1230803	0.3968557
1176783816196839	2.9131422	1.3591394	1.3310137
1176783824497621	1.2123625	0.78752995	1.5800161
1176783832798402	1.3381059	0.80248356	1.7102754
1176783841099183	-1.6057591	0.5593519	2.3050795
1176783849399964	-1.438823	0.57812786	2.4270115
1176783857700746	-1.7063813	-0.16476727	3.140945
1176783866001527	-1.4155196	-0.92946625	3.6584132
1176783874302308	-1.2949766	-0.8902559	3.7868357
1176783882603089	-1.4547642	-2.5464382	5.5555468
1176783890903871	-1.3208258	-3.5222397	5.88689
1176783899204652	-1.2441856	-3.4662971	6.0147533
1176783907505433	-0.20553154	-5.307124	5.0406637
1176783915806214	0.8225976	-6.1431274	4.3425655
1176783924106996	0.83316386	-6.0621185	4.502708
1176783932407777	2.611313	-7.6588173	3.1920433
1176783940708558	2.6844168	-8.131956	2.9416258
1176783949009339	2.6510744	-8.040355	3.0948687
1176783957310121	2.0617185	-7.7398796	2.2688708
1176783965610902	1.6303877	-6.8785677	1.8489676
1176783973911683	1.1891875	-6.0912266	1.7039757
1176783982212464	1.1760656	-6.0345354	1.7813363
1176783990513246	0.88546896	-5.5452604	1.8405113
1176783998814027	0.7808391	-5.389512	1.9656038
1176784007114808	0.8373126	-5.7764063	1.92623
1176784015415589	0.89368767	-6.085655	1.5428166
1176784023716371	0.86750484	-6.082017	1.5233912
1176784032017152	0.9384861	-6.3871403	0.8298383
1176784040317933	0.9932799	-6.6535463	-0.078933716
1176784048618714	1.0855088	-6.8488607	-1.0737419
1176784056919496	1.4863671	-6.707857	-2.3140597
1176784065220277	1.4393327	-6.756439	-2.431612
1176784073521058	1.2406139	-5.751361	-2.4901514
1176784081821839	-0.34590375	-0.22962856	-1.0627177
1176784090122621	-0.3890153	-0.31926155	-1.2638004
1176784098423402	-1.1597095	4.946863	-0.0032074451
1176784106724183	1.4780241	21.76649	1.5599804
1176784115024964	1.4047656	21.646053	1.3364713
1176784123325746	2.7458622	27.981129	3.3986483
1176784131626527	2.0507925	24.993431	0.21114182
1176784139927308	-0.3285209	15.445492	-4.9297295
1176784148228089	-3.0109212	4.683875	-8.297476
1176784156528871	-4.391677	-2.199976	-8.286458
1176784164829652	-5.5735555	-6.2435513	-7.5928574
1176784173130433	-6.595104	-8.485283	-7.7663927
1176784181431214	-7.008104	-8.833908	-8.43205
1176784189731996	-6.0742264	-7.4032526	-8.821229
1176784198032777	-3.4327602	-4.6205664	-7.5634003
1176784206333558	0.7007537	-1.0044403	-3.4027767
1176784214634339	5.3745356	3.9275103	0.6155119
1176784222935121	8.580928	8.809573	6.893448
1176784231235902	11.291527	11.405539	13.041624
1176784239536683	13.758513	10.088907	15.851263
1176784247837464	13.9999075	5.313669	13.530037
1176784256138246	8.905005	-0.12273884	6.602851
1176784264439027	4.349443	-2.24302	-1.3790727
1176784272739808	2.178958	-4.3808155	-3.013443
1176784281040589	0.8104094	-5.709813	-1.6027391
1176784289341371	-0.7732229	-5.4675083	0.32067537
1176784297642152	-0.71212035	-5.4802637	0.27278614
1176784305942933	-2.8838263	-3.8535023	1.227704
1176784314243714	-5.1445456	-2.3418455	1.4919937
1176784322544496	-4.5108533	-2.445445	2.4117084
1176784330845277	-2.7457647	-1.9224415	3.5634418
1176784339146058	-0.7581339	-1.2828255	4.5012317
1176784347446839	0.8475619	-1.1808538	4.9873085
1176784355747621	0.7601312	-1.2184448	4.855608
1176784364048402	2.3684647	-1.568016	7.8367863
1176784372349183	2.5577767	-1.024766	9.816383
1176784380649964	2.3587432	0.26545525	11.459963
1176784388950746	1.2420787	1.5835714	11.264761
1176784397251527	-0.40500462	2.2000475	8.87353
1176784405552308	-0.98388135	1.9392157	6.178501
1176784413853089	0.0024871826	1.2146654	4.44556
1176784422153871	0.82083166	0.82390594	2.8259478
1176784430454652	1.0129644	0.7901573	0.66634786
1176784438755433	0.33324003	1.1387892	-3.464836
1176784447056214	-0.79881656	1.5305595	-8.051853
1176784455356996	-1.1667892	1.139163	-7.350042
1176784463657777	-0.52429426	0.07155895	-2.952328
1176784471958558	0.29984498	-0.893713	0.033299923
1176784480259339	0.38038135	-1.5096941	1.649351
1176784488560121	-0.13620448	-1.8448782	2.395797
1176784496860902	-0.7453083	-2.059617	2.712504
1176784505161683	-0.7777631	-2.0575209	2.5787277
1176784513462464	-1.0847429	-2.4402752	2.4932773
1176784521763246	-0.9789524	-2.5028753	2.371141
1176784530064027	-0.6642028	-2.5359735	2.324978
1176784538364808	-0.69623363	-2.5260801	2.2494245
1176784546665589	-0.3102113	-2.1987572	1.9214367
1176784554966371	-0.7244148	-1.5609455	1.5621144
1176784563267152	-1.097218	-0.9877329	1.3511649
1176784571567933	-1.1628503	-0.7140827	1.2416584
1176784579868714	-1.2059637	-0.7019062	1.1598445
1176784588169496	-1.1874713	-0.6069956	0.84855616
1176784596470277	-1.8623667	-0.40728855	-1.1711233
1176784604771058	-1.9104842	-0.39005184	-1.2708228
1176784613071839	-2.2186732	-0.06053734	-2.2038007
1176784621372621	-1.9545121	0.17327404	-1.0725867
1176784629673402	-2.004685	0.1967268	-1.1973615
1176784637974183	-2.4296408	0.78638744	-0.054610968
1176784646274964	-2.4564474	0.8112526	0.087694645
1176784654575746	-1.7262287	0.53927994	0.16861176
1176784662876527	-1.0005078	0.5251093	-0.30129337
1176784671177308	-0.9944906	1.0717821	-1.1945972
1176784679478089	-1.1348224	1.8436813	-1.4619396
1176784687778871	-1.3471715	2.5187054	-0.7510854
1176784696079652	-1.79844	2.9021845	0.56719375
1176784704380433	-2.5196738	3.0433626	1.354377
1176784712681214	-3.1871717	2.8677368	0.726905
1176784720981996	-3.5316753	2.5509014	-0.3623129
1176784729282777	-3.8597496	2.2733889	-1.6649429
1176784737583558	-3.8894777	2.2728624	-1.6231631
1176784745884339	-4.252832	2.0719204	-2.778924
1176784754185121	-4.4804	2.0039043	-2.194745
1176784762485902	-4.217575	2.63869	-0.51701105
1176784770786683	-4.199742	2.625822	-0.4909612
1176784779087464	-3.831502	3.639266	-0.011560082
1176784787388246	-3.6378517	4.5541325	-0.9433025
1176784795689027	-3.5036156	4.9892254	-2.1764941
1176784803989808	-2.288358	4.0157347	-1.2510221
1176784812290589	-1.2348008	3.2810392	-0.5500928
1176784820591371	-0.47595382	3.0565243	-0.29065382
1176784828892152	-0.40289187	3.0139904	-0.14887828
1176784837192933	0.3781743	3.821663	-0.75800246
1176784845493714	0.47255015	3.7750835	-0.5752875
1176784853794496	0.9353671	4.029567	-1.7470168
1176784862095277	1.4385736	4.407813	-2.5600317
1176784870396058	1.3517997	4.859851	-1.7190992
1176784878696839	1.720659	4.9528923	-0.38801572
1176784886997621	2.2943993	4.7718506	1.2806387
1176784895298402	2.7963095	4.5826225	3.1475444
1176784903599183	3.0455909	4.5393877	4.8247347
1176784911899964	3.0160084	4.0925846	5.287984
1176784920200746	3.9490652	3.117487	3.6388493
1176784928501527	5.319726	2.4454641	1.2429065
1176784936802308	6.2900887	2.224987	-0.81699586
1176784945103089	6.5375504	2.373437	-1.7759746
1176784953403871	6.158161	2.6389246	-1.4420009
1176784961704652	2.2381473	2.4283895	1.1168077
1176784970005433	2.293971	2.449935	1.2568016
1176784978306214	0.42107964	2.0514622	2.3748639
1176784986606996	-1.0860863	1.4377022	3.1481862
1176784994907777	-1.7970058	0.7077875	3.4438038
1176785003208558	-1.1372511	0.07146835	3.3539426
1176785011509339	-0.1871525	-0.98861885	4.1570864
1176785019810121	-0.04270044	-0.9574251	4.25666
1176785028110902	-0.06473778	-1.5360947	4.3132505
1176785036411683	-0.09066926	-2.2498083	4.268034
1176785044712464	0.08899085	-3.083952	4.4372315
1176785053013246	0.3486858	-3.9662495	5.0270443
1176785061314027	0.80400985	-4.969886	5.542584
1176785069614808	1.3824899	-5.905016	5.607506
1176785077915589	1.77582	-6.7963953	5.4876366
1176785086216371	2.205418	-7.5998497	5.2468834
1176785094517152	2.706972	-8.247817	4.768736
1176785102817933	3.0521545	-8.618306	3.860034
1176785111118714	2.8152406	-8.402628	2.7085257
1176785119419496	2.30556	-7.701127	1.8181348
1176785127720277	1.6843538	-6.900316	1.4734168
1176785136021058	1.2491302	-6.225895	1.5863853
1176785144321839	1.1159723	-5.804776	1.9202061
1176785152622621	1.135764	-5.6233273	2.186956
1176785160923402	1.1205072	-5.6463127	2.2094707
1176785169224183	0.9711339	-5.8110323	1.9545188
1176785177524964	0.8320424	-6.0349655	1.335525
1176785185825746	0.7633319	-6.2382774	0.5065379
1176785194126527	0.7637455	-6.3439827	-0.25332832
1176785202427308	0.7333009	-6.376232	-0.33708572
1176785210728089	0.8352521	-5.6482067	-0.70769787
1176785219028871	0.6128485	-4.3013	-0.5864949
1176785227329652	0.11869092	-2.2443523	-0.49129152
1176785235630433	-0.54132533	0.52748775	-0.04588747
1176785243931214	-1.0462352	4.2406254	0.8972995
1176785252231996	-0.88454735	9.49589	2.0173972
1176785260532777	0.72168016	17.791729	2.4211535
1176785268833558	3.1163192	25.65123	2.360309
1176785277134339	3.833053	25.594618	-0.5451312
1176785285435121	2.1845942	18.27008	-6.1596446
1176785293735902	2.0956557	18.241108	-6.1382694
1176785302036683	-2.3876204	0.05530739	-11.632464
1176785310337464	-3.7483206	-3.7314014	-9.459281
1176785318638246	-5.302006	-5.83132	-7.131693
1176785326939027	-6.930703	-6.294217	-5.60755
1176785335239808	-6.877344	-6.239234	-5.477562
1176785343540589	-7.346829	-4.99786	-4.498201
1176785351841371	-1.7619455	1.9927206	-0.8015671
1176785360142152	3.5075505	6.7212105	2.521142
1176785368442933	6.8094797	9.775238	8.393177
1176785376743714	9.39426	10.221669	13.641986
1176785385044496	9.312031	10.181653	13.556973
1176785393345277	10.386255	2.1120653	11.912244
1176785401646058	7.011861	-2.3788176	5.8706017
1176785409946839	4.7400064	-4.7501907	-0.014306068
1176785418247621	3.2352622	-6.3554916	-2.7553446
1176785426548402	1.9392164	-7.179407	-2.3929005
1176785434849183	0.78840107	-7.030573	-1.0808461
1176785443149964	0.8993899	-7.0362835	-1.1109247
1176785451450746	-1.3260635	-3.9209776	-0.40761662
1176785459751527	-2.3661492	-3.018258	0.4085729
1176785468052308	-2.5730214	-2.5108128	1.5548837
1176785476353089	-1.2346257	-2.1023731	2.5936143
1176785484653871	-1.2812419	-2.1075687	2.5546448
1176785492954652	0.6080758	-1.692236	3.3012533
1176785501255433	1.9913464	-1.2643309	3.8951309
1176785509556214	2.4476647	0.07797623	7.1657753
1176785517856996	2.7277255	0.3346033	8.756668
1176785526157777	2.636468	0.27215004	8.492638
1176785534458558	2.5955057	0.6611061	9.881954
1176785542759339	0.90154064	2.9762058	13.804983
1176785551060121	0.84059393	2.9232159	13.469774
1176785559360902	-2.0121477	2.197442	6.5080833
1176785567661683	-2.1488833	1.272335	2.792629
1176785575962464	-2.9901912	1.0429649	-1.9995887
1176785584263246	-4.719862	1.208314	-7.617462
1176785592564027	-6.175777	1.0903149	-10.887963
1176785600864808	-6.159345	1.0912514	-10.828595
1176785609165589	-4.4905252	-0.078006744	-5.5672293
1176785617466371	-1.344417	-1.1851511	-0.9384045
1176785625767152	0.33150733	-1.901597	1.6701353
1176785634067933	0.4823786	-2.13865	2.7190232
1176785642368714	0.023756862	-2.0304098	2.8417916
1176785650669496	-0.1514417	-1.8291855	2.6175854
1176785658970277	-0.030973196	-1.8238039	2.3784957
1176785667271058	0.13597465	-1.9575768	2.3331006
1176785675571839	0.1928072	-2.0165815	2.3501496
1176785683872621	0.30361855	-1.9772196	2.157243
1176785692173402	0.37946606	-1.7952032	1.8439295
1176785700474183	0.22689712	-1.4784193	1.5924419
1176785708774964	-0.52220833	-1.1049585	0.7510449
1176785717075746	-0.79743457	-1.1465998	-0.4732678
1176785725376527	-0.83663464	-1.1364202	-0.52178776
1176785733677308	-1.1404234	-1.2529879	-1.8262441
1176785741978089	-1.33846	-1.3085251	-2.659564
1176785750278871	-1.1066887	-0.78502464	-0.70536155
1176785758579652	-1.1480366	-0.77032566	-0.8092724
1176785766880433	-1.3307191	-0.20058727	1.2080855
1176785775181214	-1.6857576	0.19952297	1.6695495
1176785783481996	-1.7012502	0.32773495	0.99749506
1176785791782777	-1.3891665	0.21267796	-0.0020093918
1176785800083558	-0.71275914	-0.24984741	0.2960701
1176785808384339	-0.77136445	-0.22747326	0.22967923
1176785816685121	-0.63340545	-0.026247025	0.7929456
1176785824985902	-0.6126473	0.563921	0.5209278
1176785833286683	-0.5621593	1.3753166	0.11458528
1176785841587464	-0.5468135	2.1827574	0.21595764
1176785849888246	-0.76367354	2.7451696	0.98023915
1176785858189027	-1.3650122	2.902279	1.4977441
1176785866489808	-2.292697	2.5685453	1.1180346
1176785874790589	-3.0379918	2.3005629	0.34964252
1176785883091371	-3.428515	2.3614378	-0.73045516
1176785891392152	-3.7697692	2.7122602	-1.6175371
1176785899692933	-4.485528	3.0975256	-1.7085911
1176785907993714	-5.4207916	3.2422104	-1.0181133
1176785916294496	-5.565001	3.2937174	-0.8313682
1176785924595277	-5.3206496	3.4814854	-0.9272629
1176785932896058	-4.90226	3.4826574	-1.2355981
1176785941196839	-4.3709774	3.213953	-1.4895868
1176785949497621	-3.7893424	2.8829718	-1.332149
1176785957798402	-3.5661027	2.9209166	-0.59906447
1176785966099183	-3.6780422	3.2091246	-0.52150226
1176785974399964	-3.389779	3.4068012	-0.97958755
1176785982700746	-2.7222474	3.542242	-1.1801414
1176785991001527	-1.8587432	3.730874	-0.6482898
1176785999302308	-1.7936583	3.6972008	-0.56096065
1176786007603089	-0.5408714	4.023036	0.9108748
1176786015903871	0.6146035	3.790595	0.018309474
1176786024204652	1.8556712	3.3768702	-0.7567706
1176786032505433	2.8407474	2.9564743	-1.3511152
1176786040806214	3.5793066	2.6250134	-1.7336872
1176786049106996	3.6584194	2.5951786	-1.5318716
1176786057407777	4.617967	2.4076757	-0.588254
1176786065708558	4.5688605	2.618969	1.0912458
1176786074009339	4.2466545	2.7999544	2.5600412
1176786082310121	4.023957	2.7667542	3.4414473
1176786090610902	4.1015396	2.764884	3.644652
1176786098911683	5.315612	1.6286125	2.381616
1176786107212464	6.4011836	1.1239252	1.0591688
1176786115513246	6.7761426	1.0387983	0.17375147
1176786123814027	6.0115433	1.2596531	-0.092867136
1176786132114808	3.9352367	1.7620783	0.16439068
1176786140415589	1.9811422	2.1199474	0.6637882
1176786148716371	1.9271755	1.7629032	1.1714058
1176786157017152	0.8279642	1.0080309	2.2687411
1176786165317933	0.22769469	0.6436119	2.5738113
1176786173618714	-0.3574344	0.4811697	2.8060308
1176786181919496	-0.69566566	0.18607712	2.8404868
1176786190220277	-0.78112495	-0.24612904	2.7806864
1176786198521058	-0.66011095	-0.21018124	2.9100926
1176786206821839	-1.1789588	-1.4416208	3.9703908
1176786215122621	-1.2864261	-2.286065	4.723685
1176786223423402	-0.96384645	-3.1767473	4.976384
1176786231724183	-0.51101387	-3.9749079	4.843607
1176786240024964	-0.4386848	-3.9154081	4.964901
1176786248325746	0.017071193	-4.588125	4.6250777
1176786256626527	0.7149734	-5.8668423	4.0542793
1176786264927308	1.2108154	-6.4002533	3.836681
1176786273228089	1.6459044	-6.816189	3.267321
1176786281528871	1.6399724	-6.7351675	3.3975725
1176786289829652	1.8002491	-6.834237	2.578318
1176786298130433	1.4035153	-5.9435377	0.8064585
1176786306431214	1.3390782	-5.267377	0.6281576
1176786314731996	1.3021137	-4.814844	0.9678931
1176786323032777	1.2733872	-4.6389847	1.4267654
1176786331333558	1.1999536	-4.7078676	1.8301897
1176786339634339	1.0857266	-4.9476347	2.0377312
1176786347935121	1.074054	-4.94044	2.0281215
1176786356235902	0.77748245	-5.508033	1.5614614
1176786364536683	0.526228	-5.704914	0.9759736
1176786372837464	0.5162297	-5.7275753	0.913177
1176786381138246	0.32472068	-5.9736376	0.3304968
1176786389439027	0.2526359	-6.2313194	-0.22292852
1176786397739808	0.2948832	-6.397023	-0.77204657
1176786406040589	0.37070614	-6.275028	-1.3131995
1176786414341371	0.45252272	-5.532507	-1.5719652
1176786422642152	-0.18629718	-0.7376261	-1.2400672
1176786430942933	-0.1973332	-0.82411194	-1.4362161
1176786439243714	-1.289079	3.8970203	-0.60394907
1176786447544496	-1.9772635	10.750903	0.6001098
1176786455845277	-1.1378503	18.76804	1.5237291
1176786464146058	0.8754647	26.078873	3.3560102
1176786472446839	-1.1506383	18.716782	-1.2006831
1176786480747621	-1.2358488	18.65522	-1.2920403
1176786489048402	-3.4809735	8.559014	-6.0710917
1176786497349183	-4.4405603	0.60681343	-8.637832
1176786505649964	-4.6606593	-6.602895	-10.843762
1176786513950746	-4.644722	-6.5228586	-10.617133
1176786522251527	-4.6651697	-7.249527	-9.938306
1176786530552308	-3.9664068	-6.339731	-7.7098346
1176786538853089	-1.9943874	-4.188833	-4.2200174
1176786547153871	1.3026546	-1.1767216	-0.11088586
1176786555454652	5.2010193	2.1983242	3.3184812
1176786563755433	8.668714	5.2188025	6.291128
1176786572056214	10.722628	6.40226	10.569923
1176786580356996	12.722665	5.4876204	12.323692
1176786588657777	13.2451725	2.9475832	10.836169
1176786596958558	11.349608	-0.1047802	6.8819065
1176786605259339	8.089658	-1.7582159	2.7273643
1176786613560121	3.4306803	-1.1817427	-2.1142747
1176786621860902	-0.26949996	-1.0868015	-3.5597513
1176786630161683	-2.9061625	-1.2186327	-1.7338257
1176786638462464	-4.3442464	-1.2660828	1.4507213
1176786646763246	-4.79846	-1.1118679	3.4376988
1176786655064027	-5.1638775	-1.8924913	2.0177174
1176786663364808	-5.102724	-1.9282875	1.9131532
1176786671665589	-3.727687	-2.2764177	1.9563124
1176786679966371	-1.5762523	-2.270998	2.5652723
1176786688267152	0.4749645	-2.1580753	3.2793748
1176786696567933	1.859311	-2.1777506	3.8556502
1176786704868714	2.7925193	-2.430437	4.5032787
1176786713169496	2.6082368	-1.9552011	6.218466
1176786721470277	2.9608073	-1.3025599	8.225999
1176786729771058	2.5174785	-0.08141136	9.417707
1176786738071839	0.9982009	1.1026621	8.833517
1176786746372621	-0.8609422	1.5130816	6.4886427
1176786754673402	-0.8987989	1.4765034	6.2574434
1176786762974183	-0.64954317	0.3285513	2.5391035
1176786771274964	0.26307225	0.046377182	1.4154183
1176786779575746	0.89273906	0.25640965	0.7003572
1176786787876527	1.0460933	0.8909397	0.16744232
1176786796177308	0.65309036	1.6155539	-0.5419292
1176786804478089	-0.40843272	1.778719	-1.824129
1176786812778871	-1.9880526	0.8808174	-2.537239
1176786821079652	-2.033765	-0.2119646	-2.023086
1176786829380433	-1.2533791	-1.051857	-0.78300357
1176786837681214	-0.3098526	-1.4993143	0.6034466
1176786845981996	-0.3356526	-1.4983263	0.48987707
1176786854282777	0.38690972	-1.587843	2.2752407
1176786862583558	-0.05782485	-1.594943	2.3652823
1176786870884339	-0.35759866	-1.6156969	2.123163
1176786879185121	-0.4510796	-1.6615019	1.8643734
1176786887485902	-0.31815982	-1.7381954	1.6258531
1176786895786683	-0.035725117	-1.8216372	1.3457475
1176786904087464	0.063545465	-1.811904	1.0684185
1176786912388246	-0.34163833	-1.5242138	0.88630307
1176786920689027	-0.70463204	-1.2432289	0.7856289
1176786928989808	-0.84426296	-1.1230469	0.7489322
1176786937290589	-0.87128687	-1.120328	0.6519254
1176786945591371	-0.92064357	-1.1062498	0.6046981
1176786953892152	-1.370527	-0.8607626	-0.56697786
1176786962192933	-1.7521857	-0.4192171	-1.6500428
1176786970493714	-1.9538656	-0.06845951	-1.8690398
1176786978794496	-1.9568801	0.10401726	-1.4398515
1176786987095277	-1.8732725	0.10863781	-0.6447314
1176786995396058	-1.9183501	0.12994671	-0.7551384
1176787003696839	-1.4519234	-0.08059311	1.2503635
1176787011997621	-1.0887301	0.11140823	1.6555187
1176787020298402	-0.96349216	0.69884586	1.0760106
1176787028599183	-0.9975574	1.5311852	-0.39134347
1176787036899964	-1.0468395	2.418332	-1.700761
1176787045200746	-1.1047742	3.16955	-1.5497684
1176787053501527	-1.7201085	3.5955944	0.35158956
1176787061802308	-2.669064	3.4646368	1.4282542
1176787070103089	-3.3063376	3.2514582	0.90445745
1176787078403871	-3.781426	3.2088013	-0.76628435
1176787086704652	-4.246439	3.3008423	-2.7463589
1176787095005433	-4.271559	3.3025522	-2.7356524
1176787103306214	-5.2649183	3.0523834	-4.0049148
1176787111606996	-5.56533	2.6326818	-2.9058094
1176787119907777	-5.600769	2.434101	-1.3490674
1176787128208558	-5.586267	2.4247065	-1.3281817
1176787136509339	-5.283476	2.7096567	-0.8319566
1176787144810121	-4.7826595	3.3319397	-1.7558854
1176787153110902	-4.3252673	3.850093	-3.2393918
1176787161411683	-4.035011	3.7887363	-2.7135835
1176787169712464	-3.46005	3.6191702	-1.1014248
1176787178013246	-2.6663089	3.5885954	-0.29099536
1176787186314027	-1.5123317	3.7975674	-0.20543325
1176787194614808	-0.36426616	4.143673	-0.45321226
1176787202915589	-0.30089164	4.105603	-0.32510692
1176787211216371	0.33629894	4.5267105	-0.7250594
1176787219517152	0.112678766	4.5509415	-0.5842539
1176787227817933	0.27379298	4.346858	-0.96892214
1176787236118714	1.3197384	3.838255	-1.3279546
1176787244419496	2.7238393	3.2216854	-0.9301121
1176787252720277	3.4265122	2.8667603	0.6270289
1176787261021058	3.0218766	3.1198816	2.492807
1176787269321839	2.494384	3.3339062	3.8936238
1176787277622621	2.7098248	3.160944	4.503639
1176787285923402	3.8521533	2.639906	3.688252
1176787294224183	3.8722425	2.651536	3.8654048
1176787302524964	7.2764697	1.9137993	-0.46208
1176787310825746	8.189629	2.2011309	-1.8548307
1176787319126527	8.250481	2.5435514	-1.6706948
1176787327427308	6.437807	2.6280985	-0.6410737
1176787335728089	3.4897916	2.177168	0.8806181
1176787344028871	3.537446	2.2015352	1.0373054
1176787352329652	-0.065210104	1.0105104	1.9096193
1176787360630433	-0.45128393	0.9310274	2.5537336
1176787368931214	-0.9320756	0.900157	3.459388
1176787377231996	-0.80987775	0.55290794	3.6061618
1176787385532777	-0.6259966	-0.0629673	3.6006477
1176787393833558	-0.62501156	-0.82288647	3.8881087
1176787402134339	-0.7302929	-1.5841398	4.5779443
1176787410435121	-0.890092	-2.234027	5.454744
1176787418735902	-0.7926625	-3.1885977	6.0672436
1176787427036683	-0.5243128	-4.0830574	6.147678
1176787435337464	-0.08207548	-5.024062	5.9053087
1176787443638246	-0.046685383	-4.9525948	6.0404487
1176787451939027	1.071087	-7.200493	5.248475
1176787460239808	2.0595334	-8.327713	4.6554704
1176787468540589	2.1256874	-8.826184	3.526589
1176787476841371	1.7902155	-8.66133	2.4028525
1176787485142152	1.7553545	-8.568681	2.5383954
1176787493442933	1.3008202	-7.8808947	1.7248993
1176787501743714	0.5935174	-5.986573	1.3988042
1176787510044496	0.46478477	-5.440914	1.7732787
1176787518345277	0.5784724	-5.2693653	2.165165
1176787526646058	0.5769001	-5.3781424	2.3236952
1176787534946839	0.55044985	-5.3688736	2.3137946
1176787543247621	0.4229957	-5.9327483	1.789247
1176787551548402	0.42180577	-6.1923327	1.165277
1176787559849183	0.51462686	-6.2974243	0.40447426
1176787568149964	0.6468337	-6.357379	-0.48557806
1176787576450746	0.6870769	-6.172371	-1.2535233
1176787584751527	0.6512035	-6.2202272	-1.3660889
1176787593052308	0.25304317	-4.222806	-1.9405789
1176787601353089	0.21808743	-4.295763	-2.1032786
1176787609653871	-1.6455318	1.1287327	-1.0613198
1176787617954652	-2.0554154	6.5095634	-0.35881543
1176787626255433	-0.72783655	14.31632	0.6415899
1176787634556214	1.5015082	22.474783	2.0930884
1176787642856996	1.461622	22.35019	1.8606782
1176787651157777	3.5924332	26.821321	1.7276254
1176787659458558	2.4579957	11.406698	-8.356024
1176787667759339	-0.7512866	3.0070705	-9.090007
1176787676060121	-0.7764716	3.0295744	-8.984892
1176787684360902	-3.2594478	-2.3399878	-7.433762
1176787692661683	-5.0700884	-5.6498632	-5.6843467
1176787700962464	-6.479385	-7.5439262	-4.9303255
1176787709263246	-6.36143	-6.1322803	-6.3642306
1176787717564027	-3.623971	-2.0509062	-5.2255344
1176787725864808	-3.5738258	-2.0122652	-5.123395
1176787734165589	-0.14942169	3.3801746	-3.1334047
1176787742466371	7.2562914	11.626698	10.232488
1176787750767152	7.193885	11.592446	10.178347
1176787759067933	14.042907	9.8795	15.576735
1176787767368714	13.935808	9.843248	15.485671
1176787775669496	11.148714	5.1310387	8.146424
1176787783970277	5.680811	1.0939617	-0.3615377
1176787792271058	1.4797499	-2.5880537	-5.3699503
1176787800571839	0.3643338	-6.107499	-4.7366734
1176787808872621	-0.7576686	-8.618176	-1.0106719
1176787817173402	-0.62879384	-8.604088	-0.9971626
1176787825474183	-3.5860999	-6.791521	-1.1468985
1176787833774964	-3.5866375	-6.799964	-1.1967373
1176787842075746	-3.966374	-5.68279	0.3557377
1176787850376527	-3.6854756	-3.921176	2.826325
1176787858677308	0.48867518	-1.1763964	8.756599
1176787866978089	0.60589343	0.48591232	11.519077
1176787875278871	0.52043587	0.40917683	11.272234
1176787883579652	0.7120751	1.6209469	13.00886
1176787891880433	1.3290217	2.4176712	13.88047
1176787900173632	2.0028076	3.221259	14.1336975
1176787908474414	2.0164046	4.4901648	13.434094
1176787916775195	0.8213388	4.2874517	9.15323
1176787925075976	0.07588005	3.2414684	4.7806835
1176787933376757	-0.19685555	2.0317173	1.7483878
1176787941677539	-0.28351176	1.0319252	-0.8702322
1176787949978320	-0.79338944	0.4566517	-5.2563567
1176787958279101	-2.5146475	0.3844719	-13.639046
1176787966579882	-1.1169473	-0.4747362	-9.08037
1176787974880664	0.13118374	-1.0332184	-3.4671
1176787983181445	0.7810167	-1.3838902	0.41293973
1176787991482226	0.67594004	-1.7259464	2.2162514
1176787999783007	0.040620923	-2.1168509	2.6873724
1176788008083789	-0.43379402	-2.2736626	2.6807399
1176788016384570	-0.6745914	-2.4427261	2.541019
1176788024685351	-0.72790253	-2.5366964	2.3604991
1176788032986132	-0.6185416	-2.6332254	2.0193639
1176788041286914	-0.5012915	-2.7036934	1.5514979
1176788049587695	-0.45787835	-2.663334	1.0595945
1176788057888476	-0.23123407	-2.4404287	0.58409643
1176788066189257	-0.16048253	-1.9783077	0.3287748
1176788074490039	-0.5188134	-1.4514599	0.23183173
1176788082790820	-0.9811901	-0.9444866	0.2303831
1176788091091601	-1.3391235	-0.581131	0.25007194
1176788099392382	-1.5450131	-0.4491577	0.15053335
1176788107693164	-1.7629509	-0.5486145	-0.30583715
1176788115993945	-2.3738058	-0.5933924	-1.2144334
1176788124294726	-2.9125373	-0.38964367	-1.6626866
1176788132595507	-3.2029123	-0.13642216	-1.6944561
1176788140896289	-3.2396996	0.059573174	-1.5431294
1176788149197070	-3.1239586	0.16778088	-1.4590387
1176788157497851	-2.9853425	0.20419502	-1.5253224
1176788165798632	-2.441021	0.061610222	-1.141409
1176788174099414	-1.755662	-0.086224556	-0.3447863
1176788182400195	-1.2596624	-0.027935982	0.40135896
1176788190700976	-1.0537047	0.42822647	0.7893667
1176788199001757	-1.1050956	0.45695877	0.70773077
1176788207302539	-1.2033806	2.4713411	0.105609655
1176788215603320	-1.4555721	3.3283072	-0.6300814
1176788223904101	-1.8878758	3.701476	-0.9165728
1176788232204882	-2.42067	3.6462154	-0.8100134
1176788240505664	-2.4545434	3.6600657	-0.8514308
1176788248806445	-2.8929818	3.4130316	-0.62780476
1176788257107226	-3.387678	3.3183784	-0.9172398
1176788265408007	-3.965941	3.1864405	-1.887937
1176788273708789	-4.43211	2.9041767	-3.1854925
1176788282009570	-4.5940347	2.3830729	-3.4914749
1176788290310351	-4.585313	2.3724318	-3.4573083
1176788298611132	-4.020672	1.43538	-0.53773236
1176788306911914	-3.5847824	1.8350611	0.46062267
1176788315212695	-3.0542047	3.0970392	-0.6853746
1176788323513476	-2.8561347	4.4437475	-1.8668064
1176788331814257	-2.8374846	5.214822	-1.6296014
1176788340115039	-2.8123136	5.178878	-1.5227289
1176788348415820	-2.8178287	5.1853857	-0.38346565
1176788356716601	-1.8495076	4.292507	-1.2547041
1176788365017382	-0.33066058	3.9800224	-1.810085
1176788373318164	0.33450174	3.8850813	-1.440834
1176788381618945	0.3914981	4.0882616	-1.1879067
1176788389919726	0.49992228	4.0354595	-1.0077221
1176788398220507	0.48712587	4.4360323	-1.1861959
1176788406521289	2.0398157	4.9444666	-0.85936606
1176788414822070	2.4572072	4.987032	0.63509756
1176788423122851	2.0794156	5.0036325	2.4323628
1176788431423632	2.2109716	4.974757	2.6442971
1176788439724414	1.6679943	4.794776	4.157645
1176788448025195	1.682961	4.140235	4.890348
1176788456325976	4.9380116	1.6953917	1.7930326
1176788464626757	7.132933	1.3866587	-1.3571314
1176788472927539	8.535988	1.760973	-3.5403147
1176788481228320	8.471385	1.7959862	-3.3279529
1176788489529101	8.278047	2.5275536	-3.0903988
1176788497829882	1.0040474	3.1079798	1.9618565
1176788506130664	-1.5477878	2.347908	3.2855597
1176788514431445	-1.8624524	1.6111631	2.6490412
1176788522732226	-1.7208503	1.6254864	2.793562
1176788531033007	-1.96747	0.8247576	2.885467
1176788539333789	-1.3346151	0.46002293	2.997469
1176788547634570	-1.2109182	0.49256134	3.1418304
1176788555935351	-0.7107991	-0.55343056	4.0201416
1176788564236132	-1.1236727	-1.176547	5.051694
1176788572536914	-1.3256123	-2.0958052	5.849025
1176788580837695	-1.2586429	-3.2414913	6.319992
1176788589138476	-1.1902502	-3.185029	6.444151
1176788597439257	-0.81661594	-4.4579105	6.555188
1176788605740039	0.94378835	-6.996729	5.877858
1176788614040820	1.6972457	-7.9750986	5.189269
1176788622341601	2.2362008	-8.648649	4.1254325
1176788630642382	2.194034	-8.547996	4.281056
1176788638943164	2.3698957	-8.800263	3.0799375
1176788647243945	2.133491	-8.541994	2.148582
1176788655544726	1.6721851	-7.812292	1.837635
1176788663845507	1.5924461	-7.042697	1.9981623
1176788672146289	1.3491304	-6.3620543	2.251412
1176788680447070	1.0882351	-5.994124	2.3915935
1176788688747851	0.85809165	-5.929129	2.3754578
1176788697048632	0.6966345	-6.0946617	2.1911821
1176788705349414	0.6457881	-6.5592413	1.4212942
1176788713650195	0.63085765	-6.5672746	1.3814764
1176788721950976	0.8759359	-6.763567	0.38770723
1176788730251757	0.984683	-6.90055	-0.8927345
1176788738552539	1.036318	-6.862455	-1.9015307
1176788746853320	1.0122846	-6.427968	-2.3168068
1176788755154101	0.67568904	-5.2940016	-2.1876888
1176788763454882	-0.16887242	-3.1498985	-1.6510167
1176788771755664	-1.3349434	0.25248718	-0.67387486
1176788780056445	-2.0470285	5.374775	-0.19678903
1176788788357226	-1.615813	12.157922	-0.3061812
1176788796658007	-0.24267656	19.748837	-0.29132104
1176788804958789	0.5256764	25.820309	0.7834852
1176788813259570	0.36430836	23.401615	-2.911205
1176788821560351	-0.090223074	14.605767	-6.9728374
1176788829861132	-1.5281963	6.2064333	-9.280309
1176788838161914	-3.4914904	0.22946548	-9.295554
1176788846462695	-5.187234	-3.3829775	-7.9143043
1176788854763476	-6.0925217	-5.4841585	-6.7583685
1176788863064257	-6.2005243	-5.6765537	-6.1545873
1176788871365039	-2.8622422	-4.1305685	-5.494969
1176788879665820	2.1347837	-1.212163	-3.8393283
1176788887966601	5.997043	1.6186113	-0.5864432
1176788896267382	7.5632133	3.088437	3.8599837
1176788904568164	7.544582	3.0801487	3.8466322
1176788912868945	9.404573	1.6459713	11.172983
1176788921169726	9.073179	0.58236504	10.285999
1176788929470507	7.8303723	0.17552471	8.030315
1176788937771289	6.6228046	0.24779701	5.477169
1176788946072070	5.689802	0.7567215	3.1159582
1176788954372851	5.730653	0.7373085	3.0848918
1176788962673632	-1.9858102	4.5187263	-2.4029574
1176788970974414	-5.406049	4.125719	-2.460222
1176788979275195	-5.7452545	2.350132	-0.32984328
1176788987575976	-4.420823	0.15084648	2.1529908
1176788995876757	-4.3295116	0.1046257	2.040847
1176789004177539	-3.4310637	-3.127944	2.5168557
1176789012478320	-2.6865454	-4.1333723	2.2131772
1176789020779101	-1.1730188	-4.865947	2.3867993
1176789029079882	0.30721062	-5.324335	2.687021
1176789037380664	1.1521218	-5.152197	3.6809459
1176789045681445	1.0791733	-5.16467	3.5655127
1176789053982226	1.2670088	-3.3874607	7.1361628
1176789062283007	1.3602219	-2.7554426	7.606512
1176789070583789	1.1251192	-1.9435949	7.904479
1176789078884570	0.96511376	-1.0305052	8.042325
1176789087185351	1.1834748	0.028564453	8.071888
1176789095486132	1.7067531	1.2011337	7.911326
1176789103786914	1.6249341	1.1913519	7.687115
1176789112087695	0.99721694	2.6058302	6.2801394
1176789120388476	-0.74099123	3.0176325	2.299038
1176789128689257	-3.3023405	3.209715	-6.018126
1176789136990039	-4.608604	2.557104	-12.584415
1176789145290820	-4.6266766	2.5575142	-12.550293
1176789153591601	-2.8719358	0.79072666	-10.8333
1176789161892382	-0.5321363	-1.6618023	0.94391966
1176789170193164	-0.9856256	-2.062976	3.6624024
1176789178493945	-1.4489689	-2.2411232	4.416088
1176789186794726	-1.4694549	-2.2335997	4.264374
1176789195095507	-1.7869164	-2.2948256	3.8385105
1176789203396289	-1.3436728	-2.4178429	2.3877354
1176789211697070	-1.0477787	-2.1019182	1.8783764
1176789219997851	-0.9777132	-1.6180754	1.4750338
1176789228298632	-1.2633588	-1.0691643	1.2529068
1176789236599414	-1.291565	-1.0584621	1.2107794
1176789244900195	-1.5527978	-0.6272249	0.92500687
1176789253200976	-1.4351485	-0.4459381	-0.8766136
1176789261501757	-1.9124978	-0.39632034	-2.4019585
1176789269802539	-2.2676978	-0.3381195	-3.237149
1176789278103320	-2.3044114	-0.3212309	-3.3133347
1176789286404101	-2.2145295	0.054868698	-1.9136527
1176789294704882	-2.253897	0.076581	-2.022859
1176789303005664	-2.410142	0.63221264	0.03202939
1176789311306445	-2.6195848	0.43943977	0.42417657
1176789319607226	-2.6963303	0.2619667	0.7435206
1176789327908007	-2.4872453	0.42810154	0.72704566
1176789336208789	-2.532512	0.45863533	0.6218277
1176789344509570	-2.0419993	1.0754852	-0.047442675
1176789352810351	-0.903363	2.9704943	-1.6066093
1176789361111132	-1.0714953	3.4374084	-0.43421173
1176789369411914	-1.7961371	3.291831	0.60756147
1176789377712695	-1.8545547	3.3073988	0.5922692
1176789386013476	-2.6769292	2.829811	1.0126389
1176789394314257	-3.2174091	2.3827229	0.6133747
1176789402615039	-3.802703	2.6682177	-2.1089883
1176789410915820	-4.703245	2.9095192	-3.2243915
1176789419216601	-4.7179785	2.9031982	-3.1744037
1176789427517382	-5.6652684	2.910551	-3.2714882
1176789435818164	-6.383689	2.8673563	-2.3802352
1176789444118945	-6.8061266	2.8553896	-1.110588
1176789452419726	-7.0627007	2.8430948	-0.4665531
1176789460720507	-7.1511693	2.8596544	-1.3934082
1176789469021289	-6.5361357	2.553502	-2.674588
1176789477322070	-4.36915	2.1023264	-2.1849875
1176789485622851	-2.1869493	2.0175114	-1.0283403
1176789493923632	-0.72799754	2.602419	-0.24137664
1176789502224414	0.14926982	3.885232	-0.2741369
1176789510525195	0.8386109	5.6147213	-0.5527928
1176789518825976	1.540745	6.656438	-1.3268398
1176789527126757	2.3308501	7.186825	-1.5735662
1176789535427539	3.282937	7.187422	-0.99032044
1176789543728320	4.475074	6.6815615	0.18063344
1176789552029101	5.843431	5.8511953	1.2365558
1176789560329882	5.9024434	4.7482796	2.4099784
1176789568630664	5.9795675	4.733247	2.6387315
1176789576931445	5.1484165	4.065118	2.629513
1176789585232226	4.538998	3.0678291	1.923631
1176789593533007	4.5300727	1.8283205	0.8005941
1176789601833789	5.243247	0.69677734	-0.3190651
1176789610134570	5.7791076	0.6695652	-0.90248406
1176789618435351	5.1489396	1.4130821	-0.7767043
1176789626736132	3.4675193	2.3370361	-0.5416696
1176789635036914	1.4313077	2.821268	8.2969666E-4
1176789643337695	1.5089583	2.8357563	0.1328268
1176789651638476	-1.4081202	2.0357122	1.7683568
1176789659939257	-2.381378	1.6625834	2.7879784
1176789668240039	-2.8832004	1.0324812	3.4399107
1176789676540820	-2.8655615	0.15775204	3.6642375
1176789684841601	-2.4304814	-0.83995724	3.607919
1176789693142382	-2.2960691	-0.80746555	3.7160232
1176789701443164	-2.00314	-2.2090893	3.382855
1176789709743945	-1.5620824	-2.969574	4.1345067
1176789718044726	-0.77533054	-3.9214573	5.0194016
1176789726345507	0.039253883	-4.8220024	5.6212873
1176789734646289	0.7987445	-5.730057	5.944896
1176789742947070	1.4682655	-6.6655426	6.059371
1176789751247851	1.4469147	-6.595112	6.1842613
1176789759548632	2.7299268	-8.266178	5.554307
1176789767849414	3.1491818	-8.657128	4.620931
1176789776150195	3.0391603	-8.449304	3.1651707
1176789784450976	2.60102	-7.7080746	1.7092171
1176789792751757	2.078553	-6.737198	0.8183799
1176789801052539	2.0447693	-6.669714	0.9183526
1176789809353320	1.0114145	-5.448244	1.0045362
1176789817654101	0.7676384	-5.302994	1.1011186
1176789825954882	0.65215105	-5.466139	1.0718026
1176789834255664	0.68609226	-5.819311	0.8913388
1176789842556445	0.6680428	-5.8169756	0.87106466
1176789850857226	0.81860864	-6.2100086	0.4834752
1176789859158007	0.7896488	-6.575801	-0.45560694
1176789867458789	0.6796862	-6.522812	-0.8240733
1176789875759570	0.50212276	-6.179719	-1.0157194
1176789884060351	0.2512278	-5.4334936	-1.0324087
1176789892361132	0.23621988	-5.5005617	-1.1943102
1176789900661914	-0.13142452	-4.2146244	-1.1347551
1176789908962695	-1.5753245	0.7380619	-0.6867082
1176789917263476	-2.016471	4.6657667	-0.07132363
1176789925564257	-1.5267478	10.75633	0.8065536
1176789933865039	-0.50128007	18.046755	1.8243299
1176789942165820	-0.5583512	17.93543	1.5611122
1176789950466601	0.80646336	24.196756	1.9494548
1176789958767382	2.6738298	17.548925	-6.8609924
1176789967068164	-0.29365218	8.12624	-10.139368
1176789975368945	-3.1053567	0.988245	-10.021681
1176789983669726	-4.9179177	-3.5688353	-8.135069
1176789991970507	-4.91086	-3.5177622	-7.9473763
1176790000271289	-5.875419	-6.2611933	-6.157465
1176790008572070	-6.5325246	-7.6616735	-5.058897
1176790016872851	-2.885533	-5.898258	-3.9365113
1176790025173632	1.3120391	-2.2687445	-2.136231
1176790033474414	4.814689	2.8114786	0.6867137
1176790041775195	4.8536143	2.8089285	0.703377
1176790050075976	7.3627505	8.114626	5.514186
1176790058376757	13.856528	9.3326	17.405668
1176790066677539	13.875123	4.260825	12.224426
1176790074978320	10.554928	-0.1880703	4.5818524
1176790083279101	5.956566	-2.611578	-1.578893
1176790091579882	5.9546027	-2.5948915	-1.5367312
1176790099880664	1.9973173	-3.030757	-4.142461
1176790108181445	-2.0015554	-2.8707457	-3.0389738
1176790116482226	-2.6499794	-2.091527	-2.309489
1176790124783007	-2.905929	-1.9721203	-1.0116656
1176790133083789	-2.8512633	-1.9877348	-1.0656276
1176790141384570	-3.0044584	-2.380517	0.4543357
1176790149685351	-0.93294954	-2.6408634	2.636911
1176790157986132	1.5928032	-2.914133	4.4002695
1176790166286914	2.5763397	-3.1518965	5.875312
1176790174587695	2.4824524	-3.1687412	5.7596254
1176790182888476	2.5878427	-2.9478922	6.967515
1176790191189257	2.6125414	-2.3361902	7.8118887
1176790199490039	2.8724308	-1.5919542	8.067076
1176790207790820	2.212085	-0.67688656	7.6808443
1176790216091601	1.6612866	-0.3222084	7.3353896
1176790224392382	1.2162336	0.23392868	7.5761614
1176790232693164	0.8985225	1.0263119	8.193859
1176790240993945	0.4014504	1.8424416	8.040956
1176790249294726	-0.4847108	2.3900414	6.151051
1176790257595507	-1.1584504	2.4809618	3.6419892
1176790265896289	-3.3477104	2.8179646	-5.7310476
1176790274197070	-3.3846784	2.8186865	-5.7488933
1176790282497851	-5.085789	1.8605862	-9.940284
1176790290798632	-5.0623116	0.13004208	-8.871002
1176790299099414	-2.7831237	-1.4694757	-3.3570101
1176790307400195	-0.6519648	-1.7609568	2.634645
1176790315700976	-0.71039045	-1.7453146	2.5151348
1176790324001757	-1.2204243	-1.5267344	2.8213918
1176790332302539	-1.5942723	-1.4027376	2.2847254
1176790340603320	-1.5346748	-1.4650517	1.5096717
1176790348904101	-1.2469487	-1.6594067	1.0899358
1176790357204882	-1.0379333	-1.8393269	1.0349824
1176790365505664	-0.970914	-1.9580984	1.2848091
1176790373806445	-1.0633541	-1.778595	1.3189509
1176790382107226	-1.2322685	-1.4944582	0.9943005
1176790390408007	-1.5305523	-1.1727371	0.3062995
1176790398708789	-1.5742984	-1.1521502	0.23284292
1176790407009570	-2.5345302	-0.40933228	-1.9798114
1176790415310351	-2.8906865	-0.13472557	-3.5263
1176790423611132	-2.828056	0.022115707	-3.3405213
1176790431911914	-2.7023618	0.1564703	-2.245215
1176790440212695	-2.6829686	0.3220749	-1.0158169
1176790448513476	-2.7030866	0.49299908	-0.16273344
1176790456814257	-2.3832967	0.4756899	0.1724205
1176790465115039	-1.9306378	0.453269	0.12621415
1176790473415820	-1.6870859	0.6501026	-0.32739472
1176790481716601	-1.4783177	1.1164064	-0.89251363
1176790490017382	-1.281244	1.8103542	-1.2080829
1176790498318164	-1.1261933	2.5894547	-1.0112581
1176790506618945	-0.7576835	3.1963396	-0.49997902
1176790514919726	-1.5567663	3.114069	0.19921303
1176790523220507	-2.4459443	2.6826668	0.235255
1176790531521289	-3.2330306	2.2646189	-0.24717784
1176790539822070	-3.2687874	2.2743578	-0.24842381
1176790548122851	-3.951978	2.1051674	-1.1132977
1176790556423632	-4.9455247	2.5239239	-3.3860333
1176790564724414	-5.135709	2.6150408	-3.3402731
1176790573025195	-5.056031	2.549183	-2.5139396
1176790581325976	-5.0515265	2.5389442	-2.4798584
1176790589626757	-5.0603366	2.8297644	-1.3902092
1176790597927539	-5.041498	2.8130693	-1.3529863
1176790606228320	-5.083598	3.665306	-3.112009
1176790614529101	-4.55906	3.5614986	-1.9334632
1176790622829882	-3.8763883	3.4684324	-0.7758728
1176790631130664	-3.822801	3.4264936	-0.6699102
1176790639431445	-2.0172117	3.8248281	-0.6695417
1176790647732226	-1.9434557	3.7764444	-0.5506408
1176790656033007	-0.27858877	5.384205	-1.7478827
1176790664333789	-0.076511145	5.3931036	-1.6899602
1176790672634570	0.027969599	5.3352795	-1.5232868
1176790680935351	0.42430282	5.246765	-1.3269799
1176790689236132	2.2936919	4.948082	-0.29512107
1176790697536914	2.4117742	4.899496	-0.08266735
1176790705837695	3.1569104	5.3895464	1.8288832
1176790714138476	2.4220135	6.042179	3.0558674
1176790722439257	2.5208273	6.014228	3.261427
1176790730740039	3.0567353	4.5808935	2.9773362
1176790739040820	4.662568	3.128809	1.2312503
1176790747341601	4.6833315	3.1323462	1.4167002
1176790755642382	8.019219	2.2836761	-2.1294315
1176790763943164	8.254706	2.6484804	-2.3159518
1176790772243945	6.954991	2.6166506	-1.2910005
1176790780544726	6.9497695	2.6378355	-1.1127044
1176790788845507	2.3622494	1.779006	1.3145096
1176790797146289	2.4558425	1.7904148	1.4686433
1176790805447070	-0.9385822	1.2840986	2.7849238
1176790813747851	-2.009236	0.73588085	2.8656094
1176790822048632	-1.8559803	0.7523432	3.0047867
1176790830349414	-1.8569769	0.06845665	2.7464151
1176790838650195	-1.5169715	-0.58141327	2.6906831
1176790846950976	-1.4022667	-1.1525784	3.1042125
1176790855251757	-1.920954	-2.5966158	4.864227
1176790863552539	-1.8351247	-2.5502558	4.9940953
1176790871853320	-1.7871242	-3.4718838	5.7984443
1176790880154101	-0.97365195	-5.5363503	6.473289
1176790888454882	-0.9276629	-5.473134	6.6016946
1176790896755664	0.030011505	-6.540292	6.572352
1176790905056445	2.5140235	-8.788124	5.3989697
1176790913357226	3.0605276	-9.409613	3.9671867
1176790921658007	3.1875703	-9.307628	2.2798264
1176790929958789	2.8828692	-8.528843	0.980896
1176790938259570	2.8511286	-8.436378	1.1252265
1176790946560351	2.1662629	-7.264612	0.6497812
1176790954861132	1.3348072	-6.180072	1.0631661
1176790963161914	0.8381859	-5.583006	1.9312658
1176790971462695	0.4992747	-5.3455534	2.5804644
1176790979763476	0.26887685	-5.4287806	2.843471
1176790988064257	0.30884242	-5.7467623	2.4658284
1176790996365039	0.47708094	-6.183188	1.4489474
1176791004665820	0.29691845	-6.6133804	0.12652779
1176791012966601	0.31877422	-6.918928	-1.2051911
1176791021267382	0.5415878	-6.937727	-2.2427607
1176791029568164	0.575569	-6.473612	-2.7881403
1176791037868945	0.35706913	-5.3453856	-3.028307
1176791046169726	-0.2268706	-3.3867264	-3.0358973
1176791054470507	-3.2593849	3.9487753	-0.966347
1176791062771289	-3.2870252	3.8446856	-1.1840966
1176791071072070	-3.2589545	11.109113	-0.80230355
1176791079372851	-1.2948503	19.351627	0.45308638
1176791087673632	1.7307994	25.546726	1.7960105
1176791095974414	1.6636785	25.435	1.589685
1176791104275195	4.516506	25.75095	0.71067595
1176791112575976	2.6516757	6.378394	-7.7877207
1176791120876757	-0.51924324	-0.45839024	-7.5839586
1176791129177539	-2.741273	-5.065935	-6.568843
1176791137478320	-4.06914	-8.022114	-5.7209044
1176791145779101	-4.598832	-9.436686	-5.564412
1176791154079882	-4.567582	-9.35796	-5.389041
1176791162380664	-0.9294317	-4.700449	-6.0201397
1176791170681445	1.6607265	2.3125381	-4.092845
1176791178982226	3.6591744	8.7713175	0.88339806
1176791187283007	6.002889	12.941163	8.289534
1176791195583789	9.601442	13.491018	14.786449
1176791203884570	14.327073	9.040844	14.300402
1176791212185351	9.068747	2.526719	7.4602585
1176791220486132	3.5745735	-1.3773365	2.1337845
1176791228786914	0.63996637	-3.6909933	-0.41989803
1176791237087695	-0.10544336	-5.200451	-0.6484132
1176791245388476	-0.047818184	-6.1068497	0.047089815
1176791253689257	-0.15223068	-6.0234222	-0.2862394
1176791261990039	-1.585675	-4.4544067	-2.5374613
1176791270290820	-2.7533503	-3.9648342	-2.1338205
1176791278591601	-3.5869207	-4.325202	-0.5258968
1176791286892382	-3.2781727	-4.5306644	1.3412149
1176791295193164	-1.6084993	-3.791623	3.1535242
1176791303493945	-1.6981145	-3.801324	3.079944
1176791311794726	0.84583807	-1.3711166	6.6259084
1176791320095507	1.327596	-0.89283085	7.3137236
1176791328396289	1.776484	-0.42048168	8.300245
1176791336697070	1.683321	-0.48525906	8.00946
1176791344997851	2.0621033	1.4986153	12.259902
1176791353298632	-0.1941768	2.793563	11.048684
1176791361599414	-2.1295578	2.984335	8.195239
1176791369900195	-2.585619	2.3588448	5.256942
1176791378200976	-1.7363698	1.39536	2.8373342
1176791386501757	-1.7506016	1.383563	2.6806245
1176791394802539	0.56009305	0.24101067	-0.25430715
1176791403103320	0.7654607	0.4818697	-1.7850952
1176791411404101	-0.26730716	0.9043331	-5.6066065
1176791419704882	-1.6954256	0.74956703	-6.124655
1176791428005664	-1.7563922	0.7572117	-6.161989
1176791436306445	-1.3683487	-0.6734724	-1.6128824
1176791444607226	-0.48903084	-1.0946293	0.10360861
1176791452908007	-0.2756096	-1.0565271	1.3765328
1176791461208789	-0.7313864	-0.95331	2.2381983
1176791469509570	-1.0246272	-1.0484667	2.4903724
1176791477810351	-0.9792783	-1.306798	2.3341236
1176791486111132	-0.725574	-1.7018938	2.042871
1176791494411914	-0.5575068	-2.1674023	1.8416784
1176791502712695	-0.6819334	-2.3983755	1.69769
1176791511013476	-0.49178982	-2.4572783	1.4466295
1176791519314257	-0.39510477	-2.2438612	0.9998838
1176791527615039	-0.38162982	-1.8597317	0.4590084
1176791535915820	-0.41151595	-1.8428411	0.39715314
1176791544216601	-0.8292613	-0.9048071	-0.5135534
1176791552517382	-1.2754719	-0.592144	-0.7539338
1176791560818164	-1.5948431	-0.22675037	-1.5718908
1176791569118945	-1.9740975	0.26895237	-2.854854
1176791577419726	-2.033619	0.29508495	-2.9280636
1176791585720507	-2.3024647	0.707366	-3.3830197
1176791594021289	-2.4618979	0.8440933	-2.5314662
1176791602322070	-2.9542248	0.2753687	0.35079312
1176791610622851	-3.2303908	0.09664631	0.5282029
1176791618923632	-3.2944372	0.14134884	0.40470636
1176791627224414	-3.1339831	0.4354763	-0.41868448
1176791635525195	-1.8534567	2.193407	-2.2756464
1176791643825976	-1.9126153	2.2269077	-2.3476987
1176791652126757	-1.5371194	3.2726097	-0.32450795
1176791660427539	-2.5724318	2.8481884	0.5369463
1176791668728320	-3.3453922	2.3577957	0.6408539
1176791677029101	-3.7073123	2.0792627	0.023210049
1176791685329882	-3.733941	2.0909348	0.007910967
1176791693630664	-3.9588602	2.1697617	-1.2716074
1176791701931445	-4.5050645	2.59941	-3.0636017
1176791710232226	-5.2351456	2.9327707	-4.303994
1176791718533007	-5.4130373	3.10209	-4.0471478
1176791726833789	-5.1680064	3.1061487	-2.133115
1176791735134570	-4.8066816	3.2785273	-0.25561833
1176791743435351	-4.404393	3.8285656	0.03603506
1176791751736132	-3.7952774	4.6079874	-1.4814513
1176791760036914	-2.4406393	4.9084997	-2.2031746
1176791768337695	-2.409689	4.862959	-2.074696
1176791776638476	-1.8166394	4.819518	-1.0533999
1176791784939257	-1.024096	4.7388144	-0.19294417
1176791793240039	-0.22956729	4.6749344	-0.060776114
1176791801540820	0.41756153	4.798504	-1.7487395
1176791809841601	0.48566413	4.7492695	-2.11978
1176791818142382	0.5963459	4.6898384	-1.9428072
1176791826443164	1.2292686	4.5877504	-1.7504331
1176791834743945	2.0627158	4.481757	-0.84309983
1176791843044726	2.5420828	4.518749	0.5834236
1176791851345507	2.371131	4.825243	2.073767
1176791859646289	1.8941767	5.1216354	3.7350059
1176791867947070	2.1447878	4.719141	4.460415
1176791876247851	3.076338	3.8399382	3.8081303
1176791884548632	4.557747	2.8703814	2.0892348
1176791892849414	6.153097	2.2243662	-0.021395802
1176791901150195	7.1080832	2.242939	-1.5338273
1176791909450976	7.1118383	2.7016191	-2.0424352
1176791917751757	6.804776	2.5997171	-1.3274523
1176791926052539	5.3968267	2.2408228	0.15578425
1176791934353320	2.8284042	1.8410215	1.691023
1176791942654101	0.13246131	1.65166	2.4564073
1176791950954882	-1.0412134	1.776866	2.0757825
1176791959255664	-2.218358	1.291503	2.489252
1176791967556445	-2.2671819	0.82194805	2.8237593
1176791975857226	-2.144064	0.26696777	2.955565
1176791984158007	-1.8724617	-0.49909878	3.0983622
1176791992458789	-1.4893765	-1.4535913	3.490325
1176792000759570	-1.3692787	-1.4205084	3.6080346
1176792009060351	-1.1042933	-3.6273613	4.937002
1176792017361132	-0.73594975	-4.603594	5.3886504
1176792025661914	-0.20327538	-5.632208	5.8249016
1176792033962695	0.5729722	-6.683817	6.1637936
1176792042263476	1.4454718	-7.6956625	6.289254
1176792050564257	1.9991653	-8.642465	6.1124187
1176792058865039	2.8835492	-9.558016	5.295478
1176792067165820	3.0143025	-9.809023	3.622242
1176792075466601	2.5740008	-9.334547	2.0345397
1176792083767382	1.8536896	-8.379926	1.0722909
1176792092068164	1.8314553	-8.30402	1.1860638
1176792100368945	0.59561706	-6.3955984	1.362423
1176792108669726	0.48389024	-5.9989014	1.7392769
1176792116970507	0.16796955	-5.889017	1.8893719
1176792125271289	-0.03411773	-5.975506	1.8049579
1176792133572070	-0.12027827	-6.0914335	1.4123616
1176792141872851	-0.14605266	-6.092779	1.3805108
1176792150173632	-0.17668337	-6.084318	-0.0020413399
1176792158474414	-0.06300008	-5.885336	-0.6146779
1176792166775195	0.013366103	-5.3359404	-0.9978175
1176792175075976	-0.031153738	-4.241164	-1.2551723
1176792183376757	-0.065868616	-4.2966747	-1.3912435
1176792191677539	-0.8847186	-0.1441145	-1.6305072
1176792199978320	-1.3888822	2.9765635	-1.6951458
1176792208279101	-0.9269287	7.9654675	-1.0431223
1176792216579882	0.970082	15.060156	0.38802457
1176792224880664	3.136438	21.557587	1.58883
1176792233181445	4.5637226	23.429546	0.28874683
1176792241482226	4.4862304	23.336578	0.11383748
1176792249783007	0.21207058	9.262414	-9.73072
1176792258083789	-3.606312	2.7416706	-9.682108
1176792266384570	-5.812943	-2.0019407	-8.136147
1176792274685351	-7.199026	-5.368951	-6.4947376
1176792282986132	-7.176306	-5.300416	-6.30372
1176792291286914	-7.8161774	-7.3818893	-5.386343
1176792299587695	-5.321345	-6.709156	-5.2913504
1176792307888476	-1.3099642	-3.4728918	-3.8830898
1176792316189257	2.4666047	1.6635284	-1.3906178
1176792324490039	2.5064511	1.6644077	-1.3660648
1176792332790820	5.958646	7.2668753	3.4050183
1176792341091601	12.0463915	13.722383	17.116768
1176792349392382	15.7851	11.644518	17.333103
1176792357693164	13.863165	5.045781	8.6521435
1176792365993945	7.9480653	0.52137184	-1.297657
1176792374294726	3.3377101	-2.975154	-6.565033
1176792382595507	3.3838065	-2.9357634	-6.4445186
1176792390896289	0.06326997	-7.4915476	-3.4148483
1176792399197070	-2.028305	-7.400528	-2.0815668
1176792407497851	-4.1011243	-5.7918463	-1.4963155
1176792415798632	-4.2238603	-5.2073994	-0.693619
1176792424099414	-4.302839	-4.70465	0.23345327
1176792432400195	-3.6315455	-3.8699312	2.1758466
1176792440700976	-3.6678958	-3.8820353	2.1097784
1176792449001757	-1.2990215	-2.7565556	5.4775596
1176792457302539	0.95011795	-1.6431837	8.381971
1176792465603320	1.6272521	-0.5604172	10.463844
1176792473904101	1.9537098	-0.087706566	10.932345
1176792482204882	2.034202	0.26921082	10.811399
1176792490505664	1.7315743	1.0218296	10.892342
1176792498806445	0.83096015	2.1707802	10.960381
1176792507107226	-0.62532294	2.5315218	8.954082
1176792515408007	-1.4198134	1.2668028	3.836584
1176792523708789	-1.4574996	1.2545462	3.669817
1176792532009570	-0.727113	0.58500385	2.1457136
1176792540310351	-0.12483227	0.3992052	0.36565983
1176792548611132	-2.7336657	1.9626865	-10.7137575
1176792556911914	-3.5925157	1.4687405	-8.468551
1176792565212695	-2.8343582	0.19408894	-4.192521
1176792573513476	-2.8689075	0.19784546	-4.216706
1176792581814257	-1.4039911	-0.9421129	-0.6823874
1176792590115039	-0.23359227	-1.6317883	1.4215959
1176792598415820	-0.4721762	-2.0323	3.2688434
1176792606716601	-0.5098729	-2.0243883	3.1030176
1176792615017382	-0.9137981	-1.953721	2.8344612
1176792623318164	-0.9792985	-2.00245	2.2984433
1176792631618945	-0.7650931	-2.19592	1.6614127
1176792639919726	-0.4363644	-2.4160366	1.0665776
1176792648220507	-0.14852023	-2.5111847	0.61257195
1176792656521289	0.18070483	-2.527009	0.28469107
1176792664822070	-0.11063087	-2.1728783	0.22885484
1176792673122851	-0.6594001	-1.7372322	0.25866395
1176792681423632	-1.1244355	-1.3574457	0.29537845
1176792689724414	-1.4271845	-1.0782251	0.23673248
1176792698025195	-1.733447	-0.8422184	-0.26403666
1176792706325976	-2.1875865	-0.53421974	-2.2776048
1176792714626757	-2.4896152	-0.13535976	-4.2863293
1176792722927539	-2.311852	0.18753433	-3.9279668
1176792731228320	-2.0133996	0.40586853	-2.060923
1176792739529101	-1.9614222	0.48656082	0.031245112
1176792747829882	-2.4276657	0.14213657	1.5290416
1176792756130664	-2.4773195	0.18304348	1.3644786
1176792764431445	-1.907861	0.32086563	0.3451239
1176792772732226	-1.3951557	0.86091137	-0.65771186
1176792781033007	-1.1629167	1.6857052	-0.83282197
1176792789333789	-1.2471533	2.5889177	-0.13211203
1176792797634570	-1.3083763	2.606882	-0.14993286
1176792805935351	-2.452683	3.4419632	0.9114578
1176792814236132	-3.086034	3.1380653	-0.048628926
1176792822536914	-3.6124153	2.9906797	-1.1949238
1176792830837695	-4.2345095	3.051815	-2.130929
1176792839138476	-5.0126295	3.1969957	-2.6323733
1176792847439257	-5.0291667	3.195057	-2.6067033
1176792855740039	-5.8654194	3.1502037	-2.1835327
1176792864040820	-5.8262978	3.0994625	-0.88462317
1176792872341601	-5.7652383	3.176793	-0.5097364
1176792880642382	-5.563613	3.2178679	-1.4494215
1176792888943164	-5.020504	3.2344522	-2.7932868
1176792897243945	-4.9697795	3.2063932	-2.745417
1176792905544726	-2.946764	3.879715	-1.1590992
1176792913845507	-1.8930056	4.3126802	0.29832208
1176792922146289	-1.1619339	5.1336994	1.035377
1176792930447070	-0.4931643	5.930485	0.58552325
1176792938747851	-0.3899517	5.8754444	0.6826217
1176792947048632	1.391119	5.4699593	-1.6156667
1176792955349414	2.4267352	4.492323	-1.1745765
1176792963650195	3.3488266	4.1652	-1.1657333
1176792971950976	4.426655	4.116637	-1.2080967
1176792980251757	5.283226	4.168749	-0.83217597
1176792988552539	5.496831	4.3752365	0.30505192
1176792996853320	5.592124	4.3443174	0.55121017
1176793005154101	3.775208	4.836828	3.737244
1176793013454882	3.5802271	3.9165592	3.5558147
1176793021755664	4.7179403	2.7704363	1.9626327
1176793030056445	6.3346324	2.0756912	-0.09770608
1176793038357226	6.348737	2.0866566	0.08797443
1176793046658007	7.5325036	2.1615496	-1.505574
1176793054958789	6.9627085	2.9848986	-1.8053257
1176793063259570	5.7819066	2.6875181	-0.27328074
1176793071560351	3.8430972	1.7994928	1.1306094
1176793079861132	3.9058757	1.8185825	1.2903076
1176793088161914	1.8303621	0.79323006	2.4421387
1176793096462695	-1.2589629	-0.1843214	4.0999975
1176793104763476	-2.0368786	-0.4237337	3.706285
1176793113064257	-2.4077742	-0.85206985	3.1600184
1176793121365039	-2.3813424	-1.3927193	3.2186027
1176793129665820	-2.3203158	-1.9475784	3.6523347
1176793137966601	-2.3175275	-2.5453272	4.1269746
1176793146267382	-2.0044112	-3.3697872	4.5405254
1176793154568164	-1.6306545	-4.197732	4.6760454
1176793162868945	-0.9058324	-5.026826	4.769241
1176793171169726	0.017879818	-5.7944746	4.690753
1176793179470507	0.9748496	-6.5106897	4.497208
1176793187771289	1.8572215	-7.2084	4.268672
1176793196072070	1.8472601	-7.133993	4.399575
1176793204372851	2.8623736	-8.166834	3.3623955
1176793212673632	2.3784678	-7.876853	2.4508708
1176793220974414	1.7678518	-7.3089466	1.7090883
1176793229275195	1.7452259	-7.2429705	1.8072824
1176793237575976	1.122958	-6.638502	1.3627777
1176793245876757	0.5654819	-6.1667976	1.2657332
1176793254177539	0.2645824	-5.9152613	1.4375391
1176793262478320	0.4597724	-6.2464542	1.6127281
1176793270779101	0.29134896	-6.671379	1.0605125
1176793279079882	0.27116245	-6.668392	1.0371022
1176793287380664	0.009426802	-7.1033926	0.15589714
1176793295681445	6.214678E-4	-7.3873863	-0.9281359
1176793303982226	0.25335413	-7.1572638	-2.4085245
1176793312283007	0.22155976	-7.1942453	-2.5086408
1176793320583789	0.19370177	-6.3524218	-2.7551003
1176793328884570	-0.009196579	-4.794649	-2.6555037
1176793337185351	-0.6025155	-2.1801357	-2.0729854
1176793345486132	-1.5750697	1.9651241	-0.8134532
1176793353786914	-2.2899628	7.950836	1.1605585
1176793362087695	0.06938362	17.459782	1.1819677
1176793370388476	4.196666	28.36533	2.0310166
1176793378689257	4.0998635	28.2592	1.840663
1176793386990039	3.9852805	22.53437	-2.9927
1176793395290820	1.8795319	10.359096	-9.047001
1176793403591601	-0.6215699	0.93558884	-11.790112
1176793411892382	-2.4542308	-3.756898	-9.324123
1176793420193164	-3.819182	-6.628771	-6.9495616
