accelerometer_timestamp	accelerometer_x_data	accelerometer_y_data	accelerometer_z_data
1176772491962696	0.67749023	4.891861	9.487976
1176772500355030	0.40023804	4.9398804	9.805191
1176772508747364	0.3772583	4.804428	9.498276
1176772517139698	0.59010315	4.671646	8.812897
1176772525532032	1.0466766	4.5529633	8.374802
1176772533924366	1.3376007	4.494934	8.150742
1176772542316700	1.4010468	4.5224	7.946106
1176772550709034	1.340805	4.630432	7.699753
1176772559101368	1.3309021	4.7745056	7.6130676
1176772567493702	1.4535217	4.7326355	7.573181
1176772575886036	1.7421112	4.63266	7.604065
1176772584278370	2.0007172	4.4832764	7.7315216
1176772592670704	2.1242676	4.364914	7.991928
1176772601063038	2.0342712	4.3499146	8.390991
1176772609455372	1.6655579	4.4491577	8.88205
1176772617847706	1.4512024	4.580765	9.373581
1176772626240040	1.2677307	4.675934	9.572601
1176772634632374	1.1450195	4.70282	9.47879
1176772643024708	1.078476	4.662262	9.156738
1176772651417042	1.0636597	4.575348	8.700211
1176772659809376	1.1203156	4.475891	8.193802
1176772668201710	1.1668854	4.5512085	7.74588
1176772676594044	1.3062592	4.7617035	7.563034
1176772684986378	1.5014648	4.901413	7.509079
1176772693378712	1.7140808	4.967148	7.5269623
1176772701771046	1.8831482	4.998825	7.5419617
1176772710163380	1.907074	4.9537354	7.383835
1176772718555714	1.7947845	4.876892	7.415344
1176772726948048	1.7037048	4.8282623	7.9235687
1176772735340382	1.5771332	4.736679	8.540344
1176772743732716	1.4195709	4.5681915	8.974274
1176772752125050	1.2569733	4.389496	9.054657
1176772760517384	1.0979309	4.424286	8.747498
1176772768909718	0.74513245	4.6264343	8.026062
1176772777302052	0.42704773	4.82135	7.5610046
1176772785694386	0.18696594	4.9087677	7.492508
1176772794086720	0.041152954	4.896805	7.4597015
1176772802479054	-0.040634155	4.9015656	7.172058
1176772810871388	-0.15864563	5.1605835	7.015045
1176772819263722	-0.24580383	5.3556824	7.3542633
1176772827656056	-0.045196533	4.9464417	7.883911
1176772836048390	1.3994141	2.1601105	8.310944
1176772844440724	2.9632263	-0.76564026	9.081528
1176772852833058	3.035675	-0.62991333	10.301193
1176772861225392	1.4075012	3.1413574	10.331009
1176772869617726	2.6173096	4.846527	9.742096
1176772878010060	2.5862122	5.580185	8.30394
1176772886402394	1.1914673	5.8800354	7.5740814
1176772894794728	-0.6839142	5.996765	7.5608063
1176772903187062	-1.9860992	6.0368195	7.327759
1176772911579395	-2.4845886	6.186371	5.8561707
1176772919971729	-1.9693451	6.2483063	4.6727448
1176772928364063	-1.324173	6.294159	4.524414
1176772936756397	-0.63861084	6.329178	5.051605
1176772945148731	0.0231781	6.4173126	6.135437
1176772953541065	0.6747284	6.617401	7.672058
1176772961933399	1.5423279	6.8755493	9.110626
1176772970325733	3.0414581	6.442108	10.990433
1176772978718067	3.8213959	6.087723	12.148193
1176772987110401	4.207077	5.474655	12.088226
1176772995502735	4.420624	4.540863	10.692413
1176773003895069	4.315567	3.8712769	8.412033
1176773012287403	2.8948364	5.2262115	6.4419556
1176773020679737	2.0736237	6.813217	4.9440155
1176773029072071	1.6918488	7.398117	4.7432404
1176773037464405	1.8409271	7.155319	5.8715363
1176773045856739	2.5724335	6.5456696	7.6972046
1176773054249073	3.6223602	6.0449066	9.246521
1176773062641407	3.8674011	5.712967	9.83522
1176773071033741	2.485794	5.5498962	9.940308
1176773079426075	1.4203796	5.295578	10.261063
1176773087818409	1.4301758	5.112915	10.619354
1176773096210743	2.1952972	5.1065674	10.633087
1176773104603077	2.812317	5.2353516	9.976471
1176773112995411	2.9504242	5.113495	8.913269
1176773121387745	2.8346863	5.2900543	7.9194336
1176773129780079	2.5594788	5.9096375	6.959976
1176773138172413	2.4355927	6.495102	6.045868
1176773146564747	2.4687042	6.871582	5.2772064
1176773154957081	2.445694	7.099518	4.8379364
1176773163349415	2.3400116	7.0137787	4.9496155
1176773171741749	2.4401245	6.7092896	5.060913
1176773180134083	2.6884613	6.584854	5.247162
1176773188526417	2.7640991	6.4789124	5.713333
1176773196918751	2.663681	6.284851	6.310013
1176773205311085	2.675644	6.0332184	6.64653
1176773213703419	3.0434265	5.9328156	6.604782
1176773222095753	3.423584	5.914978	6.3976135
1176773230488087	3.642212	5.96167	6.3223877
1176773238880421	3.8677979	5.9812164	6.423416
1176773247272755	4.0255585	5.998413	6.646988
1176773255665089	3.8341827	6.1413727	6.8759155
1176773264057423	3.2388306	6.4811707	6.9885254
1176773272449757	2.6452332	6.844696	6.9448395
1176773280842091	2.1997223	7.1023865	6.799103
1176773289234425	2.0427704	7.214737	6.5536957
1176773297626759	2.1823273	7.1746826	6.3098907
1176773306019093	2.5079193	7.010391	6.2699585
1176773314411427	2.9564056	6.835266	6.7599335
1176773322803761	3.2827454	6.5533905	7.5194244
1176773331196095	3.2433624	6.2882385	7.528122
1176773339588429	3.1662292	6.0467377	7.3038025
1176773347980763	3.1998444	5.940201	7.188034
1176773356373097	3.2184448	6.126526	7.0832977
1176773364765431	3.1127625	6.353836	6.7243958
1176773373157765	3.0324554	6.5597687	4.840027
1176773381550099	3.4067535	6.7086487	4.47316
1176773389942433	3.5122833	6.721573	5.2663727
1176773398334767	3.2272491	6.6323547	6.2051544
1176773406727101	3.14003	6.58696	6.4175415
1176773415119435	3.0960999	6.678726	6.0729065
1176773423511769	2.7373047	6.774887	5.8093567
1176773431904103	2.3755035	6.857895	5.9364014
1176773440296437	2.203949	6.907425	6.1949005
1176773448688770	2.3127441	6.8878784	6.403
1176773457081104	2.6599426	6.7638702	6.5914764
1176773465473438	2.9114227	6.613785	6.747528
1176773473865772	3.1635132	6.570633	6.5842133
1176773482258106	3.4648132	6.532959	6.265274
1176773490650440	3.61232	6.3436737	5.6416473
1176773499042774	3.4418945	6.1194	5.0359344
1176773507435108	2.9775543	6.253067	5.3010254
1176773515827442	2.9265594	6.661087	6.848114
1176773524219776	2.8847198	6.765152	8.120224
1176773532612110	2.7402802	6.5820007	8.573441
1176773541004444	2.6529388	6.3307343	8.454147
1176773549396778	2.676941	6.206558	7.991165
1176773557789112	2.699112	6.3170013	7.2734833
1176773566181446	2.9245605	6.6277313	6.4133606
1176773574573780	2.9898224	6.969406	5.9023438
1176773582966114	2.821579	7.249283	5.640259
1176773591358448	2.6219177	7.3364563	5.478821
1176773599750782	2.6542358	7.119919	4.483429
1176773608143116	3.0728302	6.6335297	1.7437897
1176773616535450	3.7572937	6.5639954	3.7031708
1176773624927784	3.4372864	6.8082275	6.5462494
1176773633320118	3.1415558	7.0162964	7.6129303
1176773641712452	2.9989624	7.029312	6.981262
1176773650104786	2.940445	6.8390045	5.8241425
1176773658497120	2.9096375	6.6176147	5.9187164
1176773666889454	2.638443	6.9027557	7.098175
1176773675281788	2.523758	7.126541	6.9347076
1176773683674122	2.3601074	7.2459717	5.995102
1176773692066456	2.2210388	7.2312317	4.5859528
1176773700458790	2.1569977	7.137268	3.2270203
1176773708851124	2.0886078	7.1198273	2.7519836
1176773717243458	2.6281738	7.090454	3.1032562
1176773725635792	3.916214	6.7033997	3.6767273
1176773734028126	3.8944855	6.3873444	4.676285
1176773742420460	3.2236023	6.162567	6.1377563
1176773750812794	2.8772125	5.9697876	7.779297
1176773759205128	2.8142548	5.8205414	8.929596
1176773767597462	2.9196167	5.8632813	9.020065
1176773775989796	2.9084778	5.928177	8.489395
1176773784382130	2.8565063	5.996643	7.7598114
1176773792774464	2.7942657	6.052246	7.146408
1176773801166798	2.7438354	6.0833893	6.852051
1176773809559132	2.7389069	6.0872955	6.9225006
1176773817951466	2.843277	6.0872955	7.0934753
1176773826343800	3.0697174	6.0158234	7.133301
1176773834736134	3.2220764	5.94841	7.0259705
1176773843128468	3.2335205	5.902649	7.0319824
1176773851520802	3.105423	5.869461	7.3273926
1176773859913136	2.8717804	5.8369446	7.699539
1176773868305470	2.7220306	5.919464	7.927704
1176773876697804	2.5249329	5.995636	7.9740143
1176773885090138	2.4106903	6.0938873	7.8158417
1176773893482472	2.478592	6.1695404	7.413803
1176773901874806	2.5627594	6.172348	6.9659576
1176773910267140	2.0286713	6.0972443	7.103546
1176773918659474	1.9030457	5.616684	7.2241974
1176773927051808	2.0711212	5.397751	7.17807
1176773935444142	2.436798	5.3962097	7.074234
1176773943836476	2.8158417	5.496933	6.864456
1176773952228810	3.0203857	5.5875397	6.4786377
1176773960621144	2.9276886	5.609558	5.943344
1176773969013478	2.61911	5.702011	5.459549
1176773977405812	2.2749634	5.7922363	5.2607574
1176773985798145	1.8860779	5.847534	5.457016
1176773994190479	1.5113678	5.90831	6.1412506
1176774002582813	1.22789	5.983124	7.3561096
1176774010975147	1.0927124	5.938385	8.893845
1176774019367481	0.77438354	5.716675	10.107971
1176774027759815	0.8288574	5.3148804	10.408051
1176774036152149	1.2658234	4.9380493	10.219147
1176774044544483	1.8594513	4.687912	9.731369
1176774052936817	2.3374023	4.6012726	9.094879
1176774061329151	2.6194153	4.7082825	8.7278595
1176774069721485	2.669403	4.9734344	8.609528
1176774078113819	2.5790405	5.1903534	8.431519
1176774086506153	2.42276	5.350067	8.218491
1176774094898487	2.1837158	5.484604	7.9578857
1176774103290821	1.8116455	5.6430664	7.626465
1176774111683155	1.2549438	5.857727	7.21521
1176774120075489	1.0617218	5.929184	6.9277344
1176774128467823	1.2770691	5.7593536	6.8141937
1176774136860157	1.6065826	5.464737	6.8409424
1176774145252491	1.9374084	5.208267	7.036377
1176774153644825	2.249527	5.109543	7.4344788
1176774162037159	2.423767	5.1144104	7.9503937
1176774170429493	2.4624023	5.1587677	8.415527
1176774178821827	2.4199677	5.209839	8.696594
1176774187214161	2.3175964	5.2444153	8.776871
1176774195606495	2.189087	5.292877	8.709808
1176774203998829	2.0526733	5.3763885	8.530716
1176774212391163	1.8731995	5.3973236	8.162827
1176774220783497	1.6803894	5.4564667	7.5854187
1176774229175831	1.5714111	5.596054	7.1545258
1176774237568165	1.5438995	5.699402	6.9204407
1176774245960499	1.6210175	5.7106476	6.8432007
1176774254352833	1.8331757	5.6240387	6.842331
1176774262745167	2.2067413	5.445862	6.927368
1176774271137501	2.6448822	5.3285065	7.1089783
1176774279529835	3.0701752	5.2500916	7.2775574
1176774287922169	3.432312	5.240082	7.3223724
1176774296314503	3.7040253	5.320984	7.150467
1176774304706837	3.863083	5.491562	6.735016
1176774313099171	3.831894	5.69783	6.2158203
1176774321491505	3.5339813	5.847946	5.7164154
1176774329883839	3.0187988	5.9540405	5.2593994
1176774338276173	2.5674133	6.1181183	4.7929535
1176774346668507	2.199768	6.394516	4.4147034
1176774355060841	1.7954102	6.7747345	4.264023
1176774363453175	1.3921661	7.157898	4.285095
1176774371845509	1.1076508	7.455597	4.335037
1176774380237843	1.1148529	7.5106506	4.3571777
1176774388630177	1.474884	7.332016	4.385895
1176774397022511	2.1295776	6.9700623	4.5231476
1176774405414845	2.8739777	6.489151	4.8871613
1176774413807179	3.2239227	5.939804	5.5232544
1176774422199513	3.2855988	5.4711914	6.7509003
1176774430591847	3.0587616	5.304306	7.9252777
1176774438984181	2.567093	5.319458	8.818054
1176774447376515	1.8919983	5.3994446	9.397171
1176774455768849	1.138443	5.497223	9.75148
1176774464161183	0.3458252	5.7444916	9.904022
1176774472553517	-0.22224426	5.9311676	9.618652
1176774480945851	-0.49884033	5.9606323	9.044846
1176774489338185	-0.5691376	5.866989	8.361435
1176774497730519	-0.5386505	5.733017	7.728363
1176774506122853	-0.4822693	5.64415	7.285095
1176774514515187	-0.3391266	5.593445	7.244339
1176774522907520	-0.2480774	5.3648987	7.5027466
1176774531299854	-0.18371582	5.06102	8.0074005
1176774539692188	-0.04156494	4.724106	8.707596
1176774548084522	0.1272583	4.4211273	9.5386505
1176774556476856	0.15089417	4.242401	10.443329
1176774564869190	-0.09136963	4.3141937	11.424377
1176774573261524	-0.4386444	4.4923553	12.115799
1176774581653858	-0.66978455	4.5747375	12.360123
1176774590046192	-0.8107147	4.5921326	12.188126
1176774598438526	-0.874115	4.623581	11.6046295
1176774606830860	-0.8425598	4.728363	10.603439
1176774615223194	-0.76504517	4.785019	9.42157
1176774623615528	-0.6981354	4.7488556	8.452225
1176774632007862	-0.5700531	4.7087097	7.774246
1176774640400196	-0.45477295	4.6148376	7.384903
1176774648792530	-0.37088013	4.446213	7.368744
1176774657184864	-0.27529907	4.225296	7.833603
1176774665577198	-0.22392273	3.9288788	8.505478
1176774673969532	-0.27775574	3.6195679	9.183746
1176774682361866	-0.43678284	3.3355408	9.888367
1176774690754200	-0.6943817	3.1743622	10.535812
1176774699146534	-0.99642944	3.1879425	11.031204
1176774707538868	-1.2514648	3.3629303	11.301788
1176774715931202	-1.3980255	3.663025	11.314743
1176774724323536	-1.3951416	3.9429169	11.1354065
1176774732715870	-1.2822113	4.1346283	11.029495
1176774741108204	-1.1312256	4.1802063	10.879288
1176774749500538	-0.97154236	4.061859	10.579544
1176774757892872	-0.782074	3.8264313	10.129929
1176774766285206	-0.63793945	3.681305	9.508667
1176774774677540	-0.51438904	3.6825867	8.861298
1176774783069874	-0.2931671	3.6950684	8.270752
1176774791462208	0.12693787	3.6912384	7.8544464
1176774799854542	0.7220154	3.6268768	7.61615
1176774808246876	1.2711182	3.4277954	7.43309
1176774816639210	0.9550171	3.1176453	7.422165
1176774825031544	0.30934143	2.7696075	8.098038
1176774833423878	0.054367065	2.4243164	9.109283
1176774841816212	-0.16220093	2.2495728	9.821304
1176774850208546	-0.4817047	2.3197632	10.012695
1176774858600880	-0.49606323	2.5441895	10.091232
1176774866993214	-0.6466217	2.926056	10.073288
1176774875385548	-0.70892334	3.2446442	9.982025
1176774883777882	-0.73516846	3.5007324	9.8155365
1176774892170216	-0.75279236	3.6519012	9.68515
1176774900562550	-0.7677307	3.6839905	9.605164
1176774908954884	-0.7620697	3.6368408	9.411377
1176774917347218	-0.70243835	3.4807892	8.977997
1176774925739552	-0.44329834	3.4437714	8.44426
1176774934131886	-0.10298157	3.4832153	7.9608
1176774942524220	0.18878174	3.538803	7.617386
1176774950916554	0.3149109	3.5820313	7.4878845
1176774959308888	0.20333862	3.6400146	7.640579
1176774967701222	0.014892578	3.6230621	8.06131
1176774976093556	-0.07394409	3.6153107	8.489883
1176774984485890	-0.19815063	3.6764526	8.868301
1176774992878224	-0.31404114	3.8015442	9.117004
1176775001270558	-0.3683014	3.963745	9.208527
1176775009662892	-0.3961792	4.139847	9.214752
1176775018055226	-0.3882141	4.2465363	9.19281
1176775026447560	-0.40896606	4.276642	9.221802
1176775034839894	-0.40548706	4.2075195	9.223206
1176775043232228	-0.35832214	4.0214233	9.133987
1176775051624562	-0.30197144	3.7989044	8.949127
1176775060016895	-0.33413696	3.7714844	8.753067
1176775068409229	-0.33215332	3.9285583	8.597992
1176775076801563	-0.2806244	4.094925	8.462051
1176775085193897	-0.33459473	4.2344055	8.283051
1176775093586231	-0.5050049	4.3017426	8.137955
1176775101978565	-0.6895752	4.28421	8.099884
1176775110370899	-0.69473267	4.2391815	8.121979
1176775118763233	-0.6251526	4.270996	8.250214
1176775127155567	-0.5658722	4.3189697	8.388412
1176775135547901	-0.49449158	4.33696	8.46077
1176775143940235	-0.38607788	4.2829285	8.37738
1176775152332569	-0.26135254	4.1514893	8.079193
1176775160724903	-0.2501526	4.0401	7.658798
1176775169117237	-0.1736145	4.006317	7.3347473
1176775177509571	-0.023590088	4.2183685	6.983368
1176775185901905	0.19927979	4.336319	6.952362
1176775194294239	0.30259705	4.30896	7.2976074
1176775202686573	0.13964844	4.2719727	7.864502
1176775211078907	-0.11457825	4.3756714	8.528503
1176775219471241	-0.5608673	4.4559326	8.990234
1176775227863575	-1.043808	4.6011047	9.313004
1176775236255909	-1.2523041	4.716385	9.487381
1176775244648243	-1.1551971	4.762558	9.593338
1176775253040577	-0.9116516	4.763199	9.769318
1176775261432911	-0.7675934	4.7972717	10.227798
1176775269825245	-0.5097656	4.686096	10.19342
1176775278217579	-0.27841187	4.62117	9.879776
1176775286609913	-0.18519592	4.5213623	9.390747
1176775295002247	-0.2199707	4.3814545	8.813736
1176775303394581	-0.32548523	4.2615814	8.215485
1176775311786915	-0.4676361	4.2685394	7.6349792
1176775320179249	-0.6568451	4.3504944	7.3785095
1176775328571583	-0.8614502	4.4936676	7.1243896
1176775336963917	-1.061264	4.5927734	6.8450317
1176775345356251	-1.3802948	4.7143097	6.5758667
1176775353748585	-1.9105072	4.972183	6.387253
1176775362140919	-2.397049	5.2423706	6.352371
1176775370533253	-2.631424	5.3084717	6.6296844
1176775378925587	-2.759735	5.297699	7.0233
1176775387317921	-2.7668	5.2289886	7.391159
1176775395710255	-2.6400452	5.112564	7.6374664
1176775404102589	-2.4114532	4.969406	7.7538757
1176775412494923	-2.194107	4.864731	7.8047333
1176775420887257	-2.0152588	4.8095856	7.898987
1176775429279591	-1.9208221	4.9748535	8.129318
1176775437671925	-2.3098755	5.0899353	9.388641
1176775446064259	-2.5023346	4.809738	11.4631195
1176775454456593	-1.7546692	4.0411224	13.211685
1176775462848927	-1.8393555	3.677063	12.967346
1176775471241261	-1.1743774	4.206665	11.365692
1176775479633595	-0.41479492	4.285324	10.704971
1176775488025929	0.57081604	3.9099731	10.860001
1176775496418263	0.74993896	3.608307	10.88092
1176775504810597	-1.389679	4.092331	9.740234
1176775513202931	-4.422409	5.3527527	8.3526
1176775521595265	-3.06958	5.0169067	8.02977
1176775529987599	-1.8559723	4.64209	7.526993
1176775538379933	-1.2985077	4.181946	7.0016937
1176775546772267	-1.3040314	3.5907745	6.73909
1176775555164601	-1.4160614	3.0817413	6.9604187
1176775563556935	-1.1648102	3.4376678	7.7999115
1176775571949269	-0.99490356	3.2740173	9.589447
1176775580341603	-0.8751373	2.9193115	12.191025
1176775588733937	-0.3154602	2.82193	13.789352
1176775597126270	0.32728577	3.170761	13.104446
1176775605518604	0.24694824	3.702896	10.414871
1176775613910938	0.074645996	3.1947632	9.862961
1176775622303272	-0.78175354	2.8171844	9.496933
1176775630695606	-0.91600037	2.6498108	10.064606
1176775639087940	-0.9179077	2.805603	11.030228
1176775647480274	-0.96199036	3.3013763	11.644211
1176775655872608	-0.686615	4.0094757	11.418594
1176775664264942	-0.23236084	4.5502167	11.28241
1176775672657276	-0.75813293	4.115677	11.100739
1176775681049610	-1.1724396	3.406952	10.926254
1176775689441944	-1.3834229	2.77771	10.491241
1176775697834278	-1.3913269	2.4856262	9.941925
1176775706226612	-1.1779938	2.681015	9.74794
1176775714618946	-0.87690735	3.338028	9.726013
1176775723011280	-0.566803	3.8058014	9.844299
1176775731403614	-0.30563354	4.022812	9.773407
1176775739795948	-0.10458374	3.9569244	9.296082
1176775748188282	0.22402954	3.481659	8.907959
1176775756580616	0.8785248	2.6194	9.412857
1176775764972950	0.70233154	2.756668	8.137665
1176775773365284	0.44554138	2.4597168	8.358261
1176775781757618	-0.48249817	2.3832855	7.981598
1176775790149952	-1.7549591	2.1487732	7.0410004
1176775798542286	-3.204361	1.7960663	6.3953247
1176775806934620	-5.0127563	2.0108795	6.826584
1176775815326954	-5.606537	2.5803223	7.547882
1176775823719288	-4.978241	2.8626556	7.9187927
1176775832111622	-4.3527527	2.7624664	8.663208
1176775840503956	-4.090164	2.4787445	9.337341
1176775848896290	-3.9255676	2.186081	9.57103
1176775857288624	-3.3416595	1.8475037	9.434433
1176775865680958	-3.1070557	1.3743591	7.7585297
1176775874073292	-3.2730408	0.9103699	6.678726
1176775882465626	-3.977188	0.29103088	6.518631
1176775890857960	-4.6789093	-0.21810913	6.978119
1176775899250294	-4.961273	-0.3498993	7.7372284
1176775907642628	-4.9300385	-0.09779358	8.533371
1176775916034962	-4.801819	0.31472778	8.649673
1176775924427296	-4.394882	0.565094	8.393021
1176775932819630	-4.688858	0.92581177	7.8082123
1176775941211964	-5.114319	1.2454071	7.275421
1176775949604298	-5.256134	1.4770355	7.4421387
1176775957996632	-5.77269	1.9503784	8.768311
1176775966388966	-6.775284	2.920929	8.64505
1176775974781300	-5.9728394	3.502365	7.8596497
1176775983173634	-4.9386597	3.5028381	7.510025
1176775991565968	-4.457382	3.250351	7.4579315
1176775999958302	-4.4897003	2.9904175	7.3471375
1176776008350636	-4.31575	2.6448517	7.152878
1176776016742970	-3.8475342	2.4170685	7.595764
1176776025135304	-3.7015991	2.3197632	7.642288
1176776033527638	-3.442505	2.2243958	7.640213
1176776041919972	-3.0179596	2.2014465	7.717697
1176776050312306	-2.4705658	2.203537	7.880188
1176776058704640	-1.6980591	1.8355713	8.131378
1176776067096974	-1.4089203	0.77671814	9.243057
1176776075489308	-2.1368103	0.874176	8.816681
1176776083881642	-2.5407257	1.1217651	8.398056
1176776092273976	-2.6605682	1.1896973	8.085098
1176776100666310	-3.036255	1.1359558	7.6149445
1176776109058644	-3.8813171	1.3102875	7.2129517
1176776117450978	-4.19841	1.7198181	6.8421936
1176776125843312	-3.9796906	2.3079681	6.9010925
1176776134235645	-3.763916	2.5167694	7.4162903
1176776142627979	-3.5910034	2.3158417	8.072144
1176776151020313	-3.4195862	2.0563354	8.369263
1176776159412647	-3.4978027	2.1785583	7.935272
1176776167804981	-3.527008	2.1736908	7.8369446
1176776176197315	-3.6592712	2.0599518	8.197845
1176776184589649	-4.0166473	1.967453	8.624893
1176776192981983	-4.208954	2.1929626	8.553299
1176776201374317	-4.057205	2.6860962	7.800766
1176776209766651	-4.379242	2.567459	7.0450134
1176776218158985	-3.4955902	3.203598	7.4028625
1176776226551319	-2.8078918	3.4246216	7.601303
1176776234943653	-2.4844513	3.483612	7.3965454
1176776243335987	-2.5946198	3.5884247	7.0512695
1176776251728321	-2.956314	3.7779694	6.943573
1176776260120655	-3.1342316	3.7581024	6.96344
1176776268512989	-3.41539	3.6231842	7.291046
1176776276905323	-3.728897	3.519577	7.675308
1176776285297657	-4.1194	3.403946	7.968277
1176776293689991	-4.514862	3.2394104	8.193924
1176776302082325	-4.7990723	3.028473	8.4822235
1176776310474659	-4.936676	2.8858948	8.990707
1176776318866993	-5.0060577	2.9110107	9.236008
1176776327259327	-5.447891	3.1798553	9.163773
1176776335651661	-6.0811157	3.4072113	8.990936
1176776344043995	-6.6857147	3.429245	8.905182
1176776352436329	-7.149109	3.2727509	9.048035
1176776360828663	-7.6163025	3.1117249	9.597717
1176776369220997	-7.557129	2.8905945	9.6241
1176776377613331	-7.977539	2.7937622	9.346542
1176776386005665	-8.423538	2.6746979	8.830658
1176776394397999	-8.808289	2.5641632	8.299652
1176776402790333	-9.285522	2.5624084	7.993515
1176776411182667	-9.788773	2.597458	8.043152
1176776419575001	-9.877716	2.681366	7.974289
1176776427967335	-10.061981	2.8398895	7.8536835
1176776436359669	-10.254654	3.1012726	7.586548
1176776444752003	-10.440628	3.4249878	7.218399
1176776453144337	-10.620468	3.7158356	6.837494
1176776461536671	-10.554871	3.840088	6.332535
1176776469929005	-10.5212555	3.7981567	5.936844
1176776478321339	-10.429398	3.784668	5.49559
1176776486713673	-10.380966	3.787918	4.92276
1176776495106007	-10.40033	3.8348083	4.3564606
1176776503498341	-10.407227	3.9286041	4.000778
1176776511890675	-10.233261	3.8500824	3.6339874
1176776520283009	-10.179459	3.891922	3.2879944
1176776528675343	-10.049759	3.9959717	2.97258
1176776537067677	-9.864944	4.16864	2.789154
1176776545460011	-9.72261	4.370468	2.7197723
1176776553852345	-9.70134	4.5392914	2.6397095
1176776562244679	-9.677414	4.640976	2.3645325
1176776570637013	-9.749786	4.7192535	2.1299133
1176776579029347	-9.804031	4.7033234	1.9591522
1176776587421681	-9.789581	4.7209167	1.8848877
1176776595814015	-9.756073	4.8644714	1.9359436
1176776604206349	-9.798981	5.103012	2.0380402
1176776612598683	-9.7690735	5.145874	1.7190094
1176776620991017	-9.5325775	5.2754974	1.5059967
1176776629383351	-9.345764	5.2944794	1.4054718
1176776637775685	-9.180435	5.2844086	1.4123535
1176776646168019	-9.0894165	5.273926	1.5552979
1176776654560353	-9.180267	5.2080536	1.87117
1176776662952687	-9.125595	5.0500183	2.0997925
1176776671345020	-9.122421	4.8802185	2.0356445
1176776679737354	-8.982925	4.7096863	1.9676056
1176776688129688	-8.890625	4.5990753	1.8635559
1176776696522022	-8.833282	4.5141144	1.7007294
1176776704914356	-8.598251	4.3291626	1.5181885
1176776713306690	-8.438202	4.0647583	1.3124237
1176776721699024	-8.273285	3.9591522	1.4033813
1176776730091358	-8.189178	3.9388428	1.6333923
1176776738483692	-8.164932	3.9461975	1.9671478
1176776746876026	-8.197449	3.9635925	2.219513
1176776755268360	-8.290985	3.9949646	2.1328583
1176776763660694	-8.166733	3.7733002	2.0046387
1176776772053028	-8.135925	3.4670105	2.1299438
1176776780445362	-8.070953	3.299408	2.309372
1176776788837696	-7.982025	3.169159	2.4012146
1176776797230030	-7.88591	3.0685577	2.3797455
1176776805622364	-7.7690735	3.1540833	2.366562
1176776814014698	-7.534775	3.2189026	2.4353485
1176776822407032	-7.324173	3.2915955	2.522583
1176776830799366	-7.07843	3.4072113	2.5598907
1176776839191700	-6.7794037	3.581009	2.731781
1176776847584034	-6.405258	3.6702728	2.9194946
1176776855976368	-5.9636993	3.3775635	2.491211
1176776864368702	-5.934784	3.327713	1.0675049
1176776872761036	-6.6306	4.1781616	-0.51390076
1176776881153370	-7.258209	4.7946014	-1.1057739
1176776889545704	-7.558319	5.1527863	-1.0249939
1176776897938038	-7.5009613	5.4642334	-0.67126465
1176776906330372	-7.245804	5.83136	0.123062134
1176776914722706	-7.101242	6.1414185	0.70732117
1176776923115040	-6.7223816	6.188736	1.3648987
1176776931507374	-7.070221	6.4196625	1.4932556
1176776939899708	-7.4900665	6.6880493	1.2398071
1176776948292042	-7.400955	6.7878876	0.91581726
1176776956684376	-7.352463	6.753708	0.6898804
1176776965076710	-7.8868713	6.7287903	1.453598
1176776973469044	-8.496521	6.3999023	2.615387
1176776981861378	-9.177872	5.982483	3.2742615
1176776990253712	-9.899368	5.5486298	3.3265991
1176776998646046	-10.566956	5.231735	2.9905548
1176777007038380	-10.978012	5.3569794	2.7132874
1176777015430714	-10.962112	6.0925446	2.1864471
1176777023823048	-10.346634	6.5731354	1.9584961
1176777032215382	-9.585831	6.8350677	1.934021
1176777040607716	-8.77652	6.91304	2.249115
1176777049000050	-8.020294	6.704071	2.8520508
1176777057392384	-7.657501	5.896118	3.0783234
1176777065784718	-6.714325	6.8921356	2.4412231
1176777074177052	-5.727539	7.3577423	2.0740967
1176777082569386	-5.292633	7.034775	1.5650482
1176777090961720	-4.800125	6.435135	1.0983582
1176777099354054	-3.8037262	6.10524	0.70983887
1176777107746388	-3.2011566	5.904785	-0.3518219
1176777116138722	-3.8033447	6.2716827	-0.39468384
1176777124531056	-4.386673	6.876541	0.86320496
1176777132923390	-3.9681244	7.275589	1.897049
1176777141315724	-3.7176971	7.2321625	1.7862549
1176777149708058	-4.3713837	6.715164	0.4824524
1176777158100392	-3.5881958	6.0670624	-0.3740692
1176777166492726	-2.9093018	5.8573303	-0.3880005
1176777174885060	-3.0657196	5.8457947	-0.26068115
1176777183277394	-3.0476532	5.9460144	0.011749268
1176777191669728	-2.7521667	6.0504303	0.01878357
1176777200062062	-2.2333832	6.1213837	-0.8642578
1176777208454395	-0.90641785	6.33049	-3.3239288
1176777216846729	1.3310089	6.857834	-5.104721
1176777225239063	0.9802551	7.255142	-4.0039825
1176777233631397	-0.94085693	7.4842987	-1.2353973
1176777242023731	-3.1529083	7.535034	1.8928833
1176777250416065	-4.2031097	7.45784	4.1022186
1176777258808399	-2.812271	7.4179688	4.7552643
1176777267200733	3.0693512	7.3988953	0.55862427
1176777275593067	6.351471	8.091187	1.2021027
1176777283985401	1.0605774	9.183762	2.3208618
1176777292377735	-5.921921	9.920471	1.509491
1176777300770069	-4.1356354	9.669708	-1.3359222
1176777309162403	-1.3150635	9.243988	-3.6330566
1176777317554737	1.1779633	8.630203	0.23957825
1176777325947071	1.8374786	8.694214	1.7950897
1176777334339405	2.132141	8.881302	1.8559875
1176777342731739	2.555725	9.425964	0.64678955
1176777351124073	3.1029053	10.965057	-1.4764099
1176777359516407	4.228485	14.329544	-2.2454681
1176777367908741	6.2821045	26.04985	-4.6795654
1176777376301075	8.335297	30.512161	1.7701721
1176777384693409	7.0364685	22.982178	6.515091
1176777393085743	3.544876	9.918961	5.885895
1176777401478077	1.0870209	2.755249	1.8757019
1176777409870411	0.054229736	6.4639587	-0.11105347
1176777418262745	1.5597687	9.162811	0.011505127
1176777426655079	1.6162567	9.328888	0.5883179
1176777435047413	1.0066833	9.104126	1.1985016
1176777443439747	0.72654724	9.373093	1.4428558
1176777451832081	1.2132874	9.865692	1.1237946
1176777460224415	1.1461334	10.05452	1.0050354
1176777468616749	0.7458496	10.132919	0.9940796
1176777477009083	0.4906311	10.117935	1.0274048
1176777485401417	0.3478241	10.088577	0.9898529
1176777493793751	0.28181458	10.116852	0.97084045
1176777502186085	0.190094	10.258957	1.2502289
1176777510578419	-0.39042664	10.561127	2.267105
1176777518970753	-1.1895752	11.575989	3.3626099
1176777527363087	-1.6395721	12.216461	3.4636993
1176777535755421	-1.213974	11.976028	1.122818
1176777544147755	-0.40925598	11.404083	-1.9483337
1176777552540089	-0.16534424	11.447098	-2.5698853
1176777560932423	-0.1375885	11.564316	-0.32539368
1176777569324757	-0.115234375	11.533081	0.95462036
1176777577717091	0.069122314	11.775162	1.2903595
1176777586109425	0.06504822	11.929657	0.61372375
1176777594501759	0.11048889	11.860138	-0.3708496
1176777602894093	0.682312	11.7005005	-0.6742554
1176777611286427	0.8293152	11.671509	-0.61125183
1176777619678761	0.90722656	11.577347	-0.6559143
1176777628071095	1.0570831	11.447998	-0.73410034
1176777636463429	0.5613098	11.260254	-0.6101532
1176777644855763	0.08747864	10.937622	-0.24633789
1176777653248097	1.0030365	10.443909	0.16564941
1176777661640431	1.7002258	10.14035	0.22929382
1176777670032765	2.2042084	9.90097	-0.18263245
1176777678425099	2.771515	9.634674	-0.77604675
1176777686817433	3.1901855	9.371063	-1.0659637
1176777695209767	3.547058	8.927521	-0.95614624
1176777703602101	4.0876007	8.056076	-0.7584839
1176777711994435	3.96138	7.3364105	-0.9563141
1176777720386769	3.1897278	7.185074	-1.0384674
1176777728779103	2.35437	6.3923798	5.155258
1176777737171437	2.2911682	6.1510315	7.7215576
1176777745563770	2.812271	6.5297394	2.229065
1176777753956104	2.8212433	6.7128906	-6.871155
1176777762348438	2.27388	10.725662	-11.867065
1176777770740772	2.2532349	13.132935	-8.917358
1176777779133106	2.7006073	14.143494	-5.4810333
1176777787525440	3.5369568	14.830826	-3.8054504
1176777795917774	4.1331177	15.56871	-3.305252
1176777804310108	3.5551147	15.700516	-1.8892059
1176777812702442	3.0284882	13.667053	-0.38624573
1176777821094776	2.1230927	11.557556	0.18887329
1176777829487110	1.2752075	10.189468	0.00881958
1176777837879444	0.7834015	9.014374	-0.23205566
1176777846271778	0.69055176	7.731949	-0.4178772
1176777854664112	0.70506287	6.6987305	-1.0351257
1176777863056446	-0.33766174	6.2554016	-0.81544495
1176777871448780	-1.0971527	6.553482	-1.1436768
1176777879841114	-1.1268768	6.6378784	-1.3521118
1176777888233448	-1.219574	6.375595	-1.313034
1176777896641175	-1.5913544	6.0151825	-1.3502045
1176777905033509	-1.4518738	5.990448	-2.0302277
1176777913425843	-1.2624512	6.223755	-2.1538544
1176777921818177	-1.0375366	6.0452576	-2.3371277
1176777930210511	-0.22793579	5.193619	-1.4145203
1176777938602845	0.40216064	4.4292755	-0.66415405
1176777946995179	0.32995605	4.332779	-1.4632721
1176777955387513	-0.08644104	4.7283325	-4.038376
1176777963779847	-0.037765503	4.2143555	-4.3644714
1176777972172181	-0.24925232	4.0424194	-4.3740234
1176777980564515	-0.49943542	4.0433197	-4.0823364
1176777988956849	-0.69166565	4.2510986	-3.8397827
1176777997349183	-0.7870941	4.6135406	-3.8328705
1176778005741517	-0.7684479	4.881653	-3.860733
1176778014133851	-0.70809937	5.668167	-3.602768
1176778022526185	-0.4497223	5.850769	-3.6192474
1176778030918519	-0.36941528	5.7397003	-3.8458252
1176778039310853	-0.33262634	5.4890747	-4.133362
1176778047703187	-0.11364746	5.1221924	-4.406372
1176778056095521	0.33477783	4.6071625	-4.7253723
1176778064487855	0.42251587	4.5194244	-4.9756317
1176778072880189	0.4406891	4.69133	-5.1623383
1176778081272523	0.21427917	5.1744385	-5.2883453
1176778089664857	0.22598267	6.078018	-5.444763
1176778098057191	0.7953949	7.534561	-5.596451
1176778106449525	1.37883	9.780441	-5.4207153
1176778114841859	1.9159546	11.912079	-4.9420624
1176778123234193	1.8088074	11.442215	-4.8318176
1176778131626527	0.8020325	11.6579895	-5.4678497
1176778140018861	-0.16349792	13.1237335	-6.715378
1176778148411195	-0.5813751	14.891525	-8.038284
1176778156803529	-1.9187012	15.88295	-8.856064
1176778165195863	-2.8405151	14.294327	-8.927124
1176778173588197	-3.243927	12.65361	-8.564362
1176778181980531	-2.7527924	11.450638	-7.7321014
1176778190372865	-1.7777405	10.656876	-6.758026
1176778198765199	-0.95713806	10.031189	-6.0006714
1176778207157533	-0.89767456	9.383408	-5.707535
1176778215549867	-2.0389557	9.066116	-5.3677826
1176778223942201	-1.7550507	8.785934	-5.2403564
1176778232334535	-0.66300964	8.86499	-5.156601
1176778240726869	0.34568787	9.187622	-5.069336
1176778249119203	0.86613464	9.417999	-5.023117
1176778257511537	2.2055511	9.3459015	-5.0941925
1176778265903871	3.6480713	9.579819	-4.3583374
1176778274296205	5.0659943	10.0896	-2.766388
1176778282688538	6.67482	10.456543	-0.83255005
1176778291080872	8.33815	10.684982	0.78253174
1176778299473206	9.630371	10.949295	1.508728
1176778307865540	10.022018	11.173935	1.4093323
1176778316257874	8.619751	10.2118225	-0.61235046
1176778324650208	6.002884	8.755615	-3.1608887
1176778333042542	3.4147644	7.3855743	-5.199585
1176778341434876	1.335846	6.6336975	-6.087021
1176778349827210	-0.26809692	6.626129	-5.6977386
1176778358219544	-1.1165009	6.7384033	-4.174713
1176778366611878	-1.4000397	6.5491943	-2.7487488
1176778375004212	-1.536377	6.166275	-2.0169067
1176778383396546	-1.1329803	5.6038055	-1.4200134
1176778391788880	-0.22523499	5.246338	-0.6372528
1176778400181214	0.76924133	5.580536	0.3173523
1176778408573548	0.99095154	6.9593353	1.117096
1176778416965882	0.017486572	8.477188	3.1090546
1176778425358216	-0.85466003	9.353027	4.6614532
1176778433750550	-1.4177856	9.7599945	5.7684784
1176778442142884	-1.8288422	9.989426	6.235092
1176778450535218	-2.364334	10.221939	5.532303
1176778458927552	-2.8490448	10.166122	2.8345947
1176778467319886	-3.214264	9.880493	-0.78967285
1176778475712220	-2.8683472	9.562454	-3.657364
1176778484104554	-1.9606934	9.158905	-5.4403534
1176778492496888	-0.7632141	8.664368	-5.5804443
1176778500889222	0.39753723	8.199387	-3.8806763
1176778509281556	1.4717865	8.095322	-1.3555603
1176778517673890	2.093811	8.451004	0.47381592
1176778526066224	2.5059967	8.865936	1.7392883
1176778534458558	2.6372833	9.126419	2.216751
1176778542850892	2.4671326	9.14209	1.8233185
1176778551243226	2.0584564	8.940094	0.72335815
1176778559635560	1.6568756	8.650848	-0.21795654
1176778568027894	1.5552979	8.460403	-0.5063324
1176778576420228	1.4085083	8.374619	-0.40856934
1176778584812562	1.2208099	8.342819	-0.17816162
1176778593204896	1.0607147	8.302124	0.02255249
1176778601597230	1.0023041	8.224182	0.16893005
1176778609989564	1.1089935	8.225174	0.2716217
1176778618381898	1.2180634	8.14949	0.54644775
1176778626774232	1.1873322	8.001175	0.8895111
1176778635166566	1.1386261	7.7974854	1.2988129
1176778643558900	1.1428986	7.5995483	1.7536163
1176778651951234	1.1851044	7.5147095	2.1919403
1176778660343568	1.2248688	7.638962	2.537857
1176778668735902	1.3874207	7.822296	2.6681519
1176778677128236	1.609375	8.056366	2.5298462
1176778685520570	1.72229	8.39949	2.0520935
1176778693912904	1.5956879	8.833588	1.1220093
1176778702305238	1.2187805	9.248428	-0.2856598
1176778710697572	0.69703674	9.522934	-1.661087
1176778719089906	0.48136902	9.695801	-1.958725
1176778727482240	0.5426636	9.696121	-0.96484375
1176778735874574	0.79803467	9.560318	0.6414337
1176778744266908	1.1099854	9.402283	2.0938568
1176778752659242	1.3741455	9.342682	2.983261
1176778761051576	1.7876434	9.41127	3.278473
1176778769443910	1.9376221	9.693985	2.9780579
1176778777836244	1.9011993	10.142395	2.4316711
1176778786228578	1.7706451	10.76178	1.8839111
1176778794620912	1.5544739	11.451309	1.5346527
1176778803013246	1.1683655	11.961472	1.5273895
1176778811405580	0.77519226	11.896286	1.9012146
1176778819797913	0.083465576	11.948898	2.1674957
1176778828190247	-0.6641846	12.017319	1.7139435
1176778836582581	-1.4334412	11.972763	0.9127197
1176778844974915	-2.0610504	11.718491	0.14328003
1176778853367249	-2.1742554	11.229813	-0.56622314
1176778861759583	-1.9704742	10.607574	-0.608963
1176778870151917	-1.531311	10.104904	-0.4107666
1176778878544251	-1.3488464	10.081085	-0.24290466
1176778886936585	-1.2194366	10.605835	-0.134552
1176778895328919	-0.8395386	11.515335	-0.111450195
1176778903721253	-0.16749573	12.44165	-0.2108612
1176778912113587	0.09414673	13.139709	0.0868988
1176778920505921	0.1401825	13.593735	0.79748535
1176778928898255	0.24116516	13.834625	1.292572
1176778937290589	0.42634583	13.867889	1.2618103
1176778945682923	0.6917267	13.700455	0.8944092
1176778954075257	1.0756531	13.324051	0.76737976
1176778962467591	1.1264343	12.582764	1.0578003
1176778970859925	1.4707031	11.960876	0.95448303
1176778979252259	2.0024872	11.547852	0.3250885
1176778987644593	2.581604	11.272247	-0.6368103
1176778996036927	3.048523	11.051193	-1.5216064
1176779004429261	3.2747345	10.921677	-1.8195496
1176779012821595	3.2355804	11.117508	-1.244751
1176779021213929	3.154663	11.340973	-0.06385803
1176779029606263	3.3318176	11.34668	1.350296
1176779037998597	3.9011383	11.174332	2.1394348
1176779046390931	4.715637	10.9813385	1.6573486
1176779054783265	5.279846	10.91983	0.15930176
1176779063175599	5.410858	10.98584	-0.77726746
1176779071567933	5.9551697	10.799362	-0.9197235
1176779079960267	6.9480286	10.236099	-0.7570343
1176779088352601	6.552536	10.200409	-0.6807251
1176779096744935	3.997467	10.935333	-0.7698517
1176779105137269	2.21315	10.662994	-0.6460724
1176779113529603	2.3835297	10.02652	-1.0358124
1176779121921937	1.627594	9.491409	-1.0386963
1176779130314271	0.9592438	9.255783	-0.68006897
1176779138706605	0.88179016	9.180191	-0.2255249
1176779147098939	1.2856293	9.064667	0.04371643
1176779155491273	1.3659363	8.916809	0.08189392
1176779163883607	1.0945587	8.760742	0.11470032
1176779172275941	0.72091675	8.402634	0.6168213
1176779180668275	0.29278564	8.058212	1.0025024
1176779189060609	0.031341553	7.625717	1.1708527
1176779197452943	0.108062744	6.9477234	1.1611023
1176779205845277	0.39682007	6.096176	0.77523804
1176779214237611	0.61517334	5.0454865	0.28367615
1176779222629945	0.8471222	3.9799194	-0.35412598
1176779231022279	1.1286469	3.035736	-1.0859375
1176779239414613	1.3797913	2.3316956	-1.7577972
1176779247806947	1.4505768	1.9506683	-2.1947632
1176779256199281	1.2084198	1.8895416	-2.3288116
1176779264591615	0.99494934	2.0178223	-2.3121643
1176779272983949	0.84114075	2.1996918	-2.3940125
1176779281376283	0.7332611	2.3648834	-2.5401306
1176779289768617	0.6198425	2.5192108	-2.662384
1176779298160951	0.5106201	2.652069	-2.7200623
1176779306553285	0.60266113	2.6138763	-2.8600922
1176779314945619	0.61979675	2.46492	-2.9761353
1176779323337953	0.53163147	2.2322235	-3.228363
1176779331730287	0.35565186	2.0188751	-3.5237885
1176779340122621	0.12965393	1.9107666	-3.7937775
1176779348514955	-0.09371948	1.9830627	-4.021652
1176779356907288	-0.27262878	2.3160553	-4.3069305
1176779365299622	-0.33947754	2.9708862	-4.624771
1176779373691956	-0.40907288	4.0281067	-4.904419
1176779382084290	-0.638855	5.7434235	-5.027008
1176779390476624	-0.9838257	8.372299	-4.9393616
1176779398868958	-1.2210236	12.290863	-4.6450043
1176779407261292	-0.96287537	18.43689	-4.162094
1176779415653626	1.0124817	25.840652	-2.895996
1176779424045960	2.897812	30.609467	-3.096756
1176779432438294	3.0035858	30.788437	-5.0963287
1176779440830628	1.0501709	25.748825	-7.441086
1176779449222962	-1.7831421	17.195984	-8.183762
1176779457615296	-2.9670105	11.49733	-7.691742
1176779466007630	-3.3912506	8.726059	-7.276886
1176779474399964	-3.718628	6.9309998	-6.9266815
1176779482792298	-3.8227234	5.6995697	-6.943329
1176779491184632	-3.5354767	5.071167	-7.3063965
1176779499576966	-2.7204895	5.332321	-7.485031
1176779507969300	-1.2066345	6.7453003	-6.1591797
1176779516361634	1.171524	9.189621	-3.7831268
1176779524753968	3.8104706	11.602982	-1.953476
1176779533146302	5.9161835	13.625809	0.10543823
1176779541538636	7.6558533	14.763336	2.7796173
1176779549930970	9.6323395	14.514435	5.5708313
1176779558323304	11.155899	12.670975	5.9605865
1176779566715638	10.379929	8.779419	3.5469208
1176779575107972	9.093506	5.959778	0.17407227
1176779583500306	7.2109375	4.848358	-3.0149384
1176779591892640	4.451294	4.9487457	-5.927231
1176779600284974	0.99386597	5.0946655	-8.230087
1176779608677308	-0.7499237	4.6779175	-5.0007324
1176779617069642	-1.4333496	5.3835144	-1.4395294
1176779625461976	-2.2034454	6.27417	-0.82344055
1176779633854310	-2.6881104	6.5934143	-1.2962952
1176779642246644	-2.4855194	6.3757324	-1.7146759
1176779650638978	-1.3837433	6.3790283	-1.9153442
1176779659031312	0.9174042	7.2088623	-2.065689
1176779667423646	2.843628	7.6352997	-1.5655823
1176779675815980	3.5039063	8.243408	0.63179016
1176779684208314	3.3139496	8.871979	3.6698303
1176779692600648	2.9791718	9.2638855	6.331894
1176779700992982	3.0512695	9.419693	7.912964
1176779709385316	2.975113	10.556107	10.458176
1176779717777650	0.9250488	11.708023	9.292404
1176779726169984	-0.34329224	11.932114	6.168167
1176779734562318	-0.6621094	11.402634	2.6664124
1176779742954652	-0.26133728	10.541107	-0.24909973
1176779751346986	0.50968933	9.817505	-2.469223
1176779759739320	0.7209015	9.705795	-4.8860626
1176779768131654	0.12791443	9.669846	-5.649658
1176779776523988	0.4406891	9.192535	-4.4494934
1176779784916322	1.4996948	8.469971	-2.4786835
1176779793308656	2.647644	7.787857	-0.76626587
1176779801700990	3.1174622	7.390381	0.32792664
1176779810093324	2.9050903	7.445221	1.1943054
1176779818485658	2.6985474	7.536438	1.9623108
1176779826877992	2.282608	7.624298	2.4510193
1176779835270326	1.7839966	7.677429	2.6037598
1176779843662660	1.3308563	7.642288	2.5852356
1176779852054994	1.0288391	7.4852905	2.636734
1176779860447328	1.3490295	7.479431	2.1246185
1176779868839662	1.2032166	7.785797	1.3463593
1176779877231996	0.9266815	8.085373	0.87480164
1176779885624330	0.5202637	8.327423	0.76986694
1176779894016663	0.10005188	8.473694	0.89167786
1176779902408997	-0.059799194	8.460205	1.0102081
1176779910801331	-0.0368042	8.3452	1.0431976
1176779919193665	-0.18829346	8.420776	0.8721771
1176779927585999	-0.541687	8.703812	0.4308319
1176779935978333	-1.0129852	9.06958	-0.23313904
1176779944370667	-1.467453	9.354584	-0.8851013
1176779952763001	-1.7561188	9.424744	-1.1297302
1176779961155335	-1.7104187	9.343521	-0.6676941
1176779969547669	-1.2747498	9.233871	0.053131104
1176779977940003	-0.4864502	9.201508	0.8385315
1176779986332337	0.294281	9.34404	1.4466705
1176779994724671	0.7222748	9.760574	1.6576691
1176780003117005	0.69628906	10.531876	1.3682251
1176780011509339	0.85035706	11.473206	0.99645996
1176780019901673	0.95350647	12.16539	1.4954071
1176780028294007	0.94177246	12.393677	2.220932
1176780036686341	0.9350281	12.181427	2.6260986
1176780045078675	0.8141632	11.715561	2.4804688
1176780053471009	0.15005493	11.298462	2.0334015
1176780061863343	-0.062454224	11.240692	1.3773193
1176780070255677	-0.4090271	11.327026	0.40124512
1176780078648011	-0.7003021	11.345245	-0.6569824
1176780087040345	-1.0072632	11.281708	-1.1108704
1176780095432679	-1.2384491	11.224915	-0.5404053
1176780103825013	-1.0021515	11.321732	0.761322
1176780112217347	-0.77223206	11.834076	1.0269012
1176780120609681	-0.6849365	12.332001	0.15670776
1176780129002015	-0.8557434	12.558884	-0.5693207
1176780137394349	-0.8709259	12.494202	-0.63046265
1176780145786683	-0.3960266	12.271835	-9.460449E-4
1176780154179017	0.38798523	12.128845	0.93888855
1176780162571351	0.4727173	12.216583	1.5101776
1176780170963685	0.43052673	12.414917	1.7340851
1176780179356019	0.45584106	12.34816	1.5794983
1176780187748353	0.7198334	12.11911	1.0845032
1176780196140687	1.2125244	11.976349	0.41830444
1176780204533021	1.5885773	12.07222	-0.11595154
1176780212925355	1.6188507	12.302628	-0.5377197
1176780221317689	2.585617	12.3111725	-0.87384033
1176780229710023	3.45018	12.34465	-0.64875793
1176780238102357	3.8091888	12.551498	0.15834045
1176780246494691	3.6614838	12.903366	1.4236298
1176780254887025	3.3425903	13.092133	3.0560455
1176780263279359	3.5801544	12.859528	3.8134766
1176780271671693	4.3737946	12.571579	3.0093994
1176780280064027	5.5967865	12.270447	1.4596405
1176780288456361	7.0555725	12.082443	-0.19090271
1176780296848695	8.456894	12.064346	-1.4835968
1176780305241029	9.39624	12.057388	-2.2092285
1176780313633363	8.801376	11.734482	-2.4913788
1176780322025697	5.759964	11.45636	-1.788559
1176780330418031	2.461563	10.923676	-0.56526184
1176780338810365	0.5897217	10.346878	0.28770447
1176780347202699	0.59680176	9.917221	0.39767456
1176780355595033	0.13459778	9.211472	1.2624512
1176780363987367	0.31278992	8.446533	1.5608368
1176780372379701	0.31596375	7.956253	1.2798767
1176780380772035	-0.033065796	7.511444	0.9836731
1176780389164369	-0.51226807	6.9653015	1.0463867
1176780397556703	-0.77911377	6.245758	1.5561218
1176780405949037	-0.7557373	5.3804016	2.1246033
1176780414341371	-0.65252686	4.387741	2.0517273
1176780422733705	-0.41055298	3.258316	1.6905365
1176780431126038	0.14735413	2.159729	0.9728699
1176780439518372	1.0523834	1.1894226	-0.02130127
1176780447910706	2.0926666	0.47338867	-1.0676575
1176780456303040	2.6304321	0.34118652	-1.7863159
1176780464695374	2.582199	0.8890991	-2.3183289
1176780473087708	2.429947	1.5411224	-2.5983276
1176780481480042	2.1929016	2.0223846	-2.561676
1176780489872376	1.8898926	2.2587433	-2.3921509
1176780498264710	1.5620575	2.2863617	-2.3644257
1176780506657044	1.2910461	2.0893555	-2.5964508
1176780515049378	1.0238495	1.7960815	-2.8918457
1176780523441712	0.7886963	1.4754944	-3.2393188
1176780531834046	0.64035034	1.1643066	-3.6115417
1176780540226380	0.596756	0.93818665	-4.008026
1176780548618714	0.65922546	0.9080353	-4.4165955
1176780557011048	0.7838135	1.1338654	-4.7456055
1176780565403382	0.9204407	1.8718872	-4.967209
1176780573795716	0.995636	3.197113	-5.198654
1176780582188050	0.59802246	5.0315704	-5.1252136
1176780590580384	-0.36102295	7.6821747	-4.719574
1176780598972718	-1.478363	12.007629	-4.1508026
1176780607365052	-1.3527374	19.803192	-3.5476074
1176780615757386	-0.34257507	29.890625	-1.3735199
1176780624149720	1.4309082	36.529785	-0.6039276
1176780632542054	1.2306213	36.05185	-2.897583
1176780640934388	-1.199295	28.329071	-6.612793
1176780649326722	-4.0581207	16.879883	-8.6011505
1176780657719056	-5.142929	9.597916	-8.25177
1176780666111390	-5.8005066	5.5924835	-8.657608
1176780674503724	-6.0138397	3.1517487	-10.266312
1176780682896058	-6.038208	2.2488098	-11.805069
1176780691288392	-5.1455994	2.769104	-11.743271
1176780699680726	-2.220871	4.4297028	-8.934769
1176780708073060	2.866684	7.125366	-3.87648
1176780716465394	6.8903656	10.401016	-0.21736145
1176780724857728	8.905655	13.42804	3.308731
1176780733250062	9.987076	15.439407	6.6773834
1176780741642396	10.574402	15.61438	8.736496
1176780750034730	10.565567	13.39418	8.014481
1176780758427064	9.724991	8.942505	4.3893433
1176780766819398	9.210968	6.212097	-0.37850952
1176780775211732	7.5096436	5.792038	-5.9142914
1176780783604066	4.113037	6.144409	-9.26355
1176780791996400	0.4281006	6.2678833	-8.487595
1176780800388734	-1.5179901	6.0889893	-3.7051086
1176780808781068	-2.6186829	6.885605	0.012710571
1176780817173402	-3.17984	7.4019012	0.6344147
1176780825565736	-3.3334808	7.2308197	0.20396423
1176780833958070	-2.626358	6.759369	-0.3022461
1176780842350404	-1.1249847	6.2775574	-0.6524048
1176780850742738	0.7232666	5.8700104	-0.9851074
1176780859135072	2.5982666	5.375534	-0.67245483
1176780867527406	3.1363678	6.2156525	1.8223877
1176780875919740	4.0255737	6.933853	4.7073517
1176780884312074	4.4904633	7.595642	6.982193
1176780892704408	4.128006	8.393417	8.234238
1176780901096742	3.1525574	9.382935	8.663437
1176780909489076	1.989914	10.375778	9.704529
1176780917881410	0.70758057	11.069717	8.391464
1176780926273744	0.05101013	11.10527	5.285858
1176780934666078	-0.21905518	11.013489	1.9534912
1176780943058412	-0.65600586	11.169983	-1.6798096
1176780951450746	-1.7852631	11.563416	-6.6319275
1176780959843080	-3.3982086	11.358994	-11.697586
1176780968235413	-1.9726715	9.790222	-8.306885
1176780976627747	0.08491516	8.423813	-3.616806
1176780985020081	1.4617004	7.6694183	0.14768982
1176780993412415	1.7305756	7.460724	2.3679657
1176781001804749	1.1960144	7.5081635	3.189865
1176781010197083	0.8227997	7.7232513	3.1761322
1176781018589417	0.6067505	7.7080536	2.812271
1176781026981751	0.8257446	7.623749	2.3117218
1176781035374085	1.1049042	7.498184	1.9447632
1176781043766419	1.2583618	7.3868713	1.736023
1176781052158753	1.3533173	7.386139	1.4951477
1176781060551087	1.1883087	7.588684	1.242218
1176781068943421	0.95166016	7.897217	1.0713043
1176781077335755	0.7651062	8.2261505	0.968277
1176781085728089	0.60580444	8.462311	0.9191284
1176781094120423	0.44558716	8.589859	0.7983093
1176781102512757	0.24928284	8.712296	0.34960938
1176781110905091	-0.25506592	9.042297	-0.91719055
1176781119297425	-0.5934143	9.284149	-1.7360382
1176781127689759	-0.5388794	9.314209	-1.2714539
1176781136082093	-0.43016052	9.204071	-0.106414795
1176781144474427	-0.41285706	9.054779	1.1397095
1176781152866761	-0.27742004	8.961197	2.1596222
1176781161259095	0.30108643	9.0914	2.7838593
1176781169651429	0.6486664	9.635345	2.703064
1176781178043763	0.8231201	10.499283	1.9080963
1176781186436097	0.8922882	11.488831	1.099472
1176781194828431	0.8814392	12.36496	1.0274353
1176781203220765	0.7278595	12.887344	2.0782013
1176781211613099	0.047958374	12.668671	3.2063904
1176781220005433	-0.5704651	11.995377	3.075943
1176781228397767	-0.9028015	11.583801	2.1401825
1176781236790101	-0.9771881	11.500961	0.91703796
1176781245182435	-0.95817566	11.602509	-0.24053955
1176781253574769	-1.0404053	11.690155	-1.2133179
1176781261967103	-0.84458923	11.691147	-1.3703766
1176781270359437	-0.539978	11.665573	-0.17224121
1176781278751771	-0.16265869	11.70015	0.94610596
1176781287144105	0.3404541	11.775299	1.0219879
1176781295536439	0.82406616	11.850845	-0.001373291
1176781303928773	0.8919678	11.902832	-1.1074066
1176781312321107	0.3621521	11.942581	-0.4503479
1176781320713441	0.47235107	11.932388	0.7759094
1176781329105775	0.9614563	11.960068	1.4180603
1176781337498109	1.3867035	12.109589	1.3646698
1176781345890443	1.5431213	12.325775	0.8693085
1176781354282777	1.6612549	12.379303	0.28131104
1176781362675111	1.809372	12.406128	0.019882202
1176781371067445	1.9247742	12.251007	-0.11239624
1176781379459779	2.6653748	12.025406	-0.3804779
1176781387852113	3.768982	11.839676	-0.53178406
1176781396244447	4.5416718	11.900696	-0.26083374
1176781404636781	4.2274323	12.507797	0.5310364
1176781413029115	3.7249146	13.346298	1.7623596
1176781421421449	3.6543732	13.636093	2.7076569
1176781429813783	4.4583282	13.391876	2.8526917
1176781438206117	5.762787	12.804031	1.9418182
1176781446598451	7.0456696	12.182144	0.16947937
1176781454990785	8.0265045	11.892502	-1.7034302
1176781463383119	8.503082	11.8546295	-2.9367218
1176781471775453	8.224686	11.4999695	-2.6096344
1176781480167787	6.8428497	11.089218	-1.9086609
1176781488560121	4.4801025	10.672546	-1.0778503
1176781496952455	1.8831177	10.246887	-0.21328735
1176781505344788	0.019577026	9.853119	0.28019714
1176781513737122	0.19606018	9.299759	0.39485168
1176781522129456	0.49650574	8.862473	0.8589325
1176781530521790	0.5453644	8.568237	0.7879791
1176781538914124	0.32434082	8.328033	0.5603485
1176781547306458	-0.019760132	7.9839325	0.75283813
1176781555698792	-0.31484985	7.3520966	1.2944183
1176781564091126	-0.5166321	6.3819427	1.6751251
1176781572483460	-0.38139343	5.377304	1.7420807
1176781580875794	-0.26219177	4.383026	1.607132
1176781589268128	0.05441284	3.2637634	1.2543793
1176781597660462	0.7811737	1.954071	0.6641083
1176781606052796	1.6052094	0.6926727	-0.078430176
1176781614445130	1.9580688	-0.16017151	-0.9720154
1176781622837464	2.1717834	-0.48114014	-1.9555206
1176781631229798	1.7764893	-0.1386261	-2.813034
1176781639622132	0.9881592	0.646286	-3.3353424
1176781648014466	0.34075928	1.4294739	-3.4493713
1176781656406800	2.1362305E-4	1.9499207	-3.2665863
1176781664799134	-0.071777344	2.1315765	-3.0757904
1176781673191468	-0.23683167	2.0452728	-2.8491516
1176781681583802	-0.35873413	1.8200073	-2.6965027
1176781689976136	-0.4262848	1.5966644	-2.6968079
1176781698368470	-0.48121643	1.4765625	-2.931549
1176781706760804	-0.5007477	1.4443359	-3.5475922
1176781715153138	-0.34251404	1.5660706	-4.6092987
1176781723545472	-0.11828613	1.9884796	-5.4406586
1176781731937806	0.05166626	2.8842468	-5.658371
1176781740330140	-0.04600525	4.3860474	-5.0961304
1176781748722474	-0.48999023	6.549225	-3.8240662
1176781757114808	-0.8697052	9.350357	-2.1769867
1176781765507142	-0.56196594	14.887772	-0.5540619
1176781773899476	0.55444336	24.888428	0.07369995
1176781782291810	3.343811	34.199265	-2.8535614
1176781790684144	5.484085	37.71663	-8.404556
1176781799076478	3.8945923	32.64444	-12.645096
1176781807468812	0.45547485	18.865967	-12.581085
1176781815861146	-1.9446106	10.589172	-10.486847
1176781824253480	-3.609192	5.929428	-8.354675
1176781832645814	-4.4888916	3.2789001	-7.198044
1176781841038148	-4.5194244	2.1322784	-7.1591034
1176781849430482	-3.692459	2.6060944	-7.52919
1176781857822816	-1.6239471	5.1389313	-7.557419
1176781866215150	1.6114655	9.616898	-6.3449554
1176781874607484	5.092972	14.203644	-3.9689026
1176781882999818	7.662323	17.437714	1.8736572
1176781891392152	9.649567	18.236465	8.905823
1176781899784486	11.76033	15.972305	12.07692
1176781908176820	12.055542	10.582794	8.228119
1176781916569154	8.840225	6.644684	1.6109467
1176781924961488	5.9229736	4.415497	-3.5115204
1176781933353822	3.8242645	3.1709747	-5.615799
1176781941746156	2.5355225	2.6336823	-5.0967407
1176781950138490	1.8061218	2.9780426	-3.829193
1176781958530824	1.3484955	4.579239	-4.368561
1176781966923158	-0.5855713	5.907593	-5.350586
1176781975315492	-2.0087433	5.9443817	-3.509262
1176781983707826	-2.4138336	5.6992188	-1.4154205
1176781992100160	-1.5521393	6.0364227	-0.457901
1176782000492494	0.22189331	7.159149	-0.098526
1176782008884828	1.3963776	8.125244	0.65122986
1176782017277162	2.2658844	8.614487	2.7181091
1176782025669496	2.9282837	9.226532	5.9259186
1176782034061830	3.012497	10.164246	9.15506
1176782042454163	2.1053925	11.316818	10.926285
1176782050846497	0.12338257	12.254623	10.092712
1176782059238831	-1.2306519	11.871094	6.8804474
1176782067631165	-1.3547363	10.5516815	4.0010986
1176782076023499	-0.9026184	9.321213	2.2237701
1176782084415833	-0.20721436	8.709946	0.6138611
1176782092808167	0.2146759	8.87738	-2.2627106
1176782101200501	-0.24586487	9.661804	-7.3550262
1176782109592835	-1.1411743	9.787415	-10.410843
1176782117985169	-0.59706116	9.215118	-6.418335
1176782126377503	0.35935974	8.641449	-2.4821777
1176782134769837	1.0506897	8.213593	0.057891846
1176782143162171	1.1388397	8.024689	1.1649323
1176782151554505	0.8300171	8.118668	1.4837036
1176782159946839	0.5904541	8.243912	1.656662
1176782168339173	0.40951538	8.212357	1.9555969
1176782176731507	0.5160675	8.074326	2.1507263
1176782185123841	0.73817444	7.8362427	2.1519623
1176782193516175	0.93478394	7.5562134	2.0133514
1176782201908509	1.1475067	7.3443604	1.9083252
1176782210300843	1.425766	7.2398987	1.7306366
1176782218693177	1.6020508	7.3244324	1.4945374
1176782227085511	1.6157684	7.5065613	1.2592926
1176782235477845	1.5028076	7.7200775	1.0274048
1176782243870179	1.3345947	7.9009857	0.81581116
1176782252262513	1.1835175	7.988632	0.6450043
1176782260654847	0.9971771	7.9915314	0.2810669
1176782269047181	0.6722107	8.11615	-0.39118958
1176782277439515	0.47055054	8.332169	-1.1369171
1176782285831849	0.5448303	8.471634	-1.2134705
1176782294224183	0.7908478	8.461212	-0.40753174
1176782302616517	0.897995	8.402145	0.6887665
1176782311008851	0.9306946	8.433853	1.5241699
1176782319401185	1.086441	8.696869	1.9704285
1176782327793519	1.2898712	9.231918	1.9387054
1176782336185853	1.5397034	10.019852	1.6304626
1176782344578187	1.8075867	10.9767	1.4242249
1176782352970521	1.9636841	11.895721	1.7674713
1176782361362855	1.3802185	12.325134	2.5666504
1176782369755189	0.6946564	12.1298065	3.1784668
1176782378147523	-0.09820557	11.604599	3.0747986
1176782386539857	-0.72314453	11.142532	2.1211243
1176782394932191	-1.1339874	11.044189	0.56781006
1176782403324525	-1.7138672	11.330383	-1.0969696
1176782411716859	-2.3261414	11.617538	-1.611908
1176782420109193	-2.5411224	11.877869	-0.7533417
1176782428501527	-2.6499634	12.232101	0.85453796
1176782436893861	-2.6124268	12.684677	1.8302612
1176782445286195	-2.3705444	13.053864	1.3625488
1176782453678529	-2.0157776	13.025711	0.0868988
1176782462070863	-1.5068512	13.070435	-0.17054749
1176782470463197	-0.832428	13.255447	0.18598938
1176782478855531	0.19883728	13.367004	0.42048645
1176782487247865	1.0116425	13.605606	0.72465515
1176782495640199	1.1594086	14.077515	1.386261
1176782504032533	0.95962524	14.424393	2.2152252
1176782512424867	1.4960175	13.739456	1.7496185
1176782520817201	2.7350616	12.898682	0.5409851
1176782529209535	4.1526184	12.387268	-0.6346741
1176782537601869	5.5285645	12.189316	-1.4444275
1176782545994203	6.615509	12.1440735	-1.6263733
1176782554386537	6.988373	12.132446	-0.9368439
1176782562778871	6.6942596	12.276016	0.3393402
1176782571171205	6.2836914	12.600769	1.6012268
1176782579563538	5.9492493	12.592072	2.5004578
1176782587955872	5.9953766	12.080383	2.7340546
1176782596348206	6.5647736	11.3029175	2.194931
1176782604740540	7.437134	10.809555	0.9679413
1176782613132874	7.8518066	10.813446	-0.58465576
1176782621525208	7.64122	11.009827	-1.7095795
1176782629917542	5.7956696	11.648331	-2.0528107
1176782638309876	3.2259521	12.214905	-1.6927795
1176782646702210	1.3946533	12.110245	-1.0251312
1176782655094544	0.48550415	11.447372	-0.45861816
1176782663486878	0.35816956	10.916779	-1.2520905
1176782671879212	-0.09011841	10.63356	-0.75146484
1176782680271546	-0.31318665	10.212585	-0.107421875
1176782688663880	-0.10913086	9.490189	0.27134705
1176782697056214	0.35957336	8.481354	0.49749756
1176782705448548	0.5573883	7.3640747	0.92193604
1176782713840882	-0.031326294	6.526062	2.0906067
1176782722233216	-0.19848633	5.6794586	2.7322845
1176782730625550	0.05848694	4.7266846	2.7074738
1176782739017884	0.5940552	3.6636047	2.221115
1176782747410218	1.1794586	2.5621033	1.6943665
1176782755802552	1.710846	1.5182495	1.3703308
1176782764194886	2.1109467	0.573761	0.67007446
1176782772587220	2.5070953	-0.13317871	-0.25382996
1176782780979554	2.4842834	-0.19113159	-1.3603363
1176782789371888	2.0243835	0.45336914	-2.4962463
1176782797764222	1.4410095	1.4632416	-3.4316406
1176782806156556	1.0263519	2.3179169	-3.8988953
1176782814548890	0.68014526	2.7488708	-3.6218567
1176782822941224	0.42962646	2.7995605	-3.1741943
1176782831333558	0.34831238	2.6622162	-2.835373
1176782839725892	0.31715393	2.4454193	-2.7204437
1176782848118226	0.14593506	2.1983948	-2.814392
1176782856510560	-0.12857056	2.0153809	-3.1346436
1176782864902894	-0.306839	1.9449005	-3.643219
1176782873295228	-0.3301239	1.9651031	-4.277069
1176782881687562	-0.18457031	2.0581512	-5.003189
1176782890079896	0.06488037	2.3108826	-5.613083
1176782898472230	0.2680664	2.945343	-5.7754364
1176782906864564	0.26309204	4.3727417	-5.3400574
1176782915256898	-0.17831421	6.954193	-4.583893
1176782923649232	-0.8079376	10.889984	-3.603012
1176782932041566	-0.78170776	17.09343	-2.8768158
1176782940433900	0.06764221	25.103394	-2.017929
1176782948826234	1.4359894	32.868683	-0.49598694
1176782957218568	4.1598053	37.975327	-0.08921814
1176782965610902	4.374954	30.998459	-5.6558075
1176782974003236	1.4710999	20.78012	-10.226959
1176782982395570	-1.4612122	12.107864	-11.690689
1176782990787904	-3.376297	6.6901703	-10.588745
1176782999180238	-5.1786957	3.570694	-8.946487
1176783007572572	-6.3049164	1.6105042	-8.381897
1176783015964906	-6.3489227	1.0796661	-9.197845
1176783024357240	-4.34758	2.3272858	-9.679245
1176783032749574	-1.0223694	5.1578217	-8.531326
1176783041141908	2.7671509	9.28093	-5.764496
1176783049534242	6.192444	13.989426	-2.1679077
1176783057926576	8.786652	17.75711	4.9666595
1176783066318910	12.30188	18.82399	11.549255
1176783074711244	14.726532	16.154816	11.094986
1176783083103578	14.609451	11.429977	5.728821
1176783091495912	11.826294	7.0951385	-0.63560486
1176783099888246	7.312149	5.5370483	-4.236252
1176783108280580	2.6620483	5.86705	-6.333969
1176783116672913	-0.8746033	5.5392303	-5.7475586
1176783125065247	-2.2871246	5.0596313	-4.137619
1176783133457581	-2.4895782	5.0357666	-3.2524567
1176783141849915	-2.5237427	5.437027	-3.0989227
1176783150242249	-2.9528809	5.5516663	-1.9694366
1176783158634583	-2.1278534	5.3319855	-0.29551697
1176783167026917	-0.14402771	5.072693	0.0025634766
1176783175419251	0.6153259	5.951996	1.3170624
1176783183811585	1.2797852	7.0586395	3.3740845
1176783192203919	2.68544	7.6808014	5.4902496
1176783200596253	4.162842	8.09346	7.1510925
1176783208988587	4.172806	8.8940735	7.3046417
1176783217380921	3.8046265	9.93515	7.703949
1176783225773255	2.6567993	10.967697	7.6448975
1176783234165589	1.0612793	11.375229	6.473572
1176783242557923	-0.24743652	10.8606415	4.235016
1176783250950257	-0.23918152	9.797043	2.0207214
1176783259342591	0.43978882	9.404221	0.5930176
1176783267734925	0.85639954	9.658005	-1.0215607
1176783276127259	0.26672363	10.262558	-3.9557953
1176783284519593	-0.8232727	10.469635	-6.3719482
1176783292911927	-1.3590698	9.834045	-6.3987885
1176783301304261	-0.030136108	8.603378	-3.3384552
1176783309696595	1.5135651	7.8936615	-0.39120483
1176783318088929	2.1107788	7.7178955	1.5895844
1176783326481263	1.9446106	7.85672	2.767868
1176783334873597	1.2968445	8.00293	3.1565094
1176783343265931	0.7342529	7.9716187	2.9460754
1176783351658265	0.8523102	7.8406525	2.4496613
1176783360050599	1.1177216	7.6378784	2.0828857
1176783368442933	1.2332764	7.54126	1.9152374
1176783376835267	1.351532	7.4826508	1.8085175
1176783385227601	1.4037323	7.527008	1.7241974
1176783393619935	1.2750854	7.6807556	1.657898
1176783402012269	0.93829346	7.790741	1.6078644
1176783410404603	0.716629	7.7390594	1.3126373
1176783418796937	0.32714844	7.8756104	0.76408386
1176783427189271	-0.20713806	8.258972	-0.19970703
1176783435581605	-0.73609924	8.803833	-1.3637543
1176783443973939	-1.0484009	9.345093	-2.0917358
1176783452366273	-0.9341583	9.631027	-1.2410889
1176783460758607	-1.0842438	9.575363	0.080947876
1176783469150941	-1.0573273	9.289246	1.2885742
1176783477543275	-0.4312439	9.044495	2.1218567
1176783485935609	0.33622742	9.145142	2.3529358
1176783494327943	0.76052856	9.775757	1.8171997
1176783502720277	0.8925171	10.755051	0.6524658
1176783511112611	0.8309021	11.686432	0.6484833
1176783519504945	0.9543457	12.352661	1.6683197
1176783527897279	0.4071808	12.542816	2.7370605
1176783536289613	-0.46244812	12.1983185	3.0211334
1176783544681947	-1.0077667	11.599442	2.2632294
1176783553074281	-1.1163025	11.336136	0.94003296
1176783561466615	-1.2653961	11.39975	-0.19810486
1176783569858949	-1.4876862	11.487762	-0.7701874
1176783578251283	-1.6693726	11.46756	-0.5982666
1176783586643617	-1.7414246	11.40863	-0.117874146
1176783595035951	-1.735321	11.450775	0.25386047
1176783603428285	-1.9005585	11.710236	0.69633484
1176783611820619	-1.6095428	12.177246	0.13131714
1176783620212953	-0.92822266	12.589584	-0.35032654
1176783628605287	-0.1927948	12.7146	0.032073975
1176783636997621	0.45228577	12.607849	0.9031067
1176783645389955	0.979126	12.416641	1.4768066
1176783653782288	1.4637146	12.247177	1.0922852
1176783662174622	1.9376221	12.517242	0.9329834
1176783670566956	2.164322	12.762573	0.86250305
1176783678959290	2.3902588	12.809433	0.52137756
1176783687351624	2.7488098	12.70285	0.13121033
1176783695743958	3.3276215	12.589874	0.011108398
1176783704136292	4.276413	12.490265	-0.30482483
1176783712528626	5.361038	12.254837	-0.19952393
1176783720920960	5.7801666	12.241409	0.49674988
1176783729313294	5.6771545	12.700241	1.5230865
1176783737705628	5.328659	13.364319	2.5071259
1176783746097962	5.171707	13.660339	2.967804
1176783754490296	5.814514	13.107925	2.3260193
1176783762882630	7.247513	12.127457	0.5107422
1176783771274964	8.209778	11.485504	-1.2266235
1176783779667298	8.606918	11.356934	-2.3094482
1176783788059632	8.472885	11.542145	-2.612915
1176783796451966	7.8024445	11.678467	-2.2207184
1176783804844300	6.513214	11.512466	-1.3638763
1176783813236634	4.07695	10.728348	-0.58618164
1176783821628968	2.2830963	10.138565	-0.48065186
1176783830021302	0.63520813	9.914902	-0.37986755
1176783838413636	-0.81755066	9.880173	-0.008102417
1176783846805970	-1.5923309	9.68959	0.5122833
1176783855198304	-1.2457886	9.111389	0.5833435
1176783863590638	-1.0974426	8.3129425	0.9754181
1176783871982972	-1.1913147	7.523468	1.888504
1176783880375306	-1.3592072	6.6099396	2.6183167
1176783888767640	-1.3142853	5.581787	2.8237305
1176783897159974	-0.84776306	4.5689697	2.4929352
1176783905552308	-0.3328247	3.6753693	1.7112885
1176783913944642	0.66223145	2.7648926	0.86187744
1176783922336976	1.8229523	1.8569946	0.020324707
1176783930729310	2.4539185	1.0786285	-0.61598206
1176783939121644	2.5548096	0.51257324	-1.030777
1176783947513978	2.4948883	0.26423645	-1.3871307
1176783955906312	1.9938965	0.7274475	-1.9934845
1176783964298646	1.5833893	1.5123749	-2.5308075
1176783972690980	1.1574249	2.233139	-2.7740326
1176783981083314	0.8801117	2.6780853	-2.769989
1176783989475648	0.7910919	2.8020782	-2.6771698
1176783997867982	0.8110199	2.6900177	-2.6638947
1176784006260316	0.8661804	2.393097	-2.7301025
1176784014652650	0.94499207	2.0700989	-3.1119537
1176784023044984	1.0466461	1.7714081	-3.7682648
1176784031437318	1.1380005	1.5210724	-4.6226807
1176784039829652	1.2718658	1.3514099	-5.5456543
1176784048221986	1.5237732	1.3125458	-6.345093
1176784056614320	1.7184448	1.5296173	-6.693573
1176784065006654	1.565979	2.596161	-6.608139
1176784073398988	1.0086365	4.728012	-6.1589813
1176784081791322	0.021560669	8.200897	-5.005417
1176784090183656	-0.7033386	13.569565	-3.5214386
1176784098575990	-0.08892822	21.266312	-2.560913
1176784106968324	1.994812	30.522095	-1.7240753
1176784115360658	3.42276	36.970825	0.5280762
1176784123752992	2.8119812	34.064514	-2.5451355
1176784132145326	0.4875946	24.548508	-7.681366
1176784140537660	-2.1874847	13.767654	-11.156723
1176784148929994	-3.5988312	6.8285675	-11.324951
1176784157322328	-4.828598	2.7099	-10.834442
1176784165714662	-5.900833	0.38693237	-11.202393
1176784174106996	-6.3635864	-0.036956787	-12.035553
1176784182499330	-5.4862366	1.3329163	-12.559219
1176784190891663	-2.9107513	4.072357	-11.403351
1176784199283997	1.1648254	7.6652527	-7.30484
1176784207676331	5.811157	12.599457	-3.3028412
1176784216068665	9.027039	17.510849	3.012848
1176784224460999	11.780258	20.154877	9.245361
1176784232853333	14.315155	18.886536	12.156815
1176784241245667	14.635895	14.140411	9.915039
1176784249638001	9.602615	8.703766	3.0095215
1176784258030335	5.0669403	6.556381	-5.0277863
1176784266422669	2.859558	4.3719788	-6.7652283
1176784274815003	1.4115906	3.000351	-5.442276
1176784283207337	-0.25627136	3.2263641	-3.5412292
1176784291599671	-2.4692078	4.8844604	-2.496704
1176784299992005	-4.7718964	6.6051483	-2.5483856
1176784308384339	-4.7579803	6.4292145	-2.1408234
1176784316776673	-4.1298523	6.347046	-1.1509094
1176784325169007	-2.3412018	6.880707	0.047973633
1176784333561341	-0.30516052	7.5313873	1.0359497
1176784341953675	1.3687286	7.655182	1.6043701
1176784350346009	2.9246979	6.976837	2.0326843
1176784358738343	3.086731	7.3575287	4.779129
1176784367130677	3.391449	7.965851	7.012924
1176784375523011	3.2923584	9.331848	8.967209
1176784383915345	2.24617	10.727737	9.114197
1176784392307679	0.6398468	11.4118805	7.052994
1176784400700013	0.079055786	11.201523	4.6375732
1176784409092347	1.0758514	10.509323	3.1135712
1176784417484681	1.9110718	10.135635	1.6252747
1176784425877015	2.1346283	10.108582	-0.4649048
1176784434269349	1.4997406	10.458588	-4.5663605
1176784442661683	0.416214	10.84996	-9.146011
1176784451054017	0.0953064	10.456863	-8.437973
1176784459446351	0.7826996	9.386581	-4.0158844
1176784467838685	1.6498413	8.420029	-0.97047424
1176784476231019	1.7734833	7.8049316	0.74928284
1176784484623353	1.3001709	7.4710083	1.6316528
1176784493015687	0.73065186	7.2558594	2.0924072
1176784501408021	0.49479675	7.0301514	2.2555237
1176784509800355	0.44892883	6.868637	2.1229095
1176784518192689	0.57870483	6.7997437	2.0994415
1176784526585023	0.9208679	6.758484	2.1385345
1176784534977357	1.2751465	6.803955	2.099701
1176784543369691	1.3454285	7.0748596	1.8804474
1176784551762025	0.9734802	7.7015533	1.5886688
1176784560154359	0.64349365	8.263901	1.4461212
1176784568546693	0.62008667	8.52655	1.4099274
1176784576939027	0.6846161	8.6076355	1.1888885
1176784585331361	0.53131104	8.660675	0.4962616
1176784593723695	0.05682373	8.791962	-0.7378235
1176784602116029	-0.44081116	8.994934	-2.2400818
1176784610508363	-0.20426941	9.102997	-1.5645294
1176784618900697	0.107299805	9.316589	-0.3163147
1176784627293031	0.011230469	9.6362	0.54055786
1176784635685365	-0.263031	9.880234	0.95732117
1176784644077699	-0.23060608	9.876389	1.2249908
1176784652470033	0.56277466	9.574051	1.4186401
1176784660862367	1.3546753	9.529114	1.0471954
1176784669254701	1.4276581	10.045578	0.24223328
1176784677647035	1.3522491	10.788498	0.05883789
1176784686039369	1.1997986	11.436462	0.8517151
1176784694431703	0.8020935	11.794998	2.2493591
1176784702824037	0.12884521	11.913818	3.1064148
1176784711216371	-0.4934082	11.718994	2.5279236
1176784719608705	-0.7971344	11.389221	1.4548645
1176784728001038	-1.0904388	11.106323	0.13298035
1176784736393372	-1.431961	10.909561	-1.0777588
1176784744785706	-1.6940155	10.795578	-1.5860596
1176784753178040	-1.6471558	10.848434	-0.54914856
1176784761570374	-1.3861084	11.494034	1.0863495
1176784769962708	-1.0475159	12.525085	1.5477753
1176784778355042	-0.89245605	13.463959	0.5861511
1176784786747376	-0.8029175	13.930405	-0.70809937
1176784795139710	-0.46928406	13.741852	-0.99861145
1176784803532044	0.36351013	12.993027	0.12315369
1176784811924378	1.361557	12.297974	0.70433044
1176784820316712	2.057022	12.114975	0.83070374
1176784828709046	2.4654999	12.4592285	0.72232056
1176784837101380	2.755371	12.968277	0.06304932
1176784845493714	3.1137848	13.269119	-1.3233337
1176784853886048	3.5048523	13.690735	-2.377365
1176784862278382	3.2968292	14.181229	-1.7883606
1176784870670716	3.5362701	14.306183	-0.7080078
1176784879063050	3.9770355	14.149475	0.7224121
1176784887455384	4.3472137	13.977661	2.374115
1176784895847718	4.4721985	13.94603	3.861969
1176784904240052	4.335602	13.504349	4.158081
1176784912632386	5.1867523	12.526794	2.3521729
1176784921024720	6.503433	11.844589	-0.20359802
1176784929417054	7.4475555	11.606277	-2.4330444
1176784937809388	7.6873627	11.730759	-3.5691833
1176784946201722	7.3029175	11.969254	-3.4106293
1176784954594056	6.0276184	12.06369	-2.2029114
1176784962986390	3.3551788	11.7323	-1.0104675
1176784971378724	1.3861237	11.317795	-0.010528564
1176784979771058	-0.2592163	10.692505	0.6641693
1176784988163392	-1.1391907	9.951889	0.8738556
1176784996555726	-0.6578064	9.300919	0.7003784
1176785004948060	-0.217453	8.769119	1.1934204
1176785013340394	0.12687683	8.217499	1.41539
1176785021732728	-0.019515991	7.5995636	1.3625488
1176785030125062	-0.15141296	6.8392334	1.1997375
1176785038517396	-0.062072754	5.95105	1.2436371
1176785046909730	0.12214661	5.008423	1.7046661
1176785055302064	0.51919556	3.9391327	2.0905457
1176785063694398	1.0604401	2.9336853	2.0244904
1176785072086732	1.439148	1.9673157	1.771225
1176785080479066	1.876297	1.08461	1.3951111
1176785088871400	2.4022827	0.3544922	0.78222656
1176785097263734	2.7804718	-0.09889221	-0.25746155
1176785105656068	2.5766907	0.0362854	-1.5327759
1176785114048402	2.0958405	0.6625061	-2.5364227
1176785122440736	1.4989471	1.39534	-2.9803772
1176785130833070	1.0859985	2.0117035	-2.9477844
1176785139225404	0.9764252	2.387268	-2.6708832
1176785147617738	1.0228271	2.537674	-2.4345093
1176785156010072	1.0354767	2.4977722	-2.416977
1176785164402406	0.9130554	2.3260803	-2.6591492
1176785172794740	0.80010986	2.1040344	-3.2499542
1176785181187074	0.7575989	1.9129486	-4.0328827
1176785189579408	0.7857208	1.8293152	-4.729233
1176785197971742	0.8486328	1.9341278	-5.0910797
1176785206364076	0.9211731	2.6023712	-4.9929657
1176785214756410	0.7347107	4.009201	-4.7367706
1176785223148744	0.2791748	6.1407623	-4.4785004
1176785231541078	-0.33840942	9.00032	-3.8435974
1176785239933412	-0.7949524	12.812759	-2.6867218
1176785248325746	-0.575943	18.177734	-1.3344116
1176785256718080	1.1010437	26.595566	-0.68933105
1176785265110413	3.5832214	34.582184	-0.51683044
1176785273502747	4.402313	34.63159	-3.236786
1176785281895081	2.858139	27.368393	-8.761276
1176785290287415	-0.026626587	16.686188	-14.23613
1176785298679749	-1.5793152	9.144623	-14.394241
1176785307072083	-2.9313965	5.2937775	-12.415298
1176785315464417	-4.497284	3.1196747	-10.285904
1176785323856751	-6.1533966	2.5868835	-8.933243
1176785332249085	-6.7137604	3.793045	-8.040604
1176785340641419	-5.169235	6.616272	-6.783905
1176785349033753	-1.2314911	10.775787	-4.391403
1176785357426087	3.9587708	15.514389	-1.0847015
1176785365818421	7.240341	18.59288	4.8105927
1176785374210755	9.86824	19.073502	10.122604
1176785382603089	11.500137	16.216599	11.764175
1176785390995423	11.046478	11.025436	8.56192
1176785399387757	7.7623444	6.534012	2.5601807
1176785407780091	5.5427094	4.138443	-3.35318
1176785416172425	4.037262	2.4929047	-6.172653
1176785424564759	2.6807709	1.6292114	-5.8929443
1176785432957093	1.4239502	1.7572784	-4.6194305
1176785441349427	0.27520752	2.975235	-3.8932648
1176785449741761	-0.88978577	4.903427	-3.8295898
1176785458134095	-1.9813232	5.8420715	-2.9073944
1176785466526429	-2.2049713	6.377655	-1.6685791
1176785474918763	-0.848938	6.801819	-0.5660095
1176785483311097	1.1151123	7.221161	0.22024536
1176785491703431	2.5959778	7.661392	0.88298035
1176785500095765	3.0471954	8.152405	2.0596466
1176785508488099	3.1624908	9.0321045	4.277298
1176785516880433	3.548523	9.33606	6.0633698
1176785525272767	3.585373	9.792465	7.7667084
1176785533665101	3.1363678	10.846191	10.124481
1176785542057435	1.9575653	12.174057	12.034256
1176785550449769	-0.47631836	12.648163	10.07663
1176785558842103	-0.85006714	11.484177	5.3520813
1176785567234437	-0.95718384	10.579987	1.841156
1176785575626771	-1.7871399	10.360321	-2.8539886
1176785584019105	-3.520874	10.528442	-8.476791
1176785592411439	-4.989853	10.409973	-11.799545
1176785600803773	-3.330307	9.239731	-6.557541
1176785609196107	-0.17373657	8.133041	-1.8864899
1176785617588441	1.5348053	7.417679	0.81987
1176785625980775	1.7342377	7.180893	2.004959
1176785634373109	1.3259888	7.2875977	2.2724304
1176785642765443	1.191925	7.4859467	2.1792755
1176785651157777	1.3435516	7.48732	2.0502777
1176785659550111	1.537262	7.3481293	2.095047
1176785667942445	1.6208191	7.28244	2.1869202
1176785676334779	1.7601471	7.314209	2.0583649
1176785684727113	1.8670197	7.488098	1.8012848
1176785693119447	1.7481384	7.796509	1.6004028
1176785701511781	1.3084869	8.102142	1.4473724
1176785709904115	1.0339813	8.16153	0.80589294
1176785718296449	0.79530334	8.110611	-0.37348938
1176785726688783	0.53338623	7.982422	-1.6249695
1176785735081117	0.37849426	7.913925	-2.3941345
1176785743473451	0.44509888	8.044708	-2.1339874
1176785751865785	0.6534271	8.424332	-0.35554504
1176785760258119	0.5088959	8.977936	1.7983856
1176785768650453	0.18852234	9.359375	2.4190521
1176785777042787	0.20729065	9.466461	1.9038239
1176785785435121	0.5584259	9.329056	1.0350952
1176785793827455	0.9808502	9.073288	0.72024536
1176785802219788	1.2840271	8.843689	1.4289703
1176785810612122	1.48703	9.022446	2.0464935
1176785819004456	1.5746918	9.590271	1.826889
1176785827396790	1.6916962	10.380142	1.4730072
1176785835789124	1.7723236	11.167557	1.6248169
1176785844181458	1.6181488	11.7117	2.4360046
1176785852573792	1.0747833	11.85228	2.9943237
1176785860966126	0.19895935	11.503647	2.6443024
1176785869358460	-0.500885	11.223801	1.8886414
1176785877750794	-0.8517456	11.27742	0.79971313
1176785886143128	-1.1580505	11.624893	-0.11109924
1176785894535462	-1.8452301	12.009827	-0.23200989
1176785902927796	-2.7627106	12.156937	0.42999268
1176785911320130	-2.904602	12.21376	0.5988617
1176785919712464	-2.67482	12.410355	0.4977417
1176785928104798	-2.282364	12.423004	0.18952942
1176785936497132	-1.7829132	12.167664	-0.06776428
1176785944889466	-1.2373352	11.852097	0.07862854
1176785953281800	-1.0553131	11.908539	0.7921448
1176785961674134	-1.2144775	12.218948	0.8388672
1176785970066468	-0.978302	12.442474	0.3345642
1176785978458802	-0.36637878	12.607086	0.07090759
1176785986851136	0.43823242	12.827759	0.52552795
1176785995243470	1.1827698	13.1483	1.5712585
1176786003635804	1.6207733	13.189056	1.9073792
1176786012028138	2.700943	12.9926605	0.9137726
1176786020420472	3.8647919	12.614838	0.017410278
1176786028812806	4.7733154	12.229126	-0.7243347
1176786037205140	5.4366302	11.929947	-1.2812805
1176786045597474	6.0323334	11.748322	-1.4492645
1176786053989808	6.311493	11.7682495	-0.5579529
1176786062382142	6.170349	12.000793	0.896225
1176786070774476	5.751816	12.197525	2.1434479
1176786079166810	5.437332	12.17334	2.812851
1176786087559144	5.6510925	11.773529	2.5743408
1176786095951478	6.598648	11.028961	1.3498535
1176786104343812	7.661621	10.507202	-0.17160034
1176786112736146	8.041168	10.397583	-1.2536163
1176786121128480	7.2931976	10.589615	-1.710083
1176786129520814	5.222351	11.06308	-1.6325989
1176786137913148	3.243866	11.394897	-1.3014984
1176786146305482	3.1307526	11.014603	-0.951416
1176786154697816	1.9389343	10.237274	-0.0021362305
1176786163090150	1.2243195	9.850037	0.16169739
1176786171482484	0.5149689	9.663071	0.2587433
1176786179874818	0.047927856	9.340408	0.16177368
1176786188267152	-0.16630554	8.876343	-0.027999878
1176786196659486	-0.39346313	8.476471	0.0868988
1176786205051820	-0.7968292	7.602524	0.9058533
1176786213444154	-1.0077515	6.711197	1.5369568
1176786221836488	-0.7817688	5.769745	1.671463
1176786230228822	-0.41583252	4.9163666	1.4209747
1176786238621156	-0.013595581	4.1775208	0.95306396
1176786247013490	0.51297	3.4614868	0.44413757
1176786255405824	0.64915466	2.8253174	0.24830627
1176786263798158	1.1252899	2.2139587	-0.10507202
1176786272190492	1.5548096	1.7172546	-0.8096924
1176786280582826	1.730133	1.5384979	-1.7527161
1176786288975160	1.6000824	1.7915192	-2.7649994
1176786297367494	1.3522644	2.355072	-3.640396
1176786305759828	1.3054047	2.9652557	-3.9186401
1176786314152162	1.2829895	3.362915	-3.6571808
1176786322544496	1.2669983	3.4949646	-3.255188
1176786330936830	1.2060852	3.3924255	-2.8890991
1176786339329163	1.1043091	3.1314392	-2.6959229
1176786347721497	1.0151672	2.8399963	-2.7894287
1176786356113831	0.818161	2.5678558	-3.13266
1176786364506165	0.57673645	2.3846893	-3.6716614
1176786372898499	0.39468384	2.168991	-4.176895
1176786381290833	0.33140564	1.9485474	-4.6386566
1176786389683167	0.3822174	1.8277588	-5.079544
1176786398075501	0.46632385	2.0036316	-5.4928894
1176786406467835	0.5560608	2.810196	-5.6015472
1176786414860169	0.54289246	4.6994476	-5.517227
1176786423252503	-0.0763855	7.6859436	-5.0967865
1176786431644837	-1.1495514	12.506882	-4.044037
1176786440037171	-1.8081512	19.472672	-2.604126
1176786448429505	-0.92015076	27.608994	-1.4472046
1176786456821839	0.8243408	34.513382	1.4036102
1176786465214173	1.1658173	35.037277	0.5930786
1176786473606507	-0.77656555	27.756546	-3.8141174
1176786481998841	-2.9588013	17.676926	-8.59671
1176786490391175	-3.8910217	9.696716	-11.277344
1176786498783509	-4.2615356	4.8846283	-12.405334
1176786507175843	-4.114563	2.4209137	-13.678574
1176786515568177	-4.1602936	1.6096497	-13.218857
1176786523960511	-3.5042877	2.4448395	-11.172562
1176786532352845	-1.5989838	4.5365753	-7.8243256
1176786540745179	1.6339111	7.507904	-3.813385
1176786549137513	5.5167236	10.865936	-0.42959595
1176786557529847	9.028915	13.892242	2.5467987
1176786565922181	11.168564	15.0950165	6.8681335
1176786574314515	13.280151	14.2009735	8.680466
1176786582706849	13.919006	11.672699	7.243744
1176786591099183	12.114212	8.61673	3.308838
1176786599491517	8.899963	6.9466705	-0.8652344
1176786607883851	4.227646	7.5058746	-5.751465
1176786616276185	0.45994568	7.5927124	-7.232254
1176786624668519	-2.288086	7.4697876	-5.4022675
1176786633060853	-3.8588715	7.4472504	-2.1677704
1176786641453187	-4.439636	7.6381226	-0.09239197
1176786649845521	-4.8122864	7.683975	-0.5536041
1176786658237855	-4.9050293	6.898056	-1.4039612
1176786666630189	-3.5559235	6.5746155	-1.2783508
1176786675022523	-1.4000549	6.5962067	-0.60580444
1176786683414857	0.68525696	6.7246246	0.1736908
1176786691807191	2.1335297	6.726883	0.83958435
1176786700199525	3.1569977	6.5051727	1.6144257
1176786708591859	3.078247	7.0216064	3.5017548
1176786716984193	3.5413208	7.72464	5.7301636
1176786725376527	3.2006378	9.0026245	7.1847687
1176786733768861	1.7641144	10.244049	6.8857117
1176786742161195	-0.037368774	10.703629	4.8121643
1176786750553529	-0.45593262	10.231705	2.6002502
1176786758945863	0.23965454	9.578751	1.269989
1176786767338197	1.1833496	9.308502	0.2623291
1176786775730531	1.8533173	9.523941	-0.37852478
1176786784122865	2.0566406	10.162369	-0.84814453
1176786792515199	1.717102	10.890976	-1.4980011
1176786800907533	0.7032013	11.05896	-2.7156677
1176786809299867	-0.8411865	10.165543	-3.3528595
1176786817692201	-0.8632202	9.076462	-2.7507935
1176786826084535	-0.0663147	8.239288	-1.4116058
1176786834476869	0.8954468	7.792923	0.08366394
1176786842869203	1.5298309	7.6769867	1.2608948
1176786851261537	1.6528168	7.699814	1.9879303
1176786859653871	1.2439728	7.6871643	2.1933289
1176786868046205	0.97665405	7.6596527	2.057953
1176786876438538	0.9118042	7.606262	1.8964844
1176786884830872	1.0716553	7.521179	1.7445221
1176786893223206	1.3830261	7.428299	1.5407257
1176786901615540	1.5166321	7.427292	1.3323517
1176786910007874	1.1511688	7.7034454	1.2119141
1176786918400208	0.8327484	7.9722443	1.1658936
1176786926792542	0.7405853	8.07962	1.1788635
1176786935184876	0.7619629	8.068939	1.1293335
1176786943577210	0.66363525	8.094788	0.8129883
1176786951969544	0.3620453	8.299896	0.004699707
1176786960361878	0.030151367	8.726807	-1.0283813
1176786968754212	-0.12350464	9.062744	-1.190094
1176786977146546	-0.0809021	9.219452	-0.6890564
1176786985538880	0.046951294	9.206085	0.19796753
1176786993931214	0.1756134	9.099655	1.1988373
1176787002323548	0.5625	8.969666	2.33313
1176787010715882	0.9790497	9.132416	2.8746948
1176787019108216	1.1605682	9.689362	2.4263458
1176787027500550	1.1841278	10.492111	1.0757141
1176787035892884	1.1915588	11.353104	-0.13905334
1176787044285218	1.1878052	12.082855	0.08526611
1176787052677552	0.6225128	12.490631	2.0503693
1176787061069886	-0.28129578	12.342514	3.1859436
1176787069462220	-0.87854004	12.113235	2.714386
1176787077854554	-1.3199921	12.0578	1.0807037
1176787086246888	-1.7565613	12.142273	-0.8860779
1176787094639222	-2.2586517	12.153351	-2.2350311
1176787103031556	-2.7329102	11.896454	-2.1925507
1176787111423890	-3.0259705	11.484772	-1.138855
1176787119816224	-3.06456	11.295273	0.38243103
1176787128208558	-2.7842255	11.591187	0.86616516
1176787136600892	-2.307373	12.228607	-0.08387756
1176787144993226	-1.8717346	12.767914	-1.6260071
1176787153385560	-1.6030121	12.73317	-1.1917572
1176787161777894	-1.0547638	12.594147	0.30999756
1176787170170228	-0.29748535	12.596283	1.0070343
1176787178562562	0.8115692	12.839447	0.9803772
1176787186954896	1.9069519	13.222183	0.6126251
1176787195347230	2.419754	13.525024	0.3491516
1176787203739564	2.469696	13.683655	0.07398987
1176787212131898	2.1552277	13.750153	0.060791016
1176787220524232	2.2079926	13.589096	-0.49832153
1176787228916566	3.133789	13.121231	-1.0553284
1176787237308900	4.415619	12.539291	-0.8743439
1176787245701234	5.0006866	12.210754	0.45785522
1176787254093568	4.486557	12.482437	2.1049194
1176787262485902	3.8598022	12.708008	3.3020172
1176787270878236	3.9938507	12.539352	3.7236786
1176787279270570	5.0833893	12.014404	2.7277222
1176787287662904	6.8071594	11.45314	0.57710266
1176787296055238	8.507828	11.255569	-1.7864532
1176787304447572	9.464859	11.515579	-3.3695374
1176787312839906	9.570801	11.827637	-3.37294
1176787321232240	7.779785	11.881973	-2.5232239
1176787329624574	4.819519	11.402023	-1.1705017
1176787338016908	2.1773987	10.656342	-0.24569702
1176787346409242	1.118576	10.190216	-0.43951416
1176787354801576	0.5999756	10.092911	0.07408142
1176787363193910	-0.029785156	10.042938	0.85505676
1176787371586244	-0.05278015	9.67186	0.8792572
1176787379978578	0.0033721924	9.025864	0.7520294
1176787388370912	-0.10221863	8.228928	0.9168854
1176787396763246	-0.29771423	7.4244995	1.4837646
1176787405155580	-0.5401459	6.727051	2.2399292
1176787413547913	-0.52171326	5.7204895	2.7342224
1176787421940247	-0.32476807	4.768738	2.6951447
1176787430332581	0.0602417	3.7631073	2.3266754
1176787438724915	0.57640076	2.6383057	1.8530579
1176787447117249	1.1705475	1.4322968	1.3899689
1176787455509583	2.174179	0.21485901	0.64797974
1176787463901917	2.2700195	-0.37739563	-0.6296234
1176787472294251	1.9694672	-0.30671692	-1.8984222
1176787480686585	1.5449982	0.29489136	-2.8344116
1176787489078919	1.1508179	1.2023468	-3.2835388
1176787497471253	0.8609009	2.116211	-3.2632294
1176787505863587	0.7535248	2.6028442	-2.965744
1176787514255921	0.89079285	2.7319183	-2.6209564
1176787522648255	0.9147644	2.5986176	-2.4780884
1176787531040589	0.86079407	2.3315887	-2.5990295
1176787539432923	0.81440735	2.0357666	-2.9744568
1176787547825257	0.84117126	1.7871704	-3.5534363
1176787556217591	0.9634552	1.7026672	-4.253235
1176787564609925	1.1277008	1.6725159	-5.0664063
1176787573002259	1.2024994	1.8969574	-5.740341
1176787581394593	1.1422119	2.5909271	-6.133774
1176787589786927	0.84007263	3.9567108	-6.179474
1176787598179261	0.14222717	6.1676483	-5.852951
1176787606571595	-0.99435425	9.472717	-4.9486694
1176787614963929	-1.3774261	14.958893	-4.0379333
1176787623356263	-0.021392822	22.886703	-2.8132935
1176787631748597	2.2422028	31.179413	-1.1253967
1176787640140931	4.4276276	35.76758	-1.0543213
1176787648533265	5.655258	32.042343	-5.8693237
1176787656925599	3.354126	20.411438	-11.023254
1176787665317933	0.19412231	12.019684	-11.753159
1176787673710267	-2.3023987	6.596863	-10.372253
1176787682102601	-4.1496735	3.2192993	-8.807449
1176787690494935	-5.6030884	1.255188	-8.22229
1176787698887269	-6.664871	0.7185669	-8.733566
1176787707279603	-5.536255	2.6049194	-9.807358
1176787715671937	-2.8526306	6.6393585	-8.796341
1176787724064271	0.54725647	12.014603	-6.8740997
1176787732456605	4.2673187	16.991333	-1.8124695
1176787740848939	7.978012	20.277695	6.4972687
1176787749241273	11.419632	21.49762	14.129318
1176787757633607	14.9270935	18.603317	11.986771
1176787766025941	12.225967	13.903046	4.6859894
1176787774418275	6.7731323	9.845535	-3.8787842
1176787782810609	2.488739	6.120056	-9.016693
1176787791202943	1.2153168	2.5534363	-8.513824
1176787799595277	1.4583893	0.10499573	-4.391754
1176787807987611	-0.08596802	0.006286621	-4.867325
1176787816379945	-2.1186066	1.0352783	-5.479538
1176787824772279	-3.1026154	1.8254547	-4.979889
1176787833164613	-3.4453583	2.949234	-3.3781433
1176787841556947	-3.10849	4.7236786	-0.8431244
1176787849949281	-0.7701721	6.307968	2.6894379
1176787858341615	1.1383209	7.4997864	5.1983185
1176787866733949	1.3343201	9.21759	8.136322
1176787875126283	1.6105347	10.521408	10.186111
1176787883518617	2.3026733	11.415131	11.422028
1176787891910951	3.0421448	12.307831	12.058197
1176787900295703	3.1192322	13.647797	11.713959
1176787908688037	1.986618	13.496246	7.7418365
1176787917080371	1.29776	12.482254	3.610794
1176787925472705	1.0702667	11.286926	0.719223
1176787933865039	1.0219879	10.289825	-1.8461914
1176787942257373	0.551651	9.710892	-6.2309875
1176787950649706	-1.1294708	9.632507	-14.644974
1176787959042040	0.31184387	8.765732	-10.101364
1176787967434374	1.6049652	8.201904	-4.460022
1176787975826708	2.3006134	7.850708	-0.48620605
1176787984219042	2.237915	7.511154	1.4662476
1176787992611376	1.6353302	7.1219482	2.1044464
1176788001003710	1.1828003	6.9647827	2.2557373
1176788009396044	0.9571686	6.792816	2.2527618
1176788017788378	0.91841125	6.693466	2.1867676
1176788026180712	1.046341	6.589142	1.94104
1176788034573046	1.1890869	6.5085297	1.5524902
1176788042965380	1.265625	6.5367737	1.1279144
1176788051357714	1.5310364	6.746521	0.71240234
1176788059750048	1.6446838	7.195175	0.5130005
1176788068142382	1.3322144	7.708359	0.47158813
1176788076534716	0.9165497	8.201614	0.5302429
1176788084927050	0.6045685	8.551056	0.61761475
1176788093319384	0.44358826	8.66835	0.5940857
1176788101711718	0.2703247	8.552521	0.22224426
1176788110104052	-0.2964325	8.48941	-0.5941925
1176788118496386	-0.7924652	8.673386	-0.9424896
1176788126888720	-1.0424805	8.905624	-0.86628723
1176788135281054	-1.0402832	9.079086	-0.6001282
1176788143673388	-0.88409424	9.162674	-0.3989563
1176788152065722	-0.7010956	9.172409	-0.3531952
1176788160458056	-0.106658936	9.001389	0.13296509
1176788168850390	0.6340637	8.823944	1.0220795
1176788177242724	1.1873932	8.852173	1.8554382
1176788185635058	1.4493256	9.279205	2.3267822
1176788194027392	1.473999	10.168381	2.2928162
1176788202419726	1.3957214	11.2703705	1.8022614
1176788210812060	1.1814575	12.108795	1.1326599
1176788219204394	0.78248596	12.4664	0.9029846
1176788227596728	0.28204346	12.396423	1.0592651
1176788235989062	-0.123184204	12.136307	1.316925
1176788244381396	-0.31219482	12.00032	1.3236847
1176788252773730	-0.5885315	12.031143	1.0513306
1176788261166064	-1.1442413	11.893021	0.08934021
1176788269558398	-1.5970001	11.610123	-1.217865
1176788277950732	-1.7563477	11.094055	-1.549057
1176788286343066	-1.5844421	10.493561	-0.45196533
1176788294735400	-1.2080536	10.168472	1.3422394
1176788303127734	-0.79241943	10.581207	2.3175964
1176788311520068	-0.28253174	11.860352	1.140976
1176788319912402	-0.10444641	13.231216	-0.09529114
1176788328304736	-0.10707092	14.034119	0.056381226
1176788336697070	-0.1444397	14.079102	1.0796204
1176788345089404	-0.022583008	13.606216	1.4021606
1176788353481738	0.78356934	13.225494	0.0821228
1176788361874072	2.252182	12.954407	-0.6083374
1176788370266406	2.8532562	12.904114	-0.3867035
1176788378658740	2.8276672	13.156052	-0.29751587
1176788387051074	2.6789703	13.612717	-0.672348
1176788395443408	2.8873138	14.057526	-1.0278778
1176788403835742	4.0791473	14.176804	-0.5567169
1176788412228076	4.337372	14.2691345	0.717041
1176788420620410	3.8084106	14.325592	2.2944336
1176788429012744	3.1605377	14.163513	3.6102448
1176788437405078	3.1033936	13.515961	4.1584625
1176788445797412	4.1234283	12.293335	3.5510101
1176788454189746	6.331131	11.063736	0.877121
1176788462582080	8.545334	10.736771	-2.4654236
1176788470974414	10.00322	11.083664	-4.8526764
1176788479366748	9.8629	11.777924	-4.829834
1176788487759081	7.369919	12.32991	-2.6739655
1176788496151415	2.5988464	12.3233185	0.025039673
1176788504543749	0.00289917	11.53447	1.1712036
1176788512936083	-0.41192627	10.777786	0.37698364
1176788521328417	-0.83262634	10.292969	0.25376892
1176788529720751	-0.8156128	9.958603	0.32521057
1176788538113085	-0.32710266	9.567474	0.290802
1176788546505419	0.019317627	8.969025	0.42765808
1176788554897753	0.06816101	8.482468	1.0308533
1176788563290087	-0.4379425	7.8156433	1.9296722
1176788571682421	-0.72628784	6.8482513	2.5993652
1176788580074755	-0.7389221	5.6496124	2.94635
1176788588467089	-0.4152069	4.3114777	2.9272766
1176788596859423	0.3076477	2.95018	2.5912628
1176788605251757	1.324585	1.6939697	2.1087036
1176788613644091	2.08667	0.62690735	1.2695007
1176788622036425	2.6562958	-0.14326477	0.048812866
1176788630428759	2.877411	-0.49864197	-1.3056946
1176788638821093	2.684372	-0.3422699	-2.383606
1176788647213427	2.261444	0.29196167	-2.826828
1176788655605761	2.215561	0.97732544	-2.7770386
1176788663998095	2.0037537	1.5889282	-2.6077576
1176788672390429	1.7732086	1.9047546	-2.5229645
1176788680782763	1.5709229	1.9354401	-2.5655365
1176788689175097	1.4330139	1.7518005	-2.7505646
1176788697567431	1.3951263	1.4524994	-3.0883942
1176788705959765	1.4009705	1.2821503	-3.5011292
1176788714352099	1.6594696	1.1059265	-4.4368286
1176788722744433	1.7816315	1.000534	-5.641403
1176788731136767	1.8470001	1.0808411	-6.5568085
1176788739529101	1.8379822	1.5707245	-6.855133
1176788747921435	1.5144653	2.776352	-6.5793915
1176788756313769	0.6779785	5.0076904	-5.867523
1176788764706103	-0.48161316	8.509155	-4.6934357
1176788773098437	-1.183136	13.741135	-4.0045013
1176788781490771	-0.7302551	20.644348	-3.8931122
1176788789883105	0.68382263	28.360748	-3.6614685
1176788798275439	1.5178375	34.553253	-2.388733
1176788806667773	1.4442902	32.227264	-5.9363556
1176788815060107	1.0866241	23.47763	-9.929291
1176788823452441	-0.26501465	15.077972	-12.258972
1176788831844775	-2.16687	9.06485	-12.3715515
1176788840237109	-3.826538	5.3974304	-11.121384
1176788848629443	-4.7147675	3.2375793	-10.093689
1176788857021777	-4.826721	2.9932556	-9.602112
1176788865414111	-1.5129852	4.4997253	-9.037842
1176788873806445	3.447998	7.392868	-7.460022
1176788882198779	7.281662	10.210342	-4.2622375
1176788890591113	8.842911	11.67746	0.16378784
1176788898983447	9.6604	11.494354	4.493988
1176788907375781	10.736893	10.2578125	7.5446014
1176788915768115	10.437805	9.210388	6.719803
1176788924160449	9.2183075	8.819077	4.5204926
1176788932552783	8.014175	8.905792	2.00914
1176788940945117	7.0556946	9.430191	-0.32557678
1176788949337451	4.8762817	11.142502	-2.540619
1176788957729785	-0.7170105	13.246826	-5.772156
1176788966122119	-4.201889	12.897949	-5.7612305
1176788974514453	-4.623871	11.171524	-3.5373535
1176788982906787	-3.3972778	9.021164	-0.9439697
1176788991299121	-2.516388	7.2075043	0.20941162
1176788999691455	-2.5626068	5.8192596	-0.36697388
1176789008083789	-1.8529968	4.8312683	-0.5927887
1176789016476123	-0.3468933	4.1060333	-0.35916138
1176789024868456	1.1561584	3.6509552	0.0011444092
1176789033260790	2.054596	3.8290863	1.0764313
1176789041653124	2.2737732	4.6918945	3.0434113
1176789050045458	2.323227	5.634094	4.8254395
1176789058437792	2.4960327	6.3038483	5.5283813
1176789066830126	2.3349152	7.156601	6.0950317
1176789075222460	2.245346	8.108017	6.5210876
1176789083614794	2.5337982	9.197861	6.834091
1176789092007128	3.131607	10.391815	6.9334106
1176789100399462	3.4531097	11.428818	6.466873
1176789108791796	2.5912933	11.809525	5.7064514
1176789117184130	0.93647766	12.219345	1.8527374
1176789125576464	-1.5591888	12.408081	-6.398407
1176789133968798	-2.824234	11.75235	-12.957596
1176789142361132	-1.0596619	9.9832	-11.282974
1176789150753466	1.7638397	8.173874	-4.8541718
1176789159145800	1.3002319	7.523834	0.5137024
1176789167538134	0.8767395	7.115341	3.3208923
1176789175930468	0.44300842	6.929764	4.2143707
1176789184322802	0.13780212	6.860199	3.9248047
1176789192715136	0.17596436	6.7854004	3.240036
1176789201107470	0.5927124	6.7275696	2.580017
1176789209499804	0.9026489	7.033844	2.1470032
1176789217892138	0.9926758	7.5079346	1.7978821
1176789226284472	0.732605	8.046997	1.6177826
1176789234676806	0.50071716	8.467407	1.3807068
1176789243069140	0.6089783	8.641907	0.7737732
1176789251461474	0.6497345	8.636932	-0.36636353
1176789259853808	0.20568848	8.673172	-1.8313904
1176789268246142	-0.11401367	8.716248	-2.5998383
1176789276638476	-0.13127136	8.83905	-2.2556763
1176789285030810	0.013458252	9.073975	-1.1075897
1176789293423144	0.06355286	9.382385	0.18656921
1176789301815478	-0.10145569	9.605057	1.0762024
1176789310207812	-0.2693634	9.384048	1.6054688
1176789318600146	-0.30560303	9.176178	2.0600128
1176789326992480	-0.055236816	9.311722	2.1670074
1176789335384814	0.48820496	9.899261	1.5830078
1176789343777148	1.1631317	10.816864	0.3841095
1176789352169482	1.6889648	11.769119	0.087875366
1176789360561816	1.5874023	12.213699	1.305069
1176789368954150	0.9277954	12.048752	2.3736267
1176789377346484	0.15145874	11.558884	2.8038635
1176789385738818	-0.35440063	11.103577	2.4043732
1176789394131152	-0.5021515	11.014648	1.3183899
1176789402523486	-0.9126892	11.386414	-0.33862305
1176789410915820	-1.7918396	11.629837	-1.4928131
1176789419308154	-2.7399597	11.648117	-1.6416779
1176789427700488	-3.4792175	11.620117	-0.7917328
1176789436092822	-3.941681	11.626846	0.4521942
1176789444485156	-4.252243	11.636215	1.0782471
1176789452877490	-4.4027863	11.678085	0.12312317
1176789461269824	-3.854538	11.401535	-1.2103119
1176789469662158	-1.7559967	10.983978	-0.7964783
1176789478054492	0.355011	10.936005	0.26992798
1176789486446826	1.736969	11.560715	0.9619751
1176789494839160	2.530182	12.88736	0.8278351
1176789503231494	3.1253967	14.667007	0.4300232
1176789511623828	3.7207794	15.764343	-0.49316406
1176789520016162	4.3950043	16.352798	-0.9283142
1176789528408496	5.229004	16.408356	-0.5652008
1176789536800830	6.3110504	15.948715	0.3684845
1176789545193164	7.5842133	15.152908	1.1801453
1176789553585498	8.227341	14.54657	1.7119293
1176789561977831	7.559662	14.072693	2.115387
1176789570370165	6.6494904	13.412506	1.8868713
1176789578762499	5.958725	12.416016	0.96810913
1176789587154833	5.872696	11.169128	-0.36413574
1176789595547167	6.5260468	10.021591	-1.6862183
1176789603939501	7.025055	9.972885	-2.4595642
1176789612331835	6.3701477	10.693573	-2.5076752
1176789620724169	4.6586914	11.596893	-2.4292755
1176789629116503	2.5692291	12.064209	-2.027893
1176789637508837	0.7794647	11.837219	-1.2919159
1176789645901171	-0.455719	11.249725	-0.5137329
1176789654293505	-1.563034	10.863052	0.39579773
1176789662685839	-2.2176666	10.218216	0.9467468
1176789671078173	-2.3600464	9.3246155	1.0738983
1176789679470507	-2.077896	8.301041	0.9174957
1176789687862841	-1.7476959	7.39093	0.6404419
1176789696255175	-1.8973541	6.857132	0.46551514
1176789704647509	-1.5493469	6.0470886	1.0925446
1176789713039843	-0.83599854	5.0395966	1.8513336
1176789721432177	-0.071777344	4.078949	2.3281403
1176789729824511	0.66342163	3.1068878	2.52771
1176789738216845	1.3343964	2.1031952	2.517685
1176789746609179	1.935852	1.1613312	2.3358307
1176789755001513	2.6565094	0.35620117	1.7622986
1176789763393847	3.1247559	-0.11279297	0.7044678
1176789771786181	3.0648346	0.017028809	-0.8738098
1176789780178515	2.6721802	0.6821289	-2.4492645
1176789788570849	2.1885223	1.5807953	-3.4529877
1176789796963183	1.6547394	2.383194	-3.6494904
1176789805355517	1.1841431	2.7451172	-3.4490814
1176789813747851	0.9684906	2.8451233	-3.4114075
1176789822140185	0.87986755	2.650589	-3.473175
1176789830532519	0.93699646	2.2803345	-3.659439
1176789838924853	1.1011505	1.8987274	-4.001419
1176789847317187	1.1984558	1.6680145	-4.470215
1176789855709521	1.0828094	1.556366	-4.8730164
1176789864101855	0.98287964	1.6437225	-5.1531067
1176789872494189	0.8161621	2.0325165	-5.2337494
1176789880886523	0.5776825	2.8364716	-5.11438
1176789889278857	0.22695923	4.198822	-4.868988
1176789897671191	-0.36802673	6.3164673	-4.6524353
1176789906063525	-1.1975403	9.243652	-4.208786
1176789914455859	-1.6121674	13.27388	-3.3568878
1176789922848193	-1.0856781	19.476639	-2.2262268
1176789931240527	-0.011993408	26.888138	-0.9450226
1176789939632861	1.425293	33.258087	-0.3168335
1176789948025195	3.6546478	34.988113	-2.3183289
1176789956417529	3.38031	26.684143	-8.961288
1176789964809863	0.49621582	17.291382	-12.172638
1176789973202197	-2.2522736	10.143158	-12.102798
1176789981594531	-4.0381165	5.546051	-10.35704
1176789989986865	-5.036789	2.745819	-8.746155
1176789998379199	-6.065506	1.2167511	-7.9263153
1176790006771533	-5.7524567	1.2915344	-7.799713
1176790015163867	-2.1831055	3.0124512	-6.800995
1176790023556201	1.9263458	6.6150665	-5.093506
1176790031948535	5.3566895	11.687424	-2.3257751
1176790040340869	7.8703613	17.016846	2.5147095
1176790048733203	10.316101	20.034836	11.186111
1176790057125537	14.42276	18.269135	14.492172
1176790065517871	14.534317	13.221893	9.398254
1176790073910205	11.3069	8.77916	1.8036804
1176790082302539	6.765793	6.34494	-4.3648376
1176790090694873	2.7424316	5.8948364	-7.0231476
1176790099087206	-0.34178162	5.812332	-7.0640106
1176790107479540	-1.3687134	6.051605	-5.9433594
1176790115871874	-2.136078	6.841034	-5.196289
1176790124264208	-2.4877014	6.977234	-3.8499146
1176790132656542	-2.6507874	6.593384	-2.284317
1176790141048876	-2.4646149	6.3331604	-1.1629791
1176790149441210	-0.54634094	6.3360443	-0.06338501
1176790157833544	2.0429382	6.0648193	1.7457275
1176790166225878	3.1078491	5.8342896	3.2944794
1176790174618212	3.3118744	6.0841827	4.676285
1176790183010546	3.427414	6.736786	5.757019
1176790191402880	3.7652893	7.526779	6.2931213
1176790199795214	3.169876	8.485001	6.20665
1176790208187548	2.6764984	8.874725	6.1627655
1176790216579882	2.2850342	9.456177	6.6911316
1176790224972216	2.0210266	10.2651825	7.5765076
1176790233364550	1.5802765	11.0905	7.6643677
1176790241756884	0.7496033	11.641464	5.97554
1176790250149218	0.12713623	11.731842	3.6145935
1176790258541552	-0.18159485	11.977798	1.0591431
1176790266933886	-2.0206451	12.067749	-5.6895447
1176790275326220	-3.6915894	11.107437	-9.903305
1176790283718554	-3.640564	9.371368	-8.861145
1176790292110888	-1.3257751	7.762268	-3.332489
1176790300503222	0.524704	7.378418	0.9227905
1176790308895556	0.8557739	7.4582977	2.7388153
1176790317287890	0.40042114	7.6598053	3.1778717
1176790325680224	0.068862915	7.767517	2.7610168
1176790334072558	0.1592102	7.6907043	2.080658
1176790342464892	0.47349548	7.4827423	1.7341003
1176790350857226	0.7127838	7.28833	1.7420807
1176790359249560	0.81539917	7.153488	2.0526276
1176790367641894	0.76200867	7.3157196	2.1507568
1176790376034228	0.63401794	7.5815277	1.89505
1176790384426562	0.37753296	7.8840637	1.2789917
1176790392818896	-0.08117676	8.236725	0.3373413
1176790401211230	-0.53842163	8.606491	-0.8654022
1176790409603564	-0.8476715	8.859604	-2.3463135
1176790417995898	-0.73249817	8.992706	-2.0915375
1176790426388232	-0.5456085	9.099594	-0.9182739
1176790434780566	-0.45726013	9.233353	0.4012909
1176790443172900	-0.40686035	9.369202	1.3553314
1176790451565234	-0.021011353	9.315353	1.7970123
1176790459957568	0.49075317	9.256607	1.8569641
1176790468349902	0.7861023	9.418808	1.5041046
1176790476742236	1.0414276	9.853134	1.0309448
1176790485134570	1.2838745	10.518112	0.79599
1176790493526904	1.4869385	11.271164	1.0608063
1176790501919238	1.9077301	11.854019	1.6299896
1176790510311572	1.1607666	11.74884	2.3783722
1176790518703906	0.32055664	11.296829	2.4502106
1176790527096240	-0.42408752	10.862518	1.9867249
1176790535488574	-1.0778503	10.689392	1.1031952
1176790543880908	-1.6734924	10.845795	-0.084472656
1176790552273242	-2.048355	11.110001	-1.2071075
1176790560665576	-2.222763	11.206833	-1.2050323
1176790569057910	-2.1371307	11.149246	-0.4186859
1176790577450244	-2.0741272	11.172882	0.45635986
1176790585842578	-2.1588135	11.453049	0.6415863
1176790594234912	-2.3123627	11.988342	-0.26472473
1176790602627246	-2.224884	12.329285	-1.176239
1176790611019580	-1.7317047	12.256729	-0.07783508
1176790619411914	-1.0905762	12.201584	0.98231506
1176790627804248	-0.3118286	12.2664795	1.3409119
1176790636196581	0.65245056	12.64592	0.870697
1176790644588915	1.7631378	13.489655	-0.09272766
1176790652981249	2.2371674	14.307709	-0.46073914
1176790661373583	2.3482056	14.373016	-0.55422974
1176790669765917	2.6286163	14.342056	-0.5404663
1176790678158251	3.3584595	14.237915	-0.28781128
1176790686550585	4.3795013	14.097549	0.29370117
1176790694942919	5.176056	14.088837	1.1621552
1176790703335253	5.0130157	14.6297	1.9890747
1176790711727587	4.17128	15.317917	3.0032654
1176790720119921	3.9189148	15.064789	3.3547363
1176790728512255	4.6237946	13.901779	2.522232
1176790736904589	6.174698	12.455353	0.58428955
1176790745296923	8.100464	11.592087	-1.7767487
1176790753689257	9.525864	11.593079	-3.1534424
1176790762081591	9.797852	11.938019	-3.5300446
1176790770473925	8.532166	11.8828125	-2.6895447
1176790778866259	6.2721252	11.487122	-1.3447571
1176790787258593	3.895691	11.006607	-0.4273224
1176790795650927	2.1568298	10.697708	-0.4729004
1176790804043261	0.3694458	10.490814	0.74728394
1176790812435595	-0.8530884	9.930664	0.68885803
1176790820827929	-0.9924927	9.222778	0.2908783
1176790829220263	-0.76779175	8.541153	0.0945282
1176790837612597	-0.75045776	7.931595	0.36698914
1176790846004931	-1.0447083	7.2947845	1.0822449
1176790854397265	-1.3590393	6.4428864	1.9919281
1176790862789599	-1.3913879	5.470886	2.671463
1176790871181933	-1.20047	4.4424744	3.0978851
1176790879574267	-0.64434814	3.3482666	3.2224426
1176790887966601	0.29507446	2.2092743	3.0572662
1176790896358935	1.464859	1.0792084	2.6520386
1176790904751269	2.7906952	-0.121292114	1.7394104
1176790913143603	3.3708649	-0.83247375	0.1563263
1176790921535937	3.5426025	-0.82406616	-1.6858063
1176790929928271	3.2787628	-0.1382904	-3.1365967
1176790938320605	2.6163788	0.94664	-3.7456512
1176790946712939	1.8003387	1.9564514	-3.4423676
1176790955105273	1.3162689	2.494217	-2.6541138
1176790963497607	0.9918823	2.6888275	-2.053482
1176790971889941	0.7796631	2.5789948	-1.809021
1176790980282275	0.8410187	2.2479553	-2.181015
1176790988674609	1.0331268	1.8086548	-3.174881
1176790997066943	0.8801117	1.3843079	-4.45961
1176791005459277	0.9339752	1.0934906	-5.738449
1176791013851611	1.192627	1.1001129	-6.7045135
1176791022243945	1.263916	1.6039886	-7.152817
1176791030636279	1.0819092	2.789154	-7.2648926
1176791039028613	0.5317993	4.822693	-7.1113586
1176791047420947	-0.6428833	7.838669	-6.4799805
1176791055813281	-2.473999	12.2578125	-4.847641
1176791064205615	-2.4129639	19.641037	-4.2299805
1176791072597949	-0.4026184	28.011215	-2.734558
1176791080990283	2.6820068	34.334335	-1.1599884
1176791089382617	5.616394	34.73738	-1.8982391
1176791097774951	7.0004425	25.633087	-7.616928
1176791106167285	3.8239288	15.380722	-10.374695
1176791114559619	0.69522095	8.516785	-10.256866
1176791122951953	-1.520462	3.8510742	-9.405136
1176791131344287	-2.8648071	0.8196106	-8.750214
1176791139736621	-3.4186401	-0.67652893	-8.78566
1176791148128955	-2.8476715	-0.17428589	-9.711533
1176791156521289	0.18525696	3.9194794	-9.568954
1176791164913623	2.74411	10.897522	-7.755768
1176791173305956	4.728592	17.353058	-2.8340302
1176791181698290	7.08934	21.549698	4.5901947
1176791190090624	10.744247	22.143707	11.166382
1176791198482958	15.561737	17.733154	10.780609
1176791206875292	10.393005	11.234741	4.0077057
1176791215267626	4.935135	7.319992	-1.3228302
1176791223659960	1.9540253	4.9813232	-3.9388428
1176791232052294	1.0857086	3.449356	-4.2403564
1176791240444628	0.9692688	2.5348053	-3.586914
1176791248836962	0.68878174	2.631256	-3.9047852
1176791257229296	-0.8891144	4.2325134	-6.0910797
1176791265621630	-2.1540375	4.7586975	-5.5973816
1176791274013964	-3.0344543	4.425049	-3.9058838
1176791282406298	-2.7178802	4.231903	-1.9765778
1176791290798632	-0.9887848	4.9768524	-0.10960388
1176791299190966	0.83177185	6.3124847	2.088791
1176791307583300	1.6607819	7.4357147	3.5639038
1176791315975634	2.24852	7.959564	4.437729
1176791324367968	2.7981262	8.490662	5.667282
1176791332760302	3.3256226	9.332016	7.865448
1176791341152636	3.2626648	10.542908	10.255203
1176791349544970	1.0751953	11.901855	9.400742
1176791357937304	-0.8131256	12.144119	6.8872986
1176791366329638	-1.2460938	11.555588	4.2446747
1176791374721972	-0.38607788	10.61499	2.0570374
1176791383114306	1.013031	9.782913	0.45895386
1176791391506640	1.9617615	9.472977	-0.79216003
1176791399898974	2.228836	9.708145	-2.27948
1176791408291308	1.2707214	10.121994	-6.0791016
1176791416683642	-0.08546448	9.957703	-6.572998
1176791425075976	-0.3761902	9.277161	-4.5478973
1176791433468310	0.35038757	8.519272	-1.9533997
1176791441860644	1.2700195	8.091324	-0.1306305
1176791450252978	1.5212555	8.122238	1.2801514
1176791458645312	1.0997009	8.216751	2.2951965
1176791467037646	0.83374023	8.111389	2.6996002
1176791475429980	0.8987274	7.841812	2.6835022
1176791483822314	1.167633	7.4344177	2.5150604
1176791492214648	1.3512726	6.9551086	2.418869
1176791500606982	1.2449799	6.7091064	2.365219
1176791508999316	1.4562378	6.634308	2.1951447
1176791517391650	1.5761414	6.831604	1.8228455
1176791525783984	1.6155548	7.199707	1.3495789
1176791534176318	1.5244446	7.6611633	0.8716736
1176791542568652	1.2321167	8.121521	0.49467468
1176791550960986	0.8255615	8.416733	0.3087921
1176791559353320	0.55300903	8.762405	-0.4515381
1176791567745654	0.22764587	9.235672	-1.6710358
1176791576137988	0.021026611	9.618942	-2.0422363
1176791584530322	-0.07545471	9.723038	-1.0915985
1176791592922656	-0.21859741	9.503494	0.5979767
1176791601314990	-0.504776	9.116058	1.9091797
1176791609707324	-0.71698	8.894669	2.212555
1176791618099658	-0.49397278	9.145279	1.499588
1176791626491992	0.10522461	9.891449	0.3531952
1176791634884326	0.84906006	10.866043	-0.26785278
1176791643276660	1.4176788	11.676071	0.3566742
1176791651668994	1.2800293	11.884018	1.8182068
1176791660061328	0.2939911	11.433777	2.7349854
1176791668453662	-0.4364624	10.91954	2.8868103
1176791676845996	-0.7646332	10.6219635	2.3038483
1176791685238330	-0.96694946	10.696396	1.014679
1176791693630664	-1.4940033	11.128403	-0.80996704
1176791702022998	-2.2146606	11.470337	-2.0962067
1176791710415331	-2.3970947	11.653122	-1.8844147
1176791718807665	-2.169098	11.672852	-0.0026550293
1176791727199999	-1.8333282	11.862335	1.8547211
1176791735592333	-1.4595642	12.4331665	2.121338
1176791743984667	-0.878006	13.241089	0.54977417
1176791752377001	-0.005630493	13.546173	-0.73835754
1176791760769335	0.4515381	13.579025	-0.26556396
1176791769161669	1.001297	13.586365	0.6135254
1176791777554003	1.7353516	13.558411	1.3362885
1176791785946337	2.4559631	13.548996	1.3347626
1176791794338671	2.8654938	13.639465	0.36961365
1176791802731005	3.0144196	13.729996	-0.49671936
1176791811123339	2.982254	13.739548	-1.0251312
1176791819515673	3.4936066	13.696808	-1.0359039
1176791827908007	4.1988373	13.6467285	-0.35214233
1176791836300341	4.549164	13.73291	0.84280396
1176791844692675	4.2527313	14.080521	2.1063843
1176791853085009	3.6588745	14.409531	3.5558777
1176791861477343	3.8095856	14.029892	4.0851746
1176791869869677	4.668152	13.162674	3.245987
1176791878262011	6.113556	12.193405	1.3418121
1176791886654345	7.712555	11.536331	-0.95936584
1176791895046679	8.701599	11.534714	-2.6693268
1176791903439013	8.75145	11.967407	-3.3791962
1176791911831347	8.48262	11.836807	-2.8595428
1176791920223681	7.0868683	11.450714	-1.5562134
1176791928616015	4.491379	11.028915	-0.18070984
1176791937008349	1.7221985	10.825241	0.44447327
1176791945400683	0.4372406	10.941788	-0.06689453
1176791953793017	-0.8817444	10.448746	0.22111511
1176791962185351	-1.0912781	9.9696045	0.43299866
1176791970577685	-1.1302338	9.40007	0.44424438
1176791978970019	-1.009613	8.613251	0.46987915
1176791987362353	-0.7617035	7.6307983	0.745697
1176791995754687	-0.6010437	6.588211	1.3608093
1176792004147021	-0.60206604	5.3821716	1.9597473
1176792012539355	-0.3249817	4.359192	2.2992706
1176792020931689	0.13130188	3.2783966	2.6239777
1176792029324023	0.85157776	2.167862	2.8479462
1176792037716357	1.6947784	1.0895844	2.8526154
1176792046108691	2.246811	0.068862915	2.548584
1176792054501025	3.1523438	-0.9271393	1.5993042
1176792062893359	3.3159637	-1.2619781	-0.20898438
1176792071285693	2.9095154	-0.87127686	-1.930481
1176792079678027	2.2166443	0.003189087	-3.019577
1176792088070361	1.4950714	1.0444794	-3.2793884
1176792096462695	0.9991455	1.8457947	-2.9408722
1176792104855029	0.90763855	2.188446	-2.6371765
1176792113247363	0.6149292	2.2605286	-2.5282745
1176792121639697	0.4384613	2.1512756	-2.625183
1176792130032031	0.3782959	2.0251923	-3.007248
1176792138424365	0.36386108	1.9950867	-3.6521454
1176792146816699	0.37460327	2.0450897	-4.341461
1176792155209033	0.5181122	2.2657318	-4.887207
1176792163601367	0.6272278	2.8488617	-5.1810303
1176792171993701	0.61712646	3.990097	-5.3256226
1176792180386035	0.34083557	5.7704315	-5.394394
1176792188778369	-0.1696167	8.215225	-5.4046936
1176792197170703	-0.64471436	11.421173	-5.286133
1176792205563037	-0.15420532	16.50888	-4.429718
1176792213955371	1.7763367	23.716263	-2.777298
1176792222347705	3.9878082	30.33464	-1.346405
1176792230740039	5.476654	32.32086	-2.4259644
1176792239132373	5.056183	27.482254	-6.9324646
1176792247524706	1.2809296	18.284592	-12.191574
1176792255917040	-2.476593	11.756607	-12.179962
1176792264309374	-4.6519012	6.966812	-10.778915
1176792272701708	-6.037094	3.5338745	-9.323532
1176792281094042	-6.7222137	1.3848419	-8.576111
1176792289486376	-6.3168945	0.7498627	-8.593948
1176792297878710	-4.293762	2.0017548	-8.62262
1176792306271044	-0.36213684	5.2003937	-7.323105
1176792314663378	3.346115	10.322464	-4.897293
1176792323055712	6.8054657	15.949142	-0.09811401
1176792331448046	9.911987	20.50914	7.067932
1176792339840380	12.951553	22.453629	13.708496
1176792348232714	16.786469	20.42389	14.040421
1176792356625048	14.971436	13.851624	5.445389
1176792365017382	9.13504	9.328018	-4.4857635
1176792373409716	4.542816	5.8046417	-9.819183
1176792381802050	2.341446	2.9719086	-9.700897
1176792390194384	1.1054688	1.2036743	-6.9092865
1176792398586718	-1.1356812	1.2646484	-5.656143
1176792406979052	-3.3355408	2.86911	-5.082535
1176792415371386	-3.5348053	3.470047	-4.228531
1176792423763720	-3.643982	3.9958038	-3.2234497
1176792432156054	-2.96492	4.8485107	-1.2071533
1176792440548388	-0.5449524	5.9944153	2.2539215
1176792448940722	1.7588806	7.148468	5.311493
1176792457333056	2.4920807	8.297577	7.63118
1176792465725390	2.8743134	8.852936	8.413986
1176792474117724	3.0074615	9.292587	8.648895
1176792482510058	2.7554626	10.117249	9.09404
1176792490902392	1.9045258	11.322586	9.504257
1176792499294726	0.4937439	11.722397	7.7903748
1176792507687060	-0.41737366	11.194809	4.864334
1176792516079394	-0.261261	10.479843	2.8968506
1176792524471728	0.5111542	9.813446	1.4750061
1176792532864062	1.1642761	9.624359	-0.263443
1176792541256396	0.8241577	10.166763	-3.7710266
1176792549648730	-1.389389	11.1839905	-11.353943
1176792558041064	-2.1929169	10.683914	-9.123795
1176792566433398	-1.3873444	9.401978	-4.84848
1176792574825732	0.109695435	8.259399	-1.2370453
1176792583218066	1.3178711	7.5667877	0.9983063
1176792591610400	1.582489	7.21344	2.3307495
1176792600002734	1.1202698	7.1607513	3.0096436
1176792608395068	0.7437897	7.2224274	2.8890228
1176792616787402	0.69737244	7.1642303	2.4749756
1176792625179736	0.92922974	6.9603424	1.9353638
1176792633572070	1.2797241	6.728424	1.4172211
1176792641964404	1.5960083	6.620041	1.0256195
1176792650356738	1.960556	6.5895844	0.7524719
1176792658749072	1.7088623	6.928482	0.74916077
1176792667141406	1.201355	7.348694	0.8323822
1176792675533740	0.77819824	7.712784	0.92541504
1176792683926074	0.51893616	7.975525	0.927063
1176792692318408	0.2593994	8.193619	0.4906006
1176792700710742	-0.14338684	8.4817505	-1.456543
1176792709103076	-0.38937378	8.858643	-3.3949585
1176792717495410	-0.15232849	9.157227	-2.953888
1176792725887744	0.20620728	9.348038	-0.98117065
1176792734280078	0.3164215	9.396439	1.2478027
1176792742672412	0.035064697	9.269867	2.6007385
1176792751064746	-0.096343994	9.013855	2.9083405
1176792759457080	0.52420044	9.111694	2.0294647
1176792767849414	1.0934296	9.61647	1.1282806
1176792776241748	1.38797	10.413223	1.0134277
1176792784634081	1.3679657	11.295227	1.7456512
1176792793026415	1.0696259	11.993515	2.6796112
1176792801418749	0.2771454	12.11676	2.8201752
1176792809811083	-0.3088379	11.801102	1.8654022
1176792818203417	-0.79252625	11.64447	0.71310425
1176792826595751	-1.3776703	11.700165	-0.24209595
1176792834988085	-2.1278229	11.843887	-0.77046204
1176792843380419	-2.8528442	11.873611	-0.8139038
1176792851772753	-2.9641724	11.804016	-0.36361694
1176792860165087	-2.9406738	11.761047	0.9327698
1176792868557421	-2.9087524	11.849258	1.3134003
1176792876949755	-2.7456512	11.905029	0.37467957
1176792885342089	-2.2466736	11.942062	-0.988678
1176792893734423	-1.2651215	12.174515	-1.0401154
1176792902126757	-0.279068	12.652069	0.52719116
1176792910519091	0.7096863	13.127304	1.9054413
1176792918911425	1.3646088	13.994644	2.5646973
1176792927303759	1.9449768	14.84227	2.0323029
1176792935696093	2.6822968	15.130005	0.65467834
1176792944088427	3.615097	14.494766	-0.39300537
1176792952480761	4.537903	13.573914	-0.10585022
1176792960873095	5.3514557	13.300751	-0.27796936
1176792969265429	6.327881	13.301651	-0.52459717
1176792977657763	7.0885925	13.397598	-0.3696289
1176792986050097	7.2076416	13.642136	0.5315399
1176792994442431	6.4729767	14.201691	2.1849213
1176793002834765	5.2920837	14.158936	3.4821167
1176793011227099	5.0034485	13.253799	3.0816345
1176793019619433	6.0662537	12.113327	1.2874603
1176793028011767	7.63768	11.415436	-0.9638672
1176793036404101	8.8363495	11.472382	-2.7444458
1176793044796435	9.160629	12.023712	-3.4571228
1176793053188769	8.288239	12.274948	-3.2298126
1176793061581103	7.112732	11.955048	-1.876648
1176793069973437	5.1480103	11.0439	-0.6439514
1176793078365771	2.9684448	10.00206	0.36586
1176793086758105	1.144516	9.292511	1.2294464
1176793095150439	-0.25315857	9.007721	1.8969879
1176793103542773	-1.1728363	8.7499695	1.3834534
1176793111935107	-1.6848755	8.299301	0.71939087
1176793120327441	-1.7884521	7.7300415	0.6579132
1176793128719775	-1.8427582	7.1392365	0.966156
1176793137112109	-1.9451141	6.4989166	1.3112335
1176793145504443	-1.7289886	5.626068	1.5944672
1176793153896777	-1.4428558	4.7447357	1.6004486
1176793162289111	-0.791214	3.8571777	1.5641327
1176793170681445	0.08015442	3.0258026	1.3544006
1176793179073779	1.0080414	2.240921	1.02771
1176793187466113	1.8831177	1.4703674	0.6656189
1176793195858447	2.679367	0.70401	0.27886963
1176793204250781	2.9210358	0.36079407	-0.49897766
1176793212643115	2.4634552	0.5760498	-1.5312195
1176793221035449	1.8782196	1.0728912	-2.3852997
1176793229427783	1.2723389	1.6206512	-2.910431
1176793237820117	0.7270508	2.0465698	-3.067459
1176793246212451	0.43836975	2.2615051	-2.9378662
1176793254604785	0.42843628	2.198883	-2.5730743
1176793262997119	0.6490936	1.9021759	-2.7868042
1176793271389453	0.49845886	1.4615784	-3.339264
1176793279781787	0.2602539	1.033081	-4.1789856
1176793288174121	0.2783203	0.7650299	-5.203903
1176793296566455	0.43551636	0.74617004	-6.110855
1176793304958789	0.5610962	1.0216522	-6.6073
1176793313351123	0.56588745	1.9145355	-6.725067
1176793321743456	0.39627075	3.538147	-6.465637
1176793330135790	-0.16197205	6.2322693	-5.6934814
1176793338528124	-1.0948944	10.47084	-4.2150726
1176793346920458	-1.7621613	16.561829	-1.9995422
1176793355312792	0.6611328	26.188782	-1.7316589
1176793363705126	3.1484528	34.696213	0.5037384
1176793372097460	4.8731384	37.221863	-0.6473236
1176793380489794	4.8558044	31.564072	-5.3834534
1176793388882128	2.8261719	19.40747	-11.440353
1176793397274462	0.36383057	9.962006	-14.281067
1176793405666796	-1.475357	5.218918	-11.985123
1176793414059130	-2.8732605	2.2798767	-9.807251
1176793422451464	-3.616684	0.19395447	-8.284775
1176793430843798	-3.013977	-0.87672424	-7.6807556
1176793439236132	-0.69892883	-0.48083496	-7.6495056
1176793447628466	2.7059174	1.6856995	-6.932663
1176793456020800	5.077774	6.057556	-4.458084
1176793464413134	6.9564667	11.916977	-1.1187897
1176793472805468	8.193192	17.540817	4.427948
1176793481197802	10.169189	20.820572	10.766663
1176793489590136	13.334305	19.958649	14.640457
1176793497982470	14.418045	14.266754	11.78804
1176793506374804	7.6827393	11.760788	5.70401
1176793514767138	2.7573547	11.414841	-2.3667603
1176793523159472	-0.43910217	10.146683	-8.484665
1176793531551806	-2.032486	7.664383	-9.936157
1176793539944140	-2.5040283	5.2115326	-7.0683746
1176793548336474	-3.2188873	4.191574	-5.899872
1176793556728808	-3.888977	3.8078766	-4.648697
1176793565121142	-4.3889008	3.4312744	-3.1985931
1176793573513476	-3.5387268	3.2854767	-1.9136353
1176793581905810	-1.3014984	3.563507	-0.55410767
1176793590298144	1.447464	4.309189	1.2575226
1176793598690478	3.1810303	5.2614594	3.437378
1176793607082812	3.977188	6.3126984	5.7140045
1176793615475146	4.2681885	7.501877	6.7359924
1176793623867480	4.1975555	8.430908	7.166626
1176793632259814	3.6836548	9.128876	7.203003
1176793640652148	2.7549744	9.880676	7.011963
1176793649044482	2.089981	10.942291	7.5676117
1176793657436816	1.5117798	11.828552	8.130661
1176793665829150	0.83488464	12.014389	6.613678
1176793674221484	0.5322113	11.723419	4.319397
1176793682613818	0.43081665	11.4257965	2.0076752
1176793691006152	-0.24995422	11.5095825	-1.0248413
1176793699398486	-2.9239044	11.734909	-8.734665
1176793707790820	-4.38179	10.508118	-11.477615
1176793716183154	-2.1055603	8.8138275	-7.7077026
1176793724575488	0.6014099	7.7924805	-2.7057648
1176793732967822	1.820816	7.5442505	0.9858856
1176793741360156	1.3132782	7.68898	3.08609
1176793749752490	0.8197632	8.024124	3.579605
1176793758144824	1.1793213	8.042374	3.066513
1176793766537158	1.3928375	7.737015	2.4473114
1176793774929492	1.5557098	7.4188995	2.0486908
1176793783321826	1.7270203	7.2033234	1.9417267
