gyroscope_timestamp	gyroscope_x_data	gyroscope_y_data	gyroscope_z_data
1183709603352528	0.10694885	-0.22415161	0.0025787354
1183709606190663	0.10694885	-0.0054626465	0.0025787354
1183709611226064	0.056869507	-0.0054626465	0.03189087
1183709616230946	0.011657715	-0.032348633	0.053878784
1183709621541005	-0.02255249	-0.060440063	0.06854248
1183709626332265	-0.03843689	-0.07510376	0.0758667
1183709631367665	-0.031082153	-0.07022095	0.0770874
1183709636586171	6.713867E-4	-0.044555664	0.07342529
1183709641438466	0.056869507	-0.0018005371	0.06364441
1183709644795400	0.13383484	0.050720215	0.04899597
1183709651509267	0.22180176	0.10079956	0.025787354
1183709656544667	0.30854797	0.13868713	-0.002319336
1183709661580067	0.3842926	0.16189575	-0.030410767
1183709666615468	0.44171143	0.16921997	-0.05606079
1183709671956044	0.47103882	0.16189575	-0.0756073
1183709676686269	0.46736145	0.14112854	-0.08905029
1183709681721669	0.427063	0.11424255	-0.09515381
1183709686970692	0.3549652	0.08979797	-0.09515381
1183709691792470	0.26211548	0.06904602	-0.0914917
1183709695149403	0.26211548	0.054397583	-0.0914917
1183709701863271	0.051986694	0.054397583	-0.081710815
1183709706898671	-0.046966553	0.044631958	-0.07316589
1183709711934071	-0.1324768	0.05683899	-0.05606079
1183709716999989	-0.20211792	0.082473755	-0.029174805
1183709722462636	-0.25587463	0.11424255	0.0037841797
1183709727040273	-0.25587463	0.14479065	0.0037841797
1183709732045155	-0.29740906	0.14479065	0.03677368
1183709737507802	-0.32673645	0.16677856	0.06364441
1183709742176991	-0.3413849	0.17900085	0.08442688
1183709745503407	-0.33650208	0.18510437	0.0929718
1183709752247792	-0.30963135	0.18510437	0.090530396
1183709757252675	-0.2619934	0.18266296	0.07342529
1183709762257558	-0.19721985	0.17655945	0.050216675
1183709767323476	-0.12637329	0.16555786	0.024551392
1183709772755605	-0.055511475	0.14845276	-0.0010986328
1183709777394276	0.009216309	0.13256836	-0.024291992
1183709782429677	0.060531616	0.119125366	-0.041412354
1183709787709218	0.09352112	0.106918335	-0.046295166
1183709792500478	0.10574341	0.08859253	-0.036499023
1183709795857411	0.103302	0.059280396	-0.014541626
1183709802601796	0.09474182	0.026306152	0.0135650635
1183709807606679	0.08618164	-5.79834E-4	0.041671753
1183709812642079	0.07885742	-0.01524353	0.06732178
1183709817677480	0.07763672	-0.014022827	0.08808899
1183709823018056	0.080078125	0.0043029785	0.10151672
1183709827778798	0.08129883	0.03239441	0.110076904
1183709832783681	0.07763672	0.060516357	0.11619568
1183709838093739	0.064193726	0.08003235	0.12107849
1183709842854482	0.044647217	0.08859253	0.1259613
1183709846211415	0.044647217	0.091033936	0.1259613
1183709852894765	-0.005432129	0.091033936	0.12840271
1183709857991200	-0.023757935	0.09591675	0.12107849
1183709862996083	-0.03475952	0.10568237	0.10519409
1183709868092519	-0.03475952	0.11791992	0.08442688
1183709873494130	-0.037200928	0.11791992	0.06488037
1183709878102284	-0.037200928	0.13378906	0.06488037
1183709883137685	-0.029876709	0.13378906	0.05632019
1183709888417226	-0.016433716	0.13745117	0.05632019
1183709893208485	0.003112793	0.14112854	0.06364441
1183709896565419	0.032440186	0.14356995	0.0758667
1183709903279286	0.0690918	0.14356995	0.094192505
1183709908345204	0.10694885	0.13745117	0.11495972
1183709913350087	0.14483643	0.12524414	0.13816833
1183709918385487	0.16804504	0.10568237	0.16261292
1183709923878651	0.15460205	0.066604614	0.18826294
1183709928456288	0.09352112	-0.0030212402	0.2078247
1183709933491689	-0.0017700195	-0.101989746	0.21759033
1183709938954335	-0.09094238	-0.19726563	0.21026611
1183709943562489	-0.14103699	-0.24369812	0.18826294
1183709946949941	-0.1459198	-0.2192688	0.15649414
1183709953663808	-0.11904907	-0.14108276	0.11740112
1183709958668691	-0.08239746	-0.05189514	0.0770874
1183709963704091	-0.04940796	0.017745972	0.042877197
1183709968739491	-0.031082153	0.060516357	0.020904541
1183709974019032	-0.032318115	0.08370972	0.014785767
1183709978810292	-0.04576111	0.09715271	0.017227173
1183709983845692	-0.064071655	0.10813904	0.023345947
1183709989155751	-0.07872009	0.119125366	0.026992798
1183709993916493	-0.08604431	0.13012695	0.026992798
1183709997303944	-0.08604431	0.13378906	0.026992798
1183710003987294	-0.07872009	0.13378906	0.026992798
1183710009053212	-0.0652771	0.115478516	0.02822876
1183710014210683	-0.051849365	0.09715271	0.029434204
1183710019093495	-0.051849365	0.07272339	0.029434204
1183710024983388	-0.051849365	0.07272339	0.029434204
1183710029164296	-0.051849365	0.02507019	0.029434204
1183710034199696	-0.06895447	0.02507019	0.03555298
1183710039479237	-0.09828186	0.0067443848	0.046554565
1183710044270497	-0.13858032	-0.011581421	0.0599823
1183710047657948	-0.18135071	-0.029907227	0.07342529
1183710054341298	-0.20822144	-0.045776367	0.08198547
1183710059346181	-0.20089722	-0.04701233	0.08320618
1183710064412099	-0.15814209	-0.025009155	0.07952881
1183710069447499	-0.08604431	0.016525269	0.07220459
1183710074879628	-0.006668091	0.060516357	0.06488037
1183710079518300	0.06541443	0.0947113	0.057540894
1183710084553700	0.11550903	0.110580444	0.055099487
1183710089955312	0.14239502	0.110580444	0.057540894
1183710094624501	0.14604187	0.098358154	0.06488037
1183710097950917	0.124069214	0.082473755	0.07342529
1183710104695302	0.07519531	0.06416321	0.07952881
1183710109730702	0.0018920898	0.039733887	0.08442688
1183710114766103	-0.07872009	0.0067443848	0.08564758
1183710119801503	-0.1446991	-0.021347046	0.08442688
1183710125233632	-0.18257141	-0.029907227	0.0770874
1183710129872304	-0.18989563	-0.014022827	0.066101074
1183710134907704	-0.1776886	0.012863159	0.04899597
1183710140309316	-0.15446472	0.036071777	0.030670166
1183710144978505	-0.127594	0.04827881	0.017227173
1183710148335439	-0.127594	0.050720215	0.017227173
1183710155049306	-0.083602905	0.050720215	0.022109985
1183710160603505	-0.067718506	0.05316162	0.03555298
1183710165059071	-0.067718506	0.055618286	0.03555298
1183710170124989	-0.055511475	0.055618286	0.04899597
1183710175343495	-0.043319702	0.060516357	0.061203003
1183710180226308	-0.028640747	0.07028198	0.07220459
1183710185261708	-0.007873535	0.08615112	0.078308105
1183710190510732	0.015335083	0.10813904	0.07952881
1183710195332509	0.0385437	0.13500977	0.0758667
1183710198689442	0.060531616	0.16311646	0.06976318
1183710205403310	0.080078125	0.18998718	0.06364441
1183710210408192	0.100860596	0.21565247	0.053878784
1183710215443593	0.12162781	0.23518372	0.04043579
1183710220478993	0.14483643	0.2461853	0.022109985
1183710225758534	0.1668396	0.24742126	-0.0010986328
1183710230580312	0.18025208	0.24008179	-0.026733398
1183710235615712	0.17781067	0.22665405	-0.05117798
1183710240834218	0.15827942	0.20953369	-0.06706238
1183710245686513	0.12651062	0.18754578	-0.065826416
1183710249043446	0.09352112	0.16433716	-0.04750061
1183710261006337	0.051986694	0.14479065	-0.01210022
1183710263508778	0.051986694	0.11791992	-0.01210022
1183710270863515	0.022659302	0.10813904	-0.03895569
1183710276295644	0.01411438	0.10324097	-0.065826416
1183710280903798	0.011657715	0.11180115	-0.08659363
1183710285939198	0.008010864	0.13624573	-0.0914917
1183710291340810	-0.0029907227	0.17410278	-0.08049011
1183710296040517	-0.021316528	0.2119751	-0.058502197
1183710299611073	-0.021316528	0.24497986	-0.058502197
1183710306111317	-0.044525146	0.24497986	-0.032852173
1183710311116200	-0.06651306	0.26818848	-0.008422852
1183710316212636	-0.08239746	0.2889557	0.011108398
1183710321217519	-0.09094238	0.3146057	0.026992798
1183710326680165	-0.09460449	0.3475952	0.039215088
1183710331257802	-0.09094238	0.38790894	0.04899597
1183710336323720	-0.08483887	0.42822266	0.057540894
1183710341603261	-0.07507324	0.46731567	0.06488037
1183710346394521	-0.06163025	0.50520325	0.07342529
1183710349751454	-0.043319702	0.54185486	0.08198547
1183710356465321	-0.021316528	0.5809479	0.090530396
1183710361500722	0.004333496	0.6224823	0.09541321
1183710366536122	0.02998352	0.6701355	0.10151672
1183710371571523	0.0544281	0.728775	0.10519409
1183710376820546	0.07397461	0.7923126	0.1076355
1183710381672841	0.08129883	0.85461426	0.106414795
1183710386677724	0.07519531	0.9010315	0.10397339
1183710391957265	0.0544281	0.9242554	0.09907532
1183710396748525	0.021438599	0.9266968	0.08930969
1183710400105458	0.021438599	0.9132538	0.08930969
1183710406819325	-0.04940796	0.9132538	0.051437378
1183710411854726	-0.079956055	0.86805725	0.025787354
1183710416890126	-0.10926819	0.83995056	-0.003540039
1183710421956044	-0.13613892	0.81307983	-0.032852173
1183710427357655	-0.15814209	0.78863525	-0.058502197
1183710431996327	-0.17279053	0.7690735	-0.07070923
1183710437031728	-0.17645264	0.75686646	-0.065826416
1183710442280751	-0.1642456	0.75930786	-0.041412354
1183710447102528	-0.1642456	0.78131104	-0.0010986328
1183710450703603	-0.13737488	0.78131104	-0.0010986328
1183710457203847	-0.0970459	0.82040405	0.045318604
1183710462208730	-0.046966553	0.87049866	0.0929718
1183710468312245	0.051986694	0.9242554	0.19194031
1183710472279530	0.051986694	1.0012054	0.19194031
1183710477314931	0.08618164	1.0012054	0.24568176
1183710482350331	0.10206604	1.0060883	0.29699707
1183710487385732	0.100860596	0.98287964	0.33486938
1183710492787343	0.092300415	0.9352417	0.3568573
1183710497487050	0.083740234	0.881485	0.36175537
1183710501088124	0.07885742	0.83628845	0.3568573
1183710507527333	0.07519531	0.8142853	0.34220886
1183710512562734	0.06665039	0.8057556	0.32022095
1183710517598134	0.053207397	0.7923126	0.29089355
1183710522603017	0.03366089	0.7446594	0.25546265
1183710527913075	0.01411438	0.649353	0.22003174
1183710532673817	-0.0042266846	0.5222931	0.19314575
1183710537739735	-0.015213013	0.40013123	0.18093872
1183710542958241	-0.015213013	0.31948853	0.1870575
1183710547810536	-5.493164E-4	0.2987213	0.2053833
1183710551320058	-5.493164E-4	0.33172607	0.2053833
1183710557850819	0.067855835	0.33172607	0.24324036
1183710562886220	0.100860596	0.46487427	0.25056458
1183710567952138	0.1191864	0.5222931	0.24812317
1183710572957021	0.12162781	0.5589447	0.23835754
1183710578236562	0.111846924	0.57606506	0.22615051
1183710583119374	0.09841919	0.5772705	0.21635437
1183710588093739	0.083740234	0.5638275	0.21147156
1183710593800526	0.0715332	0.5381775	0.21270752
1183710598164540	0.0715332	0.49908447	0.21270752
1183710601826650	0.064193726	0.49908447	0.22003174
1183710608235341	0.06541443	0.45143127	0.22859192
1183710613240224	0.07519531	0.40135193	0.2371521
1183710618275624	0.08985901	0.35614014	0.24691772
1183710623372060	0.10574341	0.3207245	0.26036072
1183710628712636	0.120391846	0.2987213	0.28479004
1183710633381825	0.13015747	0.29260254	0.32022095
1183710638447743	0.13627625	0.29995728	0.36297607
1183710643818837	0.1350708	0.31828308	0.4093933
1183710648518544	0.12527466	0.34269714	0.45948792
1183710652729970	0.10450745	0.36836243	0.5120239
1183710658589345	0.0715332	0.39523315	0.56822205
1183710663655263	0.028778076	0.42333984	0.62075806
1183710668690663	-0.021316528	0.44654846	0.66841125
1183710673695546	-0.07751465	0.46243286	0.7075043
1183710679585439	-0.13737488	0.46975708	0.73683167
1183710683766347	-0.19721985	0.46731567	0.7563629
1183710688801747	-0.25463867	0.45877075	0.7624817
1183710694142323	-0.30229187	0.44532776	0.7600403
1183710698872548	-0.33406067	0.43434143	0.75271606
1183710702687245	-0.33406067	0.43190002	0.75271606
1183710708912831	-0.34384155	0.43190002	0.7245941
1183710713978749	-0.32429504	0.47831726	0.7099457
1183710719014150	-0.29252625	0.5381775	0.7062683
1183710724049550	-0.25099182	0.623703	0.7172699
1183710729359609	-0.20333862	0.73243713	0.7441559
1183710734150868	-0.15324402	0.8460541	0.7808075
1183710739125234	-0.15324402	0.947464	0.7808075
1183710744435292	-0.10682678	0.947464	0.84310913
1183710749226552	-0.06895447	1.0232086	0.84310913
1183710753132802	-0.043319702	1.0671844	0.8553314
1183710759297353	-0.032318115	1.0867462	0.85289
1183710764332753	-0.037200928	1.0867462	0.8357849
1183710769368153	-0.043319702	1.0818634	0.8040161
1183710774464589	-0.02619934	1.091629	0.7490387
1183710779896718	0.03488159	1.1331635	0.67085266
1183710784474355	0.13015747	1.2064667	0.58532715
1183710789509755	0.22425842	1.2809906	0.51690674
1183710794789296	0.27311707	1.3262024	0.4814911
1183710799580556	0.26579285	1.323761	0.4753723
1183710803456288	0.22302246	1.2809906	0.4814911
1183710809651357	0.16804504	1.2150116	0.4863739
1183710814717275	0.12283325	1.1417084	0.48269653
1183710819752675	0.10206604	1.0586395	0.4680481
1183710824757558	0.13139343	0.9352417	0.4497223
1183710830281239	0.22180176	0.73487854	0.44604492
1183710834828359	0.35740662	0.44044495	0.4888153
1183710839863759	0.49668884	0.09347534	0.5926666
1183710845326405	0.6017456	-0.2217102	0.7453766
1183710849934560	0.6738434	-0.42207336	0.90663147
1183710854451161	0.7324829	-0.46240234	1.0275879
1183710860035878	0.79234314	-0.32800293	1.0703583
1183710865040761	0.8546448	-0.029907227	1.0275879
1183710872212392	0.91941833	0.40867615	0.9213104
1183710875142079	0.9853821	0.9450226	0.7771454
1183710880146962	0.9853821	1.5265656	0.60609436
1183710885182362	1.0550079	2.0983276	0.60609436
1183710890248280	1.1246643	2.0983276	0.41551208
1183710895588857	1.1979675	2.6114502	0.23103333
1183710900288564	1.2859192	3.0341644	0.090530396
1183710904561025	1.3885651	3.355484	0.014785767
1183710910359364	1.4924011	3.582718	-0.0010986328
1183710915394765	1.580368	3.723236	0.03555298
1183710920399648	1.6573181	3.7818604	0.13328552
1183710925465566	1.7733917	3.753769	0.31900024
1183710930745107	1.99086	3.6401367	0.63175964
1183710935566884	2.340271	3.4605408	1.0801239
1183710940571767	2.7703247	3.2614136	1.6115875
1183710945912343	3.1722717	3.0818176	2.097824
1183710950642567	3.41539	2.9120026	2.3714905
1183710954976064	3.3763123	2.6933136	2.2884216
1183710960713368	2.9975586	2.4147491	1.8265991
1183710965748769	2.352478	2.165512	1.151001
1183710970784169	1.6512299	2.0848846	0.55477905
1183710975880605	1.1295471	2.2302856	0.28112793
1183710981312734	0.9010925	2.5137177	0.36541748
1183710985890370	0.9047394	2.7702637	0.65008545
1183710990925771	0.9841614	2.8961182	0.9273987
1183710996235829	1.00737	2.9071045	1.071579
1183711000996571	0.9365082	2.9034424	1.0789032
1183711005330067	0.9365082	2.9706268	1.0300293
1183711011097890	0.6677246	2.9706268	1.0129395
1183711016163808	0.55900574	3.2956238	1.0703583
1183711021168691	0.4844818	3.416565	1.2059784
1183711026204091	0.4844818	3.4666595	1.408783
1183711032032948	0.44171143	3.4666595	1.6628876
1183711036244374	0.44171143	3.4666595	1.6628876
1183711041310292	0.47225952	3.4666595	1.9353485
1183711046650868	0.51379395	3.4129028	2.1723633
1183711051381093	0.53700256	3.2870636	2.3336182
1183711055897694	0.54312134	3.1038055	2.4289093
1183711061421376	0.55288696	2.9071045	2.4973297
1183711066456776	0.58221436	2.7311707	2.5791779
1183711071492177	0.6225128	2.580902	2.6866913
1183711076527577	0.6530762	2.4465027	2.8088684
1183711081868153	0.6542816	2.3206787	2.911499
1183711086659413	0.6103058	2.2168427	2.9566956
1183711091633778	0.52233887	2.1545258	2.9225006
1183711097035390	0.40750122	2.1484222	2.81987
1183711101735097	0.29266357	2.1985168	2.6744843
1183711106190663	0.20103455	2.2950287	2.518097
1183711111744862	0.13871765	2.4184113	2.373932
1183711116810780	0.095962524	2.5540314	2.2554321
1183711121846181	0.064193726	2.7006378	2.1784515
1183711126942616	0.039764404	2.8680115	2.151596
1183711132191640	0.01411438	3.0647125	2.1735687
1183711136982900	-0.02619934	3.2724152	2.234665
1183711141987782	-0.09094238	3.452011	2.3189545
1183711147297841	-0.18135071	3.5705109	2.4069366
1183711152058583	-0.29496765	3.6230469	2.4900055
1183711156605702	-0.29496765	3.6181488	2.560852
1183711162159901	-0.57595825	3.6181488	2.6158295
1183711169453603	-0.7421112	3.494751	2.6500397
1183711172200185	-0.7421112	3.404358	2.6500397
1183711177266103	-0.9119415	3.404358	2.6598053
1183711182667714	-1.070755	3.3273773	2.604828
1183711187306386	-1.2002563	3.289505	2.604828
1183711192341786	-1.2918854	3.3053894	2.5498657
1183711197773915	-1.3358765	3.3713684	2.4838867
1183711202412587	-1.3260956	3.469101	2.409378
1183711205769521	-1.2564697	3.5705109	2.3323975
1183711212513905	-1.124527	3.6425781	2.2688599
1183711217518788	-0.92658997	3.6511383	2.2371063
1183711222554189	-0.668808	3.5802765	2.2517548
1183711227589589	-0.36705017	3.438568	2.3116302
1183711233052235	-0.048202515	3.251648	2.4069366
1183711237660390	0.25601196	3.0488281	2.5168762
1183711242726308	0.52479553	2.8460236	2.6182709
1183711248036366	0.7483673	2.643219	2.6842499
1183711252797109	0.927948	2.4416199	2.6940155
1183711256123525	1.0684509	2.2412567	2.6378326
1183711262867909	1.1698761	2.0494537	2.5144348
1183711267872792	1.2333832	1.878418	2.3311615
1183711272908192	1.2602692	1.7366943	2.1051483
1183711277974110	1.2590485	1.6352997	1.8656921
1183711283284169	1.2407227	1.5876465	1.6543274
1183711288075429	1.2138519	1.5900879	1.5113983
1183711293049794	1.1747589	1.6230774	1.460083
1183711298787099	1.1185455	1.6499481	1.4979553
1183711303151112	1.0415802	1.6487274	1.59935
1183711306508046	1.0415802	1.6096344	1.59935
1183711313191396	0.83999634	1.6096344	1.8400421
1183711318226796	0.83999634	1.4520264	1.8400421
1183711323262196	0.7263794	1.4520264	1.9084625
1183711328328114	0.61154175	1.3579712	1.9072266
1183711334034901	0.42462158	1.2663422	1.6555634
1183711338368398	0.42462158	1.0879517	1.6555634
1183711343434316	0.3659668	1.0879517	1.4258728
1183711348652821	0.3317566	0.98287964	1.1558838
1183711353474599	0.32199097	0.8631592	0.86753845
1183711356862050	0.3317566	0.72998047	0.5743408
1183711363575917	0.3635254	0.5907135	0.28845215
1183711368580800	0.41482544	0.45755005	0.017227173
1183711373646718	0.48692322	0.34881592	-0.23197937
1183711378651601	0.57733154	0.2803955	-0.45310974
1183711384144765	0.6884918	0.25839233	-0.63882446
1183711388722401	0.81799316	0.2803955	-0.7842102
1183711393757802	0.96339417	0.34269714	-0.8868408
1183711399128896	1.1197815	0.43190002	-0.94181824
1183711403828603	1.2822571	0.53208923	-0.93814087
1183711407185536	1.4435272	0.6139221	-0.87216187
1183711413930432	1.5913544	0.6530304	-0.7426605
1183711418935315	1.7062073	0.6347046	-0.55818176
1183711423970715	1.7733917	0.5675049	-0.33094788
1183711429006116	1.7831726	0.47831726	-0.076828
1183711434499280	1.7416229	0.39891052	0.1894989
1183711439076916	1.6671143	0.3524933	0.4570465
1183711444112317	1.5766907	0.3390503	0.7197113
1183711449513928	1.4862823	0.3475952	0.97016907
1183711454183118	1.3970947	0.35369873	1.1925354
1183711457601086	1.3970947	0.34513855	1.1925354
1183711464253918	1.3018036	0.34513855	1.3672333
1183711469289319	1.1942902	0.3304901	1.4832916
1183711474355237	1.0818939	0.32192993	1.5443878
1183711479360120	0.9731598	0.31948853	1.5541534
1183711484700696	0.875412	0.3048401	1.5272827
1183711489461438	0.77523804	0.26939392	1.4698486
1183711494466321	0.6604004	0.22665405	1.3904572
1183711499776379	0.52723694	0.19854736	1.2963715
1183711504567639	0.386734	0.19364929	1.1937408
1183711507924573	0.24378967	0.20098877	1.0874634
1183711514638440	0.095962524	0.21685791	0.95796204
1183711519643323	-0.060394287	0.24497986	0.7832489
1183711524678723	-0.22044373	0.29751587	0.57922363
1183711529744641	-0.36582947	0.37690735	0.4203949
1183711535207287	-0.47088623	0.46975708	0.38006592
1183711539784924	-0.5222168	0.5565033	0.46681213
1183711544850842	-0.516098	0.6273651	0.62564087
1183711550099866	-0.4611206	0.6737976	0.7991333
1183711554891125	-0.36460876	0.6921234	0.9665222
1183711558248059	-0.36460876	0.689682	1.1314392
1183711564992444	-0.08850098	0.689682	1.29393
1183711570027844	0.08618164	0.689682	1.4380798
1183711575063245	0.29144287	0.6909027	1.5431671
1183711580037610	0.53089905	0.66645813	1.5957031
1183711585561291	0.79722595	0.6114807	1.6017914
1183711590138928	1.0721283	0.54429626	1.5700378
1183711595174328	1.3128052	0.4746399	1.4674072
1183711600728528	1.4459839	0.40257263	1.2047424
1183711605245129	1.4459839	0.3439331	0.71850586
1183711608632580	1.4080963	0.3439331	0.71850586
1183711615346448	1.2114105	0.34881592	0.07098389
1183711620351330	0.954834	0.45999146	-0.57162476
1183711625386731	0.7422638	0.6518097	-1.0566559
1183711630422131	0.6103058	0.84239197	-1.3425293
1183711635732190	0.52601624	0.9682312	-1.474472
1183711640492932	0.43804932	1.0280914	-1.5111237
1183711645558850	0.3183136	1.0623016	-1.489151
1183711651174084	0.18148804	1.0855103	-1.4341736
1183711655599133	0.059310913	1.0855103	-1.3620758
1183711658956067	-0.028640747	1.0537415	-1.2729034
1183711665700452	-0.08850098	1.0048828	-1.1470642
1183711675221936	-0.16668701	0.9584656	-0.7487793
1183711680776135	-0.17524719	0.84484863	-0.5019989
1183711685811536	-0.1630249	0.728775	-0.24786377
1183711690846936	-0.14225769	0.5723877	-0.0010986328
1183711695882336	-0.12637329	0.41357422	0.2212677
1183711701528088	-0.1129303	0.27919006	0.41307068
1183711705953137	-0.10192871	0.16677856	0.58166504
1183711709310071	-0.10192871	0.06295776	0.58166504
1183711716023938	-0.1593628	0.06295776	0.85899353
1183711721059338	-0.25587463	0.0055236816	0.9408417
1183711726125256	-0.35362244	0.099594116	0.9872894
1183711731282727	-0.40003967	0.2144165	1.019043
1183711736989514	-0.38171387	0.29751587	1.0422516
1183711741231457	-0.33529663	0.35858154	1.0532532
1183711746236340	-0.2962036	0.43190002	1.0544739
1183711752126233	-0.26931763	0.5064087	1.0593567
1183711756307141	-0.26931763	0.55041504	1.0593567
1183711759664075	-0.24731445	0.55041504	1.071579
1183711766438977	-0.23999023	0.5613861	1.0752411
1183711771413342	-0.26319885	0.5723877	1.0569153
1183711776448743	-0.32185364	0.6053772	1.0129395
1183711781514661	-0.4098053	0.6652374	0.9506378
1183711787007825	-0.52098083	0.75686646	0.87731934
1183711791646496	-0.6480408	0.8790436	0.7991333
1183711796620862	-0.77511597	1.0207672	0.7172699
1183711802602307	-0.8801727	1.1637115	0.6305237
1183711806661145	-0.93392944	1.2907562	0.53767395
1183711810048596	-0.9253845	1.3836212	0.44728088
1183711816762463	-0.8520813	1.4324951	0.36419678
1183711821767346	-0.7237854	1.4337006	0.29577637
1183711826802746	-0.55274963	1.397049	0.24691772
1183711831868664	-0.35482788	1.3298645	0.2212677
1183711837178723	-0.14958191	1.2382202	0.2237091
1183711842244641	0.049545288	1.1319427	0.25424194
1183711846974866	0.23768616	1.026886	0.30311584
1183711852162854	0.40994263	0.9364624	0.3568573
1183711857015149	0.5602112	0.8766022	0.40818787
1183711860402600	0.5602112	0.8509369	0.40818787
1183711867116467	0.7532501	0.8509369	0.4814911
1183711872121350	0.7850189	0.881485	0.5022583
1183711877187268	0.77401733	0.9095917	0.5083618
1183711882497327	0.7214966	0.9328003	0.49613953
1183711888051526	0.6359558	0.9499054	0.4656067
1183711892446057	0.52967834	0.9621124	0.4228363
1183711897298352	0.52967834	0.9682312	0.4228363
1183711903279797	0.2975464	0.9682312	0.32876587
1183711907399670	0.2975464	0.9376831	0.32876587
1183711910756604	0.19125366	0.9376831	0.28723145
1183711917500989	0.09841919	0.894928	0.25180054
1183711922505871	0.020217896	0.83995056	0.23223877
1183711927541272	-0.051849365	0.7800751	0.23223877
1183711932546155	-0.1300354	0.72265625	0.25668335
1183711938069836	-0.22654724	0.676239	0.30799866
1183711942800061	-0.34872437	0.65057373	0.38252258
1183711947652356	-0.490448	0.6518097	0.47660828
1183711952840344	-0.60894775	0.6713562	0.58166504
1183711957753674	-0.63461304	0.6823425	0.68673706
1183711961049573	-0.517334	0.66767883	0.786911
1183711967854993	-0.27664185	0.6444702	0.8907471
1183711972859875	-0.007873535	0.6310425	1.0117035
1183711977895276	0.19125366	0.623703	1.1412048
1183711982930676	0.27189636	0.5955963	1.2584991
1183711988759534	0.24502563	0.53453064	1.342804
1183711993398205	0.1533966	0.45143127	1.3928986
1183711998036877	0.023880005	0.37690735	1.4136658
1183712004231946	-0.1324768	0.33172607	1.4063416
1183712008107678	-0.31329346	0.32437134	1.368454
1183712011434094	-0.31329346	0.3524933	1.368454
1183712018147961	-0.7030182	0.3524933	1.2206268
1183712023213879	-0.8728485	0.46487427	1.1424408
1183712028249280	-1.0096893	0.52108765	1.0813446
1183712033772961	-1.111084	0.5613861	1.0520325
1183712038991467	-1.1758423	0.5809479	1.0630188
1183712043843762	-1.2014923	0.57850647	1.1192322
1183712048390881	-1.2014923	0.56018066	1.1192322
1183712054463879	-1.1257477	0.56018066	1.3403625
1183712058431164	-1.1257477	0.45632935	1.3403625
1183712061818616	-1.0304565	0.45632935	1.4674072
1183712068532483	-0.91438293	0.36470032	1.5724792
1183712073628918	-0.7934418	0.26939392	1.6408844
1183712078572766	-0.6846924	0.19976807	1.6775665
1183712084615246	-0.59672546	0.16677856	1.7007751
1183712089131848	-0.530777	0.15821838	1.7264252
1183712094411389	-0.48068237	0.14845276	1.756958
1183712098714368	-0.43423462	0.12400818	1.7814026
1183712104146496	-0.38415527	0.091033936	1.7887268
1183712108785168	-0.33406067	0.06904602	1.7728424
1183712112172620	-0.2937622	0.066604614	1.7386322
1183712118886487	-0.26564026	0.078826904	1.6946564
1183712124104993	-0.24731445	0.099594116	1.6494446
1183712128926770	-0.22654724	0.12156677	1.6005859
1183712134236828	-0.19477844	0.14356995	1.5419464
1183712139485852	-0.15324402	0.16677856	1.4662018
1183712144734875	-0.10560608	0.18632507	1.3733368
1183712149098889	-0.060394287	0.20343018	1.2646027
1183712154683606	-0.016433716	0.22053528	1.1448822
1183712159169690	0.028778076	0.24008179	1.0178223
1183712162465588	0.028778076	0.25839233	1.0178223
1183712169240491	0.13383484	0.25839233	0.7759247
1183712174458996	0.20469666	0.26330566	0.6830597
1183712179280774	0.2975464	0.23886108	0.61953735
1183712184560315	0.41726685	0.19488525	0.58898926
1183712189687268	0.56388855	0.13989258	0.57922363
1183712195363537	0.7337036	0.08003235	0.57310486
1183712199422375	0.7337036	0.016525269	0.57310486
1183712205159680	0.9230652	0.016525269	0.5083618
1183712209523694	1.1234283	-0.05189514	0.5083618
1183712212880627	1.322586	-0.12884521	0.44239807
1183712219563977	1.5046082	-0.2168274	0.35809326
1183712224904553	1.6487885	-0.3047943	0.26768494
1183712229665295	1.7379608	-0.37565613	0.17481995
1183712235585705	1.7660675	-0.41841125	0.078308105
1183712240010754	1.7391815	-0.4342804	-0.024291992
1183712245503918	1.6695557	-0.43917847	-0.13546753
1183712249776379	1.5620422	-0.4477234	-0.25274658
1183712255391614	1.4105377	-0.45262146	-0.37860107
1183712259877698	1.2101746	-0.43307495	-0.5203247
1183712263173596	0.9572754	-0.3683319	-0.6876831
1183712269948498	0.65919495	-0.253479	-0.86972046
1183712275685803	0.34152222	-0.108078	-1.0285645
1183712279988782	0.03488159	0.039733887	-1.1238556
1183712285756604	-0.22410583	0.16555786	-1.1409454
1183712290578381	-0.4098053	0.2596283	-1.0981903
1183712296071545	-0.52098083	0.31948853	-1.0310059
1183712300130383	-0.56863403	0.3439331	-0.9589081
1183712305959241	-0.57351685	0.3304901	-0.8868408
1183712310231702	-0.55274963	0.28527832	-0.8147583
1183712313527600	-0.55274963	0.22175598	-0.8147583
1183712320302502	-0.4476776	0.22175598	-0.6461487
1183712326070325	-0.31697083	0.18388367	-0.5252075
1183712330342786	-0.31697083	0.3439331	-0.3724823
1183712336171643	0.17660522	0.3439331	-0.21121216
1183712340718762	0.17660522	0.90715027	-0.21121216
1183712346608655	0.6604004	0.90715027	-0.034057617
1183712350484387	0.6604004	0.6065979	-0.034057617
1183712356404797	0.83755493	0.6065979	-0.052383423
1183712360585705	1.0220337	0.15333557	-0.113479614
1183712363942639	1.2346191	-0.15452576	-0.18188477
1183712370625989	1.4606323	-0.18873596	-0.23442078
1183712376485364	1.6756439	-0.05189514	-0.2576294
1183712380727307	1.8699188	0.067840576	-0.24542236
1183712387197034	2.043396	0.075149536	-0.19044495
1183712391438977	2.2046661	-0.007904053	-0.09881592
1183712397023694	2.3500366	-0.12275696	0.014785767
1183712400838391	2.4636688	-0.24247742	0.13572693
1183712406453625	2.5125427	-0.36341858	0.26036072
1183712410909192	2.4697723	-0.47460938	0.3861847
1183712414296643	2.3317108	-0.5515747	0.49858093
1183712421010510	2.1179352	-0.5760193	0.57188416
1183712427052991	1.851593	-0.5430298	0.58288574
1183712431050793	1.5547028	-0.46484375	0.529129
1183712437581555	1.2407227	-0.36097717	0.42407227
1183712441579358	0.92430115	-0.2498169	0.28723145
1183712447316662	0.6103058	-0.14108276	0.13328552
1183712451192395	0.30366516	-0.032348633	-0.018188477
1183712456838147	0.0104522705	0.082473755	-0.15867615
1183712461293713	-0.259552	0.19854736	-0.2735138
1183712464589612	-0.259552	0.3048401	-0.2735138
1183712471364514	-0.6810303	0.3048401	-0.4042511
1183712477040784	-0.826416	0.45510864	-0.4237976
1183712481404797	-0.826416	0.49420166	-0.4237976
1183712487355725	-1.0280151	0.49420166	-0.4225769
1183712491963879	-1.0280151	0.54185486	-0.4225769
1183712498067395	-1.136734	0.54185486	-0.43966675
1183712501546399	-1.136734	0.6041565	-0.43966675
1183712507680432	-1.1575165	0.6041565	-0.47999573
1183712511647717	-1.1587219	0.6322479	-0.54963684
1183712514943616	-1.1477356	0.6518097	-0.6510315
1183712521718518	-1.1318512	0.66645813	-0.77931213
1183712527730481	-1.1159668	0.6811218	-0.92593384
1183712531758801	-1.1086426	0.6970062	-1.0774231
1183712538045422	-1.1171875	0.7104492	-1.2276917
1183712542165295	-1.1440735	0.72265625	-1.3742981
1183712548360364	-1.1807251	0.74098206	-1.5233612
1183712551930920	-1.2124939	0.7874298	-1.694397
1183712558095471	-1.2295837	0.8875885	-1.9057617
1183712561971203	-1.2271423	1.0500946	-2.1635437
1183712565358655	-1.1953735	1.2406616	-2.4567413
1183712572072522	-1.1257477	1.3921661	-2.759735
1183712578145520	-1.0157776	1.4312592	-3.044403
1183712582143323	-0.8752899	1.3274078	-3.2924042
1183712588796155	-0.721344	1.103836	-3.4927826
1183712592488782	-0.5723114	0.8191681	-3.6381683
1183712597219006	-0.4415741	0.52108765	-3.7285614
1183712602284924	-0.33894348	0.22541809	-3.756668
1183712607564465	-0.26075745	-0.081222534	-3.7212372
1183712612355725	-0.20701599	-0.42695618	-3.622284
1183712615712659	-0.20701599	-0.8252411	-3.622284
1183712622426526	-0.17156982	-0.8252411	-3.4658966
1183712628591077	-0.09094238	-1.2552948	-3.0260773
1183712632466809	-0.09094238	-1.9675598	-3.0260773
1183712637502209	-0.006668091	-1.9675598	-2.7841797
1183712642964856	0.11428833	-2.1239471	-2.5532684
1183712647603528	0.25723267	-2.127594	-2.3394623
1183712652608411	0.39894104	-2.023758	-2.1403198
1183712658132092	0.51745605	-1.8771362	-1.950943
1183712662709729	0.59565735	-1.7513123	-1.7750244
1183712666036145	0.6261902	-1.691452	-1.6162109
1183712672811047	0.6127472	-1.7122192	-1.474472
1183712678975598	0.56144714	-1.791626	-1.3486481
1183712682820813	0.48324585	-1.8820496	-1.2374573
1183712689351575	0.3842926	-1.9296875	-1.1433868
1183712693135754	0.26579285	-1.9064636	-1.0664215
1183712697927014	0.12771606	-1.8136292	-1.0041199
1183712702962414	-0.03352356	-1.6548004	-0.9564667
1183712708486096	-0.20822144	-1.4116669	-0.9344635
1183712713063733	-0.37805176	-1.070816	-0.94670105
1183712716359631	-0.37805176	-0.65052795	-0.94670105
1183712723134534	-0.66026306	-0.65052795	-1.0590973
1183712729390637	-0.7665558	0.24497986	-1.1311798
1183712733174817	-0.8545227	0.6359253	-1.1996002
1183712739888684	-0.9278259	0.9315796	-1.2619019
1183712743489758	-0.9913635	1.0830688	-1.3205414
1183712748311536	-1.0475464	1.065979	-1.3681946
1183712753346936	-1.0988617	0.90592957	-1.4024048
1183712758870618	-1.1452942	0.662796	-1.4207306
1183712763417737	-1.1807251	0.40257263	-1.4292908
1183712766744153	-1.1807251	0.18632507	-1.4292908
1183712773488537	-1.197815	0.18632507	-1.4280548
1183712778493420	-1.1917267	0.07272339	-1.421936
1183712783559338	-1.1611633	0.11180115	-1.4182892
1183712788564221	-1.1086426	0.3121643	-1.4341736
1183712793935315	-1.0390015	0.6261444	-1.4842682
1183712798635022	-0.96203613	0.9621124	-1.5771027
1183712803670422	-0.8875122	1.2260132	-1.70784
1183712809010998	-0.8203125	1.3579712	-1.8617706
1183712813741223	-0.7531128	1.3310852	-2.0291443
1183712817128674	-0.67370605	1.1453857	-2.1989594
1183712823842541	-0.5796356	0.8118439	-2.3516693
1183712828969495	-0.4782257	0.3598175	-2.4653015
1183712833913342	-0.37927246	-0.16305542	-2.5251617
1183712838948743	-0.27908325	-0.6676483	-2.5300446
1183712844777600	-0.17034912	-1.0549316	-2.493393
1183712848989026	-0.053085327	-1.2455139	-2.4225311
1183712854024426	0.07519531	-1.2345276	-2.3199158
1183712859517590	0.23402405	-1.0243835	-2.1855164
1183712864095227	0.46736145	-0.5943451	-2.0389252
1183712867452161	0.46736145	-0.0042419434	-2.0389252
1183712874196545	1.2052917	-0.0042419434	-1.8043518
1183712879201428	1.6060181	0.73487854	-1.7286072
1183712884267346	1.9603119	0.623703	-1.6626282
1183712889272229	2.2816315	0.42578125	-1.6003265
1183712894765393	2.598053	0.3622589	-1.540451
1183712899373547	2.9022675	0.43310547	-1.4781494
1183712904408948	3.149063	0.51620483	-1.396286
1183712909902112	3.3042145	0.54185486	-1.2875519
1183712914449231	3.3042145	0.5222931	-1.2875519
1183712917836682	3.3689575	0.5222931	-1.1605072
1183712924520032	3.3750763	0.48564148	-1.0444336
1183712929585950	3.3616333	0.44778442	-0.9637909
1183712934621350	3.3298645	0.41357422	-0.9344635
1183712939656750	3.2138062	0.35614014	-0.9686737
1183712945394055	2.921814	0.16189575	-1.0835266
1183712949697034	2.428238	-0.33532715	-1.257019
1183712954762952	1.8039398	-1.2052002	-1.4243774
1183712960103528	1.1478729	-2.303543	-1.5331268
1183712964833752	0.50157166	-3.3419952	-1.5929871
1183712968221203	-0.1312561	-4.043274	-1.6638336
1183712974904553	-0.7237854	-4.2631683	-1.7652588
1183712979939953	-1.2124939	-4.0212708	-1.8629913
1183712984944836	-1.5509033	-3.475174	-1.9167328
1183712989980237	-1.7475891	-2.8203125	-1.9326172
1183712995870129	-1.8502197	-2.1911316	-1.938736
1183713000081555	-1.9003143	-1.6217957	-1.9497375
1183713005086438	-1.9088593	-1.1086731	-1.952179
1183713010457532	-1.8648834	-0.6627655	-1.9350586
1183713015187756	-1.7671509	-0.30355835	-1.9008636
1183713018483655	-1.7671509	-0.016464233	-1.9008636
1183713025258557	-1.4739227	-0.016464233	-1.8348846
1183713030324475	-1.31633	0.53697205	-1.8141174
1183713035329358	-1.1685028	0.87538147	-1.8006744
1183713040364758	-1.0426636	1.269989	-1.7799072
1183713046224133	-0.9229431	1.7086029	-1.7029572
1183713050405041	-0.761673	2.0885468	-1.4830322
1183713055440442	-0.761673	2.2156067	-1.4830322
1183713060933606	-0.20701599	2.2156067	-0.47387695
1183713065541760	-0.20701599	1.4679108	-0.47387695
1183713068868176	0.07519531	1.4679108	0.1235199
1183713075643078	0.25723267	1.0745087	0.5608978
1183713080617444	0.34031677	1.0085602	0.7539215
1183713085683362	0.38061523	1.179596	0.7331543
1183713090718762	0.4111786	1.3139801	0.58898926
1183713096456067	0.41362	1.2272339	0.4069519
1183713100759045	0.3659668	0.9364624	0.23469543
1183713105824963	0.27311707	0.57606506	0.094192505
1183713111318127	0.17048645	0.26939392	-0.008422852
1183713115895764	0.0874176	0.07392883	-0.076828
1183713119252698	0.031219482	-0.016464233	-0.1269226
1183713125936047	-0.0029907227	-0.044555664	-0.18067932
1183713131001965	-0.028640747	-0.065338135	-0.25642395
1183713136037366	-0.06895447	-0.1374054	-0.3700409
1183713141072766	-0.15446472	-0.30355835	-0.5252075
1183713146382825	-0.29985046	-0.5809021	-0.7108917
1183713151143567	-0.490448	-0.9413147	-0.89782715
1183713156178967	-0.7005768	-1.3188324	-1.0505371
1183713161580578	-0.9119415	-1.6609039	-1.1409454
1183713166219250	-1.1184082	-1.9528961	-1.1605072
1183713169606702	-1.1184082	-2.2143402	-1.1605072
1183713176381604	-1.5240173	-2.2143402	-1.0322113
1183713181386487	-1.7011719	-2.7018127	-0.9320221
1183713186360852	-1.8355713	-2.9217224	-0.8391876
1183713191426770	-1.9113007	-3.1196594	-0.76342773
1183713196919934	-1.928421	-3.2858124	-0.7096863
1183713201497571	-1.928421	-3.4079742	-0.7096863
1183713206532971	-1.889328	-3.4079742	-0.6717987
1183713212392346	-1.665741	-3.4727325	-0.61561584
1183713216573254	-1.665741	-3.4067535	-0.61561584
1183713219930188	-1.4910431	-3.4067535	-0.57406616
1183713226674573	-1.2906799	-3.2894592	-0.5093231
1183713231740491	-1.070755	-3.1343079	-0.41645813
1183713236745373	-0.827652	-2.954712	-0.29307556
1183713241780774	-0.5539856	-2.7592316	-0.13668823
1183713247273938	-0.24610901	-2.5503235	0.06364441
1183713251851575	0.08129883	-2.3243103	0.32876587
1183713256856457	0.4050598	-2.061615	0.66596985
1183713262746350	0.7031708	-1.7256622	1.0520325
1183713266927258	0.9756012	-1.2723999	1.4283142
1183713270284192	1.2443848	-0.67375183	1.7251892
1183713276998059	1.5424805	0.054397583	1.9047852
1183713282033459	1.8845673	0.85583496	1.9707642
1183713287099377	2.2608643	1.6731567	1.9561157
1183713292165295	2.6347046	2.4953918	1.8901367
1183713297841565	2.9242554	3.2601776	1.756958
1183713302205578	3.0391083	3.7708588	1.5113983
1183713307240979	2.9499207	3.831955	1.161972
1183713312734143	2.7263336	3.4715424	0.8064575
1183713317311780	2.470993	2.9254456	0.56944275
1183713320668713	2.470993	2.3671112	0.56944275
1183713327382580	1.9700928	2.3671112	0.4998169
1183713332387463	1.6683197	1.0843048	0.55233765
1183713337422864	1.3262329	0.36592102	0.65740967
1183713342488782	1.3262329	-0.23149109	0.84921265
1183713347829358	0.6469574	-0.64320374	1.1155548
1183713352559582	0.6469574	-0.9229889	1.1155548
1183713357594983	0.37696838	-0.9229889	1.3757782
1183713363362805	0.07763672	-1.1514435	1.5248413
1183713367665784	0.07763672	-1.5167389	1.5248413
1183713371022717	0.05076599	-1.5167389	1.3733368
1183713377706067	0.07763672	-1.6059418	1.1302032
1183713382802502	0.116744995	-1.6621246	0.8553314
1183713387807385	0.124069214	-1.7317657	0.58654785
1183713392812268	0.07519531	-1.8233948	0.34220886
1183713398305432	-0.023757935	-1.9064636	0.1418457
1183713402974621	-0.1446991	-1.9516754	0.0050201416
1183713407918469	-0.24731445	-1.9370117	-0.06706238
1183713413869397	-0.2937622	-1.8258362	-0.093933105
1183713418019787	-0.2644348	-1.5875854	-0.1085968
1183713421315686	-0.16790771	-1.2198639	-0.13058472
1183713428090588	-0.046966553	-0.7751465	-0.17211914
1183713433095471	0.051986694	-0.34020996	-0.23077393
1183713438161389	0.092300415	0.0018615723	-0.2893982
1183713443196789	0.06541443	0.21321106	-0.31996155
1183713448659436	-0.012756348	0.31092834	-0.307724
1183713453237073	-0.111709595	0.3414917	-0.255188
1183713458302991	-0.20211792	0.3475952	-0.17456055
1183713463796155	-0.2644348	0.34513855	-0.08049011
1183713468373791	-0.29496765	0.3292694	0.008666992
1183713471700207	-0.29496765	0.2913971	0.008666992
1183713478444592	-0.26564026	0.2913971	0.110076904
1183713483449475	-0.20333862	0.17532349	0.11740112
1183713488515393	-0.20333862	0.11424255	0.10397339
1183713493550793	-0.1129303	0.11424255	0.10397339
1183713498860852	-0.009109497	0.050720215	0.08564758
1183713503591077	0.100860596	-0.007904053	0.074645996
1183713508656995	0.22790527	-0.032348633	0.07342529
1183713513997571	0.38305664	-0.0018005371	0.07952881
1183713518697278	0.53211975	0.055618286	0.08808899
1183713522084729	0.61398315	0.06539917	0.10397339
1183713528798596	0.59321594	-0.020126343	0.12840271
1183713533803479	0.49546814	-0.174057	0.16017151
1183713538869397	0.37329102	-0.31211853	0.19802856
1183713543874280	0.26579285	-0.37197876	0.24079895
1183713549367444	0.18269348	-0.34877014	0.29089355
1183713553945080	0.12527466	-0.27546692	0.34587097
1183713558980481	0.080078125	-0.18261719	0.39718628
1183713564351575	0.021438599	-0.09710693	0.39839172
1183713569081799	-0.060394287	-0.037231445	0.27622986
1183713572377698	-0.12025452	-0.017684937	0.029434204
1183713579152600	-0.09338379	-0.03845215	-0.21853638
1183713584218518	0.028778076	-0.06777954	-0.30651855
1183713589223401	0.17660522	-0.05555725	-0.21244812
1183713594258801	0.27677917	0.027511597	-0.054840088
1183713599721448	0.3170929	0.15945435	0.04899597
1183713604299084	0.3354187	0.29016113	0.090530396
1183713609395520	0.36108398	0.37690735	0.11251831
1183713614827649	0.39285278	0.40623474	0.13452148
1183713619405286	0.4185028	0.38058472	0.14794922
1183713622792737	0.4185028	0.30116272	0.14794922
1183713629506604	0.43927002	0.30116272	0.14916992
1183713634511487	0.43927002	-0.009140015	0.14916992
1183713639546887	0.45759583	-0.009140015	0.15284729
1183713644612805	0.49913025	-0.2033844	0.16993713
1183713649922864	0.56388855	-0.3683319	0.2029419
1183713654683606	0.64331055	-0.47338867	0.24812317
1183713659719006	0.723938	-0.5259247	0.29333496
1183713665608899	0.79722595	-0.563797	0.32022095
1183713669789807	0.85588074	-0.61631775	0.32266235
1183713673116223	0.89253235	-0.6835327	0.30065918
1183713679860608	0.9047394	-0.7556	0.26036072
1183713684896008	0.88764954	-0.82891846	0.21270752
1183713689900891	0.84732056	-0.9071045	0.16381836
1183713694936291	0.79112244	-0.99261475	0.11495972
1183713700307385	0.7398224	-1.070816	0.06976318
1183713705068127	0.7080536	-1.1257935	0.034332275
1183713710073010	0.6994934	-1.1428833	0.01600647
1183713715779797	0.7056122	-1.123352	0.0135650635
1183713720113293	0.7153778	-1.0769043	0.025787354
1183713723531262	0.7214966	-1.026825	0.05632019
1183713730184094	0.72514343	-0.9962921	0.122283936
1183713735280530	0.7300415	-1.0097198	0.23347473
1183713740254895	0.7422638	-1.0683746	0.3776245
1183713745290295	0.7618103	-1.1380005	0.5205841
1183713750783459	0.7837982	-1.1636505	0.62931824
1183713755361096	0.80822754	-1.1209106	0.6879425
1183713760396496	0.83755493	-1.0463715	0.6989441
1183713765859143	0.8803253	-1.0109406	0.67697144
1183713770467297	0.9389496	-1.057373	0.6439667
1183713773824231	0.9389496	-1.1758881	0.6439667
1183713780568616	1.0110321	-1.1758881	0.62197876
1183713785634534	1.0892181	-1.3237152	0.61831665
1183713790608899	1.1637573	-1.4507599	0.62319946
1183713795674817	1.226059	-1.5106354	0.62687683
1183713801137463	1.2773743	-1.4788666	0.6280823
1183713805745618	1.3213501	-1.3652496	0.6329651
1183713810781018	1.3677673	-1.2125397	0.63786316
1183713816609875	1.4068909	-1.057373	0.6305237
1183713820821301	1.4129791	-0.8997803	0.60365295
1183713824178235	1.3665619	-0.7042999	0.5608978
1183713830922620	1.2798157	-0.4501648	0.5083618
1183713835927502	1.2077332	-0.18629456	0.45092773
1183713840962903	1.2016296	6.4086914E-4	0.39230347
1183713846028821	1.2749329	0.04951477	0.3360901
1183713851338879	1.4105377	-0.023788452	0.28112793
1183713856130139	1.5705872	-0.13619995	0.2395935
1183713861135022	1.7220764	-0.1899414	0.23469543
1183713866872327	1.8393555	-0.12884521	0.29211426
1183713871205823	1.9065704	0.034851074	0.40818787
1183713874562756	1.9065704	0.22419739	0.54989624
1183713881246106	1.811264	0.22419739	0.66596985
1183713886281506	1.6047821	0.26574707	0.7245941
1183713891347424	1.2859192	0.06295776	0.7197113
1183713896382825	0.8962097	-0.1691742	0.6671753
1183713902272717	0.50401306	-0.30355835	0.58898926
1183713906423108	0.169281	-0.27668762	0.49369812
1183713911458508	-0.0811615	-0.12031555	0.3776245
1183713916799084	-0.24731445	0.098358154	0.2395935
1183713921559827	-0.33039856	0.31948853	0.08808899
1183713924855725	-0.33039856	0.5198517	0.08808899
1183713931630627	-0.33406067	0.5198517	-0.06462097
1183713936666028	-0.27664185	0.68356323	-0.21000671
1183713941670911	-0.19113159	0.794754	-0.34317017
1183713946736828	-0.11048889	0.83628845	-0.46043396
1183713952168957	-0.05429077	0.8032837	-0.56430054
1183713956807629	-0.032318115	0.72021484	-0.6632538
1183713961843030	-0.044525146	0.623703	-0.7573395
1183713967671887	-0.083602905	0.54429626	-0.841629
1183713971883313	-0.13491821	0.4905243	-0.9112549
1183713975240246	-0.18379211	0.45877075	-0.96746826
1183713981954114	-0.2253418	0.44288635	-1.0090027
1183713986989514	-0.25463867	0.44044495	-1.0358887
1183713992024914	-0.27420044	0.45387268	-1.0456543
1183713997060315	-0.28152466	0.48199463	-1.0419922
1183714002431409	-0.28276062	0.52108765	-1.0285645
1183714007161633	-0.28520203	0.5589447	-1.0114441
1183714012166516	-0.2937622	0.5797119	-0.99191284
1183714017720715	-0.30841064	0.57118225	-0.96990967
1183714022267834	-0.32185364	0.53697205	-0.93937683
1183714025624768	-0.32185364	0.4880829	-0.93937683
1183714032308118	-0.31941223	0.4880829	-0.86239624
1183714037343518	-0.30352783	0.39768982	-0.8257446
1183714042409436	-0.28396606	0.36714172	-0.7964325
1183714047414319	-0.26564026	0.3475952	-0.7744293
1183714052785412	-0.25343323	0.33416748	-0.7683258
1183714057515637	-0.24855042	0.32437134	-0.7781067
1183714062520520	-0.24731445	0.31092834	-0.80007935
1183714067891614	-0.23754883	0.29016113	-0.8208618
1183714072621838	-0.23754883	0.2620697	-0.8208618
1183714076619641	-0.20822144	0.2620697	-0.8245239
1183714082692639	-0.15692139	0.2278595	-0.8049774
1183714087758557	-0.09094238	0.19364929	-0.7646637
1183714092732922	-0.024993896	0.16433716	-0.7108917
1183714097768323	0.028778076	0.14601135	-0.65715027
1183714103261487	0.06175232	0.13745117	-0.61561584
1183714107839123	0.07397461	0.12890625	-0.59117126
1183714112874524	0.06541443	0.110580444	-0.57774353
1183714118184582	0.036102295	0.078826904	-0.56430054
1183714122945325	-0.009109497	0.039733887	-0.5386505
1183714126302258	-0.06283569	-5.79834E-4	-0.4909973
1183714133016125	-0.108047485	-0.037231445	-0.4201355
1183714138051526	-0.1324768	-0.068984985	-0.32484436
1183714143086926	-0.13491821	-0.09587097	-0.21244812
1183714148122327	-0.116607666	-0.11419678	-0.097595215
1183714153554455	-0.083602905	-0.1239624	1.373291E-4
1183714158254162	-0.044525146	-0.13252258	0.06854248
1183714163198010	-0.010314941	-0.14720154	0.102752686
1183714170705334	0.009216309	-0.1716156	0.10519409
1183714173329846	0.004333496	-0.200943	0.0929718
1183714176625745	0.004333496	-0.2217102	0.0929718
1183714183370129	-0.06163025	-0.2217102	0.11495972
1183714188405530	-0.09094238	-0.2363739	0.16261292
1183714193440930	-0.0970459	-0.24859619	0.21514893
1183714198476330	-0.07507324	-0.27668762	0.24691772
1183714203725354	-0.029876709	-0.3206787	0.24324036
1183714208547131	0.021438599	-0.36586	0.2053833
1183714213582532	0.021438599	-0.39642334	0.2053833
1183714219075696	0.09718323	-0.39642334	0.0770874
1183714223653332	0.09718323	-0.43673706	0.0770874
1183714227010266	0.11428833	-0.43673706	0.017227173
1183714233693616	0.1191864	-0.47460938	-0.029174805
1183714238759534	0.11550903	-0.52104187	-0.060943604
1183714243794934	0.103302	-0.5418091	-0.0756073
1183714248830334	0.08129883	-0.511261	-0.078048706
1183714254079358	0.0544281	-0.42575073	-0.07194519
1183714258931653	0.02998352	-0.30723572	-0.062179565
1183714263936536	0.011657715	-0.1875	-0.054840088
1183714269246594	6.713867E-4	-0.09220886	-0.04750061
1183714274007336	-0.005432129	-0.03479004	-0.032852173
1183714277364270	-0.011550903	-0.021347046	0.006225586
1183714284078137	-0.007873535	-0.049453735	0.0770874
1183714289083020	0.012893677	-0.10319519	0.17481995
1183714294148938	0.047088623	-0.16061401	0.28112793
1183714299184338	0.0849762	-0.21438599	0.3886261
1183714304585950	0.1191864	-0.2657013	0.49858093
1183714309285657	0.14604187	-0.31578064	0.6146393
1183714314351575	0.16560364	-0.34999084	0.7429352
1183714319753186	0.17416382	-0.35121155	0.88098145
1183714324330823	0.17292786	-0.31578064	1.0288239
1183714327748791	0.17292786	-0.2546997	1.0288239
1183714334432141	0.14971924	-0.2546997	1.3342438
1183714339498059	0.1326294	-0.12519836	1.4784088
1183714344502942	0.13139343	-0.07510376	1.5688171
1183714349507825	0.17536926	-0.036010742	1.5394897
1183714354787366	0.27922058	0.007980347	1.3635712
1183714359609143	0.27922058	0.07392883	1.3635712
1183714364644543	0.41970825	0.07392883	1.1082306
1183714370107190	0.54800415	0.16799927	0.8101196
1183714374715344	0.6200714	0.26818848	0.8101196
1183714378072278	0.6261902	0.32192993	0.85289
1183714384786145	0.5895386	0.28527832	0.9774933
1183714389791028	0.54067993	0.14356995	1.1338806
1183714394856946	0.49790955	-0.07022095	1.2829285
1183714399892346	0.4685974	-0.30111694	1.3989868
1183714405141370	0.45391846	-0.497818	1.47229
1183714409963147	0.45147705	-0.6358795	1.5187225
1183714414998547	0.4612732	-0.71528625	1.5492706
1183714420339123	0.47225952	-0.74461365	1.5614929
1183714425069348	0.47470093	-0.72506714	1.5529327
1183714428426282	0.46247864	-0.66152954	1.5272827
1183714435140149	0.43927002	-0.5735779	1.5028534
1183714440145032	0.40750122	-0.49049377	1.486969
1183714445210950	0.35740662	-0.431839	1.4625244
1183714450246350	0.27922058	-0.4000702	1.3989868
1183714455495373	0.169281	-0.38298035	1.2670441
1183714460317151	0.03488159	-0.36586	1.0471344
1183714465352551	-0.127594	-0.34388733	0.7233887
1183714470601575	-0.33773804	-0.3206787	0.30677795
1183714475453870	-0.60406494	-0.2840271	-0.15013123
1183714478810803	-0.60406494	-0.21560669	-0.15013123
1183714485494153	-1.1306305	-0.21560669	-0.88316345
1183714490560071	-1.2625885	-0.03112793	-1.0786438
1183714495534436	-1.263794	0.012863159	-1.150711
1183714500600354	-1.263794	0.04095459	-1.0884094
1183714506001965	-0.91560364	0.12156677	-0.90026855
1183714510671155	-0.91560364	0.2669525	-0.90026855
1183714515737073	-0.61994934	0.2669525	-0.62171936
1183714521138684	-0.30229187	0.39157104	-0.321167
1183714525746838	-0.010314941	0.38058472	-0.0743866
1183714529134289	0.22058105	0.19854736	0.06976318
1183714535848157	0.37329102	-0.08366394	0.102752686
1183714540883557	0.44171143	-0.35488892	0.061203003
1183714545918957	0.43559265	-0.5381317	-0.004776001
1183714550984875	0.37696838	-0.61143494	-0.062179565
1183714556325452	0.28778076	-0.5906677	-0.09881592
1183714561055676	0.18881226	-0.5137024	-0.109817505
1183714566091077	0.09107971	-0.41963196	-0.097595215
1183714571889416	0.0067749023	-0.33288574	-0.065826416
1183714576131360	-0.05795288	-0.26324463	-0.024291992
1183714579549328	-0.09828186	-0.20826721	0.018447876
1183714586232678	-0.111709595	-0.16796875	0.058761597
1183714591237561	-0.09828186	-0.14720154	0.097854614
1183714596303479	-0.06651306	-0.14964294	0.14060974
1183714601308362	-0.024993896	-0.17773438	0.18826294
1183714606679455	0.022659302	-0.24125671	0.24691772
1183714611379162	0.0715332	-0.34877014	0.31288147
1183714616445080	0.1191864	-0.4990387	0.38006592
1183714621755139	0.15583801	-0.6700897	0.42895508
1183714626515881	0.17172241	-0.821579	0.44483948
1183714629872815	0.17172241	-0.9217529	0.44483948
1183714636556164	0.12527466	-0.9217529	0.3678589
1183714641591565	0.0703125	-0.9633026	0.31288147
1183714646657483	0.0703125	-0.9229889	0.28601074
1183714651662366	0.020217896	-0.8460083	0.28601074
1183714657155530	-0.0029907227	-0.8460083	0.31532288
1183714661763684	-0.0029907227	-0.6309967	0.31532288
1183714666768567	-0.023757935	-0.6309967	0.30799866
1183714672139661	-0.095840454	-0.5515747	0.26890564
1183714676869885	-0.20211792	-0.5063782	0.22491455
1183714680196301	-0.29864502	-0.4660492	0.2029419
1183714686940686	-0.35362244	-0.39030457	0.20170593
1183714692006604	-0.37438965	-0.2681427	0.21026611
1183714696980969	-0.3890381	-0.12519836	0.27622986
1183714702046887	-0.41592407	-0.016464233	0.5205841
1183714707387463	-0.46235657	0.022628784	1.0459137
1183714712117688	-0.5503082	0.023864746	1.8046112
1183714717153088	-0.72257996	0.0763855	2.5767365
1183714723073498	-1.0084534	0.24130249	3.1143036
1183714727223889	-1.3847504	0.49664307	3.2877808
1183714730519787	-1.7659149	0.7959595	3.116745
1183714737294690	-2.0554657	1.1539307	2.7270203
1183714742299573	-2.2032928	1.6194153	2.2969666
1183714747426526	-2.2204132	2.1569672	2.0074158
1183714752400891	-2.1519928	2.621231	1.9536743
1183714758168713	-2.0408173	2.8557892	2.1051483
1183714762471692	-1.9088593	2.8142548	2.347046
1183714767507092	-1.7793579	2.5833435	2.570633
1183714773427502	-1.6767273	2.2962341	2.7196808
1183714777577893	-1.6058807	2.045807	2.789322
1183714780934827	-1.6058807	1.8490906	2.789322
1183714787648694	-1.4360657	1.8490906	2.7551117
1183714792623059	-1.4360657	1.436142	2.7551117
1183714797719495	-1.2699127	1.436142	2.7001343
1183714802724377	-1.058548	1.1600342	2.6365967
1183714808064953	-0.8471832	0.8875885	2.5596466
1183714812795178	-0.6846924	0.703125	2.4594574
1183714817830578	-0.59672546	0.6640167	2.3372803
1183714823201672	-0.57839966	0.7764282	2.1967773
1183714827931897	-0.5979614	0.9938812	2.0379639
1183714831288830	-0.6150665	1.2467804	1.8583679
1183714838033215	-0.5979614	1.4667053	1.6543274
1183714843038098	-0.52830505	1.5986328	1.4246674
1183714848042981	-0.4061432	1.6120758	1.1693268
1183714853108899	-0.24487305	1.4935608	0.89930725
1183714858571545	-0.06895447	1.257782	0.63420105
1183714863179700	0.092300415	0.9755554	0.3996277
1183714868245618	0.21936035	0.74710083	0.2029419
1183714873708264	0.30976868	0.6481323	0.03555298
1183714878285901	0.37817383	0.66767883	-0.12080383
1183714881642834	0.4453888	0.728775	-0.27842712
1183714888326184	0.53089905	0.74342346	-0.44210815
1183714893422620	0.64575195	0.6701355	-0.6119385
1183714898427502	0.79478455	0.50520325	-0.7878723
1183714903432385	0.9694977	0.26818848	-0.96014404
1183714908833996	1.1551971	-0.01890564	-1.1226196
1183714913533703	1.3323517	-0.33044434	-1.2667847
1183714918569104	1.4887238	-0.6419983	-1.3938446
1183714924458996	1.619461	-0.9205475	-1.5111237
1183714928609387	1.733078	-1.136795	-1.6235352
1183714931996838	1.733078	-1.2699432	-1.6235352
1183714938680188	1.8393555	-1.2699432	-1.7261658
1183714943746106	1.9444275	-1.3163757	-1.8055725
1183714948842541	2.0519562	-1.289505	-1.8544312
1183714953816907	2.174118	-1.2088623	-1.8544312
1183714959554211	2.3329468	-1.0927887	-1.772583
1183714963857190	2.5394135	-0.9633026	-1.5722198
1183714968892590	2.7739868	-0.8521271	-1.2582245
1183714974233166	2.9902344	-0.78492737	-0.8904877
1183714978963391	3.1380615	-0.76049805	-0.55574036
1183714982350842	3.1893768	-0.76049805	-0.31750488
1183714989095227	3.1527252	-0.75927734	-0.19900513
1183714994069592	3.0549927	-0.74217224	-0.18678284
1183714999104993	2.9340363	-0.7018585	-0.24298096
1183715004170911	2.8143005	-0.63220215	-0.3236084
1183715009450452	2.7019043	-0.5173645	-0.39813232
1183715014241711	2.5931702	-0.32188416	-0.4567871
1183715019246594	2.4795532	-0.0066833496	-0.4995575
1183715024617688	2.353714	0.43678284	-0.52885437
1183715029408948	2.2205505	0.9633484	-0.54963684
1183715032643811	2.2205505	1.4789124	-0.56674194
1183715039449231	1.9713135	1.4789124	-0.58506775
1183715044423596	1.8735657	2.1862793	-0.60461426
1183715049458996	1.8051605	2.3512268	-0.6266022
1183715054524914	1.7746124	2.423294	-0.6485901
1183715059957043	1.785614	2.4269714	-0.6693573
1183715064565198	1.824707	2.371994	-0.6876831
1183715069692151	1.8735657	2.2657013	-0.7011261
1183715075429455	1.9090118	2.114212	-0.7108917
1183715079701916	1.916336	1.9284973	-0.71577454
1183715083058850	1.916336	1.7171326	-0.71577454
1183715089742200	1.8882446	1.7171326	-0.7096863
1183715094777600	1.8344727	1.4923553	-0.6913605
1183715099843518	1.7697296	1.2663422	-0.66571045
1183715104848401	1.7159729	1.0537415	-0.644928
1183715110250012	1.6756439	0.8692627	-0.63638306
1183715114949719	1.6365509	0.73243713	-0.63638306
1183715119985120	1.5705872	0.6786804	-0.6461487
1183715125813977	1.461853	0.7446594	-0.6828003
1183715130025403	1.3237915	0.934021	-0.7707825
1183715133412854	1.1930847	1.2211304	-0.91249084
1183715140157239	1.1112213	1.5717621	-1.0823059
1183715145101086	1.0977783	1.9492645	-1.2484589
1183715150197522	1.1454315	2.29747	-1.3889618
1183715155202405	1.2236176	2.5320435	-1.4940338
1183715160512463	1.2981415	2.5747986	-1.5551147
1183715165303723	1.3506775	2.4049683	-1.5722198
1183715171132580	1.3836517	2.0787811	-1.5526733
1183715175618664	1.3995361	1.7037201	-1.5123596
1183715180409924	1.3946533	1.3897247	-1.4683838
1183715183705823	1.3946533	1.1905823	-1.4683838
1183715190511243	1.3347931	1.1905823	-1.4194946
1183715195455090	1.3079071	1.0415344	-1.4146118
1183715200490491	1.292038	0.98043823	-1.4158478
1183715205556409	1.2749329	0.9132538	-1.423172
1183715210927502	1.2443848	0.8875885	-1.4402618
1183715215627209	1.1979675	0.9401398	-1.463501
1183715220693127	1.1478729	1.0561829	-1.4854736
1183715225972668	1.1051025	1.1844788	-1.4927979
1183715230733411	1.1051025	1.2871094	-1.4927979
1183715234090344	1.0660095	1.2871094	-1.4818268
1183715240804211	1.0269165	1.3506317	-1.4512634
1183715245839612	0.97927856	1.3848419	-1.4109497
1183715250875012	0.92430115	1.3995056	-1.3645172
1183715255879895	0.86320496	1.4043884	-1.3168793
1183715261281506	0.7984619	1.4031677	-1.2729034
1183715265981213	0.7288208	1.4056091	-1.2325745
1183715271016614	0.657959	1.4190521	-1.1971588
1183715276479260	0.58709717	1.4459229	-1.16539
1183715281087414	0.51867676	1.4837952	-1.1348419
1183715284474866	0.45515442	1.5180054	-1.1079712
1183715291158215	0.39285278	1.5497742	-1.0798645
1183715296163098	0.3305359	1.5864258	-1.0480957
1183715301229016	0.26455688	1.6414032	-1.01268
1183715306264416	0.19125366	1.7183685	-0.97358704
1183715311513440	0.11062622	1.8063354	-0.9320221
1183715316335217	0.023880005	1.8955231	-0.88560486
1183715321340100	-0.06651306	1.9773865	-0.8367462
1183715326833264	-0.15446472	2.0470123	-0.7829895
1183715331441418	-0.23999023	2.1032104	-0.7292175
1183715334828870	-0.23999023	2.1484222	-0.7292175
1183715341512219	-0.4061432	2.1484222	-0.61683655
1183715346517102	-0.48921204	2.2070465	-0.56062317
1183715351613537	-0.5747528	2.2070465	-0.4995575
1183715356618420	-0.6663666	2.183838	-0.4335785
1183715361989514	-0.7665558	2.1374207	-0.36149597
1183715366719739	-0.8704071	2.0604553	-0.28330994
1183715371724621	-0.8704071	1.9370575	-0.20388794
1183715377492444	-1.0793152	1.9370575	-0.12080383
1183715381856457	-1.0793152	1.5436554	-0.12080383
1183715385152356	-1.1856079	1.5436554	-0.030410767
1183715391927258	-1.294342	1.3213196	0.06732178
1183715396962659	-1.4030762	1.1099548	0.16749573
1183715401937024	-1.5081329	0.9156952	0.25668335
1183715407002942	-1.6009979	0.73121643	0.32632446
1183715412465588	-1.6742859	0.5626221	0.3727417
1183715417073743	-1.7194977	0.42211914	0.40083313
1183715422139661	-1.7304993	0.32437134	0.41062927
1183715427632825	-1.7048492	0.27183533	0.4045105
1183715432179944	-1.6425323	0.26330566	0.384964
1183715435475842	-1.5435791	0.29260254	0.35075378
1183715442220227	-1.4091797	0.3524933	0.30189514
1183715447316662	-1.2417908	0.44532776	0.22735596
1183715452291028	-1.0438995	0.5833893	0.12107849
1183715457356946	-0.8227539	0.78131104	-0.016983032
1183715462697522	-0.59552	1.037857	-0.17823792
1183715467397229	-0.38659668	1.3249664	-0.3529358
1183715472463147	-0.22044373	1.5925293	-0.5276489
1183715477956311	-0.11048889	1.7904663	-0.6913605
1183715482533948	-0.06163025	1.8808594	-0.8355255
1183715485860364	-0.06163025	1.8503113	-0.8355255
1183715492574231	-0.10560608	1.8503113	-1.0322113
1183715497609631	-0.1593628	1.4874725	-1.0835266
1183715502675549	-0.2094574	1.2223358	-1.1042938
1183715507680432	-0.24975586	0.9621124	-1.0981903
1183715513417737	-0.27908325	0.7507477	-1.0676422
1183715517751233	-0.27908325	0.6163635	-1.0676422
1183715522817151	-0.30229187	0.6163635	-1.0077972
1183715528127209	-0.32061768	0.5675049	-0.91615295
1183715532857434	-0.33285522	0.5821533	-0.7915497
1183715536214368	-0.33894348	0.6065979	-0.644928
1183715542989270	-0.33773804	0.5858307	-0.49220276
1183715547963635	-0.33406067	0.4929657	-0.34561157
1183715553029553	-0.32795715	0.3475952	-0.21488953
1183715558034436	-0.31573486	0.19364929	-0.1085968
1183715563497082	-0.27664185	0.044631958	-0.03529358
1183715568105237	-0.19721985	-0.13008118	0.0037841797
1183715573201672	-0.083602905	-0.35853577	0.014785767
1183715578481213	0.036102295	-0.6261139	0.008666992
1183715583241955	0.12162781	-0.8643341	-0.010864258
1183715586568371	0.13627625	-0.9999542	-0.03895569
1183715593343274	0.05809021	-1.0121613	-0.06826782
1183715598348157	-0.1129303	-0.9474182	-0.081710815
1183715603353039	-0.35606384	-0.8777771	-0.06462097
1183715608418957	-0.63339233	-0.8521271	-0.008422852
1183715613729016	-0.90216064	-0.8753357	0.08320618
1183715618489758	-1.124527	-0.9217529	0.2029419
1183715623555676	-1.2711182	-0.9596405	0.34098816
1183715629354016	-1.3187714	-0.97428894	0.49247742
1183715633595959	-1.2515869	-0.95596313	0.6647339
1183715636891858	-1.2515869	-0.8961029	0.6647339
1183715643666760	-0.7775574	-0.8961029	1.0776825
1183715648671643	-0.4427948	-0.65296936	1.3146973
1183715653768078	-0.13737488	-0.5356903	1.5663757
1183715658772961	0.067855835	-0.4953766	1.8192749
1183715664174573	0.1326294	-0.550354	2.0514069
1183715668813245	0.1326294	-0.66397095	2.0514069
1183715673879162	0.0544281	-0.66397095	2.2407684
1183715679372327	-0.1324768	-0.76171875	2.3653717
1183715683919446	-0.38171387	-0.77638245	2.413025
1183715687306897	-0.6639252	-0.66397095	2.3751678
1183715694051282	-0.9730377	-0.42451477	2.2505493
1183715699025647	-1.31633	-0.10443115	2.055069
1183715704122082	-1.6877289	0.21931458	1.8180542
1183715709096448	-2.0542603	0.46855164	1.5712585
1183715714833752	-2.3535767	0.58461	1.3403625
1183715719167248	-2.523407	0.5357361	1.1253204
1183715724202649	-2.5282898	0.33172607	0.91275024
1183715729543225	-2.3719025	0.039733887	0.69285583
1183715734334485	-2.0909119	-0.24247742	0.47660828
1183715737630383	-1.7525024	-0.45140076	0.29455566
1183715744405286	-1.4372711	-0.6151123	0.16505432
1183715749410168	-1.2259369	-0.8032532	0.08320618
1183715754415051	-1.1636047	-1.0500488	0.030670166
1183715759480969	-1.2393494	-1.2968292	0.0025787354
1183715764913098	-1.4030762	-1.4458771	0.01234436
1183715769551770	-1.5948792	-1.4214478	0.06976318
1183715774617688	-1.7720337	-1.2003174	0.16749573
1183715780446545	-1.9064178	-0.7959137	0.28479004
1183715784688489	-1.9785156	-0.27424622	0.3935089
1183715787953870	-1.9785156	0.24986267	0.3935089
1183715794698254	-1.936966	0.24986267	0.5120239
1183715799764172	-1.8636627	0.83140564	0.5046997
1183715804769055	-1.8636627	0.7825165	0.45828247
1183715809865491	-1.7891388	0.7825165	0.45828247
1183715815541760	-1.6620789	0.5491791	0.33120728
1183715819875256	-1.6620789	-0.109313965	0.33120728
1183715824910657	-1.60466	-0.109313965	0.28479004
1183715830434338	-1.552124	-0.37442017	0.24568176
1183715834981457	-1.5044861	-0.5515747	0.19802856
1183715838338391	-1.4568329	-0.65296936	0.13328552
1183715845052258	-1.4006348	-0.69329834	0.055099487
1183715850057141	-1.3273315	-0.6884155	-0.019424438
1183715855153577	-1.2320251	-0.66152954	-0.069503784
1183715860158459	-1.1171875	-0.65296936	-0.08049011
1183715865499036	-0.99868774	-0.7018585	-0.058502197
1183715870229260	-0.8960571	-0.81791687	-0.02796936
1183715875264661	-0.8300934	-0.97428894	-0.0096588135
1183715880757825	-0.8032074	-1.1282349	-0.0059814453
1183715885335461	-0.80444336	-1.2528534	-0.008422852
1183715888722912	-0.814209	-1.3505707	-0.007217407
1183715895467297	-0.8166504	-1.4385529	0.0025787354
1183715900441662	-0.812973	-1.5301819	0.024551392
1183715905507580	-0.8154144	-1.6242676	0.06488037
1183715910512463	-0.8410797	-1.7073364	0.122283936
1183715915822522	-0.9046173	-1.7708588	0.19070435
1183715920613782	-1.0157776	-1.817276	0.26400757
1183715925649182	-1.1856079	-1.857605	0.33976746
1183715931325452	-1.4104004	-1.8991394	0.41915894
1183715935750500	-1.6742859	-1.9455719	0.50346375
1183715939076916	-1.6742859	-1.9822235	0.50346375
1183715945821301	-2.1666412	-1.9822235	0.69529724
1183715950856702	-2.1666412	-1.9138031	0.786911
1183715955861584	-2.3071594	-1.9138031	0.786911
1183715960866467	-2.3401337	-1.7586517	0.86143494
1183715966237561	-2.2680664	-1.5228424	0.9139862
1183715970967786	-2.1128998	-1.2308655	0.93963623
1183715976003186	-1.9076538	-0.90830994	0.9371948
1183715981862561	-1.6852875	-0.5809021	0.905426
1183715986043469	-1.4727173	-0.26324463	0.8455658
1183715989400403	-1.2857971	0.03239441	0.7624817
1183715996144787	-1.1306305	0.30360413	0.6622925
1183716001180188	-1.0011292	0.54185486	0.55233765
1183716006246106	-0.8862915	0.73243713	0.43995667
1183716011220471	-0.7689972	0.8277283	0.33732605
1183716016957776	-0.62849426	0.75930786	0.25668335
1183716021321789	-0.44647217	0.46487427	0.2053833
1183716026357190	-0.21922302	-0.057998657	0.18461609
1183716031850354	0.05076599	-0.71650696	0.18093872
1183716036397473	0.34396362	-1.3432465	0.17605591
1183716039815442	0.6371918	-1.7708588	0.15161133
1183716046498791	0.90841675	-1.8954773	0.10151672
1183716051503674	1.1405487	-1.7085571	0.03555298
1183716056600110	1.3262329	-1.2736206	-0.034057617
1183716061574475	1.4630737	-0.68717957	-0.090270996
1183716067311780	1.541275	-0.05189514	-0.1244812
1183716071645276	1.5437164	0.52841187	-0.13058472
1183716076680676	1.4520721	0.9535675	-0.1085968
1183716082021252	1.2614899	1.1417084	-0.06338501
1183716086812512	0.993927	1.065979	-0.014541626
1183716090108411	0.993927	0.7739868	-0.014541626
1183716096883313	0.6884918	0.7739868	0.014785767
1183716101857678	0.38917542	0.3781433	0.0037841797
1183716106893078	0.1326294	0.010421753	-0.052383423
1183716111928479	-0.064071655	-0.24247742	-0.1415863
1183716117848889	-0.26319885	-0.35733032	-0.3419342
1183716121999280	-0.26319885	-0.29501343	-0.3419342
1183716127095715	-0.2778778	-0.29501343	-0.4237976
1183716132405774	-0.25343323	-0.18873596	-0.49832153
1183716137227551	-0.20578003	-0.057998657	-0.578949
1183716140462414	-0.1483612	0.08126831	-0.6779175
1183716147267834	-0.07627869	0.18998718	-0.80007935
1183716152272717	0.037322998	0.23518372	-0.9320221
1183716157277600	0.24502563	0.21565247	-1.0566559
1183716162313000	0.58587646	0.18510437	-1.1458282
1183716170705334	1.5559235	0.2278595	-1.1873627
1183716177541272	2.0055237	0.72021484	-1.1751556
1183716183248059	2.3219452	1.0708618	-1.178833
1183716187459485	2.4880981	1.3469696	-1.2069244
1183716190816418	2.4880981	1.4654694	-1.2484589
1183716197560803	2.5284271	1.4654694	-1.2875519
1183716202565686	2.4905396	1.2480164	-1.3071136
1183716207814709	2.4502258	1.0244446	-1.3009949
1183716212636487	2.418457	0.8057556	-1.2692261
1183716217885510	2.3964844	0.6347046	-1.2264862
1183716222737805	2.3854828	0.5357361	-1.1947174
1183716227742688	2.3781586	0.5137329	-1.1873627
1183716233632580	2.3695984	0.5589447	-1.1947174
1183716237813489	2.3695984	0.6481323	-1.1934814
1183716241200940	2.3561554	0.7629852	-1.1934814
1183716248067395	2.3439484	0.7629852	-1.1739349
1183716252889172	2.3365936	0.88882446	-1.1446228
1183716257955090	2.3353882	1.0012054	-1.1091766
1183716263021008	2.3378296	1.0635376	-1.0700989
1183716268788830	2.3463898	1.0439758	-1.0273285
1183716273061291	2.3683624	0.9291382	-0.9906769
1183716278096692	2.4123688	0.73609924	-0.96746826
1183716283437268	2.472229	0.4954071	-0.9503479
1183716288411633	2.5357513	0.2461853	-0.93325806
1183716291524426	2.5834045	0.03729248	-0.91004944
1183716298512952	2.6017303	-0.08731079	-0.88438416
1183716303334729	2.5797272	-0.100753784	-0.85995483
1183716308431164	2.523529	-0.011581421	-0.8404083
1183716313344495	2.445343	0.14356995	-0.8330841
1183716319417493	2.3622742	0.3280487	-0.841629
1183716323445813	2.288971	0.5137329	-0.85995483
1183716328725354	2.2303162	0.6909027	-0.87828064
1183716334004895	2.1802368	0.8607178	-0.88438416
1183716338674084	2.1191406	1.039093	-0.87705994
1183716341847912	2.1191406	1.245575	-0.87705994
1183716348744885	1.8723602	1.245575	-0.90148926
1183716353688733	1.6952057	1.8099976	-0.99191284
1183716358968274	1.5437164	2.109314	-1.1568298
1183716363729016	1.4655151	2.2962341	-1.384079
1183716369832532	1.4630737	2.26326	-1.641861
1183716373799817	1.500946	1.9810333	-1.8837585
1183716378987805	1.5302734	1.5436554	-2.0584717
1183716384694592	1.5180511	1.1148376	-2.1342163
1183716389058606	1.5180511	0.8277283	-2.1122131
1183716392201916	1.4496307	0.8277283	-2.1122131
1183716399312512	1.3384705	0.72265625	-2.0132751
1183716403981702	1.2101746	0.7507477	-1.8678741
1183716409413830	1.0928955	0.83384705	-1.7053986
1183716414083020	1.0037079	0.9108124	-1.5575562
1183716419332043	0.93774414	0.9657898	-1.4549408
1183716424123303	0.88153076	1.012207	-1.4085083
1183716429189221	0.82777405	1.0574188	-1.4060516
1183716435079114	0.7715759	1.0879517	-1.4170532
1183716439412610	0.7190552	1.0855103	-1.423172
1183716442586438	0.670166	1.052536	-1.4194946
1183716449635998	0.6237488	1.013443	-1.409729
1183716454305188	0.57121277	1.0	-1.397522
1183716459584729	0.5076904	1.0280914	-1.3804016
1183716464406506	0.43070984	1.0891876	-1.3510895
1183716470479504	0.347641	1.15271	-1.3071136
1183716474477307	0.25723267	1.1893616	-1.2509003
1183716479848401	0.15948486	1.1869202	-1.1861572
1183716484822766	0.049545288	1.1624756	-1.1152954
1183716489919202	-0.071395874	1.139267	-1.0383301
1183716492940442	-0.071395874	1.1356049	-1.0383301
1183716499990002	-0.33406067	1.1356049	-0.88438416
1183716504689709	-0.47332764	1.2113647	-0.8184204
1183716509908215	-0.6138458	1.2809906	-0.76342773
1183716514791028	-0.7494354	1.3542938	-0.71577454
1183716520802991	-0.8777313	1.4239349	-0.6717987
1183716524861828	-1.0023346	1.4862366	-0.6302643
1183716530202405	-1.1220703	1.5351257	-0.58872986
1183716535390393	-1.2405853	1.5607758	-0.54597473
1183716540181653	-1.2405853	1.555893	-0.54597473
1183716543263928	-1.3578644	1.555893	-0.4995575
1183716550252453	-1.4776001	1.515564	-0.4409027
1183716555013196	-1.5997772	1.4349365	-0.3712616
1183716560475842	-1.7256165	1.3115234	-0.2893982
1183716565145032	-1.8514404	1.1429443	-0.19776917
1183716571279065	-1.9760742	0.9425812	-0.101257324
1183716575185315	-2.0970154	0.72753906	-0.007217407
1183716580525891	-2.213089	0.51252747	0.074645996
1183716585652844	-2.3181458	0.31340027	0.1418457
1183716590596692	-2.4024506	0.14479065	0.19926453
1183716593648450	-2.4537506	0.017745972	0.25302124
1183716601155774	-2.457428	-0.061660767	0.30189514
1183716605397717	-2.3987732	-0.0897522	0.33364868
1183716610951916	-2.2717133	-0.06410217	0.33120728
1183716615468518	-2.081131	0.022628784	0.27256775
1183716621510998	-1.8331299	0.17532349	0.14794922
1183716625569836	-1.5374603	0.39279175	-0.041412354
1183716630727307	-1.2026978	0.6786804	-0.28207397
1183716635884778	-0.84962463	1.0342102	-0.55451965
1183716641469495	-0.52098083	1.4459229	-0.8391876
1183716644002453	-0.52098083	1.8490906	-0.8391876
1183716651601330	-0.10682678	1.8490906	-1.3547516
1183716655751721	-0.053085327	2.2412567	-1.540451
1183716661519543	-0.07383728	2.1435242	-1.6565094
1183716665822522	-0.1300354	1.9248505	-1.7029572
1183716671254651	-0.18989563	1.6927185	-1.6870728
1183716675893323	-0.18989563	1.527771	-1.6870728
1183716681722180	-0.26564026	1.527771	-1.5306854
1183716686177746	-0.26564026	1.4520264	-1.5306854
1183716691823498	-0.29129028	1.4520264	-1.2997742
1183716694356457	-0.29129028	1.4422607	-1.2997742
1183716701741711	-0.30717468	1.4422607	-1.1458282
1183716706136243	-0.33650208	1.3029938	-0.92837524
1183716711812512	-0.38415527	1.0036469	-0.62416077
1183716716176526	-0.4537964	0.55529785	-0.24542236
1183716721791760	-0.5491028	0.04219055	0.15405273
1183716726247327	-0.65415955	-0.41474915	0.5022583
1183716732167737	-0.73358154	-0.73239136	0.7465973
1183716736714856	-0.74823	-0.92663574	0.88098145
1183716742055432	-0.6846924	-1.1062317	0.94207764
1183716744679944	-0.5747528	-1.3713684	0.9750519
1183716752065198	-0.4696808	-1.7183228	0.99705505
1183716756459729	-0.4134674	-2.0176392	0.99217224
1183716762380139	-0.4220276	-2.0872955	0.93840027
1183716766530530	-0.48188782	-1.8295135	0.8321228
1183716772237317	-0.57351685	-1.3114777	0.70262146
1183716776601330	-0.6810303	-0.73361206	0.59143066
1183716782308118	-0.7799988	-0.2840271	0.53279114
1183716787099377	-0.8435211	-0.032348633	0.5401306
1183716792653577	-0.8435211	0.05807495	0.61709595
1183716802632825	-0.62605286	0.05316162	0.97628784
1183716806813733	-0.45135498	-0.16305542	1.2475128
1183716812703625	-0.29129028	-0.37809753	1.5370483
1183716816915051	-0.20333862	-0.65541077	1.7960663
1183716822316662	-0.23387146	-0.96084595	1.9805298
1183716826985852	-0.23387146	-1.2467346	1.9805298
1183716832845227	-0.6969147	-1.2467346	2.0904999
1183716837636487	-0.6969147	-1.6193542	2.0904999
1183716843038098	-1.5142517	-1.6193542	2.01474
1183716853017346	-1.9430695	-1.7268829	1.9609985
1183716857228772	-2.3266907	-1.7427673	1.9035797
1183716863210217	-2.6333466	-1.7549744	1.8314819
1183716867269055	-2.8361511	-1.7549744	1.7264252
1183716873189465	-2.9143372	-1.7232056	1.5700378
1183716877309338	-2.8581543	-1.6560059	1.3611298
1183716883779065	-2.6736755	-1.5668182	1.109436
1183716887837903	-2.3865662	-1.481308	0.8382263
1183716893453137	-2.0395966	-1.4263458	0.58288574
1183716903584973	-1.3969727	-1.4141083	0.2579193
1183716907552258	-1.1990509	-1.4141083	0.21391296
1183716913808362	-1.1074219	-1.3982239	0.22247314
1183716917592541	-1.1013031	-1.3774567	0.26036072
1183716923604504	-1.1477356	-1.3615723	0.31532288
1183716927693860	-1.2136993	-1.3579254	0.38986206
1183716933522717	-1.2747955	-1.3835754	0.49247742
1183716938252942	-1.3200073	-1.4642029	0.6305237
1183716943807141	-1.3493195	-1.6047058	0.8052368
1183716954091565	-1.3737488	-1.779419	1.214508
1183716957845227	-1.3652039	-2.0848541	1.3916626
1183716964223401	-1.333435	-2.1960144	1.5113983
1183716967977063	-1.333435	-2.3023071	1.5113983
1183716973836438	-1.2002563	-2.3023071	1.4747467
1183716978017346	-1.2002563	-2.4770203	1.4747467
1183716983937756	-1.0023346	-2.4770203	1.0337067
1183716988423840	-1.0023346	-2.4110565	1.0337067
1183716994435803	-0.7189026	-2.4110565	0.49613953
1183717004537121	-0.5491028	-2.035965	0.29821777
1183717008229748	-0.38171387	-1.7696381	0.14916992
1183717014241711	-0.23387146	-1.4825287	0.030670166
1183717018300549	-0.11781311	-1.1966553	-0.07194519
1183717025197522	-0.035980225	-0.9364319	-0.1574707
1183717028340832	0.018997192	-0.70918274	-0.22097778
1183717034963147	0.059310913	-0.5088196	-0.24542236
1183717038686291	0.09841919	-0.3182373	-0.21977234
1183717044850842	0.1375122	-0.13864136	-0.14402771
1183717054952161	0.20103455	0.122802734	0.1088562
1183717058644787	0.21813965	0.17410278	0.25302124
1183717064839856	0.21936035	0.17044067	0.38986206
1183717068685071	0.20225525	0.12036133	0.5095825
1183717074819104	0.16072083	0.028747559	0.60243225
1183717078725354	0.0874176	-0.10687256	0.6647339
1183717085439221	-0.023757935	-0.2864685	0.7038269
1183717089253918	-0.17401123	-0.5088196	0.7258301
1183717095113293	-0.35606384	-0.7702637	0.7392731
1183717105245129	-0.7579956	-1.0646973	0.7453766
1183717108968274	-0.7579956	-1.6743469	0.7404785
1183717115438000	-1.1342926	-1.6743469	0.72950745
1183717119039075	-1.1342926	-2.0726166	0.72950745
1183717125203625	-1.4470673	-2.0726166	0.69529724
1183717129079358	-1.4470673	-2.1215057	0.69529724
1183717135549084	-1.6828461	-2.1215057	0.6598511
1183717139607922	-1.6828461	-1.896698	0.6598511
1183717145528332	-1.7720337	-1.896698	0.64152527
1183717154286877	-1.8771057	-1.5094147	0.63664246
1183717159291760	-1.8905334	-1.2943878	0.6329651
1183717164357678	-1.8795471	-1.0867004	0.6280823
1183717169423596	-1.848999	-0.8961029	0.61953735
1183717176198498	-1.8038025	-0.72750854	0.60487366
1183717179463879	-1.7512665	-0.5784607	0.58776855
1183717185994641	-1.6950531	-0.45140076	0.56944275
1183717189778821	-1.6388702	-0.34509277	0.55111694
1183717194539563	-1.5875549	-0.25958252	0.5254669
1183717197927014	-1.5399017	-0.19238281	0.4888153
1183717205983655	-1.4934845	-0.14108276	0.44360352
1183717209615246	-1.4409485	-0.09954834	0.39595032
1183717214711682	-1.3761902	-0.061660767	0.35321045
1183717219716565	-1.2918854	-0.014022827	0.31410217
1183717225148694	-1.1807251	0.05807495	0.27500916
1183717229756848	-1.0255737	0.15577698	0.2237091
1183717234822766	-0.79953	0.2620697	0.14794922
1183717240102307	-0.47332764	0.3292694	0.03189087
1183717245961682	-0.053085327	0.3097229	-0.13058472
1183717254994885	0.40873718	0.19488525	-0.33338928
1183717259999768	0.83631897	0.03363037	-0.5594177
1183717265035168	1.1710815	-0.09587097	-0.7854309
1183717270070569	1.4007721	-0.13131714	-0.98947144
1183717275533215	1.5400391	-0.05189514	-1.1592712
1183717280141370	1.6206665	0.12890625	-1.2899933
1183717285176770	1.6622314	0.37690735	-1.3804016
1183717290608899	1.6866455	0.6456909	-1.436615
1183717295247571	1.7123108	0.8766022	-1.461029
1183717298573987	1.7672882	0.9951172	-1.4573822
1183717305348889	1.8943329	0.9376831	-1.4256134
1183717310323254	2.1313477	0.6750183	-1.3645172
1183717315389172	2.4880981	0.25839233	-1.2851105
1183717320424573	2.9291382	-0.18261719	-1.2106018
1183717325734631	3.371399	-0.50393677	-1.1751556
1183717330495373	3.7244873	-0.6261139	-1.204483
1183717336904065	3.9150848	-0.5723419	-1.2899933
1183717340810315	3.9236298	-0.42695618	-1.3999634
1183717345601575	3.7819214	-0.27668762	-1.501358
1183717348958508	3.7819214	-0.174057	-1.5746613
1183717355672375	3.3090973	-0.174057	-1.6125336
1183717360707776	3.07576	-0.08610535	-1.6162109
1183717365743176	2.8717194	-0.027450562	-1.5905457
1183717370778577	2.706787	0.067840576	-1.5380096
1183717376058118	2.599289	0.18144226	-1.4671478
1183717380849377	2.5528412	0.28527832	-1.3852844
1183717385884778	2.55896	0.36102295	-1.2997742
1183717391194836	2.5907288	0.3940277	-1.2252502
1183717395986096	2.6212616	0.38424683	-1.1727142
1183717399343030	2.6212616	0.34269714	-1.1727142
1183717406026379	2.637146	0.34269714	-1.1495056
1183717411061780	2.637146	0.2962799	-1.1568298
1183717416097180	2.6273804	0.28163147	-1.1837158
1183717421163098	2.6090546	0.3256073	-1.2130432
1183717426564709	2.5809631	0.42944336	-1.230133
1183717431203381	2.5479584	0.57118225	-1.2252502
1183717436238782	2.5162048	0.72753906	-1.2008057
1183717441731946	2.4880981	0.881485	-1.1629486
1183717446309582	2.4551086	1.0366516	-1.1152954
1183717449635998	2.4025726	1.2064667	-1.0590973
1183717456410901	2.3353882	1.4031677	-0.99435425
1183717461446301	2.27919	1.6120758	-0.92837524
1183717466451184	2.275528	1.7965546	-0.86972046
1183717471517102	2.326828	1.9358368	-0.8404083
1183717476979748	2.3903656	2.061676	-0.85995483
1183717481557385	2.3976898	2.2522583	-0.9344635
1183717486592786	2.3243866	2.5344849	-1.0505371
1183717491994397	2.1973267	2.8105927	-1.1861572
1183717496694104	2.0666046	2.8985596	-1.3144379
1183717500020520	2.0666046	2.6933136	-1.3144379
1183717506764905	1.8784485	2.6933136	-1.4915924
1183717511769787	1.811264	1.8038788	-1.541687
1183717516835705	1.746521	1.4960022	-1.5881042
1183717521871106	1.6781006	1.3897247	-1.6394196
1183717527150647	1.6047821	1.4239349	-1.679718
1183717531911389	1.5241547	1.5057983	-1.680954
1183717536946789	1.4349823	1.5742188	-1.6296387
1183717542348401	1.3409119	1.6145172	-1.536789
1183717547017590	1.3409119	1.6389618	-1.536789
1183717550405041	1.2431641	1.6389618	-1.4268188
1183717557118909	1.1527557	1.6609497	-1.3254395
1183717562123791	1.0770111	1.6902771	-1.244812
1183717567189709	1.0147095	1.7256927	-1.1861572
1183717572194592	0.9597168	1.7562561	-1.1433868
1183717577840344	0.91085815	1.759903	-1.1091766
1183717582265393	0.8668823	1.7122498	-1.0749817
1183717587300793	0.82655334	1.5998688	-1.0370941
1183717592549817	0.7825775	1.4385834	-0.9931183
1183717597371594	0.7276001	1.2626648	-0.9430237
1183717600759045	0.65919495	1.0989532	-0.8892822
1183717607472912	0.57977295	0.9547882	-0.841629
1183717612477795	0.48692322	0.83750916	-0.8074188
1183717617543713	0.37817383	0.76542664	-0.7854309
1183717622579114	0.24378967	0.7581024	-0.7707825
1183717628133313	0.07763672	0.81552124	-0.75245667
1183717632649914	-0.11904907	0.9169159	-0.7194519
1183717637685315	-0.32795715	1.0293274	-0.67059326
1183717643575207	-0.5356598	1.1246033	-0.6107178
1183717647756116	-0.7372284	1.17836	-0.5435333
1183717651082532	-0.7372284	1.1820374	-0.5435333
1183717657857434	-1.1342926	1.1820374	-0.3883667
1183717662831799	-1.3285522	1.0464172	-0.3028412
1183717667867200	-1.5142517	0.9242554	-0.21365356
1183717672902600	-1.6901703	0.77275085	-0.11958313
1183717678456799	-1.8563385	0.58950806	-0.01574707
1183717683003918	-2.0224915	0.38302612	0.09541321
1183717688039319	-2.0224915	0.16555786	0.2078247
1183717693532483	-2.3719025	0.16555786	0.31410217
1183717698110120	-2.3719025	-0.2192688	0.31410217
1183717701467053	-2.557602	-0.2192688	0.41183472
1183717708272473	-2.7457428	-0.35977173	0.5083618
1183717713216321	-2.9277802	-0.46116638	0.61587524
1183717718221203	-3.0878296	-0.5332489	0.7380371
1183717723287121	-3.2014465	-0.5857849	0.8748779
1183717728627698	-3.2332153	-0.6248779	1.0202637
1183717733327405	-3.152588	-0.63708496	1.163208
1183717738393323	-2.942459	-0.5845642	1.2841644
1183717743703381	-2.6089172	-0.42819214	1.3403625
1183717748525159	-2.1690826	-0.14720154	1.2817078
1183717751851575	-1.6461945	0.27183533	1.0691376
1183717758504407	-1.0744324	0.84973145	0.6989441
1183717763539807	-0.516098	1.5766602	0.2212677
1183717768605725	-0.051849365	2.3426666	-0.28330994
1183717773610608	0.25601196	2.9180908	-0.7438965
1183717779531018	0.40629578	3.0695953	-1.1336212
1183717783711926	0.4502716	2.722641	-1.4537048
1183717788716809	0.43927002	2.0335693	-1.7041626
1183717794087903	0.39649963	1.2626648	-1.8690948
1183717798818127	0.3183136	0.6078186	-1.9350586
1183717802144543	0.3183136	0.14479065	-1.9350586
1183717808919446	0.111846924	0.14479065	-1.7554779
1183717813954846	0.04220581	-0.25836182	-1.5086823
1183717818929211	0.023880005	-0.28523254	-1.16539
1183717823995129	0.040985107	-0.29501343	-0.75245667
1183717829579846	0.06541443	-0.35365295	-0.32240295
1183717834065930	0.06541443	-0.48316956	0.07098389
1183717839070813	0.07763672	-0.48316956	0.07098389
1183717844930188	0.10450745	-0.6627655	0.64030457
1183717849172131	0.10450745	-1.1184692	0.64030457
1183717852468030	0.1509552	-1.1184692	0.813797
1183717859273450	0.20957947	-1.406784	0.91519165
1183717864247815	0.25723267	-1.7085571	0.93107605
1183717869313733	0.27311707	-1.9419098	0.8382263
1183717874349133	0.24502563	-1.9993134	0.6329651
1183717880086438	0.15704346	-1.8282776	0.36175537
1183717884389416	-0.0042266846	-1.4788666	0.106414795
1183717889455334	-0.23266602	-1.0903473	-0.048736572
1183717894948498	-0.4880066	-0.78370667	-0.06462097
1183717899556653	-0.7189026	-0.5906677	0.042877197
1183717902883069	-0.8777313	-0.46728516	0.23103333
1183717909566418	-0.9388275	-0.37197876	0.4570465
1183717914601819	-0.89727783	-0.30967712	0.6916199
1183717919637219	-0.77267456	-0.3206787	0.92619324
1183717924672620	-0.61872864	-0.43063354	1.163208
1183717930013196	-0.49656677	-0.62120056	1.3977814
1183717934743420	-0.4586792	-0.8398895	1.6189117
1183717939778821	-0.5222168	-1.0195007	1.8131561
1183717945119397	-0.67614746	-1.109909	1.9768829
1183717949880139	-0.8899536	-1.1001434	2.1088257
1183717953237073	-0.8899536	-1.0133972	2.1088257
1183717959920422	-1.394516	-1.0133972	2.2957458
1183717964986340	-1.6608582	-0.73361206	2.3494873
1183717970113293	-1.9247437	-0.5356903	2.3836975
1183717975026623	-1.9247437	-0.27912903	2.4105835
1183717980947034	-2.4012146	0.031188965	2.435028
1183717985127942	-2.4012146	0.38546753	2.435028
1183717990132825	-2.610138	0.38546753	2.4447937
1183717995656506	-2.7958374	0.77763367	2.4179077
1183718000203625	-2.9277802	1.1808014	2.3360596
1183718003560559	-2.9571075	1.5241241	2.1796875
1183718010335461	-2.8532562	1.7232513	1.9145813
1183718015340344	-2.6199036	1.7318115	1.5175018
1183718020436780	-2.29982	1.541214	1.0153809
1183718025411145	-1.9430695	1.1722565	0.50102234
1183718031056897	-1.5973206	0.6530304	0.090530396
1183718035481946	-1.3077698	0.031188965	-0.14646912
1183718040486828	-1.1062012	-0.64320374	-0.21244812
1183718046010510	-1.0108948	-1.3334808	-0.15135193
1183718050588147	-1.0255737	-2.010315	-0.01210022
1183718053975598	-1.1355133	-2.6382751	0.17605591
1183718060628430	-1.3102264	-3.1611938	0.38742065
1183718065663830	-1.5130157	-3.5154724	0.58898926
1183718070729748	-1.6962891	-3.658432	0.747818
1183718075795666	-1.8184509	-3.5887756	0.83088684
1183718081105725	-1.8514404	-3.3444366	0.826004
1183718085835950	-1.7928009	-2.9803772	0.73683167
1183718090871350	-1.657196	-2.551529	0.58288574
1183718096181409	-1.4727173	-2.098297	0.39595032
1183718100911633	-1.2686768	-1.652359	0.21270752
1183718104299084	-1.2686768	-1.250412	0.21270752
1183718111012952	-0.8716278	-1.250412	-0.06462097
1183718116048352	-0.6871338	-0.71650696	-0.15257263
1183718121083752	-0.6871338	-0.59799194	-0.20756531
1183718126088635	-0.5185394	-0.550354	-0.20756531
1183718132161633	-0.25587463	-0.550354	-0.21121216
1183718136189953	-0.25587463	-0.6041107	-0.21121216
1183718141194836	-0.17279053	-0.6041107	-0.16967773
1183718146596448	-0.116607666	-0.6994171	-0.11103821
1183718151265637	-0.08728027	-0.8301239	-0.046295166
1183718154683606	-0.07751465	-0.97673035	0.025787354
1183718161427991	-0.08604431	-1.1221161	0.10397339
1183718166860120	-0.111709595	-1.2577362	0.18338013
1183718171437756	-0.15324402	-1.3884583	0.25912476
1183718176473157	-0.20822144	-1.5191803	0.32510376
1183718181966321	-0.2754364	-1.652359	0.3776245
1183718186513440	-0.35606384	-1.7855225	0.42407227
1183718191548840	-0.4476776	-1.9150238	0.46925354
1183718197072522	-0.5466461	-2.0347595	0.5205841
1183718201619641	-0.64682007	-2.1349487	0.58044434
1183718204976575	-0.74334717	-2.2021332	0.64764404
1183718211720959	-0.8312988	-2.2229004	0.7221527
1183718216725842	-0.9046173	-2.1911316	0.800354
1183718221761243	-0.9632416	-2.101944	0.87609863
1183718226827161	-1.006012	-1.9541168	0.94207764
1183718232320325	-1.0353394	-1.7500916	0.98973083
1183718236897961	-1.0548706	-1.4971924	1.0178223
1183718241902844	-1.0671082	-1.2064209	1.0239258
1183718247396008	-1.0780945	-0.89242554	1.0080566
1183718252004162	-1.0878754	-0.5711365	0.971405
1183718255361096	-1.0878754	-0.253479	0.971405
1183718262044446	-1.1208496	-0.253479	0.85165405
1183718267079846	-1.1208496	0.33172607	0.7783661
1183718272145764	-1.1416321	0.33172607	0.7783661
1183718277181164	-1.1611633	0.57118225	0.70018005
1183718282979504	-1.1856079	0.75442505	0.5266876
1183718287221448	-1.1856079	0.9132538	0.5266876
1183718292287366	-1.1880493	0.9132538	0.4338379
1183718297566907	-1.1782837	0.8961487	0.3385315
1183718302327649	-1.150177	0.8301697	0.24203491
1183718305715100	-1.1049652	0.73487854	0.14672852
1183718312398450	-1.045105	0.6224823	0.058761597
1183718317464368	-0.97792053	0.5015259	-0.01574707
1183718322499768	-0.90582275	0.36470032	-0.06826782
1183718327504651	-0.8288574	0.20587158	-0.101257324
1183718333394543	-0.74090576	0.023864746	-0.11836243
1183718337605969	-0.62605286	-0.18139648	-0.1244812
1183718342610852	-0.4598999	-0.41719055	-0.1257019
1183718347981946	-0.22166443	-0.7042999	-0.1232605
1183718352681653	0.076416016	-1.0304871	-0.1257019
1183718356038586	0.37573242	-1.3224792	-0.14646912
1183718362782971	0.60054016	-1.4568787	-0.19288635
1183718367848889	0.7092743	-1.3212738	-0.26863098
1183718372853772	0.7178192	-0.8838959	-0.36393738
1183718377858655	0.6946106	-0.2168274	-0.46411133
1183718383412854	0.7043762	0.53697205	-0.55451965
1183718387959973	0.7776947	1.2247772	-0.6278229
1183718392995373	0.90353394	1.7440186	-0.68403625
1183718398824231	1.0440216	2.0604553	-0.73165894
1183718403035657	1.1576385	2.1704102	-0.7842102
1183718406453625	1.1576385	2.0628967	-0.7842102
1183718413136975	1.2162933	2.0628967	-0.94670105
1183718418141858	1.226059	1.7232513	-0.94670105
1183718423177258	1.2431641	1.17836	-1.0358887
1183718428243176	1.3628845	0.5174103	-1.0969696
1183718433583752	1.6622314	-0.10687256	-1.112854
1183718438313977	2.135025	-0.5234833	-1.0969696
1183718443318860	2.677475	-0.61631775	-1.0847473
1183718448689953	3.141739	-0.39762878	-1.1152954
1183718453389661	3.4214935	-0.009140015	-1.1983643
1183718456777112	3.4984589	0.3549347	-1.3181
1183718463460461	3.4300537	0.5565033	-1.4390564
1183718468526379	3.2968903	0.5662842	-1.527008
1183718473561780	3.157608	0.44288635	-1.5624542
1183718478597180	3.035431	0.2779541	-1.541687
1183718484334485	2.921814	0.13745117	-1.475708
1183718488637463	2.803299	0.043395996	-1.3804016
1183718493672864	2.6847992	6.4086914E-4	-1.2777863
1183718499043957	2.5809631	0.03239441	-1.192276
1183718503774182	2.5039825	0.16799927	-1.150711
1183718507131116	2.5039825	0.41233826	-1.1629486
1183718513814465	2.4208984	0.7141113	-1.217926
1183718518849866	2.3916016	0.9889984	-1.2912292
1183718523915784	2.353714	1.17836	-1.3559723
1183718528981702	2.3023987	1.271225	-1.396286
1183718534810559	2.2376556	1.2919922	-1.4072876
1183718538991467	2.1692352	1.2724304	-1.3914032
1183718544026868	2.1008148	1.244339	-1.3559723
1183718549520032	2.0372772	1.2382202	-1.309555
1183718554128186	1.977417	1.2797852	-1.2619019
1183718557454602	1.977417	1.3738403	-1.2619019
1183718564229504	1.9236603	1.3738403	-1.2240143
1183718569264905	1.8821259	1.5131226	-1.2020416
1183718574300305	1.8564758	1.6890411	-1.1934814
1183718579335705	1.8467102	1.8943024	-1.1861572
1183718585225598	1.8564758	2.11055	-1.16539
1183718589375989	1.8833618	2.2937927	-1.1336212
1183718594411389	1.9138947	2.4000854	-1.1177368
1183718600331799	1.9273376	2.4281921	-1.1617126
1183718604482190	1.904129	2.4098663	-1.2936707
1183718607869641	1.8442383	2.3707733	-1.501358
1183718614522473	1.7624054	2.285263	-1.7420502
1183718619557873	1.6768799	2.1129913	-1.9546204
1183718624593274	1.5974579	1.838089	-2.096344
1183718629659192	1.5290527	1.4984436	-2.1501007
1183718634999768	1.4630737	1.1673737	-2.131775
1183718639699475	1.3934479	0.920578	-2.0767975
1183718644734875	1.3152466	0.80696106	-2.0120392
1183718650075452	1.2358398	0.83995056	-1.9570618
1183718654805676	1.16008	0.9926758	-1.9167328
1183718658193127	1.16008	1.2015686	-1.9167328
1183718664876477	1.0305786	1.2015686	-1.8825378
1183718669911877	0.9890442	1.4862366	-1.8788757
1183718674977795	0.9719391	1.4801178	-1.8825378
1183718679982678	0.968277	1.388504	-1.8923187
1183718685872571	0.95606995	1.2651062	-1.899643
1183718690053479	0.9120636	1.1649323	-1.8935242
1183718695119397	0.83387756	1.1221619	-1.8617706
1183718700459973	0.7324829	1.1246033	-1.8006744
1183718705159680	0.7324829	1.1356049	-1.8006744
1183718708547131	0.61886597	1.1356049	-1.7151642
1183718715230481	0.49913025	1.1123962	-1.6137543
1183718720296399	0.3684082	1.0439758	-1.5037994
1183718725331799	0.22546387	0.9511261	-1.3865204
1183718730367200	0.07519531	0.87049866	-1.2667847
1183718735829846	-0.07627869	0.8350525	-1.1482697
1183718740407483	-0.22410583	0.8594971	-1.0383301
1183718745442883	-0.36338806	0.9352417	-0.9405823
1183718750936047	-0.48921204	1.0415344	-0.8575134
1183718755513684	-0.60406494	1.1539307	-0.7878723
1183718758901135	-0.71157837	1.2589874	-0.7280121
1183718765615002	-0.814209	1.3518524	-0.6754761
1183718770619885	-0.9119415	1.4300385	-0.62538147
1183718775655286	-1.0023346	1.4789124	-0.57284546
1183718780721203	-1.0866394	1.489914	-0.5093231
1183718786214368	-1.1746063	1.4679108	-0.42745972
1183718790761487	-1.2662354	1.4324951	-0.32484436
1183718795827405	-1.355423	1.3897247	-0.20509338
1183718801290051	-1.4397125	1.3286438	-0.0743866
1183718805928723	-1.5179291	1.2260132	0.057540894
1183718809224621	-1.5179291	1.0769653	0.057540894
1183718815969006	-1.7024078	1.0769653	0.3360901
1183718820973889	-1.8172455	0.70188904	0.4814911
1183718826009289	-1.9467468	0.5039673	0.61831665
1183718831075207	-2.0884705	0.3072815	0.73683167
1183718836415784	-2.2362976	0.12036133	0.8345642
1183718841176526	-2.3743439	-0.049453735	0.9164276
1183718846150891	-2.3743439	-0.19972229	0.98239136
1183718851949231	-2.547821	-0.19972229	1.0288239
1183718856252209	-2.547821	-0.45872498	1.0288239
1183718859609143	-2.531952	-0.45872498	1.0483704
1183718866384045	-2.4281006	-0.5650177	1.0385895
1183718871388928	-2.2497406	-0.62731934	0.9909363
1183718876485364	-2.0298157	-0.61875916	0.8981018
1183718881520764	-1.7964783	-0.5234833	0.75271606
1183718887502209	-1.547226	-0.3341217	0.54989624
1183718891500012	-1.2601471	-0.028686523	0.28601074
1183718896596448	-0.93637085	0.41357422	-0.03895569
1183718902608411	-0.6114044	0.9572296	-0.41889954
1183718906697766	-0.34872437	1.475235	-0.82940674
1183718909963147	-0.193573	1.7904663	-1.2276917
1183718916707532	-0.15324402	1.8051147	-1.5612183
1183718921712414	-0.19477844	1.5656586	-1.7957916
1183718926717297	-0.27296448	1.2272339	-1.9240875
1183718931783215	-0.35362244	0.946228	-1.9533844
1183718937276379	-0.424469	0.80451965	-1.8923187
1183718941823498	-0.48677063	0.7959595	-1.745697
1183718946858899	-0.53930664	0.8619385	-1.5245667
1183718952321545	-0.5796356	0.9095917	-1.243576
1183718956929700	-0.60528564	0.8607178	-0.9246979
1183718960347668	-0.60528564	0.6970062	-0.9246979
1183718967031018	-0.63583374	0.6970062	-0.27842712
1183718972066418	-0.63461304	0.2437439	0.0135650635
1183718977101819	-0.5991821	0.06539917	0.27622986
1183718982137219	-0.502655	-0.09954834	0.5071411
1183718987477795	-0.33406067	-0.29867554	0.69285583
1183718992177502	-0.33406067	-0.524704	0.69285583
1183718997243420	-0.10560608	-0.524704	0.8076782
1183719002553479	0.1350708	-0.71406555	0.8186798
1183719007283703	0.3146515	-0.79959106	0.7038269
1183719010640637	0.3708496	-0.76293945	0.4729309
1183719017354504	0.281662	-0.6309967	0.1711731
1183719022420422	0.083740234	-0.4501648	-0.13424683
1183719027455823	-0.17279053	-0.28034973	-0.3724823
1183719032460705	-0.46600342	-0.19361877	-0.4885559
1183719037831799	-0.7897644	-0.2522583	-0.46043396
1183719042592541	-1.1147461	-0.4636078	-0.29795837
1183719047566907	-1.3627625	-0.78004456	-0.046295166
1183719053334729	-1.4409485	-1.1037903	0.24447632
1183719057668225	-1.294342	-1.3237152	0.5389099
1183719061025159	-0.93637085	-1.3432465	0.8296814
1183719067708508	-0.45135498	-1.1428833	1.122879
1183719072774426	0.022659302	-0.79959106	1.4148712
1183719077779309	0.34152222	-0.45506287	1.6934357
1183719082845227	0.41726685	-0.23027039	1.949997
1183719088307873	0.24378967	-0.16673279	2.1845703
1183719092916028	-0.108047485	-0.2522583	2.4020233
1183719097951428	-0.5466461	-0.46972656	2.604828
1183719103414075	-1.018219	-0.79959106	2.7783203
1183719107991711	-1.5203705	-1.1795349	2.9066162
1183719111348645	-1.5203705	-1.4910889	2.9066162
1183719118093030	-2.6076965	-1.4910889	2.9921265
1183719123128430	-3.0914917	-1.6609039	2.9530334
1183719128133313	-3.4250183	-1.6230316	2.858963
1183719133168713	-3.5472107	-1.6010284	2.6989136
1183719138661877	-3.4115753	-1.5839386	2.4460297
1183719143239514	-3.4115753	-1.5106354	2.4460297
1183719148244397	-2.994995	-1.5106354	2.058731
1183719153676526	-2.316925	-1.340805	1.5187225
1183719158376233	-1.4690399	-1.0867004	0.8748779
1183719161733166	-0.61872864	-0.82647705	0.24691772
1183719168447034	0.05809021	-0.6652069	-0.22833252
1183719174062268	0.43315125	-0.70062256	-0.4653473
1183719178639905	0.45881653	-0.97428894	-0.4543457
1183719183522717	0.16316223	-1.447113	-0.24053955
1183719189198987	-0.36338806	-2.0005493	0.1076355
1183719193563000	-0.98524475	-2.4745789	0.5108032
1183719198628918	-1.5582275	-2.7286835	0.8956604
1183719203847424	-1.9748383	-2.700592	1.215744
1183719208699719	-2.1923218	-2.4147034	1.4588776
1183719212056653	-2.22406	-1.962677	1.6286774
1183719218770520	-2.111679	-1.447113	1.7276459
1183719223775403	-1.9113007	-0.95840454	1.7508545
1183719228871838	-1.6718445	-0.5601349	1.6958923
1183719233876721	-1.4262848	-0.30355835	1.5688171
1183719239217297	-1.2002563	-0.2021637	1.380661
1183719243947522	-1.006012	-0.22659302	1.149765
1183719248982922	-0.8447418	-0.3182373	0.89930725
1183719254292981	-0.707901	-0.42451477	0.65496826
1183719259084241	-0.58940125	-0.5149231	0.4387207
1183719262410657	-0.58940125	-0.57722473	0.4387207
1183719269124524	-0.4098053	-0.57722473	0.11251831
1183719274159924	-0.35362244	-0.63220215	-0.010864258
1183719279225842	-0.35362244	-0.64320374	-0.11714172
1183719284200207	-0.32429504	-0.6419983	-0.11714172
1183719290029065	-0.32429504	-0.6419983	-0.26010132
1183719294301526	-0.32429504	-0.5344696	-0.26010132
1183719299367444	-0.33285522	-0.5344696	-0.27474976
1183719304769055	-0.33529663	-0.41107178	-0.24298096
1183719309438245	-0.32795715	-0.2730255	-0.16967773
1183719312795178	-0.312088	-0.1691742	-0.0756073
1183719319509045	-0.29496765	-0.14228821	0.01234436
1183719324513928	-0.28276062	-0.20826721	0.074645996
1183719329549328	-0.28764343	-0.35609436	0.1088562
1183719334584729	-0.31697083	-0.5564575	0.13328552
1183719340077893	-0.38781738	-0.7775879	0.16993713
1183719344655530	-0.5148926	-0.9975128	0.23347473
1183719349690930	-0.707901	-1.1954193	0.32266235
1183719355031506	-0.9608002	-1.355484	0.43139648
1183719359792248	-1.2405853	-1.4593201	0.55111694
1183719363088147	-1.5020447	-1.4971924	0.67085266
1183719369863049	-1.7024078	-1.4642029	0.7856903
1183719374867932	-1.8209076	-1.368927	0.88586426
1183719379903332	-1.8575592	-1.2308655	0.96040344
1183719384938733	-1.8282318	-1.070816	1.0092621
1183719390218274	-1.7537079	-0.9071045	1.0337067
1183719395040051	-1.6547546	-0.74705505	1.0422516
1183719400044934	-1.5460205	-0.5833435	1.0385895
1183719405324475	-1.4385071	-0.40618896	1.0227051
1183719410115735	-1.34198	-0.21070862	0.9933777
1183719413472668	-1.34198	0.0043029785	0.9933777
1183719420186536	-1.2320251	0.0043029785	0.89930725
1183719425221936	-1.2320251	0.41233826	0.8345642
1183719430287854	-1.2308197	0.41233826	0.8345642
1183719435292737	-1.2564697	0.51252747	0.7624817
1183719441060559	-1.2332611	0.46365356	0.61587524
1183719445363537	-1.2332611	-0.14108276	0.61587524
1183719450398938	-1.070755	-0.14108276	0.55355835
1183719455678479	-0.760437	-0.5662384	0.5083618
1183719460500256	-0.33650208	-0.9119873	0.48025513
1183719463826672	0.1191864	-1.0683746	0.45828247
1183719470571057	0.51745605	-0.98773193	0.42771912
1183719475606457	0.8033447	-0.6884155	0.3751831
1183719480641858	0.968277	-0.24125671	0.29699707
1183719485616223	1.0366974	0.25839233	0.19926453
1183719491139905	1.0415802	0.7238922	0.09907532
1183719495717541	1.0134735	1.0830688	0.007461548
1183719500752942	0.9707184	1.2919922	-0.07070923
1183719506154553	0.9169769	1.3384094	-0.14035034
1183719510854260	0.84976196	1.243103	-0.21121216
1183719514180676	0.763031	1.0476532	-0.29063416
1183719520925061	0.6542816	0.80207825	-0.38104248
1183719525929944	0.53334045	0.5613861	-0.48731995
1183719530995862	0.41482544	0.38546753	-0.60705566
1183719536000745	0.30854797	0.31092834	-0.7402191
1183719541371838	0.20957947	0.34513855	-0.88560486
1183719546071545	0.09718323	0.44898987	-1.0407715
1183719551137463	-0.043319702	0.5455017	-1.1959229
1183719556478039	-0.21310425	0.5406189	-1.3303223
1183719561177746	-0.38415527	0.3524933	-1.4292908
1183719564565198	-0.38415527	-0.049453735	-1.4292908
1183719571340100	-0.48068237	-0.049453735	-1.450058
1183719576283948	-0.36460876	-0.61143494	-1.450058
1183719581319348	0.09718323	-1.1575623	-1.3376465
1183719586354748	0.9010925	-1.4238892	-1.1592712
1183719591695325	1.8417969	-1.223526	-0.98091125
1183719596517102	2.6224976	-0.61387634	-0.88560486
1183719601552502	3.0525513	0.10203552	-0.90760803
1183719607198254	3.1441803	0.59194946	-1.0053406
1183719611562268	3.0415497	0.7104492	-1.1042938
1183719614888684	2.8912811	0.53697205	-1.1568298
1183719621694104	2.7739868	0.24986267	-1.1568298
1183719626698987	2.7006836	0.009185791	-1.1189575
1183719631703870	2.6554718	-0.10687256	-1.0700989
1183719636800305	2.6188202	-0.08366394	-1.0334473
1183719642537610	2.585846	0.044631958	-1.0273285
1183719646779553	2.5552979	0.23397827	-1.0505371
1183719651814953	2.5259857	0.43922424	-1.0835266
1183719657277600	2.5027618	0.6188202	-1.1067352
1183719661916272	2.4966583	0.73609924	-1.1091766
1183719665242688	2.4966583	0.76786804	-1.0969696
1183719671987073	2.5381927	0.7190094	-1.0823059
1183719677052991	2.5736084	0.6224823	-1.0847473
1183719682057873	2.6041718	0.53208923	-1.1165161
1183719687062756	2.6261444	0.49420166	-1.1714783
1183719692586438	2.6322632	0.52597046	-1.2289276
1183719697164075	2.612732	0.6017151	-1.2680206
1183719702199475	2.5687256	0.6811218	-1.279007
1183719707509534	2.5101013	0.7373352	-1.2655792
1183719712239758	2.4514618	0.7715454	-1.2350159
1183719715749280	2.4514618	0.7923126	-1.2350159
1183719722402112	2.40625	0.7923126	-1.1934814
1183719727406995	2.3818054	0.8118439	-1.1495056
1183719732411877	2.3818054	0.8326111	-1.1104126
1183719737447278	2.4013672	0.84973145	-1.0871887
1183719743123547	2.428238	0.84973145	-1.0774231
1183719747548596	2.4367828	0.83384705	-1.0823059
1183719752553479	2.4013672	0.8191681	-1.0969696
1183719758290784	2.3231812	0.79963684	-1.1189575
1183719762624280	2.2254333	0.7238922	-1.1470642
1183719766225354	2.133789	0.55285645	-1.178833
1183719772695080	2.0385132	0.34513855	-1.2215729
1183719777730481	1.9090118	0.23641968	-1.2936707
1183719782735364	1.7269745	0.31340027	-1.4121704
1183719787831799	1.5156097	0.50520325	-1.5771027
1183719793294446	1.3262329	0.66645813	-1.75914
1183719797872082	1.1979675	0.7263336	-1.9094086
1183719802876965	1.1381073	0.72021484	-1.9839478
1183719808217541	1.1234283	0.7104492	-1.9680634
1183719812947766	1.1197815	0.7116699	-1.8751984
1183719816579358	1.107544	0.72509766	-1.7347107
1183719823049084	1.0818939	0.7690735	-1.575882
1183719828084485	1.0489197	0.85217285	-1.4329376
1183719833119885	1.0220337	0.9425812	-1.3339844
1183719838124768	1.0110321	0.9816742	-1.2863464
1183719843648450	1.020813	0.9425812	-1.2741089
1183719848195569	1.0354767	0.84973145	-1.2667847
1183719853261487	1.0305786	0.7483063	-1.2423553
1183719858724133	0.9890442	0.6786804	-1.192276
1183719863423840	0.9890442	0.6591339	-1.192276
1183719867146985	0.9096222	0.6591339	-1.1177368
1183719873403088	0.8033447	0.68600464	-1.0285645
1183719878438489	0.6811676	0.73487854	-0.92837524
1183719883473889	0.54800415	0.77519226	-0.8245239
1183719888478772	0.40750122	0.7923126	-0.72068787
1183719894368664	0.26455688	0.7984009	-0.61805725
1183719898580090	0.12651062	0.81552124	-0.52153015
1183719903615491	-0.0029907227	0.8619385	-0.43478394
1183719909322278	-0.123931885	0.9450226	-0.36149597
1183719913655774	-0.23754883	1.0586395	-0.3052826
1183719917439953	-0.34628296	1.1930237	-0.26498413
1183719923757092	-0.44891357	1.3347473	-0.23565674
1183719928761975	-0.5466461	1.463028	-0.21121216
1183719933797375	-0.64315796	1.5570984	-0.18556213
1183719938863293	-0.7445526	1.6084137	-0.15379333
1183719944173352	-0.8508606	1.6194153	-0.11592102
1183719948934094	-0.9608002	1.59375	-0.07194519
1183719953938977	-1.071991	1.5387726	-0.019424438
1183719959310071	-1.1831665	1.4581451	0.041671753
1183719964009778	-1.2980042	1.361618	0.1088562
1183719968160168	-1.4201813	1.2528992	0.17849731
1183719974080578	-1.552124	1.1270599	0.24812317
1183719979146496	-1.6901703	0.9779968	0.31410217
1183719984151379	-1.8318939	0.7984009	0.3727417
1183719989247815	-1.9760742	0.5907135	0.41671753
1183719994679944	-2.1226654	0.36592102	0.44483948
1183719999288098	-2.2680664	0.14234924	0.4656067
1183720004292981	-2.2680664	-0.06289673	0.48513794
1183720009664075	-2.4940796	-0.06289673	0.5022583
1183720014394299	-2.4940796	-0.40618896	0.5022583
1183720018483655	-2.5380554	-0.40618896	0.5132446
1183720024465100	-2.5172882	-0.5479126	0.51446533
1183720029500500	-2.4281006	-0.6566467	0.5071411
1183720034535901	-2.2692719	-0.70918274	0.4888153
1183720039571301	-2.0408173	-0.6859741	0.4521637
1183720045094983	-1.7463837	-0.5760193	0.3861847
1183720049642102	-1.3884125	-0.36586	0.27134705
1183720054677502	-0.98280334	-0.065338135	0.09541321
1183720060048596	-0.5723114	0.2913971	-0.1415863
1183720064748303	-0.21678162	0.6420288	-0.4250183
1183720069081799	0.023880005	0.9303589	-0.7231293
1183720074819104	0.124069214	1.1429443	-1.0004425
1183720079823987	0.099624634	1.3029938	-1.2203674
1183720084889905	-0.007873535	1.4324951	-1.3596344
1183720089894787	-0.14958191	1.5228882	-1.4085083
1183720095662610	-0.29129028	1.5485382	-1.370636
1183720100026623	-0.411026	1.4984436	-1.2619019
1183720105031506	-0.49656677	1.3726196	-1.099411
1183720110463635	-0.5405426	1.1746979	-0.9051666
1183720115071789	-0.5466461	0.8998108	-0.7072449
1183720119344250	-0.530777	0.5540619	-0.53253174
1183720125142590	-0.50509644	0.16799927	-0.387146
1183720130177991	-0.47088623	-0.200943	-0.24786377
1183720135243909	-0.41714478	-0.49171448	-0.081710815
1183720140279309	-0.32795715	-0.67985535	0.12840271
1183720145925061	-0.18989563	-0.7898102	0.36175537
1183720150350110	-0.18989563	-0.8728943	0.36175537
1183720155354993	6.713867E-4	-0.8728943	0.57922363
1183720160665051	0.23402405	-0.95596313	0.7417145
1183720165425793	0.48936462	-1.0146027	0.82722473
1183720171987073	0.91329956	-1.0072784	0.7307129
1183720175557629	0.91329956	-0.7702637	0.7307129
1183720180562512	0.9866028	-0.7702637	0.56822205
1183720185597912	0.91329956	-0.6041107	0.3751831
1183720190663830	0.684845	-0.46116638	0.19926453
1183720196492688	0.320755	-0.39274597	0.07952881
1183720200704114	-0.12637329	-0.46240234	0.03555298
1183720205708996	-0.5979614	-0.70306396	0.06976318
1183720211232678	-1.0280151	-1.0854645	0.1736145
1183720215810315	-1.3615417	-1.5130768	0.33364868
1183720220235364	-1.5570221	-1.8930206	0.53034973
1183720225881116	-1.5838928	-2.1862488	0.7490387
1183720230885998	-1.4336243	-2.4049377	0.97628784
1183720235921399	-1.1135254	-2.5490875	1.2059784
1183720240956799	-0.67248535	-2.5722961	1.4295502
1183720246449963	-0.20578003	-2.429367	1.639679
1183720251027600	0.16072083	-2.15448	1.8363647
1183720256093518	0.31954956	-1.8734894	2.0269623
1183720261434094	0.22790527	-1.717102	2.2151031
1183720266164319	-0.08604431	-1.7268829	2.3971405
1183720270497815	-0.5503082	-1.856369	2.5584106
1183720276204602	-1.085434	-2.023758	2.6866913
1183720281240002	-1.6168823	-2.1752472	2.770996
1183720286275403	-2.072586	-2.294983	2.8027496
1183720291310803	-2.3816833	-2.3927307	2.7648926
1183720296681897	-2.484314	-2.4745789	2.6353912
1183720301442639	-2.484314	-2.5161133	2.6353912
1183720306417004	-2.3609009	-2.5161133	2.3971405
1183720312184827	-1.6376495	-2.46846	1.6408844
1183720316487805	-1.6376495	-1.9663391	1.6408844
1183720320882336	-1.2332611	-1.9663391	1.2340698
1183720326558606	-0.90338135	-1.5375061	0.8981018
1183720331624524	-0.6663666	-1.0622559	0.6598511
1183720336659924	-0.5124512	-0.6224365	0.5059204
1183720341725842	-0.43547058	-0.31455994	0.4045105
1183720347554700	-0.4452362	-0.2204895	0.3385315
1183720351735608	-0.5503082	-0.35365295	0.32632446
1183720356771008	-0.7372284	-0.6578827	0.39718628
1183720362050549	-0.96936035	-1.0170593	0.56333923
1183720366872327	-1.1953735	-1.301712	0.7991333
1183720371297375	-1.3713074	-1.4177856	1.0495911
1183720376943127	-1.4702759	-1.3469238	1.2646027
1183720382039563	-1.4861603	-1.1551208	1.4148712
1183720386983411	-1.4299469	-0.9339905	1.4979553
1183720392049328	-1.3236542	-0.76171875	1.512619
1183720397542493	-1.1929321	-0.67741394	1.4625244
1183720402120129	-1.0573273	-0.69085693	1.3538055
1183720407125012	-0.93637085	-0.78370667	1.1986237
1183720412618176	-0.8410797	-0.89733887	1.0166016
1183720417226330	-0.77511597	-0.95840454	0.8247833
1183720421834485	-0.7286682	-0.9205475	0.6329651
1183720427297131	-0.6846924	-0.79959106	0.44239807
1183720432302014	-0.62483215	-0.6517639	0.25424194
1183720437337414	-0.62483215	-0.5271454	0.078308105
1183720442403332	-0.53930664	-0.5271454	0.078308105
1183720447865979	-0.31697083	-0.4501648	-0.19168091
1183720452443616	-0.31697083	-0.41230774	-0.19168091
1183720457509534	-0.21066284	-0.41230774	-0.26498413
1183720462819592	-0.1288147	-0.43307495	-0.29551697
1183720467549817	-0.07627869	-0.47094727	-0.28575134
1183720472035901	-0.051849365	-0.5222626	-0.24053955
1183720477620618	-0.044525146	-0.57966614	-0.16967773
1183720482656018	-0.04940796	-0.6419983	-0.08659363
1183720487721936	-0.06283569	-0.71650696	-0.004776001
1183720492787854	-0.08972168	-0.8166809	0.06854248
1183720498433606	-0.13981628	-0.9498596	0.13696289
1183720502858655	-0.2253418	-1.1111145	0.20658875
1183720507863537	-0.36216736	-1.2858276	0.28356934
1183720513570325	-0.56741333	-1.4593201	0.36175537
1183720517903821	-0.8471832	-1.6181488	0.4387207
1183720522511975	-1.1770477	-1.7452087	0.5181427
1183720527974621	-1.5056915	-1.8148346	0.59999084
1183720533040539	-1.7683716	-1.8099518	0.68429565
1183720538045422	-1.9247437	-1.7329865	0.7673645
1183720543141858	-1.9662781	-1.6010284	0.8455658
1183720548604504	-1.914978	-1.4348755	0.9115143
1183720553151623	-1.8074646	-1.2406311	0.9591675
1183720558187024	-1.679184	-1.0146027	0.98239136
1183720563497082	-1.5594635	-0.75927734	0.97628784
1183720568288342	-1.4653931	-0.47827148	0.94207764
1183720571584241	-1.4653931	-0.18261719	0.94207764
1183720578359143	-1.3932953	-0.18261719	0.7979126
1183720583425061	-1.3932953	0.40013123	0.7013855
1183720588399426	-1.4201813	0.649353	0.7013855
1183720593434827	-1.4812775	0.649353	0.59999084
1183720598927991	-1.5643463	0.8350525	0.4998169
1183720603505627	-1.6388702	0.9254608	0.39839172
1183720608510510	-1.6559601	0.8924866	0.29945374
1183720613820569	-1.552124	0.7214508	0.21147156
1183720618611828	-1.2796783	0.43310547	0.15405273
1183720621968762	-0.8435211	0.098358154	0.13816833
1183720628713147	-0.31573486	-0.18873596	0.15405273
1183720633687512	0.19613647	-0.36097717	0.17481995
1183720638753430	0.605423	-0.40986633	0.16873169
1183720643758313	0.88397217	-0.36221313	0.122283936
1183720649068371	1.0489197	-0.2522583	0.042877197
1183720653859631	1.1319885	-0.10319519	-0.054840088
1183720658895032	1.1576385	0.05683899	-0.1574707
1183720664235608	1.1478729	0.20709229	-0.2576294
1183720668965832	1.1246643	0.33172607	-0.3517151
1183720672353284	1.1014557	0.42944336	-0.4409027
1183720679067151	1.0892181	0.5039673	-0.52397156
1183720684072034	1.0880127	0.56874084	-0.60461426
1183720689137952	1.0916595	0.6395874	-0.68403625
1183720694173352	1.0916595	0.73243713	-0.76586914
1183720699483411	1.0818939	0.8619385	-0.84651184
1183720704213635	1.0513611	1.0219727	-0.91249084
1183720709249036	0.993927	1.1881409	-0.9564667
1183720714467541	0.9010925	1.3347473	-0.97602844
1183720719319836	0.7691345	1.4447021	-0.9747925
1183720722707287	0.7691345	1.514328	-0.9747925
1183720729390637	0.59565735	1.514328	-0.96746826
1183720734426037	0.38796997	1.5448914	-0.96746826
1183720739491955	0.17172241	1.5363312	-0.9869995
1183720744496838	-0.023757935	1.4813538	-1.0285645
1183720750264661	-0.17645264	1.3762817	-1.085968
1183720754537121	-0.2803192	1.2150116	-1.151947
1183720759603039	-0.29985046	0.947464	-1.2056885
1183720764974133	-0.114151	0.45999146	-1.2130432
1183720769673840	0.4453888	-0.31089783	-1.1360626
1183720773030774	1.4166565	-1.2125397	-0.9796753
1183720779744641	2.5785217	-1.8649292	-0.8196411
1183720784780041	3.5399933	-1.9296875	-0.7671051
1183720789815442	4.005493	-1.4006653	-0.87950134
1183720794850842	3.9566193	-0.61875916	-1.1152954
1183720800344006	3.5839996	0.018966675	-1.3657532
1183720804921643	3.113617	0.33172607	-1.5392303
1183720809987561	2.6933594	0.37690735	-1.601532
1183720815480725	2.3842468	0.3048401	-1.5697784
1183720820058362	2.1961212	0.2278595	-1.4793549
1183720823384778	2.1961212	0.19242859	-1.3633118
1183720830129162	2.1252594	0.19242859	-1.2423553
1183720835134045	2.1814423	0.31340027	-1.1299438
1183720840199963	2.2535248	0.46121216	-1.0334473
1183720845174328	2.3256226	0.6322479	-0.9564667
1183720850514905	2.3916016	0.79107666	-0.8904877
1183720855306164	2.4514618	0.9022522	-0.82940674
1183720860311047	2.5003204	0.9486847	-0.77931213
1183720865621106	2.5345306	0.9389038	-0.7512207
1183720870381848	2.5345306	0.9046936	-0.7487793
1183720873769299	2.5443115	0.8778229	-0.7487793
1183720880483166	2.519867	0.8778229	-0.7622223
1183720885488049	2.458786	0.87294006	-0.7732239
1183720890523450	2.3695984	0.8973694	-0.7719879
1183720895558850	2.2608643	0.9706726	-0.7585449
1183720901021496	2.1521301	1.1233978	-0.7402191
1183720905599133	2.0678406	1.362854	-0.71824646
1183720910665051	2.0201874	1.6548309	-0.6962433
1183720915914075	1.9994202	1.9346161	-0.6925659
1183720920735852	1.9713135	2.166748	-0.7304535
1183720924092786	1.917572	2.3536682	-0.83062744
1183720930806653	1.8564758	2.4953918	-0.99679565
1183720935842053	1.8173828	2.5442505	-1.2130432
1183720940877453	1.8161469	2.437973	-1.4451447
1183720945912854	1.8417969	2.1643066	-1.6589508
1183720951406018	1.8686829	1.7806702	-1.8214569
1183720955983655	1.8748016	1.3775024	-1.9057617
1183720961019055	1.8430328	1.0207672	-1.9082031
1183720966695325	1.7746124	0.74342346	-1.8422241
1183720971120373	1.6793213	0.56018066	-1.7371674
1183720974477307	1.6793213	0.46975708	-1.7371674
1183720981191174	1.4948425	0.46975708	-1.5221252
1183720986196057	1.4276581	0.51252747	-1.4476166
1183720991231457	1.3714447	0.6139221	-1.397522
1183720996266858	1.3091431	0.74586487	-1.3608551
1183721001760022	1.2333832	0.8790436	-1.3242035
1183721006398694	1.1527557	0.973114	-1.2912292
1183721011373059	1.0794525	1.0048828	-1.270462
1183721017385022	1.020813	0.97435	-1.2667847
1183721021474377	1.020813	0.9169159	-1.2667847
1183721024800793	0.968277	0.9169159	-1.2680206
1183721031545178	0.90841675	0.87171936	-1.2557831
1183721036550061	0.83143616	0.8607178	-1.2154846
1183721041615979	0.7398224	0.87049866	-1.1470642
1183721046865002	0.6371918	0.8766022	-1.060318
1183721052327649	0.52479553	0.8643799	-0.96502686
1183721056966321	0.40629578	0.83872986	-0.86849976
1183721061757580	0.27922058	0.8167267	-0.7719879
1183721066854016	0.14848328	0.81552124	-0.6803589
1183721071797864	0.015335083	0.84484863	-0.5960541
1183721075185315	-0.115371704	0.8961487	-0.5276489
1183721081868664	-0.23999023	0.9486847	-0.47511292
1183721086934582	-0.3572693	0.98532104	-0.4360199
1183721091939465	-0.46844482	1.0048828	-0.4018097
1183721097249524	-0.5771942	1.0195313	-0.36637878
1183721102468030	-0.68836975	1.0317688	-0.32240295
1183721107167737	-0.80444336	1.0354156	-0.26742554
1183721112081067	-0.9229431	1.0183258	-0.20265198
1183721118093030	-1.0402222	0.9767914	-0.13058472
1183721122182385	-1.1550598	0.908371	-0.05117798
1183721125478284	-1.1550598	0.82040405	-0.05117798
1183721132253186	-1.4042969	0.82040405	0.13816833
1183721137258069	-1.547226	0.6004944	0.24691772
1183721142323987	-1.7024078	0.46855164	0.35809326
1183721147328870	-1.8648834	0.3207245	0.46681213
1183721153188245	-2.0298157	0.15945435	0.56944275
1183721157582776	-2.1910858	-0.010345459	0.6671753
1183721162496106	-2.1910858	-0.18261719	0.7624817
1183721170827405	-2.4488678	-0.18261719	0.8553314
1183721175862805	-2.496521	-0.48561096	0.93107605
1183721182637707	-2.4537506	-0.60287476	0.9726105
1183721187642590	-2.3083649	-0.69451904	0.97016907
1183721192677991	-2.0774689	-0.74705505	0.92251587
1183721197682873	-1.7952423	-0.74095154	0.8382263
1183721203420178	-1.4873657	-0.6762085	0.7221527
1183721208211438	-1.1611633	-0.5760193	0.56455994
1183721212850110	-0.8178711	-0.44528198	0.34587097
1183721218251721	-0.47332764	-0.26324463	0.046554565
1183721222890393	-0.17401123	6.4086914E-4	-0.31996155
1183721226247327	0.031219482	0.31704712	-0.7121277
1183721232961194	0.11428833	0.58461	-1.0664215
1183721237996594	0.0874176	0.6909027	-1.3400879
1183721243031995	-0.012756348	0.6078186	-1.5245667
1183721248464123	-0.15202332	0.41479492	-1.6296387
1183721253743664	-0.29985046	0.24130249	-1.6650696
1183721258168713	-0.43423462	0.17410278	-1.6369781
1183721263173596	-0.5356598	0.22665405	-1.5526733
1183721269032971	-0.60162354	0.36102295	-1.4256134
1183721273244397	-0.63827515	0.53697205	-1.2655792
1183721276601330	-0.63827515	0.7190094	-1.2655792
1183721283315198	-0.63827515	0.7190094	-0.81352234
1183721288411633	-0.60650635	0.9095917	-0.5203247
1183721293385998	-0.56741333	0.80451965	-0.21365356
1183721298512952	-0.5344238	0.5430603	0.06732178
1183721304280774	-0.5063324	0.18388367	0.29699707
1183721308614270	-0.46844482	-0.18385315	0.46925354
1183721313527600	-0.46844482	-0.5149231	0.46925354
1183721319631116	-0.26931763	-0.5149231	0.6757355
1183721323598401	-0.26931763	-1.1697693	0.6757355
1183721326924817	-0.11048889	-1.1697693	0.7148285
1183721333699719	0.036102295	-1.5375061	0.70506287
1183721338796155	0.11062622	-1.845398	0.64520264
1183721343709485	0.07519531	-1.9834442	0.5450134
1183721348927991	-0.067718506	-1.9138031	0.43139648
1183721354299084	-0.28764343	-1.7183228	0.35075378
1183721359639661	-0.5503082	-1.5399628	0.33976746
1183721363851086	-0.83374023	-1.4776459	0.4045105
1183721369313733	-1.1147461	-1.5228424	0.51446533
1183721373952405	-1.3603058	-1.598587	0.63420105
1183721377309338	-1.5325775	-1.6364746	0.7441559
1183721384023205	-1.5997772	-1.6217957	0.84310913
1183721389150159	-1.5435791	-1.5668182	0.93840027
1183721394063489	-1.346878	-1.4849701	1.0361481
1183721399373547	-1.0157776	-1.3847809	1.136322
1183721404408948	-0.58573914	-1.2785034	1.2475128
1183721409932629	-0.13491821	-1.1832123	1.3855438
1183721414226811	0.23768616	-1.1172333	1.5700378
1183721419658940	0.45391846	-1.1050262	1.8021698
1183721424297612	0.49180603	-1.184433	2.0623932
1183721427685063	0.49180603	-1.3860168	2.0623932
1183721434398930	0.15216064	-1.3860168	2.5449677
1183721439708989	-0.15446472	-2.089737	2.728241
1183721444439214	-0.517334	-2.4599152	2.8687286
1183721450268071	-0.90338135	-2.7482452	2.9738007
1183721454845708	-1.2576752	-2.922943	3.0410004
1183721460216801	-1.5301361	-2.9754791	3.052002
1183721464580815	-1.5301361	-2.8985138	3.052002
1183721469860356	-1.6804047	-2.8985138	2.9738007
1183721474651616	-1.7011719	-2.6773834	2.784439
1183721478008549	-1.6095428	-2.3047485	2.487564
1183721484722417	-1.4555969	-1.7977448	2.102707
1183721490032475	-1.289444	-1.2052002	1.6714478
1183721494793217	-1.1452942	-0.6077881	1.2536163
1183721500438969	-1.0475464	-0.09220886	0.90786743
1183721505291264	-1.0108948	0.26574707	0.66841125
1183721510601323	-1.0365448	0.43434143	0.53523254
1183721514934819	-1.1049652	0.42456055	0.4814911
1183721520611089	-1.1856079	0.2913971	0.47660828
1183721525005620	-1.2552338	0.10079956	0.49858093
1183721528362553	-1.3114471	-0.09831238	0.53157043
1183721535106938	-1.3578644	-0.2889099	0.56822205
1183721540722173	-1.3932953	-0.4660492	0.60243225
1183721545147221	-1.4055176	-0.62976074	0.6280823
1183721550823491	-1.382309	-0.78126526	0.6354065
1183721555431645	-1.3224487	-0.9327545	0.6121979
1183721561168950	-1.2393494	-1.0915833	0.5450134
1183721565288823	-1.1465149	-1.2479553	0.43016052
1183721571026128	-1.046341	-1.3750153	0.28112793
1183721575329106	-0.94003296	-1.4544373	0.127182
1183721578716557	-0.94003296	-1.4739838	0.127182
1183721585430424	-0.71769714	-1.4739838	-0.1073761
1183721590801518	-0.61260986	-1.3835754	-0.17456055
1183721595501225	-0.61260986	-1.3310394	-0.21121216
1183721601391118	-0.4403534	-1.3102722	-0.21853638
1183721605816167	-0.4403534	-1.3212738	-0.21853638
1183721611583989	-0.3902588	-1.3212738	-0.14646912
1183721615642827	-0.3902588	-1.3322449	-0.14646912
1183721621288579	-0.4232483	-1.3322449	-0.06462097
1183721625713628	-0.4855652	-1.2919464	0.039215088
1183721629040044	-0.56987	-1.2113037	0.15405273
1183721635784428	-0.668808	-1.0903473	0.27134705
1183721641521733	-0.7714386	-0.9364319	0.384964
1183721645855229	-0.8691864	-0.76538086	0.4863739
1183721652111333	-0.9632416	-0.5943451	0.56822205
1183721656292241	-1.058548	-0.431839	0.6329651
1183721661785405	-1.1623993	-0.2693634	0.70018005
1183721665996831	-1.2760162	-0.08854675	0.7991333
1183721671520512	-1.3932953	0.12524414	0.9481964
1183721676067632	-1.5032501	0.37446594	1.1473236
1183721679424565	-1.6009979	0.6542511	1.3843384
1183721686168950	-1.6804047	0.959671	1.6421204
1183721691692632	-1.7402649	1.2809906	1.9047852
1183721696209233	-1.7830353	1.5900879	2.1540375
1183721702343266	-1.8160095	1.8503113	2.3714905
1183721706646245	-1.8453369	2.027481	2.5462036
1183721712261479	-1.8783264	2.1117706	2.6683655
1183721716350835	-1.9198608	2.1203156	2.723343
1183721722942632	-1.9662781	2.083664	2.706253
1183721726421635	-2.0090485	2.0299225	2.6243896
1183721729748051	-2.0090485	1.9724731	2.6243896
1183721736492436	-2.072586	1.9724731	2.3507233
1183721742351811	-2.081131	1.878418	2.194336
1183721746563237	-2.081131	1.8576508	2.194336
1183721752361577	-1.928421	1.8576508	1.8778992
1183721756878178	-1.928421	1.8588715	1.8778992
1183721762829106	-1.3309937	1.8588715	1.6237946
1183721766704839	-1.3309937	1.6707153	1.6237946
1183721772686284	-0.89727783	1.6707153	1.5504913
1183721776775639	-0.4721222	1.375061	1.512619
1183721780132573	-0.1324768	0.9401398	1.4979553
1183721786846440	0.083740234	0.43800354	1.4881744
1183721792919438	0.18148804	-0.036010742	1.461319
1183721796917241	0.19125366	-0.40863037	1.4051056
1183721803356450	0.14727783	-0.6493225	1.3098145
1183721807232182	0.08253479	-0.76660156	1.1815338
1183721812938969	0.018997192	-0.7959137	1.032486
1183721817058842	-0.029876709	-0.78126526	0.879776
1183721824016850	-0.060394287	-0.75927734	0.7331543
1183721827099126	-0.07383728	-0.74583435	0.59632874
1183721830486577	-0.07015991	-0.7397156	0.4656067
1183721837230962	-0.053085327	-0.73117065	0.32998657
