gyroscope_timestamp	gyroscope_x_data	gyroscope_y_data	gyroscope_z_data
1442832847656554608	0.57341003	1.0902557	-0.2021637
1442832847660857587	0.6735687	-0.6739044	-0.18260193
1442832847666564374	0.8030853	-0.592041	-0.18139648
1442832847671080975	0.9533539	-0.5101929	-0.19236755
1442832847675963788	1.1036224	-0.42712402	-0.20336914
1442832847681151776	1.2355804	-0.33181763	-0.20092773
1442832847686034588	1.333313	-0.2096405	-0.17771912
1442832847691131024	1.3882904	-0.061828613	-0.14228821
1442832847699126630	1.4004974	0.10066223	-0.108078
1442832847706145672	1.3308716	0.36820984	-0.08731079
1442832847711242108	1.272232	0.44395447	-0.108078
1442832847716277508	1.2086945	0.4781494	-0.1410675
1442832847721404462	1.1475983	0.47938538	-0.17771912
1442832847726836590	1.0962982	0.46228027	-0.21069336
1442832847731536297	1.0572052	0.44029236	-0.23269653
1442832847736388592	1.0572052	0.41462708	-0.23269653
1442832847742278485	0.9985657	0.41462708	-0.2571411
1442832847746459393	0.9985657	0.34376526	-0.2571411
1442832847749968915	0.9716797	0.34376526	-0.26324463
1442832847756530194	0.9533539	0.29490662	-0.2657013
1442832847761565594	0.9509125	0.25213623	-0.2571411
1442832847766570477	0.96191406	0.23381042	-0.2339325
1442832847771788983	0.97291565	0.24969482	-0.19848633
1442832847777495770	0.9716797	0.29367065	-0.15939331
1442832847786040692	0.91426086	0.34620667	-0.11175537
1442832847791747479	0.8654022	0.38165283	-0.11175537
1442832847796782880	0.8201904	0.32911682	-0.1227417
1442832847800170331	0.8201904	0.23381042	-0.1227417
1442832847807006268	0.8140869	0.23381042	-0.16062927
1442832847812865643	0.87272644	0.022476196	-0.17649841
1442832847816954999	0.96803284	-0.038604736	-0.18504333
1442832847823211102	1.0767517	-0.058151245	-0.1887207
1442832847827544598	1.1696014	-0.053268433	-0.19116211
1442832847832702069	1.2221375	-0.047164917	-0.19972229
1442832847837188153	1.2221375	-0.056930542	-0.19972229
1442832847842132001	1.2306976	-0.056930542	-0.2204895
1442832847847289471	1.2001648	-0.082595825	-0.2498169
1442832847850524335	1.1390686	-0.114364624	-0.28523254
1442832847857360272	1.0572052	-0.14245605	-0.32432556
1442832847862243085	0.9606781	-0.16201782	-0.36463928
1442832847874144940	0.7456665	-0.17298889	-0.44406128
1442832847877349286	0.64427185	-0.2096405	-0.47947693
1442832847882384686	0.56240845	-0.2096405	-0.5088043
1442832847887603192	0.50253296	-0.21697998	-0.5308075
1442832847892455487	0.4646759	-0.20599365	-0.5405731
1442832847897612958	0.4414673	-0.17910767	-0.5381317
1442832847900786786	0.4414673	-0.1436615	-0.5381317
1442832847907683758	0.4194641	-0.1436615	-0.4831543
1442832847912597088	0.41334534	-0.10580444	-0.4330597
1442832847917754559	0.40846252	-0.12780762	-0.37808228
1442832847922667889	0.40602112	-0.18399048	-0.32800293
1442832847927642255	0.40602112	-0.26463318	-0.28767395
1442832847932738690	0.40481567	-0.26463318	-0.28767395
1442832847937865643	0.402359	-0.348938	-0.2546997
1442832847943663983	0.3815918	-0.41000366	-0.19236755
1442832847948027997	0.3815918	-0.39411926	-0.19236755
1442832847951232342	0.3681488	-0.39411926	-0.1557312
1442832847962066083	0.3486023	-0.31837463	-0.06776428
1442832847968169598	0.33639526	-0.13389587	-0.023773193
1442832847973052411	0.31072998	-0.07281494	0.018951416
1442832847978148846	0.26063538	-0.03982544	0.058044434
1442832847983123212	0.18000793	-0.022720337	0.09225464
1442832847988067059	0.06639099	-0.0043945313	0.12036133
1442832847993621258	-0.07897949	0.027374268	0.14234924
1442832847999267010	-0.2427063	0.07133484	0.15333557
1442832848008941083	-0.57377625	0.12263489	0.14480591
1442832848013244061	-0.7313843	0.21548462	0.13624573
1442832848018584637	-0.89385986	0.27534485	0.13868713
1442832848023559003	-1.0673523	0.38287354	0.15333557
1442832848028350262	-1.0673523	0.56733704	0.15333557
1442832848033599286	-1.2432861	0.56733704	0.17533875
1442832848038512616	-1.404541	0.8251343	0.19487
1442832848043548016	-1.5450592	1.1159058	0.20710754
1442832848048583417	-1.6867676	1.3846893	0.21566772
1442832848051909833	-1.8700256	1.5728302	0.22419739
1442832848058684735	-2.1107025	1.6497955	0.22787476
1442832848063659100	-2.379486	1.6192474	0.22055054
1442832848068694501	-2.6128387	1.5215149	0.20343018
1442832848073913006	-2.7618866	1.41156	0.19242859
1442832848079284100	-2.8107605	1.3260345	0.19854736
1442832848083983807	-2.7789917	1.2747345	0.21931458
1442832848088866620	-2.694687	1.2539673	0.24375916
1442832848094603924	-2.5737457	1.2600555	0.2632904
1442832848098937421	-2.418579	1.2955017	0.274292
1442832848102416424	-2.418579	1.3492584	0.274292
1442832848109008221	-2.0374146	1.3492584	0.2767334
1442832848114043622	-1.8504791	1.381012	0.25964355
1442832848119079022	-1.6977692	1.2600555	0.22543335
1442832848124114422	-1.5963593	0.991272	0.18389893
1442832848132384686	-1.5597076	0.5600128	0.14968872
1442832848139342694	-1.5914764	-0.016616821	0.14112854
1442832848144988446	-1.6855621	-0.70199585	0.16433716
1442832848149291424	-1.8223877	-1.4436035	0.19854736
1442832848152648358	-1.972641	-2.187622	0.22055054
1442832848159484296	-2.1021576	-2.8668976	0.21443176
1442832848165252118	-2.1828003	-3.4142303	0.19122314
1442832848169433026	-2.2096558	-3.7954254	0.17410278
1442832848175506024	-2.1986847	-4.0263214	0.18998718
1442832848180358319	-2.1693573	-4.137497	0.25108337
1442832848185119061	-2.135147	-4.1436005	0.3524933
1442832848189727215	-2.104599	-4.044647	0.46977234
1442832848194518475	-2.0667267	-3.8491669	0.57850647
1442832848199798016	-1.9689941	-3.5400848	0.67381287
1442832848203002362	-1.9689941	-3.009842	0.67381287
1442832848209838299	-1.4399872	-3.009842	0.8985901
1442832848219756512	-0.88287354	-0.9316864	1.171051
1442832848224822430	-0.88287354	1.5239563	1.171051
1442832848230040936	-0.7912445	1.5239563	1.2577972
1442832848234893231	-0.7998047	2.3193054	1.2968903
1442832848240081219	-0.85232544	2.7628021	1.2980957
1442832848245879559	-0.90974426	2.928955	1.276123
1442832848250152020	-0.9537201	2.8874054	1.2394714
1442832848253325848	-0.9781647	2.7041473	1.1991425
1442832848260192303	-0.9806061	2.4378052	1.1649323
1442832848265105633	-0.95739746	2.1409302	1.1368408
1442832848270263104	-0.91830444	1.8611603	1.1111755
1442832848275176434	-0.8779907	1.6351318	1.0806274
1442832848280181317	-0.84866333	1.4970703	1.0464325
1442832848285247235	-0.8303375	1.4555359	1.013443
1442832848290404706	-0.8120117	1.4836273	0.98413086
1442832848295928387	-0.7814789	1.5386353	0.9560089
1442832848306823163	-0.64463806	1.5813751	0.9169159
1442832848310393719	-0.5322418	1.6131439	0.9034729
1442832848315459637	-0.3917389	1.6119232	0.88394165
1442832848320495038	-0.3917389	1.5874939	0.85705566
1442832848325652508	-0.23414612	1.5227509	0.85705566
1442832848331176190	0.10058594	1.5227509	0.78131104
1442832848335570721	0.10058594	1.2576141	0.78131104
1442832848341948895	0.41822815	1.2576141	0.6676941
1442832848346068768	0.41822815	0.8630066	0.6676941
1442832848351439862	0.55874634	0.8630066	0.59439087
1442832848354064374	0.6821289	0.6565399	0.51130676
1442832848361113934	0.7859802	0.46594238	0.42211914
1442832848365722088	0.8678436	0.29367065	0.3256073
1442832848370818524	0.9313812	0.13241577	0.22055054
1442832848376006512	0.9790039	-0.021499634	0.110580444
1442832848381713299	1.0181122	-0.1754303	-5.79834E-4
1442832848385924725	1.0523224	-0.3257141	-0.1056366
1442832848393737225	1.0840912	-0.47354126	-0.20092773
1442832848396453290	1.1170654	-0.61769104	-0.2864685
1442832848401030926	1.1573944	-0.7569885	-0.36219788
1442832848404387860	1.1573944	-0.8950348	-0.36219788
1442832848411132245	1.2881165	-0.8950348	-0.49415588
1442832848416137128	1.3748474	-1.121048	-0.5674591
1442832848421203046	1.3748474	-1.161377	-0.5674591
1442832848426391034	1.4603882	-1.161377	-0.65786743
1442832848432067303	1.5532227	-1.1198425	-0.8826599
1442832848436309247	1.5532227	-0.83761597	-0.8826599
1442832848441314130	1.5239105	-0.83761597	-0.99383545
1442832848446868329	1.412735	-0.63357544	-1.0695801
1442832848451568036	1.194046	-0.38435364	-1.0805817
1442832848454741864	0.85562134	-0.07159424	-0.99627686
1442832848461455731	0.42678833	0.29978943	-0.7983551
1442832848466491131	-0.020355225	0.68585205	-0.48439026
1442832848471648602	-0.3966217	1.0352783	-0.07266235
1442832848480712323	-0.7961273	1.3370361	0.7910919
1442832848486815838	-0.87065125	2.0273132	1.0830841
1442832848491698651	-0.8963165	2.5172272	1.2357941
1442832848496825604	-0.8645477	3.0303497	1.2919922
1442832848501769452	-0.7655945	3.390747	1.3213196
1442832848505095868	-0.7655945	3.4127502	1.3213196
1442832848511931805	-0.4711609	3.4127502	1.428833
1442832848517394452	-0.36608887	2.211792	1.4520416
1442832848522094159	-0.36608887	1.1965485	1.4520416
1442832848527251630	-0.31843567	1.1965485	1.38974
1442832848532042889	-0.32209778	0.17028809	1.2125854
1442832848537291913	-0.35264587	-0.672699	0.9242401
1442832848542144208	-0.38441467	-1.2310181	0.55163574
1442832848547057538	-0.3905182	-1.5120087	0.14968872
1442832848552276044	-0.34654236	-1.6146393	-0.22293091
1442832848555480389	-0.23779297	-1.6476135	-0.5222473
1442832848562133221	-0.06919861	-1.6781769	-0.7348175
1442832848569976239	0.14212036	-1.7160339	-1.0072784
1442832848577300458	0.6320343	-1.7929993	-1.1343384
1442832848583007245	0.91793823	-1.838211	-1.2809448
1442832848587371258	1.2514648	-1.8895111	-1.4360962
1442832848592528729	1.6228638	-1.9273987	-1.5668182
1442832848598357587	1.980835	-1.9347229	-1.6376953
1442832848602599530	2.211731	-1.9163971	-1.61203
1442832848605864911	2.211731	-1.8858643	-1.61203
1442832848612670331	1.7706909	-1.8858643	-1.1758728
1442832848617553143	1.7706909	-1.6537323	-1.1758728
1442832848622741131	1.0376587	-1.6537323	-0.76782227
1442832848627623944	0.16900635	-1.3238525	-0.30967712
1442832848632659344	-0.5835571	-0.8473816	0.103256226
1442832848637694745	-1.0502625	-0.33181763	0.4025879
1442832848642882733	-1.1944122	0.09210205	0.57118225
1442832848648253827	-1.0661316	0.34744263	0.6334839
1442832848656890301	-0.25611877	0.45129395	0.55407715
1442832848663085370	0.30706787	0.4549408	0.41967773
1442832848668395428	0.89105225	0.40974426	0.20466614
1442832848673003583	1.4237366	0.28634644	-0.08609009
1442832848678008465	1.8464355	0.038345337	-0.42573547
1442832848683928876	2.1274261	-0.34526062	-0.7714844
1442832848688079266	2.267929	-0.8290558	-1.0805817
1442832848694091229	2.286255	-1.3556213	-1.3310242
1442832848699004559	2.2166138	-1.8687439	-1.5106354
1442832848703826337	2.0749054	-2.3183594	-1.620575
1442832848706542401	2.0749054	-2.6543274	-1.620575
1442832848713256268	1.8647614	-2.6543274	-1.6450195
1442832848718261151	1.58255	-2.8265991	-1.6450195
1442832848723632245	1.2416992	-2.8265991	-1.5692749
1442832848728484540	0.86660767	-2.6213226	-1.4495392
1442832848733397870	0.48664856	-2.2218323	-1.3078156
1442832848745025067	-0.15106201	-1.6500549	-1.0488129
1442832848748473553	-0.33676147	0.37921143	-0.95350647
1442832848753539471	-0.3929596	0.37921143	-0.8814392
1442832848756896405	-0.30500793	0.8569031	-0.8301239
1442832848763579755	-0.07043457	1.175766	-0.7959137
1442832848768615155	0.27775574	1.359024	-0.7592621
1442832848773681073	0.68092346	1.4298859	-0.6871948
1442832848778869061	1.0669708	1.4103394	-0.54789734
1442832848784362225	1.3712006	1.3272705	-0.34877014
1442832848788939862	1.5630035	1.2148743	-0.13252258
1442832848793792157	1.6375122	1.09758	0.03727722
1442832848799621014	1.6143036	0.9754181	0.12524414
1442832848803893475	1.5239105	0.838562	0.12646484
1442832848807402997	1.5239105	0.67974854	0.12646484
1442832848814116864	1.4004974	0.67974854	-0.020126343
1442832848818999676	1.2734528	0.33888245	-0.020126343
1442832848824187665	1.1573944	0.33888245	-0.09465027
1442832848832213788	0.98635864	0.19960022	-0.1398468
1442832848835112958	0.98635864	0.053024292	-0.1398468
1442832848839293866	0.9215851	0.053024292	-0.1239624
1442832848844298749	0.86172485	0.033462524	-0.11419678
1442832848850127606	0.80430603	0.027374268	-0.1239624
1442832848854247479	0.7493439	0.028579712	-0.1532898
1442832848857726483	0.7028961	0.043258667	-0.1862793
1442832848864470868	0.66503906	0.08354187	-0.20948792
1442832848869506268	0.6369324	0.1592865	-0.21925354
1442832848874541669	0.61738586	0.26437378	-0.21681213
1442832848879454999	0.61006165	0.38041687	-0.20825195
1442832848884490399	0.6198273	0.4940338	-0.19972229
1442832848889495282	0.6454773	0.5893402	-0.19236755
1442832848894713788	0.6858063	0.65286255	-0.18992615
1442832848899962811	0.7322235	0.66874695	-0.19236755
1442832848904784588	0.778656	0.62965393	-0.2021637
1442832848908812909	0.778656	0.53804016	-0.2021637
1442832848914794354	0.8324127	0.53804016	-0.22293091
1442832848919707684	0.90205383	0.40852356	-0.2498169
1442832848924895672	0.99124146	0.26313782	-0.27546692
1442832848929809003	1.0938568	0.12019348	-0.29379272
1442832848934874921	1.1916046	-0.003189087	-0.30111694
1442832848939849286	1.2649078	-0.10092163	-0.30233765
1442832848945037274	1.3015442	-0.17178345	-0.30233765
1442832848950866131	1.2978821	-0.2230835	-0.31088257
1442832848961272626	1.1903687	-0.2572937	-0.3670807
1442832848965026288	1.0999756	-0.2756195	-0.4086151
1442832848970031171	0.9924469	-0.28051758	-0.4465027
1442832848975097088	0.87516785	-0.29516602	-0.47827148
1442832848980315594	0.7603302	-0.31593323	-0.5002594
1442832848986052899	0.65771484	-0.32937622	-0.5149231
1442832848990203290	0.5721741	-0.33181763	-0.5198059
1442832848995391278	0.50743103	-0.3269348	-0.51368713
1442832849000762372	0.46099854	-0.3098297	-0.49171448
1442832849005492596	0.4304657	-0.2719574	-0.4513855
1442832849008666424	0.4304657	-0.21697998	-0.4513855
1442832849015349774	0.4035797	-0.21697998	-0.3988495
1442832849020385174	0.37304688	-0.1595459	-0.34509277
1442832849026397137	0.32783508	-0.12045288	-0.27178955
1442832849030486493	0.26797485	-0.10946655	-0.27178955
1442832849036162762	0.19345093	-0.12780762	-0.24613953
1442832849040709881	0.111587524	-0.16322327	-0.20825195
1442832849048705487	-0.03742981	-0.21208191	-0.08242798
1442832849051268963	-0.03742981	-0.33670044	-0.08242798
1442832849055541424	-0.08631897	-0.33670044	-0.009124756
1442832849059020428	-0.1144104	-0.41488647	0.050720215
1442832849065703778	-0.13517761	-0.49919128	0.0947113
1442832849070739178	-0.16694641	-0.5810547	0.12524414
1442832849075835614	-0.22802734	-0.63357544	0.15213013
1442832849080993085	-0.32699585	-0.6274872	0.18022156
1442832849086364178	-0.46748352	-0.5431824	0.20343018
1442832849091063885	-0.64219666	-0.37335205	0.21810913
1442832849095916180	-0.8450012	-0.13024902	0.22175598
1442832849100982098	-1.0636902	0.16418457	0.21931458
1442832849105986981	-1.0636902	0.47450256	0.22055054
1442832849109343915	-1.2799377	0.47450256	0.22055054
1442832849116088299	-1.4741974	0.76161194	0.23643494
1442832849121032147	-1.6342316	1.004715	0.26818848
1442832849126159100	-1.7735138	1.1904297	0.313385
1442832849135802655	-2.113144	1.3065033	0.41601563
1442832849141265301	-2.3342896	1.3077087	0.45388794
1442832849146270184	-2.5517578	1.2405243	0.4734497
1442832849151946454	-2.7276917	1.1879883	0.47465515
1442832849156371503	-2.8290863	1.1818695	0.47221375
1442832849159881024	-2.8400726	1.2295227	0.47221375
1442832849166442303	-2.7655487	1.3150482	0.47709656
1442832849171447186	-2.6226196	1.4140015	0.48443604
1442832849176482587	-2.4344635	1.4995117	0.48321533
1442832849181701092	-2.218216	1.5557251	0.46365356
1442832849187499432	-1.990982	1.5752716	0.41967773
1442832849192778973	-1.7722931	1.5484009	0.3573761
1442832849196746258	-1.5902557	1.446991	0.287735
1442832849202361493	-1.4693146	1.2111969	0.2266388
1442832849206694989	-1.4693146	0.7945862	0.2266388
1442832849210051922	-1.41922	0.7945862	0.17901611
1442832849216918378	-1.4363098	0.1898346	0.14112854
1442832849224547772	-1.6073608	-0.5688324	0.08493042
1442832849232726483	-1.7356415	-2.313446	0.062942505
1442832849237883954	-1.8822479	-3.1418	0.043395996
1442832849241973309	-2.03862	-3.8161926	0.034835815
1442832849247130780	-2.1864471	-4.286545	0.050720215
1442832849252471356	-2.309845	-4.5638885	0.10081482
1442832849257232098	-2.391693	-4.6958313	0.18022156
1442832849260955243	-2.4210205	-4.705597	0.27308655
1442832849267272381	-2.3831635	-4.579773	0.3708191
1442832849272185712	-2.258545	-4.288986	0.47953796
1442832849277404217	-2.030075	-3.7954254	0.6188202
1442832849282225995	-1.7063293	-3.057495	0.78741455
1442832849287169842	-1.3410187	-2.0679016	0.9596863
1442832849292296796	-1.0233765	-0.902359	1.0953064
1442832849297332196	-0.8217926	0.27534485	1.1722565
1442832849303191571	-0.7521515	1.2881775	1.1954651
1442832849311583905	-0.7814789	2.0346375	1.1881409
1442832849317504315	-0.8584442	2.5074615	1.1722565
1442832849323211102	-0.9463959	2.7469177	1.1588135
1442832849327727704	-1.0258179	2.796997	1.1514893
1442832849332579999	-1.0832367	2.6992645	1.1502838
1442832849338286786	-1.107666	2.4989014	1.1514893
1442832849342681317	-1.095459	2.252121	1.157608
1442832849347869305	-1.0514679	2.0101929	1.1624908
1442832849353240399	-0.9879303	1.8074036	1.1600494
1442832849357818036	-0.91586304	1.655899	1.1429291
1442832849361144452	-0.8474426	1.5581665	1.1123962
1442832849368743329	-0.7875824	1.5080719	1.0745239
1442832849372863202	-0.7338257	1.4897461	1.0427551
1442832849378692059	-0.6837311	1.4885406	1.0195465
1442832849383117108	-0.62387085	1.490982	1.0000153
1442832849388366131	-0.5420227	1.4836273	0.9731293
1442832849399627118	-0.30377197	1.4604187	0.89004517
1442832849403106122	-0.30377197	1.3749084	0.89004517
1442832849408141522	-0.15960693	1.3749084	0.84484863
1442832849411406903	-0.0069122314	1.3040619	0.794754
1442832849418212323	0.1494751	1.2038727	0.7385559
1442832849423217206	0.30218506	1.0731354	0.6725769
1442832849428313641	0.4439087	0.9253235	0.6004944
1442832849433440594	0.56973267	0.77381897	0.5284271
1442832849438872723	0.68092346	0.6247711	0.46121216
1442832849443541913	0.7810974	0.4732666	0.3952484
1442832849448394208	0.87394714	0.31445313	0.3280487
1442832849453460126	0.95458984	0.15196228	0.25231934
1442832849458495526	1.0205536	-0.003189087	0.16677856
1442832849461974530	1.0730896	-0.1412201	0.07392883
1442832849468566327	1.11586	-0.26341248	-0.01889038
1442832849473601727	1.1512756	-0.37335205	-0.1068573
1442832849478637128	1.1830444	-0.48086548	-0.18748474
1442832849486907391	1.2148132	-0.579834	-0.26324463
1442832849493712811	1.3040009	-0.7044525	-0.41107178
1442832849498748212	1.3040009	-0.73376465	-0.41107178
1442832849504607587	1.3809662	-0.73376465	-0.56134033
1442832849508849530	1.3809662	-0.77897644	-0.56134033
1442832849512359051	1.3895264	-0.77897644	-0.63586426
1442832849518828778	1.3687439	-0.7569885	-0.71284485
1442832849523986249	1.3088837	-0.6690216	-0.7898102
1442832849529143719	1.1976929	-0.50775146	-0.8521118
1442832849534972577	1.0193329	-0.2854004	-0.874115
1442832849539092450	0.7713165	-0.023956299	-0.8276825
1442832849544921307	0.4671173	0.24481201	-0.6871948
1442832849549010663	0.13967896	0.489151	-0.4355011
1442832849554564862	-0.16938782	0.68096924	-0.07632446
1442832849559356122	-0.43327332	0.83003235	0.3549347
1442832849562529950	-0.43327332	0.9961853	0.7776489
1442832849569426922	-0.7949219	0.9961853	1.1038513
1442832849574279217	-0.87677	1.6998749	1.2871094
1442832849579467206	-0.87309265	2.2301178	1.3579712
1442832849584380536	-0.7814789	2.70047	1.3860626
1442832849589415936	-0.62387085	2.9240417	1.4300385
1442832849594451337	-0.43695068	2.7835693	1.5009003
1442832849599608807	-0.43695068	2.2740936	1.5656586
1442832849605132489	-0.13395691	2.2740936	1.5742188
1442832849616271405	-0.06187439	0.62965393	1.2577972
1442832849619628338	-0.06187439	-0.80708313	1.2577972
1442832849624633221	-0.08998108	-0.80708313	0.9120331
1442832849629699139	-0.1131897	-1.2224579	0.4893341
1442832849634704022	-0.10340881	-1.4631348	0.05683899
1442832849640532880	-0.05455017	-1.5975189	-0.32920837
1442832849644805340	0.023620605	-1.6769409	-0.64442444
1442832849649840741	0.11280823	-1.7197113	-0.899765
1442832849655669598	0.20809937	-1.7282562	-1.117218
1442832849660064130	0.3168335	-1.7013855	-1.3175964
1442832849663176922	0.3168335	-1.6378479	-1.3175964
1442832849670134930	0.65159607	-1.6378479	-1.6719055
1442832849674987225	0.8922577	-1.4387054	-1.7855072
1442832849680266766	1.1427155	-1.3458557	-1.8099518
1442832849685058026	1.3247681	-1.2810974	-1.712204
1442832849690062909	1.333313	-1.2407837	-1.4764252
1442832849695159344	1.333313	-1.1858215	-1.4764252
1442832849703521161	0.61860657	-1.1858215	-0.6773987
1442832849706115155	0.044387817	-0.8229523	-0.2571411
1442832849711242108	-0.46992493	-0.50286865	0.06904602
1442832849721251874	-0.8095703	-0.17666626	0.26574707
1442832849725310712	-0.92930603	0.07009888	0.3524933
1442832849732512860	-0.5334625	0.2081604	0.3414917
1442832849735412030	-0.5334625	0.2423706	0.3414917
1442832849740569501	-0.0814209	0.2423706	0.26818848
1442832849745513348	0.47077942	0.17883301	0.13500977
1442832849750548749	1.0462036	0.05911255	-0.061660767
1442832849756499676	1.569107	-0.12045288	-0.30477905
1442832849760619549	1.9844971	-0.35746765	-0.56378174
1442832849764098553	1.9844971	-0.6421356	-0.56378174
1442832849770690350	2.4108887	-0.6421356	-1.026825
1442832849775725751	2.4475403	-1.2847595	-1.2027588
1442832849780791669	2.3986511	-1.5938721	-1.3298035
1442832849791991620	2.0968933	-1.8614197	-1.388443
1442832849795867352	2.0968933	-2.187622	-1.388443
1442832849800902753	1.8427734	-2.187622	-1.3090363
1442832849806670575	1.5153503	-2.214508	-1.0256042
1442832849810973553	1.1243896	-2.1387634	-1.0256042
1442832849814452557	0.69680786	-1.9591675	-0.8948822
1442832849821074872	0.28019714	-1.6842651	-0.8020325
1442832849826079755	-0.07043457	-1.3397369	-0.75193787
1442832849831115155	-0.3086548	-0.9793396	-0.73117065
1442832849836272626	-0.4100647	-0.6616974	-0.721405
1442832849842040448	-0.36120605	-0.41856384	-0.7067261
1442832849846221356	-0.15594482	-0.23530579	-0.6798401
1442832849851378827	0.18733215	-0.07771301	-0.63586426
1442832849857177167	0.6112671	0.07498169	-0.5686798
1442832849861327557	1.0266571	0.21548462	-0.46850586
1442832849864684491	1.0266571	0.33399963	-0.46850586
1442832849871489911	1.5348969	0.33399963	-0.18383789
1442832849879332928	1.5886536	0.5258026	-0.056777954
1442832849887786297	1.424942	0.68218994	0.020187378
1442832849892272381	1.285675	0.7102814	-0.025009155
1442832849896788983	1.285675	0.6773071	-0.025009155
1442832849901732831	1.1451569	0.6773071	-0.0921936
1442832849906585126	1.0217743	0.5795746	-0.1545105
1442832849911834149	0.9240265	0.43417358	-0.19483948
1442832849915007977	0.8519592	0.26557922	-0.21560669
1442832849921904950	0.8006439	0.09454346	-0.22537231
1442832849926787762	0.7664337	-0.058151245	-0.2363739
1442832849932006268	0.7432251	-0.17422485	-0.25346375
1442832849936828046	0.72366333	-0.23530579	-0.2730255
1442832849941924481	0.69680786	-0.23286438	-0.29255676
1442832849946898846	0.6589203	-0.17910767	-0.30844116
1442832849952147870	0.6198273	-0.09359741	-0.32188416
1442832849957610516	0.5929413	0.010253906	-0.33532715
1442832849966277508	0.6198273	0.12875366	-0.35731506
1442832849972258954	0.6699219	0.43173218	-0.36463928
1442832849977813153	0.7334595	0.60154724	-0.36953735
1442832849982329755	0.7994232	0.75061035	-0.37442017
1442832849987182049	0.7994232	0.85079956	-0.37930298
1442832849992247967	0.86416626	0.8862152	-0.37930298
1442832849997252850	0.92526245	0.8862152	-0.38420105
1442832850002318768	0.9826813	0.8630066	-0.3878479
1442832850008178143	1.0376587	0.79093933	-0.39274597
1442832850012542157	1.087738	0.68585205	-0.40008545
1442832850015624432	1.1329498	0.55392456	-0.40985107
1442832850022612958	1.1696014	0.40852356	-0.41841125
1442832850027495770	1.194046	0.26313782	-0.4220581
1442832850032683758	1.2038116	0.13119507	-0.4171753
1442832850037536053	1.19281	0.015136719	-0.4061737
1442832850042479901	1.1573944	-0.086257935	-0.39274597
1442832850054137616	1.0266571	-0.1754303	-0.37442017
1442832850057677655	0.9509125	-0.2890625	-0.36587524
1442832850063506512	0.87516785	-0.3171692	-0.35121155
1442832850066131024	0.87516785	-0.3330536	-0.35121155
1442832850073180585	0.7407837	-0.3330536	-0.29623413
1442832850077819256	0.6858063	-0.33059692	-0.2546997
1442832850082885174	0.63327026	-0.308609	-0.20948792
1442832850088073163	0.57829285	-0.2768402	-0.17160034
1442832850093596844	0.5172119	-0.23164368	-0.14962769
1442832850098143963	0.5172119	-0.16810608	-0.14962769
1442832850103057294	0.45611572	-0.16810608	-0.14228821
1442832850108092694	0.4035797	-0.08869934	-0.14350891
1442832850113067059	0.363266	-0.0068359375	-0.14350891
1442832850116576581	0.3327179	0.056671143	-0.1386261
1442832850123168378	0.31072998	0.08721924	-0.12640381
1442832850128173260	0.29240417	0.07498169	-0.109298706
1442832850133269696	0.27285767	0.015136719	-0.084869385
1442832850140349774	0.23986816	-0.08380127	-0.056777954
1442832850144194989	0.18856812	-0.20599365	-0.028686523
1442832850148467450	0.1177063	-0.32937622	-0.0018157959
1442832850153380780	0.023620605	-0.42832947	0.023834229
1442832850158416180	-0.09120178	-0.48330688	0.055603027
1442832850163421063	-0.22314453	-0.47354126	0.09225464
1442832850166808514	-0.22314453	-0.39535522	0.09225464
1442832850173522381	-0.4919281	-0.39535522	0.16921997
1442832850178557782	-0.60798645	-0.09603882	0.19610596
1442832850183745770	-0.7167053	0.06401062	0.21322632
1442832850188628583	-0.7167053	0.205719	0.21322632
1442832850193663983	-0.837677	0.205719	0.23031616
1442832850198851971	-0.9940491	0.33277893	0.25231934
1442832850203704266	-1.185852	0.4683838	0.2767334
1442832850208800702	-1.3996582	0.63575745	0.29629517
1442832850213805585	-1.614685	0.8422394	0.3085022
1442832850217132001	-1.8345947	1.0548096	0.31950378
1442832850223998456	-2.0679474	1.2258453	0.3366089
1442832850229613690	-2.309845	1.3101501	0.3610382
1442832850233947186	-2.537094	1.3052673	0.3781433
1442832850240477948	-2.7178955	1.2478485	0.37202454
1442832850244506268	-2.8388672	1.1879883	0.3463745
1442832850249083905	-2.8987274	1.1708832	0.31584167
1442832850254241376	-2.896286	1.2124176	0.29873657
1442832850260009198	-2.8254242	1.3065033	0.30117798
1442832850270476727	-2.4931183	1.4262238	0.3378296
1442832850274230389	-2.2780762	1.6326904	0.35005188
1442832850279235272	-2.0679474	1.6852264	0.3475952
1442832850284270672	-2.0679474	1.6681213	0.3475952
1442832850289306073	-1.8749237	1.6681213	0.3292694
1442832850295195965	-1.5487213	1.5422821	0.2559662
1442832850299407391	-1.5487213	0.8495636	0.2559662
1442832850304442792	-1.443634	0.8495636	0.20098877
1442832850310149579	-1.417984	0.25701904	0.14234924
1442832850314666180	-1.4925232	-0.50897217	0.09837341
1442832850317870526	-1.6611176	-1.431366	0.08248901
1442832850324736981	-1.8822479	-2.441742	0.08859253
1442832850329619794	-2.1058197	-3.428894	0.103256226
1442832850334807782	-2.2890778	-4.260895	0.11669922
1442832850339660077	-2.405136	-4.8387604	0.14234924
1442832850344756512	-2.4479065	-5.1222076	0.19487
1442832850349761395	-2.4246979	-5.142975	0.2767334
1442832850357879071	-2.3526	-4.964615	0.3708191
1442832850365020184	-2.104599	-4.2657776	0.5626221
1442832850368255047	-2.104599	-3.7636566	0.5626221
1442832850375060467	-1.6122437	-3.7636566	0.81796265
1442832850379973797	-1.6122437	-2.1448517	0.9645691
1442832850385192303	-1.2970428	-1.0086517	0.9645691
1442832850390044598	-1.0331421	-1.0086517	1.0867462
1442832850396056561	-0.8413391	0.16296387	1.1722565
1442832850400115399	-0.8413391	1.9197998	1.1722565
1442832850406371503	-0.8779907	1.9197998	1.1429291
1442832850410796551	-0.942749	2.3706207	1.0928497
1442832850415587811	-1.0001678	2.5819702	1.0403137
1442832850418548016	-1.0331421	2.6210632	0.9938965
1442832850425597577	-1.0380249	2.5428772	0.9596863
1442832850430297284	-1.0160522	2.3938293	0.93647766
1442832850435332684	-0.9720764	2.210556	0.92303467
1442832850443969159	-0.8425598	2.028534	0.9095917
1442832850446502118	-0.8425598	1.709671	0.9095917
1442832850450652508	-0.7692566	1.709671	0.9095917
1442832850455504803	-0.69229126	1.5654907	0.9144745
1442832850460418133	-0.60554504	1.4360046	0.9254761
1442832850465575604	-0.50901794	1.3406982	0.9376831
1442832850469024090	-0.50901794	1.2893829	0.9376831
1442832850475615887	-0.31843567	1.2893829	0.9279175
1442832850480681805	-0.31843567	1.3101501	0.9279175
1442832850485686688	-0.23535156	1.3101501	0.89250183
1442832850490722088	-0.15594482	1.3431549	0.84484863
1442832850496489911	-0.07287598	1.3553619	0.7910919
1442832850500823407	0.015075684	1.3272705	0.73487854
1442832850505828290	0.11036682	1.2490845	0.6774597
1442832850511718182	0.21542358	1.1244507	0.6188202
1442832850515929608	0.3327179	0.9668579	0.5638428
1442832850519256024	0.45243835	0.78970337	0.5101013
1442832850526152997	0.56607056	0.60154724	0.45877075
1442832850531035809	0.66259766	0.40608215	0.4025879
1442832850536223797	0.7444458	0.2081604	0.33538818
1442832850541076092	0.8128662	0.013931274	0.25352478
1442832850546142010	0.87272644	-0.16445923	0.15457153
1442832850551329999	0.9240265	-0.322052	0.04827881
1442832850556182294	0.9692383	-0.45889282	-0.055541992
1442832850561278729	1.0120087	-0.5822754	-0.14962769
1442832850566283612	1.0596466	-0.69711304	-0.23149109
1442832850573638348	1.1134033	-0.80340576	-0.29989624
1442832850576354413	1.1134033	-0.8877106	-0.35853577
1442832850582091717	1.2282562	-0.8877106	-0.4086151
1442832850586394696	1.2282562	-0.9231262	-0.4086151
1442832850592254071	1.2673492	-0.9231262	-0.4831543
1442832850597289471	1.2795563	-0.8583832	-0.4831543
1442832850601531415	1.2575684	-0.74354553	-0.5100403
1442832850606719403	1.2001648	-0.5834961	-0.5332489
1442832850612182049	1.0999756	-0.374588	-0.5527954
1442832850616790204	0.94970703	-0.12289429	-0.5601196
1442832850621154217	0.7444458	0.15562439	-0.5356903
1442832850626830487	0.49032593	0.43785095	-0.45994568
1442832850631835370	0.21542358	0.69807434	-0.32066345
1442832850636931805	-0.041107178	0.91064453	-0.11541748
1442832850641784100	-0.2427063	1.0523682	0.14968872
1442832850646850018	-0.3758545	1.1256714	0.44900513
1442832850651885419	-0.4491577	1.1721039	0.7397766
1442832850661010174	-0.49069214	1.2661743	0.96580505
1442832850667144208	-0.5469055	1.8281708	1.130722
1442832850670379071	-0.5469055	2.223999	1.130722
1442832850677184491	-0.55545044	2.223999	1.1258392
1442832850682097821	-0.5285797	2.5294342	1.1258392
1442832850687316327	-0.46136475	2.6174011	1.1551666
1442832850692138104	-0.36608887	2.434143	1.2040253
1442832850697234540	-0.27444458	2.0163116	1.2394714
1442832850702239422	-0.2084961	1.4530945	1.2150269
1442832850707396893	-0.17182922	0.8495636	1.0989532
1442832850713103680	-0.1473999	0.28146362	0.8851471
1442832850717467694	-0.11685181	-0.2071991	0.60295105
1442832850720702557	-0.07409668	-0.6091614	0.30239868
1442832850727599530	-0.022781372	-0.93048096	0.023834229
1442832850732451825	0.02973938	-1.1894684	-0.21192932
1442832850737456708	0.07737732	-1.4142761	-0.40496826
1442832850749144940	0.14701843	-1.6244049	-0.72628784
1442832850752593426	0.1836853	-1.9799347	-0.8851013
1442832850758513837	0.26187134	-2.0776672	-1.0451508
1442832850763518719	0.41822815	-2.0996704	-1.1819916
1442832850767913251	0.6381531	-2.0544586	-1.261383
1442832850771056561	0.6381531	-1.965271	-1.261383
1442832850777831463	0.82385254	-1.965271	-1.2601776
1442832850782775311	0.8201904	-1.8467712	-1.1599884
1442832850787810712	0.5355377	-1.6793823	-0.96206665
1442832850792998700	0.024856567	-1.4069519	-0.69696045
1442832850798369794	-0.53834534	-0.9891052	-0.42329407
1442832850803130536	-0.9696045	-0.46377563	-0.20581055
1442832850807952313	-1.1565399	0.060333252	-0.081207275
1442832850812896161	-1.068573	0.46961975	-0.040893555
1442832850818084149	-0.7277069	0.7041931	-0.05189514
1442832850821563153	-0.18649292	0.76405334	-0.09098816
1442832850828093915	0.4756775	0.67362976	-0.1581726
1442832850835753827	1.1769257	0.46228027	-0.2657013
1442832850843200116	2.4230957	-0.20599365	-0.6041107
1442832850848906903	2.8714752	-0.60672	-0.8130188
1442832850853423505	3.161026	-1.0355377	-1.0366058
1442832850858336835	3.2807465	-1.4900208	-1.250412
1442832850863372235	3.2282104	-1.9640503	-1.4116516
1442832850868377118	3.0131836	-2.4527435	-1.4788666
1442832850871886639	3.0131836	-2.9463196	-1.4788666
1442832850878600506	2.6515503	-2.9463196	-1.4324188
1442832850883483319	2.1653137	-3.3959045	-1.2955933
1442832850888671307	1.5959778	-3.700119	-1.1233368
1442832850893554120	1.0010071	-3.7453308	-0.97062683
1442832850898589520	0.4487915	-3.4655457	-0.8704376
1442832850903777508	0.0040893555	-2.8876648	-0.8252411
1442832850908690838	-0.29522705	-2.1265259	-0.8130188
1442832850914855389	-0.44059753	-1.3434143	-0.8093567
1442832850922271161	-0.31965637	-0.6800232	-0.77882385
1442832850929015546	-0.06919861	0.105545044	-0.76049805
1442832850934844403	0.28263855	0.31445313	-0.7458191
1442832850939055829	0.67604065	0.4708252	-0.71772766
1442832850944152264	1.0266571	0.594223	-0.6590729
1442832850949004559	1.2587891	0.68218994	-0.56378174
1442832850954009442	1.3491974	0.7408447	-0.44161987
1442832850959197430	1.3162079	0.786026	-0.32066345
1442832850965026288	1.2099304	0.8226929	-0.22413635
1442832850969237713	1.0804138	0.8459015	-0.1703949
1442832850973418622	1.0804138	0.8312378	-0.1703949
1442832850979339032	0.9667969	0.8312378	-0.15939331
1442832850984221844	0.8947296	0.76161194	-0.18016052
1442832850989379315	0.8690491	0.6418762	-0.22169495
1442832850994323163	0.8849335	0.5001526	-0.2730255
1442832850999328046	0.9240265	0.37187195	-0.32676697
1442832851004363446	0.9667969	0.28390503	-0.37197876
1442832851009520917	0.99612427	0.24481201	-0.39640808
1442832851015288739	0.997345	0.2509308	-0.3988495
1442832851019469647	0.96803284	0.29367065	-0.3854065
1442832851022826581	0.9154968	0.36943054	-0.36587524
1442832851029662518	0.85317993	0.46961975	-0.34631348
1442832851034545331	0.7945404	0.595459	-0.32800293
1442832851039580731	0.7505493	0.7420502	-0.30599976
1442832851044829755	0.72612	0.8996582	-0.28157043
1442832851050750165	0.7224579	1.0523682	-0.25958252
1442832851054686932	0.7322235	1.1782074	-0.24369812
1442832851059722333	0.7481079	1.2612915	-0.2339325
1442832851065856366	0.7676544	1.2893829	-0.22413635
1442832851070006756	0.7676544	1.2539673	-0.20704651
1442832851073180585	0.7859802	1.2539673	-0.20704651
1442832851079924969	0.8018646	1.1476593	-0.18139648
1442832851084899335	0.8153076	0.9741821	-0.1569519
1442832851092986493	0.87760925	0.75061035	-0.15083313
1442832851100402264	0.94602966	0.24113464	-0.16915894
1442832851105040936	1.0413208	0.0017089844	-0.19116211
1442832851110167889	1.1561584	-0.19621277	-0.21069336
1442832851115783124	1.2771149	-0.33670044	-0.22781372
1442832851120147137	1.385849	-0.42100525	-0.24613953
1442832851123504071	1.4615936	-0.46743774	-0.26690674
1442832851130187421	1.4897003	-0.49430847	-0.29011536
1442832851135253338	1.4615936	-0.513855	-0.32066345
1442832851140319256	1.3760834	-0.5334015	-0.36097717
1442832851145507245	1.2404633	-0.5505066	-0.4086151
1442832851151305585	1.0682068	-0.552948	-0.4538269
1442832851155578046	0.883728	-0.5126343	-0.48439026
1442832851160430340	0.7163391	-0.4173584	-0.49171448
1442832851166106610	0.58561707	-0.2719574	-0.47583008
1442832851170531659	0.58561707	-0.10336304	-0.47583008
1442832851174071698	0.50009155	-0.10336304	-0.44526672
1442832851181945233	0.42922974	0.060333252	-0.3670807
1442832851185637860	0.42922974	0.26802063	-0.3670807
1442832851190673260	0.41578674	0.26802063	-0.32676697
1442832851195861249	0.4011383	0.26557922	-0.28767395
1442832851201354413	0.3803711	0.18495178	-0.2522583
1442832851205962567	0.3486023	0.05178833	-0.2180481
1442832851210814862	0.30340576	-0.10456848	-0.18383789
1442832851215880780	0.24842834	-0.26097107	-0.14839172
1442832851220885663	0.19100952	-0.40267944	-0.109298706
1442832851224212079	0.14212036	-0.51997375	-0.068984985
1442832851231109051	0.10058594	-0.60672	-0.028686523
1442832851235991864	0.060272217	-0.659256	0.007949829
1442832851241149335	0.010177612	-0.6824646	0.042160034
1442832851246062665	-0.056991577	-0.6763458	0.07148743
1442832851251738934	-0.1461792	-0.63601685	0.09715271
1442832851256041913	-0.25856018	-0.5480652	0.11791992
1442832851261168866	-0.39785767	-0.39779663	0.13380432
1442832851269683270	-0.56155396	-0.18034363	0.14601135
1442832851274566083	-0.7411499	0.09576416	0.15333557
1442832851281432538	-0.93174744	0.39752197	0.15577698
1442832851286345868	-1.1235504	0.68951416	0.15945435
1442832851291533856	-1.3129272	0.9558563	0.17166138
1442832851296477704	-1.4949646	1.2038727	0.19487
1442832851301452069	-1.6733246	1.4445343	0.22175598
1442832851306487469	-1.8590393	1.6656799	0.2449646
1442832851311675458	-2.0618439	1.8196259	0.2584076
1442832851317443280	-2.271988	1.8672638	0.2632904
1442832851321746258	-2.4686737	1.8037415	0.2632904
1442832851325591473	-2.6409454	1.6607819	0.26208496
1442832851331786542	-2.7899933	1.4775391	0.2632904
1442832851336669354	-2.908493	1.2869415	0.26940918
1442832851341887860	-2.9671478	1.1293488	0.2791748
1442832851346740155	-2.9329376	1.0560455	0.2901764
1442832851356902508	-2.5993958	1.09758	0.31584167
1442832851362029462	-2.367279	1.4225616	0.3243866
1442832851366912274	-2.367279	1.5935974	0.3243866
1442832851372130780	-2.1327057	1.5935974	0.3231659
1442832851375274090	-1.9054565	1.7108765	0.3109436
1442832851382171063	-1.6953278	1.735321	0.2926178
1442832851387053876	-1.5206146	1.6339111	0.28285217
1442832851392272381	-1.4143372	1.3688049	0.29751587
1442832851397124676	-1.4069824	0.9192047	0.3451538
1442832851402221112	-1.5059662	0.28634644	0.40867615
1442832851407195477	-1.6855621	-0.5126343	0.4600067
1442832851412413983	-1.8871307	-1.4387054	0.4685669
1442832851417876630	-2.0630646	-2.4270782	0.42700195
1442832851422423749	-2.1962433	-3.3763733	0.35005188
1442832851425658612	-2.1962433	-4.171707	0.26818848
1442832851433440594	-2.3746033	-4.171707	0.21199036
1442832851444182782	-2.4564667	-5.0403595	0.24864197
1442832851447448163	-2.4442291	-4.998825	0.33172607
1442832851452636151	-2.384369	-4.7202606	0.4343567
1442832851457549481	-2.253662	-4.308548	0.55285645
1442832851462584881	-2.253662	-3.7453308	0.55285645
1442832851468596844	-1.6953278	-3.7453308	0.8594971
1442832851472655682	-1.6953278	-1.9151917	0.8594971
1442832851475982098	-1.3251343	-1.9151917	1.0232239
1442832851482757001	-1.0111694	-0.6800232	1.1527252
1442832851487731366	-0.83522034	0.5441284	1.2260284
1442832851492797284	-0.8022461	1.5312805	1.2516785
1442832851497985272	-0.8560028	2.1543732	1.2504578
1442832851503814130	-0.9329529	2.430481	1.2394714
1442832851508025555	-0.9964905	2.469574	1.2199097
1442832851512969403	-1.0368195	2.3828278	1.1942596
1442832851517943768	-1.0575867	2.2362366	1.1649323
1442832851523009686	-1.0575867	2.0517578	1.1417236
1442832851526488690	-1.0575867	1.8403931	1.1282806
1442832851533111005	-0.99772644	1.8403931	1.1246185
1442832851538115887	-0.942749	1.4176788	1.1246185
1442832851543120770	-0.87677	1.2710571	1.1197205
1442832851548308758	-0.8046875	1.1977539	1.0989532
1442832851554046063	-0.73506165	1.2014313	1.0574188
1442832851558379559	-0.73506165	1.2576141	0.9963379
1442832851563292889	-0.67152405	1.3345947	0.9963379
1442832851573455243	-0.53590393	1.3345947	0.87416077
1442832851576690106	-0.4418335	1.4311066	0.83140564
1442832851583556561	-0.32453918	1.4311066	0.79841614
1442832851588469891	-0.1926117	1.3773499	0.7617645
1442832851593535809	-0.055770874	1.2783813	0.7104645
1442832851598510174	0.079818726	1.1452179	0.6408081
1442832851604369549	0.21177673	0.98638916	0.55651855
1442832851609313397	0.34005737	0.8080292	0.46244812
1442832851613646893	0.45855713	0.6198883	0.36714172
1442832851620025067	0.56607056	0.42929077	0.27308655
1442832851623900799	0.66259766	0.24357605	0.18145752
1442832851627074628	0.66259766	0.061569214	0.18145752
1442832851633910565	0.82751465	0.061569214	-0.0066986084
1442832851638793378	0.897171	-0.3012848	-0.10441589
1442832851644011883	0.96559143	-0.46621704	-0.19972229
1442832851648864178	1.0376587	-0.605484	-0.2864685
1442832851653899579	1.0376587	-0.7191162	-0.36219788
1442832851662139325	1.2148132	-0.81684875	-0.4244995
1442832851669036297	1.3113251	-0.903595	-0.4721527
1442832851674041180	1.4078522	-0.9744568	-0.5075989
1442832851678161053	1.5019226	-1.0184326	-0.54545593
1442832851684234051	1.5862122	-1.0257568	-0.59921265
1442832851689147381	1.6497498	-0.9903412	-0.67863464
1442832851694365887	1.670517	-0.9109192	-0.7800293
1442832851699248700	1.6253052	-0.78019714	-0.8826599
1442832851704986005	1.4835968	-0.5810547	-0.95474243
1442832851709319501	1.2135773	-0.2927246	-0.965744
1442832851714507489	0.80430603	0.08477783	-0.89364624
1442832851719848065	0.28874207	0.51727295	-0.7274933
1442832851724547772	-0.23658752	0.94485474	-0.45506287
1442832851727813153	-0.23658752	1.3016205	-0.45506287
1442832851734618573	-0.88287354	1.3016205	0.3732605
1442832851739531903	-0.93174744	1.7719727	0.81185913
1442832851744719891	-0.863327	2.0101929	1.1404877
1442832851749602704	-0.7472687	2.3547363	1.3029938
1442832851754638104	-0.7472687	2.7908936	1.3029938
1442832851759642987	-0.61408997	2.7908936	1.3262024
1442832851764800458	-0.4711609	3.190384	1.2858887
1442832851770324139	-0.33187866	3.3748627	1.2480164
1442832851775725751	-0.21946716	3.2111511	1.2272339
1442832851791015057	-0.15106201	1.8183899	0.91326904
1442832851795195965	-0.17304993	-0.91459656	0.6566925
1442832851800139813	-0.20358276	-0.91459656	0.34881592
1442832851805236249	-0.23535156	-1.444809	0.018951416
1442832851810149579	-0.25247192	-1.7636871	-0.30355835
1442832851815062909	-0.22558594	-1.9481659	-0.5882263
1442832851820098309	-0.13639832	-2.055664	-0.8179016
1442832851825133710	0.019973755	-2.1045532	-0.99627686
1442832851828643231	0.019973755	-2.0874329	-0.99627686
1442832851835235028	0.44755554	-2.0874329	-1.2833862
1442832851840239911	0.6589203	-1.8430939	-1.3933258
1442832851845275311	0.83973694	-1.6769409	-1.4360962
1442832851850432782	0.96559143	-1.5339966	-1.3725586
1442832851855956463	0.9765625	-1.4240417	-1.1880798
1442832851860534100	0.9765625	-1.3128662	-1.1880798
1442832851865416913	0.8018646	-1.3128662	-0.8973236
1442832851870452313	0.43658447	-1.1369324	-0.5393524
1442832851878203778	-0.40518188	-0.8583832	0.103256226
1442832851885466962	-0.62265015	-0.14733887	0.26696777
1442832851890563397	-0.64097595	0.13119507	0.31462097
1442832851895629315	-0.46992493	0.31445313	0.28529358
1442832851900786786	-0.1302948	0.42562866	0.20831299
1442832851906188397	0.3473816	0.4867096	0.08859253
1442832851910735516	0.90205383	0.4915924	-0.09098816
1442832851915892987	1.4591522	0.41462708	-0.33654785
1442832851921691327	1.9478455	0.23260498	-0.6212158
1442832851925841717	2.3106995	-0.058151245	-0.9022064
1442832851929351239	2.3106995	-0.44421387	-0.9022064
1442832851936065106	2.5733643	-0.44421387	-1.2943878
1442832851942168622	2.4902954	-1.4264832	-1.3823547
1442832851946135907	2.2984772	-1.9628296	-1.4128876
1442832851952056317	2.0358124	-2.4649506	-1.4055634
1442832851956054120	2.0358124	-2.8730164	-1.4055634
1442832851961821942	1.4237366	-2.8730164	-1.3175964
1442832851966124921	1.4237366	-3.2138672	-1.3175964
1442832851971434979	1.126831	-3.2138672	-1.2320862
1442832851976195721	0.85440063	-3.0794678	-1.118454
1442832851979705243	0.62350464	-2.738617	-0.98527527
1442832851986419110	0.4463501	-2.2413788	-0.8508911
1442832851991240887	0.3339386	-1.6671753	-0.73117065
1442832851996489911	0.28263855	-1.095398	-0.6431885
1442832852001342206	0.28385925	-0.58839417	-0.5857849
1442832852006438641	0.32783508	-0.17666626	-0.5540161
1442832852011443524	0.41334534	0.12997437	-0.5356903
1442832852016448407	0.54042053	0.3425598	-0.5234833
1442832852022368817	0.7041321	0.48059082	-0.5112457
1442832852026702313	0.88616943	0.5697937	-0.49291992
1442832852029967694	0.88616943	0.6259918	-0.49291992
1442832852036773114	1.206253	0.6259918	-0.4171753
1442832852046172528	1.3015442	0.694397	-0.35365295
1442832852051726727	1.3430786	0.76649475	-0.28034973
1442832852056945233	1.3430786	0.76649475	-0.21560669
1442832852061767010	1.31987	0.8104706	-0.17771912
1442832852066985516	1.2868958	0.8495636	-0.17527771
1442832852072295575	1.2490234	0.8715668	-0.20092773
1442832852077056317	1.2038116	0.8666687	-0.23881531
1442832852080260663	1.1500702	0.8336792	-0.27546692
1442832852087127118	1.0914154	0.7884674	-0.30477905
1442832852092009930	1.0352173	0.746933	-0.32432556
1442832852097228436	0.9875641	0.72372437	-0.33166504
1442832852102080731	0.94970703	0.7127228	-0.32432556
1442832852107207684	0.9167023	0.7066345	-0.30844116
1442832852112151532	0.8849335	0.6931915	-0.29379272
1442832852117186932	0.85562134	0.67118835	-0.2864685
1442832852123198895	0.8348541	0.65286255	-0.28401184
1442832852128264813	0.8287506	0.65286255	-0.28034973
1442832852134490399	0.8360748	0.68096924	-0.26690674
1442832852137694745	0.8495178	0.7310486	-0.24369812
1442832852142547040	0.86172485	0.78726196	-0.21681213
1442832852147368817	0.86172485	0.8275757	-0.21681213
1442832852152556805	0.87394714	0.8275757	-0.19236755
1442832852158355145	0.9313812	0.8361206	-0.17895508
1442832852162475018	0.9313812	0.70295715	-0.17895508
1442832852167540936	1.0022278	0.70295715	-0.19728088
1442832852173247723	1.1072998	0.5734558	-0.22904968
1442832852177611737	1.2380219	0.42562866	-0.26202393
1442832852181121258	1.372406	0.2765808	-0.28157043
1442832852187713055	1.4872437	0.12263489	-0.28401184
1442832852192717938	1.5605621	-0.047164917	-0.28157043
1442832852197753338	1.5752106	-0.2389679	-0.2889099
1442832852202758221	1.5202484	-0.43933105	-0.31455994
1442832852208312421	1.4004974	-0.618927	-0.35609436
1442832852213012128	1.2258148	-0.74720764	-0.40252686
1442832852221557049	1.0181122	-0.79364014	-0.44406128
1442832852227935223	0.61738586	-0.5615082	-0.4807129
1442832852231322674	0.61738586	-0.29638672	-0.4807129
1442832852238036542	0.3669281	-0.29638672	-0.43673706
1442832852243041424	0.3669281	0.25213623	-0.39152527
1442832852248290448	0.3143921	0.25213623	-0.39152527
1442832852253264813	0.30706787	0.41708374	-0.33776855
1442832852258086590	0.3290558	0.47450256	-0.28401184
1442832852263427167	0.35960388	0.42684937	-0.23269653
1442832852268218426	0.3815918	0.30223083	-0.18504333
1442832852273192792	0.3828125	0.1409607	-0.14350891
1442832852278289227	0.35960388	-0.011734009	-0.11053467
1442832852281676678	0.31072998	-0.13633728	-0.08364868
1442832852288512616	0.24963379	-0.24385071	-0.060440063
1442832852294249921	0.19100952	-0.3538208	-0.040893555
1442832852298583417	0.14335632	-0.47966003	-0.022567749
1442832852309935956	0.048065186	-0.6140442	0.021392822
1442832852313659100	-0.025222778	-0.8266144	0.043395996
1442832852318755536	-0.1278534	-0.8547058	0.06538391
1442832852324401288	-0.25856018	-0.79364014	0.08859253
1442832852328826337	-0.4125061	-0.6274872	0.11424255
1442832852332000165	-0.4125061	-0.36358643	0.11424255
1442832852338866620	-0.7411499	-0.36358643	0.13256836
1442832852343749432	-0.7411499	0.3059082	0.13256836
1442832852348937421	-0.88531494	0.3059082	0.10813904
1442832852353850751	-1.0136108	0.61499023	0.07392883
1442832852358855633	-1.1382141	0.8752289	0.054397583
1442832852363921551	-1.2750397	1.1000214	0.07270813
1442832852369079022	-1.4363098	1.3040619	0.12646484
1442832852374450116	-1.6256866	1.4873047	0.19854736
1442832852379149823	-1.8443756	1.6241455	0.26696777
1442832852382384686	-2.0838318	1.6925507	0.3256073
1442832852389220624	-2.3293915	1.6803436	0.3781433
1442832852397857098	-2.7215729	1.6070404	0.4575653
1442832852404204755	-2.8205261	1.438446	0.47465515
1442832852410155682	-2.8388672	1.4188843	0.47953796
1442832852414275555	-2.7826538	1.4567719	0.47833252
1442832852419463544	-2.667801	1.5435181	0.4734497
1442832852425170331	-2.5041046	1.6546936	0.46609497
1442832852429503827	-2.3037415	1.7646484	0.4502411
1442832852432708172	-2.3037415	1.8391571	0.4502411
1442832852439574628	-1.8504791	1.8391571	0.38790894
1442832852444487958	-1.8504791	1.723114	0.38790894
1442832852449706463	-1.6391144	1.723114	0.3439331
1442832852454558758	-1.47052	1.4567719	0.2901764
1442832852459594159	-1.366684	1.0279541	0.22419739
1442832852464599042	-1.3495789	0.44761658	0.14601135
1442832852470977215	-1.4277496	-0.24996948	0.058044434
1442832852475493817	-1.5914764	-1.0135498	-0.032333374
1442832852485839276	-2.030075	-1.7978821	-0.1532898
1442832852489776044	-2.2279968	-3.2248688	-0.14350891
1442832852494933514	-2.3819275	-3.7599792	-0.077545166
1442832852499846844	-2.484558	-4.1362762	0.027511597
1442832852505065350	-2.533432	-4.354965	0.15213013
1442832852510680585	-2.52977	-4.4319305	0.27796936
1442832852514953046	-2.4833374	-4.373291	0.3940277
1442832852519988446	-2.4088135	-4.1924744	0.4893341
1442832852525603680	-2.3037415	-3.9175873	0.5650635
1442832852530059247	-2.1375885	-3.5376282	0.6444855
1442832852533599286	-2.1375885	-2.9829712	0.6444855
1442832852540160565	-1.8785706	-2.9829712	0.74832153
1442832852545195965	-1.5291748	-2.1778564	0.8778229
1442832852550231366	-1.1504364	-1.1430511	0.9975586
1442832852555266766	-0.8217926	-0.010513306	1.0745239
1442832852560790448	-0.59576416	1.0499268	1.1026306
1442832852565490155	-0.48336792	1.9087982	1.1001892
1442832852573241620	-0.5163727	2.5001068	1.0757446
1442832852575988202	-0.5163727	2.8568573	1.0757446
1442832852580443768	-0.59576416	2.8568573	1.0647583
1442832852583800702	-0.6727295	2.6980286	1.0561981
1442832852590484051	-0.7277069	2.4060364	1.0561981
1442832852595549969	-0.7509155	2.0541992	1.0684204
1442832852600768475	-0.7448273	1.708435	1.0928497
1442832852605742840	-0.7130585	1.4201202	1.1246185
1442832852611358075	-0.66174316	1.2221985	1.1551666
1442832852615661053	-0.59454346	1.1183472	1.1771393
1442832852620849042	-0.5163727	1.0926971	1.184494
1442832852626189618	-0.43206787	1.12323	1.1771393
1442832852630797772	-0.34654236	1.1904297	1.1502838
1442832852634154706	-0.34654236	1.27594	1.1502838
1442832852640990643	-0.25979614	1.27594	1.1062927
1442832852646422772	-0.17060852	1.3651276	1.0500946
1442832852651091962	-0.07409668	1.4408875	0.9926605
1442832852659758954	0.15800476	1.4873047	0.89126587
1442832852666137128	0.28874207	1.4433289	0.83628845
1442832852671233563	0.42190552	1.3480377	0.76908875
1442832852677062421	0.55140686	1.2173157	0.6921387
1442832852681304364	0.6711273	1.070694	0.6127167
1442832852684508710	0.7762146	0.9192047	0.532074
1442832852691405682	0.8629608	0.7652588	0.4502411
1442832852696257977	0.93258667	0.6113281	0.3598175
1442832852701415448	0.99124146	0.4598236	0.26208496
1442832852706298260	1.0413208	0.31445313	0.15577698
1442832852711364178	1.0816498	0.1763916	0.04827881
1442832852716399579	1.1121826	0.046905518	-0.060440063
1442832852721557049	1.1366272	-0.07281494	-0.16307068
1442832852726958661	1.1622772	-0.18643188	-0.25834656
1442832852731658368	1.1964874	-0.2915039	-0.34509277
1442832852735320477	1.1964874	-0.38435364	-0.34509277
1442832852748626141	1.3418732	-0.38435364	-0.58454895
1442832852751647381	1.3418732	-0.48454285	-0.58454895
1442832852756652264	1.3772888	-0.48454285	-0.65786743
1442832852762511639	1.3772888	-0.43200684	-0.721405
1442832852766723065	1.3235474	-0.3171692	-0.7690277
1442832852771911053	1.1976929	-0.12780762	-0.7885895
1442832852777648358	0.98635864	0.13363647	-0.76538086
1442832852782042889	0.6931305	0.44029236	-0.68107605
1442832852785125165	0.3486023	0.75549316	-0.5149231
1442832852792113690	0.011413574	1.0474854	-0.25346375
1442832852796965985	-0.25856018	1.3052673	0.09225464
1442832852802062421	-0.43327332	1.5435181	0.47709656
1442832852807158856	-0.5310211	1.7964172	0.82896423
1442832852813475995	-0.59210205	2.1006165	1.0830841
1442832852817077069	-0.64707947	2.4634552	1.2125854
1442832852823089032	-0.68984985	2.8312073	1.2406769
1442832852827971844	-0.6983795	3.0999908	1.2199097
1442832852835296063	-0.65563965	3.1549683	1.1918182
1442832852842315106	-0.57621765	2.9216003	1.1722565
1442832852847319989	-0.49069214	2.3999329	1.1502838
1442832852852355389	-0.41618347	1.6669006	1.1001892
1442832852857360272	-0.35630798	0.8446808	0.9938965
1442832852863067059	-0.30012512	0.06645203	0.8106384
1442832852867614178	-0.23414612	-0.5773926	0.54919434
1442832852872527508	-0.15716553	-1.0526428	0.23275757
1442832852877562909	-0.0667572	-1.3763885	-0.10197449
1442832852882567792	0.043182373	-1.5938721	-0.42817688
1442832852885894208	0.18489075	-1.7539063	-0.7274933
1442832852892608075	0.3620453	-1.8821869	-0.99871826
1442832852897643475	0.57585144	-1.9897003	-1.2467346
1442832852902678876	0.82751465	-2.0715485	-1.4764252
1442832852907744794	1.1121826	-2.1326447	-1.6792297
1442832852913268475	1.4163818	-2.1851807	-1.8331604
1442832852923095135	1.8439941	-2.249939	-1.8001709
1442832852927886395	1.7059326	-2.365982	-1.494751
1442832852932891278	1.7059326	-2.2645874	-1.494751
1442832852936248212	1.1964874	-2.2645874	-0.97550964
1442832852943114667	0.42314148	-1.926178	-0.33288574
1442832852948027997	-0.34532166	-1.3592987	0.2718506
1442832852953246503	-0.86820984	-0.7081146	0.70558167
1442832852958220868	-1.068573	-0.16934204	0.9254761
1442832852963042645	-1.0050507	0.14707947	0.9743347
1442832852968169598	-0.76071167	0.26557922	0.9169159
1442832852973327069	-0.3892975	0.28269958	0.7910919
1442832852979827313	0.060272217	0.26557922	0.60295105
1442832852983428387	0.54042053	0.21548462	0.33416748
1442832852986602215	0.9985657	0.109191895	-0.025009155
1442832852993346600	1.3944092	-0.07159424	-0.4513855
1442832852998717694	1.6998444	-0.322052	-0.89608765
1442832853003600506	1.9062958	-0.63237	-1.310257
1442832853011687665	2.0345917	-0.9744568	-1.659668
1442832853018493085	2.186081	-1.5877533	-2.1068268
1442832853023650555	2.2361755	-1.7771149	-2.1947937
1442832853029296307	2.2361755	-1.8626556	-2.1825867
1442832853033721356	2.2361755	-1.8345337	-2.1825867
1442832853038146405	2.121338	-1.8345337	-2.05307
1442832853043822674	1.8183441	-1.6744995	-1.8001709
1442832853048766522	1.3052216	-1.3507385	-1.4470978
1442832853053862958	0.6528015	-0.85961914	-1.0475922
1442832853058776288	0.0052948	-0.2756195	-0.6615143
1442832853064666180	-0.48825073	0.24113464	-0.34631348
1442832853068847088	-0.72650146	0.5258026	-0.1374054
1442832853073882489	-0.66664124	0.5050354	-0.042114258
1442832853079650311	-0.31477356	0.23625183	-0.04333496
1442832853083953290	0.24598694	-0.13877869	-0.09465027
1442832853087310223	0.8714905	-0.47232056	-0.14228821
1442832853099242596	1.7584686	-0.67878723	-0.07876587
1442832853104216962	1.9038544	-0.6800232	0.02507019
1442832853109130292	1.8733215	-0.5285187	0.13500977
1442832853114104657	1.721817	-0.32081604	0.21322632
1442832853119231610	1.5006866	-0.09359741	0.23155212
1442832853124267010	1.2636719	0.12019348	0.18634033
1442832853130401044	1.0547638	0.30223083	0.099594116
1442832853134551434	1.0547638	0.44761658	0.099594116
1442832853137694745	0.9081421	0.44761658	0.0067443848
1442832853144500165	0.8360748	0.5722351	-0.06776428
1442832853149444012	0.8324127	0.6907501	-0.11663818
1442832853155578046	0.87028503	0.80558777	-0.14718628
1442832853159667401	0.9191437	0.8947754	-0.16551208
1442832853164946942	0.9606781	0.9350891	-0.1703949
1442832853169738202	0.9826813	0.9204254	-0.16551208
1442832853175322919	0.9851227	0.8727722	-0.14962769
1442832853179564862	0.97291565	0.812912	-0.13252258
1442832853187804608	0.95214844	0.746933	-0.1251831
1442832853194732098	0.9081421	0.5465698	-0.16795349
1442832853199798016	0.9008179	0.40974426	-0.20581055
1442832853204833417	0.9191437	0.27778625	-0.23513794
1442832853209838299	0.9692383	0.17028809	-0.24858093
1442832853215392499	1.049881	0.10430908	-0.24737549
1442832853219909100	1.1488342	0.073776245	-0.24125671
1442832853224975018	1.1488342	0.06277466	-0.24125671
1442832853231597333	1.3650818	0.06277466	-0.26078796
1442832853235045819	1.3650818	0.010253906	-0.26078796
1442832853238524823	1.4603882	0.010253906	-0.2864685
1442832853245086102	1.5348969	-0.05204773	-0.30723572
1442832853250152020	1.5788879	-0.13877869	-0.31700134
1442832853255187421	1.5764465	-0.2511902	-0.32432556
1442832853260192303	1.5080261	-0.37823486	-0.34143066
1442832853266112713	1.3626404	-0.49919128	-0.37686157
1442832853274779706	0.883728	-0.5773926	-0.4672699
1442832853280517010	0.6344757	-0.48086548	-0.4831543
1442832853285399823	0.44023132	-0.3037262	-0.46850586
1442832853288726239	0.44023132	-0.082595825	-0.42938232
1442832853295592694	0.27651978	-0.082595825	-0.37930298
1442832853300475506	0.28263855	0.28878784	-0.32432556
1442832853305541424	0.32173157	0.35232544	-0.26446533
1442832853310759930	0.3681488	0.30711365	-0.20581055
1442832853316192059	0.3986969	0.16540527	-0.15206909
1442832853320586590	0.3986969	-0.041046143	-0.11175537
1442832853325805096	0.3938141	-0.041046143	-0.11175537
1442832853332122235	0.29606628	-0.26585388	-0.05065918
1442832853335936932	0.29606628	-0.618927	-0.05065918
1442832853339080243	0.24598694	-0.618927	-0.016448975
1442832853345824628	0.22398376	-0.7142334	0.022628784
1442832853350860028	0.22642517	-0.76797485	0.059280396
1442832853362914471	0.24842834	-0.79974365	0.11303711
1442832853365935712	0.23010254	-0.78141785	0.12402344
1442832853370971112	0.17877197	-0.78141785	0.12646484
1442832853376189618	0.09082031	-0.7191162	0.12036133
1442832853381041913	-0.03010559	-0.62016296	0.115478516
1442832853386260419	-0.17428589	-0.48086548	0.11669922
1442832853390105633	-0.32699585	-0.29516602	0.12646484
1442832853396331219	-0.48216248	-0.06549072	0.13624573
1442832853401214032	-0.6336365	0.18251038	0.13624573
1442832853406249432	-0.7863617	0.40974426	0.12036133
1442832853411254315	-0.95007324	0.5881195	0.09715271
1442832853417113690	-1.1259918	0.7066345	0.08248901
1442832853421355633	-1.1259918	0.7835846	0.08248901
1442832853426543622	-1.3092499	0.7835846	0.087371826
1442832853432402997	-1.6745605	0.8459015	0.15701294
1442832853436614422	-1.6745605	1.0071564	0.15701294
1442832853439788251	-1.8846893	1.0071564	0.21566772
1442832853449798016	-2.4307861	1.0890198	0.3414917
1442832853456756024	-2.71669	1.1195679	0.38426208
1442832853461638837	-2.9549103	1.0511627	0.40623474
1442832853466704755	-3.1076355	0.96073914	0.41235352
1442832853471709637	-3.1565094	0.8911133	0.4099121
1442832853476714520	-3.0966492	0.8752289	0.40135193
1442832853482390790	-2.9463806	0.9277649	0.3867035
1442832853486907391	-2.7350159	1.0413666	0.36714172
1442832853490172772	-2.7350159	1.2026367	0.36714172
1442832853497985272	-2.232895	1.2026367	0.3292694
1442832853501891522	-1.9775543	1.5276337	0.313385
1442832853507445721	-1.7490692	1.5728302	0.2901764
1442832853512114911	-1.5804749	1.4689789	0.2584076
1442832853517150311	-1.5071716	1.1904297	0.22299194
1442832853522063641	-1.5071716	0.7151642	0.22299194
1442832853527312665	-1.5597076	0.7151642	0.18389893
1442832853538329510	-2.3501587	0.029815674	0.011627197
1442832853542174725	-2.3501587	-2.769165	0.011627197
1442832853547240643	-2.6042938	-2.769165	-0.04699707
1442832853552276044	-2.7533417	-3.6341553	-0.07876587
1442832853557311444	-2.8009796	-4.329315	-0.06776428
1442832853562438397	-2.7753296	-4.810669	-0.012802124
1442832853567870526	-2.7130127	-5.062332	0.08004761
1442832853572600751	-2.6409454	-5.1002197	0.19242859
1442832853577483563	-2.5639648	-4.959717	0.3085022
1442832853582549481	-2.4540253	-4.6677246	0.42823792
1442832853587493329	-2.258545	-4.1924744	0.5650635
1442832853591002850	-2.258545	-3.4521027	0.5650635
1442832853597594647	-1.5829315	-3.4521027	0.88150024
1442832853602630047	-1.2432861	-1.0648651	1.0122223
1442832853607665448	-1.0221405	0.2875824	1.0830841
1442832853612883954	-0.942749	1.4066772	1.0843048
1442832853618621258	-0.96351624	2.13237	1.0439911
1442832853622893719	-0.96351624	2.4646912	1.0439911
1442832853627807049	-1.0184937	2.4646912	0.9963379
1442832853632872967	-1.0600281	2.508667	0.96824646
1442832853637877850	-1.0722351	2.381607	0.96336365
1442832853641417889	-1.0600281	2.1653748	0.9743347
1442832853648070721	-1.0307007	1.9100342	0.9926605
1442832853652953534	-0.9904022	1.6473541	1.0085449
1442832853658141522	-0.9451904	1.3968964	1.0146637
1442832853666198163	-0.8401184	1.1733246	1.0061035
1442832853669097333	-0.8401184	0.8495636	1.0061035
1442832853674041180	-0.7729187	0.8495636	1.0085449
1442832853678161053	-0.69473267	0.77137756	1.0171051
1442832853683898358	-0.61286926	0.75549316	1.0219879
1442832853688231854	-0.5334625	0.7921448	1.0073395
1442832853691588788	-0.5334625	0.8642273	1.0073395
1442832853698455243	-0.38441467	0.8642273	0.90715027
1442832853703338055	-0.29644775	1.0218353	0.83262634
1442832853708526044	-0.18771362	1.0755768	0.7544403
1442832853713408856	-0.18771362	1.0926971	0.6774597
1442832853719146161	0.083496094	1.0926971	0.60295105
1442832853723510174	0.083496094	0.99494934	0.60295105
1442832853728667645	0.22886658	0.99494934	0.5284271
1442832853734038739	0.3681488	0.892334	0.45388794
1442832853738707928	0.5013275	0.7677002	0.38302612
1442832853742309003	0.62594604	0.6259918	0.31217957
1442832853754058270	0.8519592	0.4683838	0.16189575
1442832853758849530	0.9533539	0.12875366	0.078826904
1442832853763732342	1.0474396	-0.03616333	-0.007904053
1442832853768798260	1.1378326	-0.18643188	-0.097091675
1442832853773833661	1.2221375	-0.3196106	-0.18383789
1442832853778991131	1.3003235	-0.43688965	-0.26934814
1442832853784514813	1.3772888	-0.53707886	-0.34999084
1442832853789092450	1.4554901	-0.62016296	-0.42694092
1442832853792266278	1.4554901	-0.68122864	-0.42694092
1442832853799163251	1.6069794	-0.68122864	-0.5699005
1442832853804046063	1.655838	-0.7081146	-0.64198303
1442832853809264569	1.6595154	-0.6531372	-0.7189331
1442832853814086346	1.6595154	-0.53585815	-0.7189331
1442832853819213299	1.6008606	-0.53585815	-0.7983551
1442832853824187665	1.4567108	-0.33914185	-0.8582306
1442832853829375653	1.2099304	-0.049606323	-0.8643341
1442832853834899335	0.85806274	0.33522034	-0.7775879
1442832853842223553	-0.015472412	0.7945862	-0.25346375
1442832853850646405	-0.40274048	1.696228	0.16801453
1442832853854400067	-0.68984985	2.0151062	0.6286011
1442832853860137372	-0.88165283	2.2496796	1.039093
1442832853864440350	-1.0001678	2.4805756	1.3042145
1442832853869475751	-1.0527039	2.7896576	1.388504
1442832853874541669	-1.0258179	3.1708527	1.3298645
1442832853879577069	-0.9085388	3.5080414	1.210144
1442832853885741620	-0.7154999	3.6412048	1.1075134
1442832853889647870	-0.48460388	3.4604034	1.0623169
1442832853893157391	-0.48460388	2.9484863	1.0623169
1442832853899749188	-0.080200195	2.9484863	1.0855255
1442832853904754071	0.039505005	1.2160797	1.0549774
1442832853909789471	0.039505005	0.2264862	0.9328003
1442832853914946942	0.09692383	0.2264862	0.9328003
1442832853920684247	0.10670471	-0.6800232	0.41479492
1442832853929839520	0.11280823	-1.8980713	0.10203552
1442832853935119061	0.1360321	-2.3476563	-0.19116211
1442832853940490155	0.16656494	-2.3476563	-0.44526672
1442832853943358807	0.1836853	-2.4515228	-0.6615143
1442832853950042157	0.1678009	-2.5406952	-0.8411255
1442832853955077557	0.11647034	-2.6091156	-0.98527527
1442832853960143475	0.056610107	-2.6298828	-1.0891266
1442832853965331463	0.028503418	-2.5797882	-1.1465454
1442832853970672040	0.063949585	-2.4490814	-1.1624298
1442832853975219159	0.13967896	-2.2328339	-1.144104
1442832853980437665	0.18244934	-1.9286194	-1.0989075
1442832853985869794	0.11402893	-1.5425415	-1.0231628
1442832853990508465	-0.07775879	-1.108841	-0.913208
1442832853993682294	-0.07775879	-0.69955444	-0.913208
1442832854000598179	-0.4809265	-0.69955444	-0.6187744
1442832854005480992	-0.4919281	-0.21697998	-0.47094727
1442832854010730015	-0.4919281	-0.15345764	-0.34265137
1442832854018511998	0.019973755	-0.15834045	-0.24125671
1442832854021594273	0.47077942	-0.21331787	-0.17771912
1442832854026385533	0.47077942	-0.3257141	-0.17771912
1442832854030657994	0.97779846	-0.3257141	-0.16915894
1442832854036151158	1.4860382	-0.50408936	-0.22781372
1442832854040850865	1.9490662	-0.7215576	-0.35609436
1442832854044055210	2.333908	-0.9206848	-0.536911
1442832854050952183	2.6088104	-1.0489807	-0.7507019
1442832854055804478	2.7444153	-1.095398	-0.97062683
1442832854060992466	2.6979828	-1.1234894	-1.1489868
1442832854065905796	2.4328613	-1.2517853	-1.2332916
1442832854071582066	1.953949	-1.5657654	-1.2003174
1442832854076007115	1.3357544	-2.039795	-1.0830231
1442832854081164585	0.69924927	-2.5358124	-0.94862366
1442832854086566197	0.15924072	-2.8864594	-0.8435669
1442832854091235386	-0.21826172	-2.987854	-0.7727051
1442832854094531285	-0.21826172	-2.8290405	-0.7727051
1442832854106433140	-0.40518188	-2.8290405	-0.6053314
1442832854111407505	-0.40518188	-1.4619293	-0.6053314
1442832854116259800	-0.23658752	-1.4619293	-0.56378174
1442832854121356236	0.019973755	-0.9781189	-0.5393524
1442832854126330601	0.35227966	-0.5639496	-0.5308075
1442832854131518589	0.7322235	-0.21575928	-0.5246887
1442832854137377964	1.114624	0.077438354	-0.5124817
1442832854141558873	1.4420624	0.32788086	-0.47827148
1442832854144763218	1.6766357	0.54901123	-0.4147339
1442832854151660191	1.8024597	0.75305176	-0.32800293
1442832854156512486	1.8281097	0.9509735	-0.24125671
1442832854161700474	1.774353	1.1330109	-0.17895508
1442832854166583287	1.6680756	1.2686157	-0.1581726
1442832854171679722	1.5348969	1.3297119	-0.17649841
1442832854176684605	1.4029388	1.3077087	-0.22169495
1442832854181658970	1.2929993	1.2050781	-0.27423096
1442832854194293248	1.1622772	1.0279541	-0.33410645
1442832854202502476	1.1207428	0.5453644	-0.32800293
1442832854206897007	1.1207428	0.105545044	-0.32800293
1442832854212146031	1.1109619	0.105545044	-0.32066345
1442832854217059361	1.0999756	-0.06303406	-0.31944275
1442832854222613560	1.088974	-0.18399048	-0.32188416
1442832854227191197	1.0767517	-0.24020386	-0.32800293
1442832854232348668	1.0572052	-0.21453857	-0.34020996
1442832854237139927	1.022995	-0.11192322	-0.35487366
1442832854242114293	0.9716797	0.042022705	-0.36831665
1442832854245623814	0.91426086	0.2093811	-0.37075806
1442832854252215611	0.86416626	0.35598755	-0.36219788
1442832854257251011	0.8348541	0.46594238	-0.34877014
1442832854262255894	0.831192	0.5319214	-0.34265137
1442832854267443882	0.84828186	0.5600128	-0.34754944
1442832854273150669	0.88249207	0.55392456	-0.35975647
1442832854280841099	0.9264679	0.5099182	-0.37075806
1442832854287616001	1.0401001	0.28634644	-0.37808228
1442832854292468296	1.0999756	0.10798645	-0.38052368
1442832854295855748	1.0999756	-0.09968567	-0.38052368
1442832854302539097	1.153717	-0.09968567	-0.3854065
1442832854307574498	1.1976929	-0.31227112	-0.39396667
1442832854312762486	1.2233734	-0.50286865	-0.40740967
1442832854317767369	1.2245789	-0.6482544	-0.4244995
1442832854323718296	1.1952515	-0.7386627	-0.44161987
1442832854327838169	1.1305084	-0.78019714	-0.44770813
1442832854332873570	1.0376587	-0.78996277	-0.44161987
1442832854338244664	0.92770386	-0.7740936	-0.42573547
1442832854342974888	0.8116455	-0.72888184	-0.4061737
1442832854346179234	0.69924927	-0.6506958	-0.39274597
1442832854353076207	0.5880585	-0.5431824	-0.3829651
1442832854358813511	0.47932434	-0.40756226	-0.37442017
1442832854369189488	0.30096436	-0.2389679	-0.33288574
1442832854373034703	0.24475098	0.15074158	-0.30233765
1442832854378588902	0.20689392	0.29122925	-0.27667236
1442832854383288609	0.18489075	0.3425598	-0.25958252
1442832854388385044	0.17512512	0.3034668	-0.24858093
1442832854393359410	0.17024231	0.18739319	-0.23513794
1442832854396594273	0.17024231	0.01637268	-0.23513794
1442832854403369175	0.15924072	0.01637268	-0.20825195
1442832854408282505	0.13114929	-0.18766785	-0.16671753
1442832854413470494	0.079818726	-0.4063568	-0.11541748
1442832854418353306	0.0028533936	-0.6128082	-0.06288147
1442832854423419224	-0.104644775	-0.77531433	-0.009124756
1442832854428424107	-0.2427063	-0.86450195	0.04095459
1442832854433612095	-0.40396118	-0.8547058	0.08615112
1442832854438922154	-0.57743835	-0.7411041	0.11791992
1442832854443682896	-0.7545929	-0.5334015	0.13380432
1442832854446856724	-0.92930603	-0.2572937	0.13746643
1442832854455523716	-1.0979004	0.060333252	0.14112854
1442832854458667027	-1.2701569	0.40242004	0.15577698
1442832854463885533	-1.4607544	0.746933	0.18634033
1442832854468737828	-1.6867676	1.0523682	0.23275757
1442832854473803746	-1.9433441	1.2661743	0.287735
1442832854478808628	-2.204773	1.3504791	0.3366089
1442832854483966099	-2.4393463	1.3089447	0.36470032
1442832854489489781	-2.625061	1.1818695	0.3757019
1442832854494067418	-2.7545624	1.0230408	0.38058472
1442832854497302281	-2.7545624	0.8849945	0.38058472
1442832854504168736	-2.8205261	0.8849945	0.38426208
1442832854509021031	-2.8241882	0.80926514	0.38302612
1442832854514239537	-2.7704468	0.82147217	0.379364
1442832854519091832	-2.6690369	0.9253235	0.38790894
1442832854524096714	-2.528534	1.1049042	0.4233551
1442832854529162632	-2.3550568	1.3223877	0.47833252
1442832854535418736	-2.162033	1.5276337	0.52474976
1442832854543994175	-1.7906189	1.669342	0.5161896
1442832854547625767	-1.6525574	1.5642853	0.4685669
1442832854554583775	-1.5682678	1.2490845	0.41235352
1442832854559375035	-1.5487213	0.74816895	0.3610382
1442832854564379918	-1.6049194	0.07989502	0.31706238
1442832854569415318	-1.7270966	-0.71543884	0.2767334
1442832854574939000	-1.8834686	-1.5791931	0.23275757
1442832854579638707	-2.0288544	-2.4441833	0.18145752
1442832854584521519	-2.135147	-3.2407532	0.13136292
1442832854589556919	-2.1998901	-3.9029236	0.09347534
1442832854594622837	-2.2414246	-4.3745117	0.078826904
1442832854597979771	-2.2414246	-4.62619	0.078826904
1442832854604693638	-2.2695313	-4.62619	0.09225464
1442832854609729039	-2.287857	-4.6677246	0.13256836
1442832854614764439	-2.2939606	-4.54068	0.19366455
1442832854619921910	-2.2793121	-4.288986	0.26696777
1442832854625384556	-2.2206573	-3.92247	0.3561554
1442832854632952916	-1.8309326	-3.399582	0.6188202
1442832854639910923	-1.5071716	-1.6354065	0.7703247
1442832854644976841	-1.1846466	-0.44665527	0.89494324
1442832854648486363	-0.93907166	0.7286072	0.9694519
1442832854655047642	-0.7985687	1.6925507	0.9902191
1442832854660083043	-0.7448273	2.325409	0.97924805
1442832854665118443	-0.7411499	2.6198425	0.9621277
1442832854670275914	-0.7643585	2.6503906	0.96092224
1442832854675830113	-0.79248047	2.5196686	0.9828949
1442832854680407750	-0.8095703	2.3180847	1.0232239
1442832854685260044	-0.810791	2.1030579	1.0720825
1442832854690203892	-0.7985687	1.8978119	1.1136322
1442832854695330845	-0.7985687	1.7059937	1.1136322
1442832854698809849	-0.7826843	1.7059937	1.1417236
1442832854705554234	-0.7667999	1.5227509	1.1539307
1442832854710955845	-0.7435913	1.3553619	1.1600494
1442832854719561802	-0.64585876	1.2197571	1.1539307
1442832854725665318	-0.57377625	1.1256714	1.1356049
1442832854732409703	-0.49557495	1.1733246	1.1038513
1442832854735583531	-0.41983032	1.2551727	1.0610962
1442832854740649449	-0.34042358	1.341919	1.0110016
1442832854745837437	-0.24758911	1.4066772	0.96092224
1442832854750170933	-0.13883972	1.4335632	0.9144745
1442832854755877720	-0.011795044	1.4164429	0.87661743
1442832854760791050	0.1335907	1.3541412	0.8436127
1442832854766009556	0.29240417	1.2539673	0.808197
1442832854770892369	0.45367432	1.1268921	0.76420593
1442832854775927769	0.61006165	0.97906494	0.7092285
1442832854780932652	0.7517853	0.8177948	0.6456909
1442832854786120640	0.87760925	0.65042114	0.57728577
1442832854791430699	0.9900055	0.47938538	0.50398254
1442832854796191441	0.9900055	0.31323242	0.50398254
1442832854799365269	1.0901947	0.31323242	0.4233551
1442832854807330357	1.2587891	0.15440369	0.2425232
1442832854811145054	1.2587891	-0.13024902	0.2425232
1442832854816333043	1.3272095	-0.13024902	0.14112854
1442832854821215855	1.3882904	-0.26585388	0.03363037
1442832854826251255	1.4481506	-0.40879822	-0.081207275
1442832854831286656	1.5177917	-0.566391	-0.20581055
1442832854836474644	1.5959778	-0.73132324	-0.33776855
1442832854841845738	1.6766357	-0.89138794	-0.47703552
1442832854846545445	1.7474823	-1.029419	-0.62242126
1442832854849749791	1.7975769	-1.1308441	-0.77882385
1442832854856616246	1.8024597	-1.1797028	-0.95350647
1442832854861499058	1.7254944	-1.1454926	-1.1331024
1442832854866473423	1.5214539	-0.9842224	-1.2785034
1442832854871691929	1.1500702	-0.6568146	-1.3237
1442832854877063023	0.6112671	-0.15222168	-1.2149658
1442832854881640660	-0.024017334	0.49771118	-0.94374084
1442832854887683140	-0.61776733	1.2124176	-0.5381317
1442832854895831334	-1.0233765	1.875824	-0.05189514
1442832854900073277	-1.1650848	2.6919403	0.44900513
1442832854906756626	-1.0771332	2.6919403	0.87905884
1442832854911822544	-0.87309265	2.849533	1.171051
1442832854916857945	-0.66174316	2.9509277	1.3115387
1442832854921923863	-0.4968109	3.06456	1.350647
1442832854927417027	-0.3770752	3.1561737	1.3591919
1442832854932147251	-0.28544617	3.1048737	1.3824005
1442832854936999546	-0.2133789	2.7823334	1.4202728
1442832854942095982	-0.1608429	2.1555939	1.44104
1442832854947100865	-0.12541199	1.3162689	1.4092712
1442832854950457798	-0.11074829	0.43540955	1.2968903
1442832854957141148	-0.11929321	-0.308609	1.0953064
1442832854962176548	-0.14251709	-0.81806946	0.81552124
1442832854967272984	-0.15716553	-1.1015167	0.48809814
1442832854972399937	-0.1327362	-1.2554474	0.15701294
1442832854983691441	0.067611694	-1.3837433	-0.39152527
1442832854987353550	0.067611694	-1.7453613	-0.60899353
1442832854992419468	0.21665955	-1.7453613	-0.60899353
1442832854997363316	0.3779297	-1.9677124	-0.8179016
1442832855000964390	0.55140686	-2.1900635	-1.0390472
1442832855007525669	0.7517853	-2.3769836	-1.2797089
1442832855012561070	0.99368286	-2.480835	-1.5265045
1442832855017718541	1.2734528	-2.4649506	-1.7537384
1442832855022753941	1.5446777	-2.3171234	-1.9260101
1442832855028338658	1.708374	-2.0544586	-2.0041962
1442832855032794224	1.6253052	-1.6891632	-1.9394531
1442832855037860142	1.1989288	-1.212677	-1.6792297
1442832855044390904	0.45855713	-0.618927	-1.2039642
1442832855047961460	-0.4076233	0.03225708	-0.58088684
1442832855051135289	-1.1418762	0.5905609	0.045837402
1442832855058032261	-1.562149	0.8862152	0.53941345
1442832855063067662	-1.6293488	0.8605652	0.8424072
1442832855070330845	-1.4131012	0.6040039	0.9780121
1442832855073016392	-1.0062714	0.29122925	0.9914551
1442832855078173863	-0.48336792	0.05178833	0.9095917
1442832855083056675	0.09448242	-0.08015442	0.7409973
1442832855088214146	0.09448242	-0.16078186	0.48809814
1442832855093524205	0.6796875	-0.269516	0.14845276
1442832855098345982	1.2306976	-0.269516	0.14845276
1442832855102374302	1.7169342	-0.45765686	-0.26324463
1442832855108386265	2.1103363	-0.73010254	-0.70796204
1442832855113269078	2.3840027	-1.0673065	-1.1245575
1442832855118457066	2.5159454	-1.4509277	-1.4593048
1442832855123309361	2.5122833	-1.8724213	-1.6828766
1442832855129046666	2.3962097	-2.3159027	-1.7904053
1442832855133410679	2.2007294	-2.7496185	-1.7904053
1442832855138415562	1.9527435	-3.1222382	-1.699997
1442832855144091832	1.6619568	-3.3641357	-1.5411682
1442832855148699986	1.3272095	-3.4056854	-1.3334808
1442832855151904332	1.3272095	-3.1955414	-1.1013489
1442832855158679234	0.6039429	-3.1955414	-0.87532043
1442832855163592564	0.30096436	-2.0532227	-0.6847229
1442832855168841587	0.1030426	-1.2725525	-0.5515747
1442832855173663365	0.035842896	-0.50775146	-0.47947693
1442832855178607212	0.104263306	0.12631226	-0.45870972
1442832855183734166	0.104263306	0.5661316	-0.4648285
1442832855188769566	0.29240417	0.5661316	-0.4648285
1442832855194537388	0.89593506	0.8104706	-0.4697113
1442832855199053990	0.89593506	0.917984	-0.4697113
1442832855202105748	1.2086945	0.917984	-0.4355011
1442832855208850132	1.4493866	0.9020996	-0.36831665
1442832855213977085	1.5813293	0.8849945	-0.28034973
1442832855219928013	1.6020966	0.8703308	-0.19360352
1442832855224047886	1.5422363	0.85324097	-0.13006592
1442832855229602085	1.4457092	0.8177948	-0.10319519
1442832855234118687	1.3455353	0.75549316	-0.11053467
1442832855239520298	1.255127	0.66630554	-0.14474487
1442832855246478306	1.1757202	0.5612488	-0.19116211
1442832855249224888	1.1072998	0.46105957	-0.24490356
1442832855252551304	1.1072998	0.38287354	-0.24490356
1442832855259295689	1.0071259	0.38287354	-0.32310486
1442832855264300572	0.95947266	0.30955505	-0.33410645
1442832855269335972	0.9057007	0.3083496	-0.32800293
1442832855274401890	0.8470764	0.31445313	-0.32066345
1442832855279895054	0.78842163	0.3193512	-0.32310486
1442832855284594761	0.78842163	0.324234	-0.33898926
1442832855289508091	0.72612	0.324234	-0.33898926
1442832855294512974	0.66259766	0.33888245	-0.36587524
1442832855299578892	0.6051636	0.37675476	-0.39762878
1442832855303057896	0.56729126	0.44639587	-0.42085266
1442832855309649693	0.55874634	0.5453644	-0.42085266
1442832855314685093	0.58195496	0.6565399	-0.39518738
1442832855319720494	0.63327026	0.7542572	-0.35365295
1442832855324877964	0.7090149	0.826355	-0.31333923
1442832855330310093	0.8030853	0.8727722	-0.28523254
1442832855335009800	0.91181946	0.8947754	-0.2705841
1442832855339862095	1.0254364	0.8801117	-0.2657013
1442832855344928013	1.1329498	0.8153534	-0.27178955
1442832855349932896	1.2245789	0.69563293	-0.28767395
1442832855353411900	1.2245789	0.5306854	-0.28767395
1442832855360003697	1.3479767	0.5306854	-0.34143066
1442832855365039097	1.3748474	0.13241577	-0.35975647
1442832855374896275	1.3430786	-0.06427002	-0.37075806
1442832855380145298	1.3430786	-0.3855896	-0.38052368
1442832855386096226	1.1964874	-0.3855896	-0.40252686
1442832855390185582	1.1964874	-0.527298	-0.40252686
1442832855396014439	1.0804138	-0.527298	-0.4330597
1442832855400286900	0.94602966	-0.5126343	-0.46850586
1442832855403796421	0.80430603	-0.45645142	-0.4990387
1442832855410357701	0.6735687	-0.37579346	-0.5149231
1442832855415423619	0.56851196	-0.2780609	-0.5088043
1442832855420581089	0.4964447	-0.16201782	-0.48191833
1442832855425433384	0.45855713	-0.038604736	-0.44161987
1442832855430529820	0.4512329	0.06889343	-0.3988495
1442832855435504185	0.46588135	0.13607788	-0.36097717
1442832855440722691	0.49154663	0.14830017	-0.33288574
1442832855446398960	0.51353455	0.10675049	-0.31333923
1442832855450640904	0.5196533	0.013931274	-0.29745483
1442832855454669224	0.49765015	-0.118011475	-0.27790833
1442832855462146031	0.44511414	-0.2780609	-0.25102234
1442832855465747105	0.3657074	-0.45521545	-0.21681213
1442832855470935093	0.26307678	-0.6396942	-0.17771912
1442832855475817906	0.14457703	-0.8229523	-0.13496399
1442832855480853306	0.14457703	-0.9891052	-0.13496399
1442832855485858189	0.016296387	-0.9891052	-0.088531494
1442832855491076695	-0.1144104	-1.1137238	-0.03477478
1442832855496539341	-0.24147034	-1.1626129	0.022628784
1442832855501147496	-0.3599701	-1.1039581	0.07637024
1442832855504321324	-0.46748352	-0.9231262	0.11669922
1442832855511218296	-0.5652313	-0.6396942	0.13868713
1442832855516070591	-0.6568451	-0.3025055	0.14234924
1442832855521258580	-0.7484741	0.031021118	0.13868713
1442832855526141392	-0.8584442	0.3169098	0.14480591
1442832855531237828	-1.0062714	0.5441284	0.17289734
1442832855536242710	-1.2017365	0.7151642	0.23031616
1442832855541461216	-1.4363098	0.8336792	0.31706238
1442832855550280796	-1.9323425	0.8862152	0.4893341
1442832855554675328	-1.9323425	0.8251343	0.4893341
1442832855562731968	-2.3049622	0.8251343	0.50154114
1442832855566455113	-2.4161377	0.78726196	0.4575653
1442832855572070347	-2.4906769	0.8239136	0.41601563
1442832855576678501	-2.5468597	0.8544464	0.39279175
1442832855581622349	-2.5468597	0.8581238	0.39279175
1442832855586749302	-2.5932922	0.8581238	0.38180542
1442832855591601597	-2.6275024	0.85324097	0.3683777
1442832855596606480	-2.6409454	0.8849945	0.340271
1442832855601672398	-2.6213837	0.97906494	0.29995728
1442832855605181919	-2.550537	1.1330109	0.2584076
1442832855611743199	-2.4136963	1.3150482	0.2266388
1442832855616778599	-2.218216	1.4860992	0.21199036
1442832855621814000	-1.999527	1.5997009	0.20831299
1442832855626971470	-1.7979431	1.6009369	0.20222473
1442832855637652623	-1.563385	1.4482117	0.13136292
1442832855641955601	-1.5523834	0.70051575	0.058044434
1442832855647143589	-1.6061401	0.1898346	-0.029891968
1442832855651995884	-1.7014465	-0.3562622	-0.11419678
1442832855655596959	-1.7014465	-0.915802	-0.11419678
1442832855662127720	-1.9066925	-0.915802	-0.19360352
1442832855667163121	-1.9848785	-2.0068054	-0.16795349
1442832855672229039	-2.0496216	-2.4918365	-0.09953308
1442832855677386509	-2.0496216	-2.8974457	6.2561035E-4
1442832855682910191	-2.162033	-2.8974457	0.11669922
1442832855687426793	-2.162033	-3.3959045	0.11669922
1442832855692431675	-2.2096558	-3.3959045	0.23155212
1442832855697314488	-2.2475433	-3.4863129	0.3304901
1442832855702410923	-2.2670898	-3.4887543	0.40135193
1442832855705920445	-2.2561035	-3.4179077	0.4502411
1442832855712603794	-2.1962433	-3.2639618	0.50276184
1442832855718676793	-2.0642853	-2.9902954	0.5809479
1442832855724810826	-1.8455963	-2.5406952	0.6933441
1442832855729174839	-1.5572662	-1.8773041	0.82896423
1442832855732623326	-1.2493896	-1.0196533	0.96824646
1442832855738299595	-0.98428345	-0.058151245	1.0867462
1442832855742846714	-0.8132477	0.8776703	1.1649323
1442832855747851597	-0.74238586	1.6534576	1.1954651
1442832855752886998	-0.7448273	2.1665802	1.1918182
1442832855756121861	-0.7448273	2.3828278	1.1918182
1442832855762957798	-0.7912445	2.3828278	1.1746979
1442832855767871128	-0.785141	2.1384888	1.184494
1442832855773059117	-0.7545929	1.8782654	1.2089081
1442832855777972447	-0.7545929	1.6375732	1.2089081
1442832855782977330	-0.7069397	1.6375732	1.2419128
1442832855788012730	-0.64463806	1.4567719	1.2797699
1442832855793200718	-0.57133484	1.3455963	1.310318
1442832855798815953	-0.48825073	1.2967072	1.323761
1442832855803118931	-0.40274048	1.2955017	1.3200989
1442832855812762486	-0.25611877	1.3248291	1.2577972
1442832855818194615	-0.19993591	1.4457703	1.2077026
1442832855823626744	-0.13883972	1.5056305	1.1502838
1442832855828295933	-0.060653687	1.5349579	1.091629
1442832855833453404	0.040740967	1.5190735	1.0354309
1442832855838366734	0.16412354	1.4640961	0.9804535
1442832855843554722	0.30584717	1.381012	0.9254761
1442832855849078404	0.45491028	1.27594	0.86683655
1442832855853625523	0.60028076	1.1549988	0.80574036
1442832855856799351	0.60028076	1.0230408	0.80574036
1442832855863665806	0.84828186	1.0230408	0.67381287
1442832855868579136	0.93626404	0.73472595	0.6004944
1442832855873767125	0.93626404	0.58078	0.5125427
1442832855878619419	0.9997864	0.58078	0.5125427
1442832855883715855	1.0413208	0.42440796	0.4074707
1442832855888720738	1.0706482	0.2765808	0.29629517
1442832855893695103	1.0926361	0.14585876	0.19854736
1442832855901446568	1.128067	0.037139893	0.062942505
1442832855904498326	1.128067	-0.15222168	0.062942505
1442832855907153355	1.1561584	-0.15222168	-5.79834E-4
1442832855914569126	1.2026062	-0.2585144	-0.081207275
1442832855918841587	1.2624664	-0.39411926	-0.18016052
1442832855924212681	1.3223114	-0.5627289	-0.29379272
1442832855929156529	1.3675232	-0.7325592	-0.41229248
1442832855933978306	1.3772888	-0.84617615	-0.5356903
1442832855939227330	1.3284302	-0.84373474	-0.6590729
1442832855944110142	1.1952515	-0.69711304	-0.7727051
1442832855949145543	0.9557953	-0.41000366	-0.8521118
1442832855954150425	0.6063843	-0.017837524	-0.8704376
1442832855957690464	0.6063843	0.42807007	-0.8704376
1442832855964251744	-0.23414612	0.42807007	-0.62976074
1442832855969287144	-0.23414612	1.2368469	-0.62976074
1442832855974322544	-0.5469055	1.2368469	-0.35365295
1442832855979510533	-0.6934967	1.4921875	0.010406494
1442832855988970982	-0.58721924	1.6241455	0.77153015
1442832855994494664	-0.47236633	1.8135071	1.0183258
1442832855999652134	-0.38441467	2.045639	1.130722
1442832856004504429	-0.32699585	2.3461761	1.1453857
1442832856008044468	-0.29766846	2.5502014	1.1197205
1442832856014575230	-0.29156494	2.4768982	1.0879669
1442832856019610630	-0.30621338	2.0505219	1.0513153
1442832856024676548	-0.32577515	1.3297119	0.9853363
1442832856029711949	-0.32943726	0.4732666	0.86073303
1442832856035510289	-0.30744934	-0.3428192	0.6603699
1442832856039782750	-0.26467896	-0.9878845	0.38426208
1442832856044970738	-0.21702576	-1.4118347	0.062942505
1442832856050616490	-0.16816711	-1.6439667	-0.25590515
1442832856054858433	-0.1144104	-1.755127	-0.5246887
1442832856058245884	-0.1144104	-1.8101196	-0.5246887
1442832856065081822	0.01751709	-1.8101196	-0.8350067
1442832856075518834	0.056610107	-1.8394165	-0.91929626
1442832856080554234	0.046844482	-1.6891632	-0.91929626
1442832856085253941	-0.0069122314	-1.6891632	-0.92541504
1442832856090777623	-0.06311035	-1.5486603	-0.90708923
1442832856095324742	-0.06187439	-1.4069519	-0.847229
1442832856100116001	0.035842896	-1.292099	-0.7274933
1442832856105365025	0.21298218	-1.2041473	-0.5491333
1442832856108599888	0.40602112	-1.1271667	-0.33898926
1442832856115435826	0.54408264	-1.0416412	-0.1386261
1442832856120318638	0.58195496	-0.9463501	0.011627197
1442832856125537144	0.5196533	-0.85961914	0.091033936
1442832856130450474	0.40602112	-0.8082886	0.09225464
1442832856135485875	0.32051086	-0.80952454	0.018951416
1442832856140490757	0.3510437	-0.8547058	-0.11419678
1442832856145648228	0.54042053	-0.91703796	-0.2889099
1442832856151141392	0.87272644	-0.9854431	-0.4855957
1442832856155749546	1.2881165	-1.0697479	-0.69696045
1442832856158953892	1.2881165	-1.1882629	-0.69696045
1442832856165789830	2.0541382	-1.1882629	-1.1294556
1442832856170672642	2.0541382	-1.5278931	-1.1294556
1442832856175860630	2.2850342	-1.5278931	-1.3163757
1442832856180773960	2.3656769	-1.7636871	-1.4495392
1442832856186755406	2.291153	-2.0666656	-1.5130768
1442832856190844761	2.0858917	-2.4295197	-1.508194
1442832856195849644	1.7902374	-2.7948303	-1.455658
1442832856201678501	1.4457092	-3.0733795	-1.3750153
1442832856205920445	1.087738	-3.1784515	-1.276062
1442832856209277378	0.7517853	-3.063614	-1.1624298
1442832856216204869	0.46955872	-2.7373962	-1.0426941
1442832856221057164	0.26307678	-2.2597046	-0.93273926
1442832856226275669	0.14335632	-1.7172546	-0.8460083
1442832856231097447	0.111587524	-1.1931458	-0.7910309
1442832856236224400	0.16412354	-0.737442	-0.76782227
1442832856245806919	0.4487915	-0.36358643	-0.7959137
1442832856248370396	0.4487915	0.20449829	-0.7959137
1442832856251269566	0.63327026	0.20449829	-0.8142395
1442832856256671177	0.8189697	0.41708374	-0.8093567
1442832856259661900	0.8189697	0.5746918	-0.8093567
1442832856267138707	1.128067	0.5746918	-0.7030487
1442832856271289097	1.128067	0.72740173	-0.7030487
1442832856276416050	1.2416992	0.72740173	-0.6065521
1442832856281634556	1.3247681	0.7567291	-0.49171448
1442832856287310826	1.3675232	0.7762604	-0.37197876
1442832856291705357	1.3626404	0.79338074	-0.2681427
1442832856296557652	1.3272095	0.79826355	-0.20336914
1442832856302294957	1.285675	0.77993774	-0.1862793
1442832856306658970	1.2587891	0.7249603	-0.20581055
1442832856310015904	1.2453461	0.6284332	-0.24369812
1442832856316699253	1.2306976	0.5001526	-0.27546692
1442832856321734654	1.207489	0.36576843	-0.29135132
1442832856326800572	1.1769257	0.258255	-0.29135132
1442832856333392369	1.1451569	0.19595337	-0.2889099
1442832856337359654	1.1121826	0.18251038	-0.29255676
1442832856342089878	1.0682068	0.2081604	-0.30233765
1442832856346911656	1.0120087	0.26313782	-0.31211853
1442832856351855503	0.9447937	0.337677	-0.32066345
1442832856357012974	0.87516785	0.41462708	-0.32676697
1442832856360522496	0.87516785	0.4781494	-0.32676697
1442832856367205845	0.8153076	0.4781494	-0.33166504
1442832856372119175	0.7798767	0.528244	-0.32554626
1442832856377276646	0.7725525	0.5746918	-0.30599976
1442832856382189976	0.7908783	0.63087463	-0.27911377
1442832856387194859	0.82995605	0.70295715	-0.2522583
1442832856392260777	0.88005066	0.78482056	-0.2363739
1442832856397418248	0.9313812	0.8581238	-0.2363739
1442832856403125035	0.97779846	0.8996582	-0.24858093
1442832856407366978	1.0266571	0.8996582	-0.2705841
1442832856410723912	1.0865326	0.8617859	-0.29745483
1442832856421435582	1.2453461	0.7970276	-0.35121155
1442832856427661168	1.3064423	0.61499023	-0.37442017
1442832856432940709	1.3125458	0.48550415	-0.39274597
1442832856438250767	1.2502289	0.31567383	-0.4086151
1442832856442858921	1.1256256	0.10798645	-0.42694092
1442832856447802769	0.96191406	-0.10702515	-0.44406128
1442832856452655064	0.7872009	-0.2902832	-0.45870972
1442832856457873570	0.62594604	-0.40512085	-0.4648285
1442832856461077916	0.62594604	-0.44177246	-0.4648285
1442832856467913853	0.49765015	-0.44177246	-0.45870972
1442832856472735630	0.4170227	-0.42100525	-0.44282532
1442832856478015171	0.38648987	-0.37702942	-0.4196167
1442832856482928501	0.39501953	-0.3330536	-0.39152527
1442832856487963902	0.42922974	-0.29884338	-0.36341858
1442832856492938267	0.46955872	-0.2743988	-0.33898926
1442832856498156773	0.5013275	-0.2621765	-0.32188416
1442832856509387242	0.50987244	-0.2731781	-0.29011536
1442832856513079869	0.47444153	-0.43688965	-0.26446533
1442832856518145787	0.40481567	-0.43688965	-0.23149109
1442832856523150669	0.2997284	-0.47842407	-0.19728088
1442832856528369175	0.17024231	-0.48210144	-0.16427612
1442832856533221470	0.027297974	-0.44789124	-0.13130188
1442832856538287388	-0.10952759	-0.3855896	-0.09465027
1442832856543292271	-0.23046875	-0.3025055	-0.054336548
1442832856548510777	-0.32943726	-0.20475769	-0.0054626465
1442832856554339634	-0.4076233	-0.09724426	0.050720215
1442832856558581578	-0.4076233	0.024917603	0.10569763
1442832856561816441	-0.46627808	0.16296387	0.10569763
1442832856568652378	-0.5102539	0.16296387	0.14724731
1442832856573535191	-0.5493469	0.3059082	0.16433716
1442832856578601109	-0.60310364	0.43417358	0.16067505
1442832856583605992	-0.6959381	0.5306854	0.14724731
1442832856589678990	-0.8401184	0.5966644	0.14234924
1442832856596759068	-1.2946014	0.6565399	0.2107544
1442832856603900181	-1.5731506	0.8422394	0.2901764
1442832856608813511	-1.8431549	0.96318054	0.38058472
1442832856612139927	-2.0679474	1.0743713	0.45144653
1442832856618853794	-2.231659	1.1586609	0.48809814
1442832856623858677	-2.3477173	1.2173157	0.49542236
1442832856628924595	-2.4540253	1.2588501	0.4917755
1442832856634112584	-2.5798492	1.2906189	0.49053955
1442832856639483677	-2.7178955	1.3138275	0.48809814
1442832856644183384	-2.8241882	1.3468018	0.48321533
1442832856649035679	-2.8364105	1.4176788	0.48077393
1442832856654925572	-2.7240143	1.5484009	0.49298096
1442832856659106480	-2.7240143	1.7304382	0.49298096
1442832856662493931	-2.5016632	1.7304382	0.5161896
1442832856669177281	-2.2230988	1.9124756	0.5345154
1442832856674243199	-1.946991	2.0126648	0.53086853
1442832856684527623	-1.524292	1.9564514	0.43188477
1442832856689349400	-1.4131012	1.2906189	0.3427124
1442832856694506871	-1.3972168	0.71762085	0.24131775
1442832856699389683	-1.5010834	0.010253906	0.14356995
1442832856704455601	-1.716095	-0.81806946	0.055603027
1442832856709674107	-2.0032043	-1.7282562	-0.011566162
1442832856712817418	-2.2951965	-2.6494446	-0.045776367
1442832856719683873	-2.528534	-3.5009766	-0.03477478
1442832856724566685	-2.6690369	-4.2193604	0.017745972
1442832856729632603	-2.7118073	-4.7678986	0.09837341
1442832856734668003	-2.6849213	-5.133209	0.18389893
1442832856740679966	-2.6213837	-5.3017883	0.2632904
1442832856744921910	-2.5431976	-5.26149	0.3366089
1442832856749774205	-2.4344635	-4.998825	0.41723633
1442832856755938755	-2.2524261	-4.4881287	0.5284271
1442832856759814488	-2.2524261	-3.6903381	0.5284271
1442832856763324009	-1.9641113	-3.6903381	0.6799011
1442832856771868931	-1.2322998	-2.5871124	1.0158844
1442832856775103794	-1.2322998	0.12263489	1.0158844
1442832856780139195	-0.96351624	0.12263489	1.1221619
1442832856785235630	-0.83277893	1.328476	1.1563721
1442832856790087925	-0.8278961	2.2032318	1.1331635
1442832856795092808	-0.90364075	2.7053528	1.0818634
1442832856800250279	-1.008728	2.8861847	1.0378723
1442832856805590855	-1.1125641	2.8397522	1.0183258
1442832856810351597	-1.2041779	2.6479492	1.0268707
1442832856814410435	-1.2725983	2.3706207	1.0561981
1442832856820361363	-1.3068085	2.0505219	1.0989532
1442832856825305210	-1.300705	1.7267609	1.1453857
1442832856830493199	-1.2603912	1.4360046	1.184494
1442832856835406529	-1.200531	1.2038727	1.2064667
1442832856840411412	-1.1357727	1.0511627	1.2064667
1442832856845477330	-1.068573	0.98638916	1.1856995
1442832856850634800	-0.99160767	1.0096283	1.1478424
1442832856860003697	-0.89875793	1.1036835	1.1001892
1442832856863940464	-0.79248047	1.2332001	1.0403137
1442832856870715367	-0.6751709	1.3541412	0.97068787
1442832856875628697	-0.5505676	1.4274445	0.89738464
1442832856880786168	-0.41374207	1.4286652	0.82896423
1442832856885699498	-0.2634735	1.3541412	0.76908875
1442832856891650425	-0.098526	1.2246399	0.7153473
1442832856895800816	0.0712738	1.0731354	0.65792847
1442832856900897251	0.23742676	0.9302063	0.59317017
1442832856906420933	0.3938141	0.80926514	0.51986694
1442832856910907017	0.53063965	0.69563293	0.4416809
1442832856914233433	0.64427185	0.5734558	0.36593628
1442832856920947300	0.7334595	0.43296814	0.29141235
1442832856926043736	0.8030853	0.28269958	0.22175598
1442832856931964146	0.85806274	0.13119507	0.15457153
1442832856936053501	0.9081421	-0.011734009	0.087371826
1442832856948138462	1.0315552	-0.1436615	-0.053100586
1442832856951190220	1.0315552	-0.37335205	-0.053100586
1442832856956408726	1.114624	-0.37335205	-0.12886047
1442832856961261021	1.2148132	-0.46621704	-0.2046051
1442832856964617955	1.321106	-0.5444031	-0.27667236
1442832856971331822	1.4188232	-0.60427856	-0.34265137
1442832856976367222	1.4872437	-0.63237	-0.40252686
1442832856981433140	1.504364	-0.6091614	-0.45994568
1442832856986590611	1.4579468	-0.51997375	-0.5173645
1442832856991992222	1.3394318	-0.35990906	-0.58088684
1442832856996661412	1.1525116	-0.14857483	-0.64442444
1442832857001513707	0.9105835	0.08354187	-0.6932831
1442832857006579625	0.6430359	0.3010254	-0.7091675
1442832857011584507	0.38648987	0.4842682	-0.67251587
1442832857014971959	0.38648987	0.6223297	-0.67251587
1442832857021685826	0.0382843	0.6223297	-0.39762878
1442832857026690709	-0.024017334	0.74816895	-0.1569519
1442832857034655796	-0.024017334	0.75061035	0.11424255
1442832857041796910	0.0382843	0.852005	0.48197937
1442832857046832310	0.0382843	1.0682526	0.5125427
1442832857051898228	0.04194641	1.0682526	0.5125427
1442832857057849156	-0.027664185	1.407898	0.49786377
1442832857061969029	-0.027664185	2.0798492	0.49786377
1442832857065325962	-0.06919861	2.0798492	0.5650635
1442832857072070347	-0.10585022	2.147049	0.6884613
1442832857076983677	-0.14128113	1.9185791	0.82162476
1442832857082232701	-0.16938782	1.4127808	0.9059143
1442832857087146031	-0.1767273	0.72128296	0.88882446
1442832857092150914	-0.15350342	-0.025161743	0.7495575
1442832857098193394	-0.11807251	-0.7032318	0.51130676
1442832857102374302	-0.098526	-1.2322388	0.22055054
1442832857108050572	-0.120513916	-1.5889893	-0.07998657
1442832857112323033	-0.18893433	-1.7954407	-0.36341858
1442832857115802037	-0.18893433	-1.8883057	-0.36341858
1442832857123553501	-0.4308319	-1.8883057	-0.8289032
1442832857127429234	-0.5627899	-1.7746735	-0.9840698
1442832857132617222	-0.65075684	-1.5853119	-1.0646973
1442832857137469517	-0.6495209	-1.3763885	-1.0598145
1442832857142535435	-0.5420227	-1.2114716	-0.965744
1442832857147540318	-0.5420227	-1.121048	-0.965744
1442832857152758824	-0.36608887	-1.121048	-0.7971344
1442832857158038365	-0.19869995	-1.0721893	-0.58454895
1442832857162860142	-0.104644775	-1.0111084	-0.37075806
1442832857166552769	-0.087524414	-0.8999176	-0.18992615
1442832857172900425	-0.10218811	-0.7398834	-0.065322876
1442832857177783238	-0.08508301	-0.5712738	-0.0066986084
1442832857182971226	0.010177612	-0.44177246	-0.014007568
1442832857187823521	0.21665955	-0.37947083	-0.068984985
1442832857192919957	0.54774475	-0.38679504	-0.15206909
1442832857197924839	0.9948883	-0.45521545	-0.25102234
1442832857202929722	1.5129089	-0.5676117	-0.37075806
1442832857208483921	2.0296936	-0.7032318	-0.5185852
1442832857213183628	2.4719543	-0.8424988	-0.6932831
1442832857216296421	2.4719543	-0.99154663	-0.6932831
1442832857223223912	2.9386597	-0.99154663	-1.065918
1442832857228106724	2.9093323	-1.4533691	-1.2162018
1442832857233294712	2.688202	-1.8284454	-1.2992706
1442832857238085972	2.3033752	-2.2829132	-1.3053741
1442832857243914830	1.8256683	-2.7422943	-1.249176
1442832857251055943	1.3443146	-3.0929108	-1.1673126
1442832857258441197	0.93014526	-3.228531	-1.091568
1442832857264361607	0.61250305	-3.0953522	-1.0304871
1442832857274676548	0.24230957	-2.1668549	-0.91929626
1442832857278460728	0.16168213	-1.5511017	-0.8557739
1442832857284106480	0.13967896	-0.9634552	-0.7873535
1442832857288562046	0.17268372	-0.47721863	-0.7189331
1442832857293963658	0.25453186	-0.12901306	-0.65419006
1442832857298785435	0.38648987	0.08721924	-0.59310913
1442832857303637730	0.5721741	0.205719	-0.5393524
1442832857308734166	0.80430603	0.27046204	-0.49415588
1442832857313739048	1.0596466	0.31079102	-0.4465027
1442832857317279087	1.0596466	0.34866333	-0.4465027
1442832857323779332	1.4750366	0.34866333	-0.31455994
1442832857328814732	1.5666656	0.4915924	-0.23513794
1442832857338549839	1.5752106	0.59910583	-0.16915894
1442832857343951451	1.5214539	0.75917053	-0.1239624
1442832857349383580	1.4359436	0.75917053	-0.1056366
1442832857354022251	1.3540802	0.77505493	-0.11053467
1442832857359210240	1.2954407	0.76405334	-0.1398468
1442832857364093052	1.26857	0.74328613	-0.1887207
1442832857367449986	1.2636719	0.72128296	-0.24858093
1442832857374133335	1.2624664	0.70051575	-0.30355835
1442832857379229771	1.2490234	0.68707275	-0.33654785
1442832857384234654	1.2184753	0.69195557	-0.34631348
1442832857389392125	1.1793671	0.7127228	-0.33898926
1442832857394915806	1.1378326	0.7384033	-0.33044434
1442832857399493443	1.0975189	0.760376	-0.32554626
1442832857404376255	1.0462036	0.7677002	-0.32432556
1442832857410205113	0.97535706	0.746933	-0.32310486
1442832857414447056	0.88861084	0.67974854	-0.31578064
1442832857417956578	0.88861084	0.5697937	-0.31578064
1442832857426593052	0.7554321	0.5697937	-0.29499817
1442832857429553257	0.7444458	0.34744263	-0.28767395
1442832857434588658	0.7664337	0.285141	-0.28767395
1442832857441180455	0.8128662	0.25457764	-0.29623413
1442832857445605503	0.88249207	0.25213623	-0.30967712
1442832857450640904	0.97779846	0.27902222	-0.32800293
1442832857454882847	0.97779846	0.33032227	-0.32800293
1442832857460284459	1.0865326	0.33032227	-0.34631348
1442832857464984166	1.1903687	0.38653564	-0.36463928
1442832857468157994	1.272232	0.41952515	-0.38052368
1442832857475024449	1.3272095	0.39997864	-0.3878479
1442832857479876744	1.3565216	0.31323242	-0.38420105
1442832857485095250	1.3540802	0.1605072	-0.37564087
1442832857489947544	1.3113251	-0.03616333	-0.37319946
1442832857495013462	1.2233734	-0.24264526	-0.38664246
1442832857500048863	1.1036224	-0.42712402	-0.41229248
1442832857505206334	0.97291565	-0.5627289	-0.44161987
1442832857515094029	0.7456665	-0.63113403	-0.5002594
1442832857518603550	0.7456665	-0.566391	-0.5002594
1442832857525378453	0.5929413	-0.566391	-0.5466919
1442832857530261265	0.5379791	-0.44665527	-0.54545593
1442832857535449253	0.4940033	-0.44177246	-0.5222473
1442832857540332066	0.4940033	-0.46498108	-0.5222473
1442832857545397984	0.46099854	-0.46498108	-0.4807129
1442832857550402867	0.4353485	-0.48454285	-0.42938232
1442832857555407750	0.4145813	-0.46498108	-0.37686157
1442832857560961949	0.39257813	-0.38679504	-0.32800293
1442832857565631138	0.3657074	-0.26463318	-0.2889099
1442832857568804966	0.3327179	-0.14245605	-0.25590515
1442832857575732457	0.29484558	-0.06793213	-0.22657776
1442832857580615269	0.25453186	-0.058151245	-0.18992615
1442832857585803257	0.20933533	-0.10456848	-0.1410675
1442832857590655552	0.15556335	-0.17910767	-0.081207275
1442832857596484410	0.09448242	-0.26097107	-0.01889038
1442832857603686558	0.026062012	-0.3428192	0.038513184
1442832857607165562	-0.044784546	-0.42712402	0.08981323
1442832857610980259	-0.11807251	-0.5114136	0.13500977
1442832857616595494	-0.20358276	-0.579834	0.17654419
1442832857619189488	-0.20358276	-0.60427856	0.17654419
1442832857626971470	-0.44303894	-0.60427856	0.23887634
1442832857630938755	-0.60188293	-0.4039154	0.23155212
1442832857636035191	-0.60188293	-0.16934204	0.23155212
1442832857641192662	-0.7753601	-0.16934204	0.18510437
1442832857647082554	-1.1418762	0.11286926	0.0605011
1442832857651263462	-1.1418762	0.621109	0.0605011
1442832857656176793	-1.3275757	0.621109	0.05683899
1442832857661212193	-1.5279388	0.7921448	0.11303711
1442832857666217076	-1.7613068	0.9204254	0.21687317
1442832857669726597	-2.0276337	1.0267181	0.3292694
1442832857676257359	-2.2964172	1.1085815	0.41355896
1442832857681292759	-2.5224304	1.1513367	0.45388794
1442832857690539585	-2.7887726	1.1452179	0.46733093
1442832857696429478	-2.8498535	1.0279541	0.4868927
1442832857701464878	-2.8657227	0.9717407	0.51374817
1442832857706469761	-2.8217468	0.9668579	0.54185486
1442832857712146031	-2.7105713	1.0328369	0.57362366
1442832857716571080	-2.541977	1.175766	0.6139374
1442832857719897496	-2.541977	1.381012	0.6139374
1442832857726672398	-2.1314697	1.381012	0.6921387
1442832857731707798	-1.920105	1.8330536	0.6945801
1442832857736712681	-1.920105	1.9637756	0.6945801
1442832857741839634	-1.714859	1.9637756	0.65792847
1442832857747271763	-1.5340576	1.9466858	0.59439087
1442832857751971470	-1.4118805	1.7389984	0.51986694
1442832857756854283	-1.3752289	1.319931	0.4416809
1442832857761889683	-1.4253082	0.69929504	0.3561554
1442832857766925084	-1.5340576	-0.08135986	0.2559662
1442832857770312535	-1.6574402	-0.94880676	0.13868713
1442832857778704869	-1.7637482	-1.8186493	0.01651001
1442832857782916294	-1.8370361	-2.6213226	-0.093429565
1442832857787066685	-1.8883667	-3.3091583	-0.16795349
1442832857793292271	-1.9384308	-3.8613892	-0.1887207
1442832857797808873	-2.0068665	-4.263336	-0.14839172
1442832857802386509	-2.0923767	-4.500351	-0.053100586
1442832857807330357	-2.17424	-4.5638885	0.0776062
1442832857812152134	-2.232895	-4.4661407	0.21931458
1442832857817462193	-2.2561035	-4.2486725	0.3524933
1442832857820636021	-2.2561035	-3.9432373	0.3524933
1442832857827502476	-2.16568	-3.9432373	0.59194946
1442832857832385289	-2.16568	-2.9499817	0.59194946
1442832857837573277	-2.014206	-2.9499817	0.7092285
1442832857842425572	-1.7832794	-2.1082	0.8240814
1442832857847522007	-1.5120544	-1.0123291	0.9254761
1442832857852526890	-1.2616119	0.21792603	1.0073395
1442832857857714878	-1.0795746	1.3883514	1.0610962
1442832857867327916	-0.9378662	2.3205261	1.0757446
1442832857870990025	-0.9378662	3.1781769	1.0598602
1442832857877886998	-0.95251465	3.1684113	1.0513153
1442832857882739293	-0.96839905	2.9936981	1.0561981
1442832857887927281	-0.9806061	2.7371216	1.0708618
1442832857892810093	-0.98916626	2.4451294	1.091629
1442832857897876011	-0.99160767	2.13237	1.1136322
1442832857902850376	-0.98184204	1.8232727	1.130722
1442832857907916294	-0.95251465	1.5581665	1.1429291
1442832857913439976	-0.89997864	1.3761292	1.1514893
1442832857918139683	-0.8303375	1.2906189	1.1514893
1442832857921344029	-0.8303375	1.2857361	1.1514893
1442832857928179966	-0.69229126	1.2857361	1.1111755
1442832857933093296	-0.69229126	1.3932343	1.1111755
1442832857938342320	-0.6336365	1.3932343	1.0745239
1442832857943133580	-0.56889343	1.4457703	1.0305481
1442832857948138462	-0.4870453	1.4775391	0.98413086
1442832857956439244	-0.24758911	1.4860992	0.87905884
1442832857958972203	-0.24758911	1.438446	0.87905884
1442832857963488804	-0.09120178	1.438446	0.81918335
1442832857968920933	0.083496094	1.3553619	0.7519989
1442832857971698033	0.26307678	1.2173157	0.6774597
1442832857979205357	0.43778992	1.0303955	0.598053
1442832857983355748	0.60150146	0.8177948	0.51986694
1442832857988635289	0.7481079	0.6088867	0.44288635
1442832857993609654	0.8788452	0.41952515	0.36470032
1442832857999194371	0.98880005	0.2606964	0.28041077
1442832858003741490	1.0779724	0.13485718	0.19242859
1442832858008654820	1.1488342	0.040802002	0.106918335
1442832858013720738	1.206253	-0.030059814	0.029953003
1442832858018695103	1.2600098	-0.102127075	-0.03845215
1442832858022204625	1.2600098	-0.19987488	-0.03845215
1442832858028765904	1.3162079	-0.19987488	-0.10197449
1442832858033801304	1.3797302	-0.33425903	-0.16671753
1442832858042895543	1.543457	-0.49552917	-0.31211853
1442832858048938023	1.6289825	-0.78752136	-0.39152527
1442832858053851353	1.696167	-0.8742676	-0.47094727
1442832858058978306	1.7291565	-0.9109192	-0.55033875
1442832858064807164	1.7132721	-0.89871216	-0.63342285
1442832858069049107	1.631424	-0.8449402	-0.721405
1442832858072406041	1.4603882	-0.7423248	-0.8069153
1442832858079089390	1.1744843	-0.57006836	-0.8655548
1442832858084155308	0.7676544	-0.3061676	-0.860672
1442832858089312779	0.27163696	0.04814148	-0.74949646
1442832858094226109	-0.23170471	0.4549408	-0.4990387
1442832858099292027	-0.62997437	0.852005	-0.10441589
1442832858104418980	-0.8425598	1.1782074	0.3952484
1442832858109332310	-0.86698914	1.4176788	0.8961487
1442832858114398228	-0.7729187	1.6180267	1.2785645
1442832858119403111	-0.6519623	1.8794861	1.4654846
1442832858122760044	-0.6519623	2.2875366	1.4654846
1442832858131121861	-0.5188141	2.2875366	1.3970642
1442832858135119664	-0.49804688	3.3284454	1.3384247
1442832858139727818	-0.49804688	3.5874481	1.3384247
1442832858145159947	-0.4784851	3.5874481	1.3481903
1442832858149615513	-0.45159912	3.444519	1.4165955
1442832858154528843	-0.4247284	2.888626	1.4923706
1442832858159716832	-0.4125061	2.0407562	1.5155792
1442832858165301548	-0.42227173	1.084137	1.4373932
1442832858169726597	-0.44059753	0.18373108	1.2333527
1442832858173236119	-0.4442749	-0.5615082	0.9120331
1442832858179919468	-0.4100647	-1.1283722	0.51374817
1442832858184863316	-0.33554077	-1.5486603	0.09347534
1442832858190051304	-0.23658752	-1.8736267	-0.30967712
1442832858194903599	-0.13883972	-2.136322	-0.68595886
1442832858199969517	-0.055770874	-2.328125	-1.0414886
1442832858205004918	0.028503418	-2.4087524	-1.3847961
1442832858210162388	0.14457703	-2.3378906	-1.7036438
1442832858219256626	0.32051086	-2.1131134	-1.9638977
1442832858223498570	0.54652405	-1.4142761	-2.119049
1442832858230334507	0.7603302	-1.4142761	-2.122696
1442832858235186802	0.86416626	-1.0697479	-1.9480133
1442832858240405308	0.7835388	-0.76919556	-1.5949249
1442832858245257603	0.51841736	-0.5114136	-1.1074524
1442832858251330601	0.16656494	-0.29638672	-0.5723419
1442832858255328404	-0.14128113	-0.1436615	-0.0897522
1442832858260363804	-0.31233215	-0.06793213	0.2632904
1442832858265918003	-0.31965637	-0.053268433	0.46121216
1442832858270648228	-0.17793274	-0.06549072	0.52108765
1442832858273822056	0.08105469	-0.07525635	0.47833252
1442832858280719029	0.4255829	-0.07771301	0.36470032
1442832858285571324	0.8189697	-0.09236145	0.19610596
1442832858290637242	1.2270203	-0.15101624	-0.017684937
1442832858295764195	1.6106567	-0.2756195	-0.26202393
1442832858307818638	2.168991	-0.47232056	-0.71772766
1442832858311572300	2.2789307	-1.0843964	-0.87776184
1442832858315753209	2.255722	-1.5034637	-0.9901581
1442832858320910679	2.107895	-1.9897003	-1.0732422
1442832858324328648	2.107895	-2.5101624	-1.0732422
1442832858330889927	1.8696442	-2.5101624	-1.1416626
1442832858335894810	1.591095	-3.0086212	-1.1941986
1442832858340960728	1.3284302	-3.4142303	-1.2247314
1442832858346148716	1.1292725	-3.6622467	-1.2284088
1442832858351489293	1.0120087	-3.7172241	-1.210083
1442832858356066929	0.95947266	-3.5840607	-1.1758728
1442832858361071812	0.93382263	-3.293274	-1.1294556
1442832858366626011	0.90449524	-2.8901062	-1.0732422
1442832858371142613	0.86050415	-2.419754	-1.0072784
1442832858374682652	0.8116455	-1.9225159	-0.9339752
1442832858381213414	0.7664337	-1.4350433	-0.8496704
1442832858386248814	0.73101807	-0.97566223	-0.7592621
1442832858394671666	0.7016907	-0.55418396	-0.6749573
1442832858401355015	0.6748047	0.13973999	-0.5588989
1442832858406420933	0.71513367	0.39263916	-0.5173645
1442832858411608921	0.8128662	0.5661316	-0.4721527
1442832858417285191	0.96559143	0.6614227	-0.41229248
1442832858421527134	0.96559143	0.69563293	-0.41229248
1442832858425067173	1.1451569	0.69563293	-0.34020996
1442832858431567418	1.3125458	0.69929504	-0.26446533
1442832858436602818	1.4347076	0.694397	-0.20336914
1442832858441821324	1.4933624	0.68218994	-0.16183472
1442832858446704136	1.4897003	0.6589813	-0.1398468
1442832858451739537	1.437149	0.6223297	-0.13252258
1442832858456866490	1.3504181	0.5710144	-0.1374054
1442832858461779820	1.2477875	0.49771118	-0.14839172
1442832858467883335	1.1439514	0.39997864	-0.1569519
1442832858471881138	1.0535431	0.28878784	-0.1569519
1442832858475238072	0.98635864	0.1898346	-0.14595032
1442832858482104527	0.9399109	0.117752075	-0.13130188
1442832858487048375	0.90449524	0.082336426	-0.1251831
1442832858492175328	0.86660767	0.081100464	-0.13374329
1442832858497210728	0.817749	0.10675049	-0.1557312
1442832858502093541	0.7591095	0.14219666	-0.17771912
1442832858507128941	0.6955719	0.16662598	-0.19116211
1442832858512316929	0.63327026	0.17150879	-0.19116211
1442832858517626988	0.58561707	0.16174316	-0.17895508
1442832858522387730	0.58561707	0.15562439	-0.17895508
1442832858526446568	0.56484985	0.15562439	-0.16183472
1442832858532458531	0.57463074	0.16662598	-0.14962769
1442832858537341343	0.61494446	0.19715881	-0.14839172
1442832858542529332	0.6796875	0.23869324	-0.16062927
1442832858547412144	0.7639923	0.2875824	-0.18383789
1442832858553424107	0.85806274	0.337677	-0.21192932
1442832858557452427	0.95214844	0.37675476	-0.24369812
1442832858564440953	1.0352173	0.39019775	-0.27423096
1442832858568164097	1.0950775	0.37065125	-0.30355835
1442832858572802769	1.1231842	0.31445313	-0.33044434
1442832858575976597	1.1195068	0.23016357	-0.35365295
1442832858582782017	1.0950775	0.12387085	-0.37442017
1442832858587695347	1.0584259	-0.003189087	-0.39396667
1442832858592883335	1.0156708	-0.14613342	-0.41229248
1442832858597766148	0.9667969	-0.2939453	-0.4306183
1442832858602832066	0.9105835	-0.43322754	-0.45018005
1442832858607836949	0.85072327	-0.5553894	-0.4697113
1442832858613024937	0.78842163	-0.65802	-0.49047852
1442832858618365513	0.72612	-0.7350006	-0.5112457
1442832858623126255	0.72612	-0.78019714	-0.5112457
1442832858626300084	0.6638031	-0.78019714	-0.5283661
1442832858632891880	0.6088257	-0.78752136	-0.5405731
1442832858638049351	0.56851196	-0.7582092	-0.5442505
1442832858643969761	0.54530334	-0.698349	-0.5356903
1442832858651538121	0.5391998	-0.6140442	-0.46850586
1442832858658343541	0.54530334	-0.39656067	-0.4086151
1442832858663348423	0.55384827	-0.2768402	-0.34509277
1442832858668322789	0.56484985	-0.1595459	-0.28401184
1442832858673266636	0.56607056	-0.058151245	-0.2339325
1442832858676623570	0.54408264	0.0041503906	-0.19483948
1442832858683367955	0.4805603	0.0078125	-0.16671753
1442832858688403355	0.3718109	-0.05204773	-0.14839172
1442832858693438755	0.22033691	-0.15834045	-0.13130188
1442832858698596226	0.043182373	-0.2743988	-0.11053467
1442832858703997837	-0.13639832	-0.35746765	-0.077545166
1442832858708575474	-0.29644775	-0.37579346	-0.03477478
1442832858713580357	-0.29644775	-0.3196106	0.020187378
1442832858719470250	-0.52490234	-0.3196106	0.08493042
1442832858723620640	-0.52490234	-0.045944214	0.08493042
1442832858727191197	-0.60310364	-0.045944214	0.15701294
1442832858739611851	-0.74238586	0.12753296	0.287735
1442832858743762242	-0.8230133	0.6052246	0.31828308
1442832858748797642	-0.92074585	0.6052246	0.3085022
1442832858754626500	-1.0368195	0.6907501	0.2584076
1442832858758898960	-1.1760864	0.7408447	0.19366455
1442832858764056431	-1.3459167	0.79582214	0.15213013
1442832858769946324	-1.5609283	0.8959961	0.15945435
1442832858774005162	-1.8358154	1.0401611	0.20954895
1442832858777514683	-2.1730042	1.1891937	0.274292
1442832858784228550	-2.5358734	1.2869415	0.3243866
1442832858789111363	-2.8620758	1.3162689	0.3463745
1442832858794268834	-3.0844269	1.3077087	0.340271
1442832858800524937	-3.1785126	1.3089447	0.31828308
1442832858805194126	-3.152832	1.3443604	0.29995728
1442832858810351597	-3.0379944	1.41156	0.29873657
1442832858814440953	-3.0379944	1.4934235	0.3207245
1442832858819964634	-2.6470337	1.4934235	0.3585968
1442832858826953160	-2.4173737	1.6607819	0.39768982
1442832858834582554	-2.1986847	1.7292023	0.4209137
1442832858839434849	-2.01297	1.7682953	0.40867615
1442832858844653355	-1.8700256	1.7634125	0.3585968
1442832858849536168	-1.7735138	1.6913452	0.287735
1442832858854632603	-1.728302	1.5117493	0.2290802
1442832858859606968	-1.7466278	1.1867523	0.2107544
1442832858864733921	-1.8394928	0.68707275	0.24131775
1442832858870257603	-2.0019684	4.8828125E-4	0.3097229
1442832858874835240	-2.1950073	-0.84617615	0.38790894
1442832858878253209	-2.367279	-1.7868958	0.4441223
1442832858884875523	-2.477234	-2.7251892	0.45877075
1442832858889819371	-2.5175476	-3.5693817	0.4343567
1442832858894976841	-2.5077667	-4.2669983	0.39646912
1442832858899920689	-2.4686737	-4.7947845	0.36958313
1442832858904895054	-2.4149323	-5.141754	0.3769226
1442832858913531529	-2.3465118	-5.2895813	0.42700195
1442832858920031773	-2.2426605	-5.222397	0.52108765
1442832858925036656	-2.0557404	-4.9084015	0.65792847
1442832858928454625	-1.7490692	-4.275543	0.83018494
1442832858935290562	-1.3434601	-3.2578583	1.0207825
1442832858940173375	-0.94151306	-1.8919525	1.2015839
1442832858945208775	-0.6568451	-0.3855896	1.3384247
1442832858950427281	-0.53834534	0.97050476	1.4105072
1442832858956042515	-0.55178833	1.9564514	1.4263916
1442832858960284459	-0.62875366	2.5208893	1.4092712
1442832858966754185	-0.7154999	2.7469177	1.3860626
1442832858971087681	-0.7888031	2.7615662	1.3726196
1442832858976245152	-0.83522034	2.6650543	1.3689728
1442832858978778111	-0.83522034	2.5111084	1.3689728
1442832858986499058	-0.8621063	2.5111084	1.3689728
1442832858990527378	-0.8584442	2.1177216	1.362854
1442832859001727330	-0.8254547	1.9222412	1.3274231
1442832859005603062	-0.8254547	1.6632385	1.3078766
1442832859010821568	-0.7936859	1.6290283	1.3078766
1442832859015734898	-0.75582886	1.6290283	1.2980957
1442832859020892369	-0.7118225	1.6534576	1.2980957
1442832859025775181	-0.66052246	1.7194366	1.2980957
1442832859029132115	-0.59576416	1.8086243	1.2822266
1442832859035845982	-0.50901794	1.901474	1.2480164
1442832859040881382	-0.3990631	1.9772186	1.2028198
1442832859045916783	-0.26467896	2.0126648	1.1539307
1442832859051074253	-0.10952759	1.9918671	1.1038513
1442832859056475865	0.055389404	1.9039154	1.0500946
1442832859061175572	0.22398376	1.7475281	0.9853363
1442832859066027867	0.39013672	1.5386353	0.9059143
1442832859071734654	0.54408264	1.3077087	0.8106384
1442832859076129185	0.6796875	1.0853577	0.7092285
1442832859079638707	0.6796875	0.8837738	0.7092285
1442832859089038121	0.9008179	0.8837738	0.50642395
1442832859096270787	1.0584259	0.33399963	0.2950592
1442832859101458775	1.1109619	0.1763916	0.16801453
1442832859106982457	1.1500702	0.024917603	0.027511597
1442832859111529576	1.1500702	-0.13269043	0.027511597
1442832859116412388	1.1854858	-0.13269043	-0.11053467
1442832859121478306	1.2258148	-0.3037262	-0.24002075
1442832859126483189	1.2795563	-0.47842407	-0.3670807
1442832859129992710	1.3479767	-0.64945984	-0.5002594
1442832859136706578	1.424942	-0.81684875	-0.6395416
1442832859142443882	1.5055847	-0.9805603	-0.7800293
1442832859146746861	1.5800934	-1.1271667	-0.91441345
1442832859152240025	1.6350708	-1.2310181	-1.0402527
1442832859156695591	1.6521912	-1.2639923	-1.1526642
1442832859162310826	1.6020966	-1.1980286	-1.2442932
1442832859166735875	1.451828	-1.007431	-1.2980499
1442832859178210484	0.72612	-0.67022705	-1.2345276
1442832859181872593	0.18121338	0.44273376	-1.0842438
1442832859187060582	-0.3599701	1.1207886	-0.8325653
1442832859191943394	-0.7570343	1.7499695	-0.47827148
1442832859197131382	-0.91952515	2.2362366	-0.05189514
1442832859202044712	-0.86576843	2.5379944	0.38180542
1442832859207080113	-0.86576843	2.688263	0.38180542
1442832859212084996	-0.70085144	2.688263	0.75320435
1442832859217272984	-0.5371399	2.7737732	1.0207825
1442832859222735630	-0.4247284	2.862976	1.1856995
1442832859227313267	-0.34410095	2.9399261	1.2822266
1442832859231127964	-0.26712036	2.8922882	1.3457489
1442832859237414585	-0.19137573	2.5856476	1.3872986
1442832859242327916	-0.13883972	1.9784546	1.3933868
1442832859247515904	-0.1302948	1.1549988	1.3225403
1442832859252337681	-0.15960693	0.29122925	1.1404877
1442832859257281529	-0.20726013	-0.44544983	0.84117126
1442832859265399205	-0.25003052	-0.9585724	0.46488953
1442832859272479283	-0.28668213	-1.3861847	-0.25958252
1442832859277545201	-0.2610321	-1.4851379	-0.5259247
1442832859280902134	-0.2610321	-1.6182861	-0.5259247
1442832859287738072	-0.024017334	-1.6182861	-0.8826599
1442832859292651402	0.19833374	-1.9921417	-1.0280457
1442832859297686802	0.4646759	-2.1155548	-1.1893158
1442832859302905308	0.7505493	-2.121643	-1.376236
1442832859308856236	1.0352173	-2.0019226	-1.5704956
1442832859312793003	1.0352173	-1.7905579	-1.5704956
1442832859319140660	1.4860382	-1.7905579	-1.7867432
1442832859323474156	1.4860382	-1.3275299	-1.7867432
1442832859328509556	1.5263519	-1.3275299	-1.6841125
1442832859331256138	1.3479767	-1.1406097	-1.3798981
1442832859338214146	0.94847107	-0.9634552	-0.8973236
1442832859343005406	0.4255829	-0.77163696	-0.33898926
1442832859353259312	-0.41862488	-0.5786133	0.5003052
1442832859358020054	-0.57499695	-0.3587036	0.6725769
1442832859363147007	-0.5371399	-0.36235046	0.70558167
1442832859368182408	-0.32699585	-0.39656067	0.63716125
1442832859373370396	0.011413574	-0.40512085	0.48077393
1442832859378222691	0.42190552	-0.35746765	0.2425232
1442832859381610142	0.42190552	-0.2731781	0.2425232
1442832859388324009	1.2294617	-0.2731781	-0.4306183
1442832859393359410	1.5324554	-0.22796631	-0.8069153
1442832859398394810	1.5324554	-0.37091064	-1.1538696
1442832859403582798	1.7340393	-0.37091064	-1.1538696
1442832859409075962	1.8378906	-0.6421356	-1.6621094
1442832859413653599	1.8378906	-1.4191589	-1.6621094
1442832859418505894	1.7816925	-1.4191589	-1.8246155
1442832859424182164	1.6925049	-1.7978821	-1.9345703
1442832859428607212	1.591095	-2.083786	-1.9907532
1442832859431933628	1.4823608	-2.245041	-1.9797821
1442832859440600621	1.3565216	-2.2853546	-1.8856812
1442832859443682896	1.19281	-2.214508	-1.7024384
1442832859448870884	0.9765625	-2.0239105	-1.4470978
1442832859453875767	0.71269226	-1.6928253	-1.1673126
1442832859459826695	0.4280243	-1.2163544	-0.9156494
1442832859463977085	0.17268372	-0.6299286	-0.72628784
1442832859468890416	0.012634277	-0.014175415	-0.6053314
1442832859473956334	0.007736206	0.53804016	-0.536911
1442832859478961216	0.18244934	0.9436493	-0.5014801
1442832859482470738	0.18244934	1.1452179	-0.5014801
1442832859489184605	0.90449524	1.1452179	-0.42329407
1442832859494494664	1.2697906	0.9558563	-0.33776855
1442832859499285923	1.2697906	0.69563293	-0.21681213
1442832859504351841	1.5251312	0.43785095	-0.21681213
1442832859509204136	1.6460724	0.43785095	-0.08731079
1442832859514086949	1.6533966	0.23136902	0.022628784
1442832859519397007	1.5862122	0.08354187	0.087371826
1442832859529162632	1.3687439	-0.025161743	0.07270813
1442832859533740269	1.2771149	-0.15834045	0.010406494
1442832859539508091	1.2172546	-0.16810608	-0.068984985
1442832859544390904	1.1916046	-0.13269043	-0.14595032
1442832859549578892	1.1842804	-0.058151245	-0.20581055
1442832859554492222	1.1769257	0.043258667	-0.24002075
1442832859559558140	1.1573944	0.1592865	-0.2522583
1442832859564532505	1.1243896	0.2741394	-0.25102234
1442832859569567906	1.0901947	0.36332703	-0.2498169
1442832859575274693	1.0584259	0.40486145	-0.25346375
1442832859579852330	1.0327759	0.39630127	-0.2657013
1442832859583026158	1.0327759	0.36454773	-0.2657013
1442832859589862095	0.9900055	0.36454773	-0.29255676
1442832859594775425	0.9900055	0.35110474	-0.30233765
1442832859599963414	0.9790039	0.35110474	-0.30233765
1442832859604815709	0.9814606	0.39752197	-0.31088257
1442832859616961705	1.0315552	0.47450256	-0.34631348
1442832859619952427	1.0315552	0.71151733	-0.34631348
1442832859625109898	1.0511017	0.71151733	-0.35731506
1442832859630023228	1.075531	0.73960876	-0.36097717
1442832859633349644	1.114624	0.72740173	-0.36097717
1442832859640246617	1.1659241	0.6724243	-0.35853577
1442832859645129429	1.2184753	0.58322144	-0.35609436
1442832859650073277	1.2575684	0.4781494	-0.35487366
1442832859655200230	1.2697906	0.37187195	-0.35487366
