gyroscope_timestamp	gyroscope_x_data	gyroscope_y_data	gyroscope_z_data
13896931489340	0.4002838	0.006881714	0.2459259
13896934357992	0.422287	0.46012878	0.24468994
13896939454428	0.4271698	0.5151062	0.25689697
13896944947592	0.41496277	0.5664215	0.28378296
13896949494711	0.38684082	0.61161804	0.32287598
13896954499594	0.34898376	0.64826965	0.3656311
13896959992758	0.3098755	0.67759705	0.40351868
13896964539877	0.3098755	0.69958496	0.40351868
13896967927328	0.27934265	0.69958496	0.4267273
13896974641195	0.26345825	0.7191467	0.42796326
13896979676596	0.26589966	0.738678	0.4096222
13896984711996	0.28788757	0.75579834	0.37786865
13896989777914	0.32453918	0.777771	0.33998108
13896995057455	0.3660736	0.80589294	0.30088806
13896999818197	0.40396118	0.8388672	0.26545715
13897004884115	0.4381714	0.8681946	0.23612976
13897010346762	0.47358704	0.8840637	0.21292114
13897014924398	0.51145935	0.8914032	0.19947815
13897018311850	0.54811096	0.9072876	0.20191956
13897024995199	0.57743835	0.9500427	0.2276001
13897030030600	0.58843994	1.0209045	0.28012085
13897035066000	0.5713196	1.1088562	0.34976196
13897040101400	0.52490234	1.206604	0.4181671
13897045411459	0.45526123	1.3165741	0.4719391
13897050172201	0.37219238	1.4521637	0.50491333
13897055207602	0.28666687	1.6195526	0.5183563
13897060517660	0.20968628	1.8076935	0.5110321
13897065278402	0.14738464	1.9946136	0.4878235
13897068635336	0.14738464	2.159546	0.4878235
13897075349203	0.05697632	2.159546	0.3912964
13897080415121	0.014221191	2.4039001	0.32287598
13897085450522	-0.028533936	2.4784088	0.24957275
13897090455404	-0.06640625	2.5077362	0.18482971
13897095948568	-0.08961487	2.4784088	0.1322937
13897100526205	-0.08961487	2.3843384	0.089538574
13897105561606	-0.08717346	2.2340698	0.089538574
13897111024252	0.0019989014	2.2340698	0.007675171
13897115632406	0.0019989014	1.8247986	0.007675171
13897118989340	0.08630371	1.8247986	-0.031402588
13897125733725	0.1962738	1.5853424	-0.0680542
13897130738607	0.3318634	1.3226624	-0.09738159
13897135804525	0.48947144	1.0441132	-0.12059021
13897140809408	0.6629486	0.7618866	-0.13645935
13897146302572	0.84010315	0.4992218	-0.13891602
13897150910727	1.0050354	0.26708984	-0.11936951
13897155946127	1.1394196	0.07041931	-0.07537842
13897161439291	1.2286224	-0.09085083	-0.0069732666
13897165986410	1.2664948	-0.21546936	0.073654175
13897169373861	1.2542725	-0.3009796	0.15428162
13897176057211	1.199295	-0.34739685	0.22024536
13897181092611	1.1137695	-0.35231018	0.26545715
13897186128012	1.0050354	-0.31809998	0.28256226
13897191163412	0.8804321	-0.25212097	0.26669312
13897196473471	0.7496948	-0.16291809	0.21536255
13897201234213	0.62265015	-0.0627594	0.13595581
13897206300131	0.50779724	0.038650513	0.040664673
13897211640707	0.41004944	0.13392639	-0.057052612
13897216340414	0.3269806	0.2157898	-0.1511383
13897219727865	0.3269806	0.2793274	-0.1511383
13897226411215	0.20968628	0.2793274	-0.30262756
13897231446615	0.17915344	0.34283447	-0.35638428
13897236543051	0.16694641	0.35263062	-0.39179993
13897241517416	0.16938782	0.35995483	-0.4089203
13897247346273	0.1803894	0.37339783	-0.41012573
13897251588217	0.1803894	0.39904785	-0.41012573
13897256623617	0.19015503	0.39904785	-0.3954773
13897261964193	0.18891907	0.43569946	-0.3673706
13897266694418	0.17427063	0.4772339	-0.32339478
13897270051352	0.14738464	0.51387024	-0.2671814
13897276765219	0.1144104	0.5383148	-0.20367432
13897281861654	0.083862305	0.546875	-0.14135742
13897286836020	0.06309509	0.5383148	-0.090042114
13897291871420	0.05697632	0.51634216	-0.055847168
13897297364584	0.067977905	0.48701477	-0.042404175
13897301972738	0.098526	0.45646667	-0.053390503
13897306977621	0.14494324	0.43203735	-0.0851593
13897312836996	0.20359802	0.41371155	-0.13279724
13897317048422	0.26956177	0.39782715	-0.18411255
13897320374838	0.3282013	0.38072205	-0.22444153
13897327149740	0.35995483	0.36239624	-0.23908997
13897332154623	0.342865	0.34039307	-0.21832275
13897337190023	0.27078247	0.3135376	-0.16212463
13897342225424	0.16571045	0.27685547	-0.08149719
13897347688070	0.064315796	0.22311401	0.0040130615
13897352326742	0.0044403076	0.14859009	0.07975769
13897357331625	-4.4250488E-4	0.05821228	0.13961792
13897363191000	0.034988403	-0.032211304	0.1799469
13897367402426	0.080200195	-0.10549927	0.20559692
13897370789877	0.080200195	-0.14950562	0.20559692
13897377473227	0.09729004	-0.14950562	0.21780396
13897382508627	0.05819702	-0.14950562	0.20683289
13897387574545	0.008117676	-0.11038208	0.18115234
13897392579428	0.008117676	-0.051757813	0.18115234
13897398286215	-0.05418396	-0.051757813	0.08831787
13897402650229	-0.05418396	0.082611084	0.08831787
13897407716147	-0.057861328	0.082611084	0.027236938
13897412995688	-0.05053711	0.1375885	-0.035079956
13897417756430	-0.039535522	0.17546082	-0.09614563
13897421113363	-0.027313232	0.19012451	-0.14868164
13897427918783	-0.019973755	0.18035889	-0.18411255
13897432862631	-0.023651123	0.14736938	-0.19876099
13897437959066	-0.039535522	0.09605408	-0.19023132
13897442902914	-0.067611694	0.030090332	-0.16090393
13897448792807	-0.104263306	-0.045639038	-0.114471436
13897453034750	-0.1360321	-0.13117981	-0.055847168
13897458039633	-0.1494751	-0.22645569	0.0040130615
13897463410727	-0.13237	-0.32662964	0.057769775
13897468140951	-0.08717346	-0.41581726	0.1005249
13897471497885	-0.032211304	-0.46714783	0.1322937
13897478211752	0.0154418945	-0.45370483	0.15550232
13897483216635	0.041107178	-0.36328125	0.17262268
13897488435141	0.044769287	-0.1971283	0.18603516
13897493745199	0.028884888	0.027648926	0.19703674
13897499146811	-0.001663208	0.2866516	0.20683289
13897503358236	-0.051742554	0.5554352	0.21292114
13897508393637	-0.14703369	0.8095398	0.21659851
13897513825766	-0.30586243	1.035553	0.21903992
13897518464438	-0.5111084	1.2127075	0.22148132
13897521821371	-0.5111084	1.3080139	0.22148132
13897528535238	-0.778656	1.3080139	0.1958313
13897533570639	-0.7187958	1.140625	0.14450073
13897538606039	-0.7187958	0.9121704	0.14450073
13897543641440	-0.54164124	0.9121704	0.073654175
13897548951498	-0.32174683	0.6543884	0.0064697266
13897553712240	-0.12870789	0.41125488	-0.031402588
13897558747641	0.0032348633	0.1999054	-0.03262329
13897564240805	0.08508301	0.028884888	-0.0045318604
13897568818441	0.14494324	-0.09817505	0.034561157
13897572175375	0.20603943	-0.18371582	0.07487488
13897578889242	0.26956177	-0.24234009	0.105407715
13897583924643	0.32087708	-0.2948761	0.12373352
13897588960043	0.33918762	-0.3547516	0.12617493
13897593995443	0.3098755	-0.4256134	0.1151886
13897599336020	0.22924805	-0.50502014	0.09564209
13897610078207	-0.084732056	-0.5868683	0.03944397
13897614076010	-0.30830383	-0.78601074	0.0064697266
13897619172445	-0.5660858	-0.78601074	-0.031402588
13897622559897	-0.8470764	-0.81777954	-0.07293701
13897629273764	-1.1354065	-0.81777954	-0.114471436
13897634309164	-1.4115143	-0.78234863	-0.15357971
13897639344565	-1.6607361	-0.71881104	-0.19023132
13897644349447	-1.867218	-0.63694763	-0.22932434
13897649873129	-2.0223846	-0.5404358	-0.27330017
13897654420248	-2.1139984	-0.423172	-0.317276
13897659455648	-2.1323242	-0.2802124	-0.3502655
13897664918295	-2.072464	-0.12138367	-0.3637085
13897669526449	-1.945404	0.034988403	-0.3527069
13897672883383	-1.945404	0.16447449	-0.3527069
13897679627768	-1.7682495	0.16447449	-0.27330017
13897684632650	-1.5605621	0.29641724	-0.27330017
13897689668051	-1.3443146	0.29641724	-0.21220398
13897694703451	-1.1366272	0.29397583	-0.13769531
13897700166098	-0.95581055	0.2475586	-0.0521698
13897704774252	-0.817749	0.16569519	0.037002563
13897709809652	-0.7346802	0.06674194	0.12373352
13897715241781	-0.71391296	-0.029769897	0.19947815
13897719849936	-0.75665283	-0.10673523	0.25935364
13897723237387	-0.85440063	-0.15803528	0.30332947
13897729951254	-0.99490356	-0.18736267	0.32899475
13897734986654	-1.1671753	-0.20324707	0.33143616
13897740022055	-1.360199	-0.20812988	0.29722595
13897745057455	-1.5642395	-0.20202637	0.21903992
13897750306479	-1.7646027	-0.17759705	0.10418701
13897755097738	-1.9490814	-0.12994385	-0.03262329
13897760133139	-2.1042328	-0.063964844	-0.17555237
13897765412680	-2.2141876	-0.009002686	-0.30751038
13897770234457	-2.2654877	0.0044403076	-0.42356873
13897773621908	-2.2508392	-0.04197693	-0.52008057
13897780305258	-2.1689758	-0.13606262	-0.59706116
13897785279623	-2.0272675	-0.24845886	-0.6520386
13897790376059	-1.8403473	-0.35107422	-0.6764679
13897795411459	-1.6240997	-0.423172	-0.66181946
13897800813070	-1.3919678	-0.45370483	-0.6043854
13897805482260	-1.1476135	-0.43904114	-0.5091095
13897810517660	-0.88983154	-0.3865204	-0.38815308
13897820252768	-0.62228394	-0.3107605	-0.26353455
13897823914877	-0.35838318	-0.16659546	-0.1511383
13897830659262	-0.11526489	-0.16659546	-0.0680542
13897835694662	0.09120178	-0.12750244	-0.021636963
13897840730063	0.25245667	-0.12382507	-0.010650635
13897845765463	0.3660736	-0.15927124	-0.02407837
13897851136557	0.42837524	-0.22769165	-0.054611206
13897855836264	0.4406128	-0.3119812	-0.09126282
13897860871664	0.40396118	-0.3938446	-0.12425232
13897866273275	0.33065796	-0.46102905	-0.14868164
13897870972982	0.23657227	-0.51356506	-0.15846252
13897874299398	0.13517761	-0.5538788	-0.15357971
13897881013266	0.03742981	-0.5819702	-0.14013672
13897886018148	-0.055419922	-0.588089	-0.12425232
13897891053549	-0.14459229	-0.56243896	-0.110809326
13897896088949	-0.23132324	-0.49645996	-0.10714722
13897901368490	-0.30830383	-0.396286	-0.12059021
13897906190268	-0.36816406	-0.277771	-0.14990234
13897911225668	-0.40603638	-0.15682983	-0.19143677
13897916657797	-0.41947937	-0.046875	-0.23297119
13897921357504	-0.4121399	0.04597473	-0.2671814
13897924653402	-0.4121399	0.12294006	-0.2671814
13897931336752	-0.35838318	0.12294006	-0.29040527
13897936372152	-0.32539368	0.2548828	-0.27085876
13897941468588	-0.28997803	0.32450867	-0.23052979
13897946503988	-0.24964905	0.40393066	-0.17799377
13897951753012	-0.2007904	0.4857788	-0.12059021
13897956544272	-0.13725281	0.5493164	-0.06561279
13897961579672	-0.059066772	0.5713196	-0.013092041
13897966828695	0.027664185	0.5444336	0.03211975
13897971619955	0.027664185	0.480896	0.03211975
13897975007406	0.10707092	0.480896	0.06877136
13897981690756	0.1620636	0.39904785	0.09197998
13897986756674	0.18771362	0.30986023	0.10296631
13897991822592	0.18771362	0.2182312	0.10296631
13897996827475	0.17182922	0.13392639	0.09442139
13898002290121	0.1437378	0.0655365	0.07487488
13898006867758	0.10462952	0.013000488	0.04676819
13898011903158	0.052093506	-0.032211304	0.007675171
13898017152182	-0.017532349	-0.07496643	-0.037521362
13898021973959	-0.10305786	-0.100616455	-0.08760071
13898025330893	-0.20323181	-0.088409424	-0.13279724
13898032075277	-0.31684875	-0.02609253	-0.16456604
13898037110678	-0.4341278	0.07896423	-0.17922974
13898042115561	-0.54408264	0.2035675	-0.18045044
13898047181479	-0.63327026	0.32330322	-0.17678833
13898052552572	-0.6943512	0.4308014	-0.17311096
13898057252279	-0.72491455	0.5309906	-0.17434692
13898062318197	-0.73223877	0.64094543	-0.18167114
13898067750326	-0.7151184	0.7667694	-0.19631958
13898072388998	-0.6711426	0.8938446	-0.22564697
13898075684897	-0.6711426	0.99645996	-0.22564697
13898082398764	-0.468338	0.99645996	-0.35760498
13898087434164	-0.30706787	1.0270233	-0.4614563
13898092469565	-0.12747192	0.948822	-0.57873535
13898097504965	0.041107178	0.82910156	-0.69602966
13898102753988	0.17915344	0.6873779	-0.80352783
13898107575766	0.27812195	0.53466797	-0.89637756
13898112611166	0.27812195	0.38438416	-0.9684601
13898118043295	0.36486816	0.25976563	-1.017334
13898122712484	0.36486816	0.18890381	-1.017334
13898126069418	0.36486816	0.18890381	-1.0381012
13898132783285	0.33554077	0.19012451	-1.0283203
13898137788168	0.26956177	0.26464844	-0.98313904
13898142854086	0.15470886	0.40637207	-0.89759827
13898147889486	-0.017532349	0.6152954	-0.7803192
13898153199545	-0.24108887	0.8914032	-0.64593506
13898157960287	-0.48054504	1.2188263	-0.51763916
13898162995688	-0.69802856	1.5474701	-0.4028015
13898168244711	-0.8666229	1.8089142	-0.30384827
13898173066488	-0.98513794	1.957962	-0.21343994
13898176423422	-1.063324	1.9946136	-0.12913513
13898183137289	-1.1048584	1.9652863	-0.054611206
13898188142172	-1.1060791	1.918869	0.011352539
13898193208090	-1.0706482	1.8858795	0.0663147
13898198243490	-1.0254364	1.8748932	0.11885071
13898203614584	-1.0010223	1.8846588	0.17015076
13898208314291	-1.0083466	1.9029846	0.21047974
13898213349691	-1.024231	1.9115448	0.2300415
13898218781820	-1.024231	1.905426	0.22268677
13898223389975	-0.99858093	1.905426	0.18482971
13898226777426	-0.99858093	1.9335327	0.18482971
13898233491293	-0.92648315	1.9335327	0.02355957
13898238496176	-0.90571594	2.0532684	-0.09248352
13898243531576	-0.8983917	2.1399994	-0.21708679
13898248597494	-0.897171	2.2633972	-0.33805847
13898253846518	-0.89105225	2.42099	-0.45410156
13898258668295	-0.89105225	2.5761566	-0.56895447
13898263703695	-0.87272644	2.5761566	-0.56895447
13898269166342	-0.7982178	2.688568	-0.8010864
13898273774496	-0.7982178	2.7019806	-0.8010864
13898277131430	-0.753006	2.7019806	-0.9147186
13898283845297	-0.71635437	2.622589	-1.0258789
13898288880697	-0.69802856	2.4930878	-1.1394958
13898293916098	-0.712677	2.2963715	-1.2604523
13898298951498	-0.77500916	2.0312653	-1.3899536
13898304200522	-0.90083313	1.7514801	-1.5255737
13898309052816	-1.0926514	1.5523529	-1.6599579
13898314057699	-1.3235474	1.5108185	-1.7906799
13898319367758	-1.5483551	1.6390991	-1.9275208
13898324128500	-1.7193909	1.879776	-2.087555
13898327485434	-1.8049011	2.1448822	-2.2793732
13898334199301	-1.8036957	2.3538055	-2.4944
13898339204184	-1.7364807	2.474762	-2.716751
13898344270102	-1.635086	2.5248566	-2.9293213
13898349336020	-1.5361176	2.5615082	-3.1174774
13898354676596	-1.4676971	2.6482391	-3.2640839
13898359376303	-1.4457245	2.8180542	-3.3496094
13898364411703	-1.4603729	3.0648499	-3.371582
13898369691244	-1.4848175	3.35318	-3.355713
13898374513022	-1.4884949	3.6488342	-3.347168
13898377839438	-1.4884949	3.9310608	-3.347168
13898384553305	-1.399292	3.9310608	-3.4705658
13898389619223	-1.338211	4.445389	-3.6073914
13898394624106	-1.2771301	4.650635	-3.7601013
13898399659506	-1.1855011	4.750824	-3.8859406
13898405061117	-1.0169067	4.6775208	-3.940918
13898409760824	-1.0169067	4.3940887	-3.940918
13898414826742	-0.75177	4.3940887	-3.903061
13898420503012	-0.08717346	3.926178	-3.5365295
13898424836508	-0.08717346	2.78508	-3.5365295
13898428193441	0.18647766	2.78508	-3.2445374
13898434907309	0.3636322	2.2756042	-2.9244385
13898439912191	0.43937683	1.8480072	-2.599472
13898444947592	0.4271698	1.4936981	-2.2830353
13898450013510	0.35507202	1.206604	-1.975174
13898455293051	0.25001526	0.9854584	-1.6819458
13898460114828	0.13638306	0.816864	-1.4156036
13898465119711	0.041107178	0.68981934	-1.1932678
13898470887533	-0.016326904	0.6055145	-1.0234375
13898475190512	-0.028533936	0.57496643	-0.89027405
13898478577963	-0.0065460205	0.6104126	-0.7607727
13898485261313	0.03010559	0.69104004	-0.61294556
13898490296713	0.07531738	0.7692108	-0.45166016
13898495362631	0.13882446	0.79244995	-0.31362915
13898500367514	0.23657227	0.73747253	-0.22564697
13898505677572	0.3770752	0.6189575	-0.19143677
13898510438315	0.55055237	0.47113037	-0.19267273
13898515473715	0.7399292	0.32086182	-0.20732117
13898520783773	0.9256439	0.17301941	-0.22320557
13898525513998	1.0917816	0.026443481	-0.23664856
13898528931967	1.0917816	-0.11161804	-0.23664856
13898535615316	1.3324585	-0.11161804	-0.25865173
13898540681234	1.3886719	-0.291214	-0.27209473
13898545686117	1.3911133	-0.3070984	-0.2855072
13898550721518	1.3911133	-0.2753296	-0.2855072
13898556153647	1.248169	-0.2753296	-0.2830658
13898560822836	1.248169	-0.14950562	-0.2830658
13898565827719	1.1406555	-0.14950562	-0.25009155
13898571565023	1.0380249	-0.09085083	-0.19631958
13898575898520	0.95617676	-0.048080444	-0.13401794
13898579285971	0.897522	-0.023651123	-0.07537842
13898585969320	0.8621063	-0.02243042	-0.028961182
13898591035238	0.84866333	-0.044418335	0.0027923584
13898596040121	0.85842896	-0.0786438	0.028442383
13898601075522	0.89263916	-0.10549927	0.061431885
13898606416098	0.95373535	-0.116500854	0.11152649
13898611146322	1.0368042	-0.12138367	0.18603516
13898616181723	1.1369781	-0.13606262	0.28256226
13898623628012	1.2567139	-0.16903687	0.4022827
13898626283041	1.3935547	-0.20448303	0.5452423
13898629609457	1.548706	-0.21669006	0.7003937
13898636323324	1.714859	-0.19836426	0.83721924
13898641328207	1.872467	-0.16659546	0.91296387
13898646394125	1.9909668	-0.15071106	0.89463806
13898651429525	2.0410614	-0.16415405	0.7859192
13898656709066	2.0044098	-0.19224548	0.60876465
13898661530844	1.8834686	-0.20202637	0.40472412
13898666535727	1.6977539	-0.16783142	0.20927429
13898672364584	1.4741821	-0.08717346	0.051651
13898676606527	1.2432861	0.0178833	-0.050949097
13898679963461	1.2432861	0.1058197	-0.050949097
13898686677328	0.83399963	0.1058197	-0.110809326
13898691682211	0.83399963	0.13882446	-0.09614563
13898696748129	0.6739502	0.13882446	-0.09614563
13898701783529	0.54444885	0.09239197	-0.07293701
13898707032553	0.44425964	0.034988403	-0.04850769
13898711854330	0.368515	-0.012664795	-0.026519775
13898716859213	0.31233215	-0.04319763	-0.009414673
13898722169272	0.26589966	-0.05053711	0.0015563965
13898726960531	0.22802734	-0.032211304	3.5095215E-4
13898730317465	0.20236206	0.006881714	-0.0082092285
13898737061850	0.19015503	0.050857544	-0.01675415
13898742097250	0.19747925	0.08872986	-0.017959595
13898747102133	0.22192383	0.11437988	-0.013092041
13898752107016	0.26467896	0.13148499	-0.0045318604
13898757569662	0.3257599	0.14859009	0.0015563965
13898762238852	0.4002838	0.1717987	0.0015563965
13898767243734	0.48825073	0.2011261	-0.002090454
13898773011557	0.5920868	0.2316742	-0.002090454
13898777314535	0.7228241	0.26220703	0.011352539
13898780701986	0.88531494	0.30130005	0.03944397
13898787385336	1.0636749	0.34407043	0.0675354
13898792390219	1.2225189	0.36239624	0.07487488
13898797456137	1.3226929	0.32695007	0.052886963
13898802491537	1.3471375	0.24266052	0.012557983
13898807801596	1.2994843	0.13882446	-0.026519775
13898812562338	1.1980743	0.03742981	-0.049728394
13898817597738	1.0612335	-0.061523438	-0.054611206
13898823090902	0.9097595	-0.16415405	-0.04484558
13898827668539	0.758255	-0.2631073	-0.026519775
13898831025473	0.758255	-0.33518982	-0.026519775
13898837739340	0.61776733	-0.33518982	0.0064697266
13898842774740	0.500473	-0.36083984	0.0064697266
13898847840658	0.41249084	-0.34251404	0.016235352
13898852815023	0.3611908	-0.2985382	0.018676758
13898858125082	0.3440857	-0.25456238	0.017440796
13898862916342	0.35386658	-0.22401428	0.013793945
13898867921225	0.38075256	-0.20692444	0.016235352
13898873231283	0.41249084	-0.19958496	0.029678345
13898878022543	0.4381714	-0.20202637	0.052886963
13898881379477	0.45159912	-0.2130127	0.0834198
13898888123861	0.4491577	-0.23013306	0.11885071
13898893098227	0.4271698	-0.2472229	0.15428162
13898898164145	0.38563538	-0.25700378	0.18482971
13898903230063	0.3318634	-0.25212097	0.20436096
13898908570639	0.27566528	-0.23867798	0.20927429
13898913270346	0.22557068	-0.22769165	0.20315552
13898918275229	0.18527222	-0.2288971	0.19459534
13898923615805	0.15594482	-0.24234009	0.19094849
13898928376547	0.13882446	-0.2582245	0.20315552
13898931702963	0.13150024	-0.2789917	0.23492432
13898938477865	0.13517761	-0.3107605	0.28256226
13898943482748	0.14738464	-0.35839844	0.33753967
13898948518148	0.164505	-0.41337585	0.3912964
13898953553549	0.1803894	-0.46102905	0.43528748
13898958955160	0.19015503	-0.49157715	0.4633789
13898963654867	0.19503784	-0.49890137	0.46705627
13898968690268	0.19747925	-0.48547363	0.44137573
13898974427572	0.19992065	-0.45614624	0.3925171
13898978730551	0.20236206	-0.4207306	0.33265686
13898982087484	0.20236206	-0.38772583	0.33265686
13898988801352	0.20968628	-0.38772583	0.27401733
13898993806234	0.22802734	-0.3620758	0.20683289
13898998902670	0.25733948	-0.35595703	0.10418701
13899003907553	0.27812195	-0.357193	-0.057052612
13899009217611	0.26467896	-0.34007263	-0.25985718
13899013978354	0.20359802	-0.2850952	-0.44921875
13899019013754	0.115615845	-0.21424866	-0.57507324
13899024506918	0.0337677	-0.16291809	-0.6239319
13899029084555	-0.011444092	-0.14706421	-0.61660767
13899032441488	-0.0065460205	-0.15438843	-0.57873535
13899039185873	0.044769287	-0.18003845	-0.5188751
13899044160238	0.1278534	-0.2288971	-0.43577576
13899049226156	0.22192383	-0.2960968	-0.32217407
13899054261557	0.32209778	-0.35595703	-0.18045044
13899059510580	0.42593384	-0.39260864	-0.021636963
13899064332357	0.51390076	-0.41705322	0.12373352
13899069367758	0.55789185	-0.46347046	0.2300415
13899074708334	0.54200745	-0.561203	0.27890015
13899079499594	0.49191284	-0.6907196	0.27767944
13899082764975	0.49191284	-0.79333496	0.27767944
13899089570395	0.45159912	-0.79333496	0.18847656
13899094575277	0.500473	-0.76524353	0.1335144
13899099549643	0.58599854	-0.6723938	0.089538574
13899104615561	0.69595337	-0.5770874	0.0675354
13899109986654	0.8132324	-0.49157715	0.0675354
13899114686361	0.92684937	-0.41461182	0.0846405
13899119782797	1.0258179	-0.3461914	0.10784912
13899125489584	1.1003265	-0.2973175	0.12741089
13899129762045	1.1003265	-0.27288818	0.12741089
13899133149496	1.1443329	-0.27288818	0.14205933
13899139832846	1.1516571	-0.26556396	0.15428162
13899144929281	1.1272125	-0.2631073	0.1665039
13899149934164	1.0771179	-0.25334167	0.1823883
13899155000082	1.0135956	-0.23501587	0.19459534
13899160310141	0.9451752	-0.21669006	0.19947815
13899165070883	0.8779907	-0.20936584	0.19094849
13899170106283	0.81689453	-0.21791077	0.17262268
13899175965658	0.7619171	-0.23501587	0.15306091
13899180177084	0.7106018	-0.24845886	0.13961792
13899183503500	0.66174316	-0.24234009	0.1335144
13899190217367	0.6152954	-0.21424866	0.12741089
13899195252768	0.573761	-0.16903687	0.1164093
13899200318686	0.54322815	-0.12506104	0.09320068
13899205323568	0.52246094	-0.09573364	0.057769775
13899210694662	0.51145935	-0.07984924	0.010116577
13899215394369	0.50779724	-0.06764221	-0.04360962
13899220460287	0.50657654	-0.049316406	-0.102264404
13899225953451	0.50779724	-0.019989014	-0.16456604
13899230531088	0.5029144	0.02154541	-0.22808838
13899233857504	0.5029144	0.06918335	-0.22808838
13899240571371	0.45037842	0.06918335	-0.34294128
13899245576254	0.39907837	0.1400299	-0.3930359
13899250642172	0.3318634	0.1559143	-0.43701172
13899255677572	0.23535156	0.1669159	-0.47122192
13899260957113	0.09484863	0.17669678	-0.48342896
13899265778891	-0.09815979	0.1852417	-0.4663391
13899270783773	-0.09815979	0.1876831	-0.42236328
13899276093832	-0.5660858	0.184021	-0.3600464
13899280885092	-0.5660858	0.17669678	-0.3600464
13899284242025	-0.7823334	0.17669678	-0.29162598
13899290986410	-0.9484863	0.17791748	-0.22932434
13899295991293	-1.0425568	0.2011261	-0.17434692
13899300996176	-1.062088	0.2475586	-0.12547302
13899306062094	-1.0291138	0.29273987	-0.07661438
13899311463705	-0.96925354	0.30497742	-0.021636963
13899316132895	-0.88861084	0.2658844	0.038223267
13899321168295	-0.7688904	0.17301941	0.10784912
13899326875082	-0.5978546	0.044769287	0.18727112
13899331208578	-0.3828125	-0.09329224	0.27033997
13899334596029	-0.14703369	-0.20812988	0.33876038
13899341279379	0.080200195	-0.26800537	0.3790741
13899346284262	0.27812195	-0.26678467	0.38639832
13899351350180	0.44425964	-0.21791077	0.36442566
13899356385580	0.57865906	-0.14706421	0.32287598
13899361695639	0.6812744	-0.068847656	0.27033997
13899366456381	0.7411499	0.02154541	0.21292114
13899371491781	0.75213623	0.12538147	0.15428162
13899377290121	0.7167206	0.23776245	0.08708191
13899381562582	0.653183	0.34773254	0.010116577
13899384919516	0.653183	0.44058228	0.010116577
13899391633383	0.5029144	0.44058228	-0.1670227
13899396668783	0.4137268	0.67271423	-0.23052979
13899401734701	0.32087708	0.95492554	-0.21464539
13899406770102	0.27444458	1.3617554	-0.086380005
13899412049643	0.32453918	1.6696472	0.10664368
13899416810385	0.32453918	1.6244354	0.2300415
13899421815268	0.43572998	1.6244354	0.2300415
13899427094809	0.4772644	1.2664795	0.1665039
13899431916586	0.35630798	0.9476013	-0.079055786
13899435304037	0.12173462	0.93659973	-0.383255
13899442048422	-0.083496094	1.140625	-0.6043854
13899446992270	-0.1641388	1.2896881	-0.6874695
13899452058188	-0.14091492	1.2799225	-0.6715851
13899457093588	-0.083496094	1.2041473	-0.62516785
13899462495199	-0.040740967	1.1491852	-0.59339905
13899467194906	-0.021209717	1.114975	-0.5872803
13899472230307	-0.015090942	1.0929871	-0.59461975
13899477540365	-0.012649536	1.0978699	-0.6043854
13899482270590	-0.013885498	1.1394043	-0.6056061
13899485627523	-0.030975342	1.1992645	-0.59584045
13899492341391	-0.068847656	1.2420349	-0.5860596
13899497804037	-0.118927	1.2334747	-0.59706116
13899502442709	-0.1531372	1.1516266	-0.6495819
13899507508627	-0.14213562	0.9928131	-0.7424469
13899512818686	-0.06640625	0.77656555	-0.85240173
13899517548910	0.05819702	0.54563904	-0.9574585
13899522523275	0.1962738	0.34527588	-1.022232
13899528352133	0.30499268	0.22679138	-1.0002289
13899532624594	0.35386658	0.24388123	-0.85972595
13899535981527	0.35386658	0.41003418	-0.85972595
13899542695395	0.32209778	0.41003418	-0.4406891
13899547700277	0.315979	0.870636	-0.3514862
13899552796713	0.36486816	0.95980835	-0.3759308
13899557832113	0.47602844	0.94636536	-0.43945313
13899563447348	0.62509155	0.9121704	-0.4590149
13899567872397	0.62509155	0.9158325	-0.4590149
13899572907797	0.7753601	0.9158325	-0.40768433
13899578400961	0.89875793	0.9512634	-0.32461548
13899582978598	0.9842682	0.9744873	-0.26474
13899586335531	1.0477905	0.9659271	-0.23544312
13899593049398	1.102768	0.9402771	-0.20976257
13899598054281	1.155304	0.9194946	-0.18167114
13899603120199	1.2017517	0.8926239	-0.18167114
13899608186117	1.2408295	0.8193054	-0.23420715
13899613404623	1.2823639	0.68370056	-0.32095337
13899618226400	1.3373413	0.507782	-0.3930359
13899623231283	1.4106445	0.34651184	-0.3991394
13899628510824	1.4973907	0.24388123	-0.3111725
13899633363119	1.584137	0.21211243	-0.13157654
13899636659018	1.6623383	0.236557	0.089538574
13899643433920	1.7344055	0.2866516	0.28990173
13899648438803	1.8187103	0.34283447	0.44137573
13899653474203	1.9274445	0.39048767	0.56233215
13899658540121	2.065506	0.42713928	0.6869507
13899663911215	2.2169952	0.44302368	0.8237915
13899668610922	2.3562622	0.42347717	0.96917725
13899673646322	2.4637756	0.36849976	1.1170044
13899679414145	2.5309753	0.3000946	1.270935
13899683686606	2.5578613	0.25120544	1.4273224
13899687043539	2.5578613	0.23776245	1.4273224
13899693726889	2.5346527	0.23776245	1.7339783
13899698792807	2.4992065	0.2707672	1.8695831
13899703828207	2.4992065	0.263443	1.9832153
13899708894125	2.4564514	0.2182312	1.9832153
13899714143148	2.4112396	0.2182312	2.071167
13899718964926	2.3599396	0.13392639	2.1310425
13899723939291	2.3012848	0.014221191	2.1603699
13899729493490	2.2341003	-0.12870789	2.1554565
13899734040609	2.1632385	-0.28877258	2.1163635
13899737397543	2.0960388	-0.45248413	2.0467377
13899744111410	2.0325012	-0.61253357	1.9612122
13899749146811	1.9701996	-0.7640228	1.8708191
13899754243246	1.9042358	-0.90208435	1.7852936
13899759248129	1.8321381	-1.0193634	1.7107544
13899764863363	1.7527313	-1.1060944	1.6496887
13899769288412	1.6611023	-1.1537476	1.6020355
13899774323813	1.5535889	-1.1769562	1.5665894
13899779786459	1.4265289	-1.2050629	1.5372772
13899784425131	1.2835999	-1.2673645	1.5091858
13899787751547	1.1296539	-1.3736725	1.4712982
13899794495932	0.97206116	-1.5153809	1.4175568
13899799470297	0.81933594	-1.6803131	1.3442535
13899804536215	0.6861725	-1.8525848	1.258728
13899809571615	0.57865906	-2.013855	1.1683044
13899814820639	0.5016937	-2.1384583	1.0827942
13899819672934	0.4564972	-2.2044373	1.0033875
13899824738852	0.44670105	-2.2068787	0.9276428
13899830018393	0.47236633	-2.1543427	0.85554504
13899834809652	0.52734375	-2.065155	0.7895813
13899838105551	0.52734375	-1.9600983	0.7895813
13899844880453	0.6690674	-1.9600983	0.6893921
13899849885336	0.6690674	-1.7621613	0.65885925
13899854890219	0.7301636	-1.6742096	0.65885925
13899859956137	0.7704773	-1.6742096	0.64419556
13899865205160	0.78634644	-1.5935669	0.64663696
13899869996420	0.7753601	-1.523941	0.6686249
13899875062338	0.7374878	-1.4652863	0.70895386
13899880463949	0.67762756	-1.4066467	0.7639313
13899885102621	0.60432434	-1.3345795	0.829895
13899888429037	0.52612305	-1.2343903	0.8983154
13899895173422	0.44670105	-1.1109772	0.95817566
13899900179024	0.368515	-0.9875946	1.0021515
13899905244942	0.2939911	-0.8898468	1.0204773
13899910280342	0.22436523	-0.83854675	1.0082703
13899915712471	0.16694641	-0.83854675	0.96429443
13899920381660	0.1278534	-0.8874054	0.8909912
13899925386543	0.11073303	-0.9668274	0.7944641
13899931184883	0.115615845	-1.0486755	0.6783905
13899935457344	0.1437378	-1.1060944	0.5428009
13899938844795	0.19015503	-1.1354218	0.39007568
13899945558662	0.24513245	-1.1488647	0.2276001
13899950533028	0.30010986	-1.1647491	0.06877136
13899955629463	0.3453064	-1.1916351	-0.074157715
13899960664864	0.3770752	-1.2209473	-0.19267273
13899965944405	0.3929596	-1.2404938	-0.27818298
13899970674629	0.38928223	-1.2392731	-0.3282776
13899975740547	0.37219238	-1.2099609	-0.34294128
13899981020088	0.35263062	-1.1488647	-0.32583618
13899985841866	0.33065796	-1.0572357	-0.28430176
13899989168282	0.33065796	-0.94117737	-0.28430176
13899995912666	0.30743408	-0.94117737	-0.15234375
13900000887032	0.27934265	-0.8141022	-0.15234375
13900005952950	0.25245667	-0.679718	-0.07293701
13900010957832	0.23291016	-0.52822876	0.012557983
13900016389961	0.22680664	-0.3461914	0.105407715
13900021089668	0.23901367	-0.13238525	0.20803833
13900026125069	0.27200317	0.09361267	0.31555176
13900031740303	0.32453918	0.30497742	0.4181671
13900036165352	0.39663696	0.480896	0.5085907
13900039522285	0.47846985	0.6104126	0.5843353
13900046236153	0.56277466	0.69592285	0.6502991
13900051302071	0.63974	0.7484436	0.70895386
13900056337471	0.7032776	0.7826538	0.7626953
13900061342354	0.7509308	0.81321716	0.8091278
13900066988106	0.7826843	0.8547516	0.8457794
13900071443672	0.80589294	0.9170532	0.87631226
13900076448555	0.82421875	1.0123444	0.9068756
13900082307930	0.8388977	1.1455231	0.9410858
13900086519356	0.84866333	1.3104553	0.9813843
13900089876289	0.84866333	1.4949341	1.0217133
13900096590157	0.84742737	1.687973	1.0595856
13900101625557	0.83766174	1.8773346	1.0962372
13900106783028	0.8254547	2.0532684	1.1304474
13900111696358	0.8046875	2.2096252	1.1609802
13900117464180	0.7778015	2.3379211	1.1854248
13900121797676	0.7423706	2.4283295	1.2037506
13900126802559	0.69595337	2.4698792	1.218399
13900132356758	0.62753296	2.4539948	1.231842
13900136903877	0.52734375	2.3892365	1.2440643
13900140260811	0.52734375	2.2976074	1.2440643
13900147035713	0.3905182	2.2976074	1.245285
13900151979561	0.22802734	2.2194214	1.2220764
13900157045479	0.05697632	2.1949768	1.167099
13900162050362	-0.1018219	2.2475128	1.0791321
13900167818184	-0.2325592	2.3611298	0.96061707
13900172121162	-0.32418823	2.488205	0.8201294
13900177309151	-0.37182617	2.5737152	0.6686249
13900182558174	-0.37060547	2.5895996	0.5220337
13900187440987	-0.31806946	2.5456238	0.39375305
13900190584297	-0.21911621	2.4723206	0.28622437
13900197511787	-0.0859375	2.4039001	0.19703674
13900202394600	0.07531738	2.3635712	0.12007141
13900207430000	0.26223755	2.3452606	0.057769775
13900212404366	0.474823	2.3195953	0.013793945
13900218355293	0.7167206	2.2475128	-0.0082092285
13900222475166	0.9806061	2.1094513	-0.002090454
13900227754707	1.2591553	1.9225311	0.037002563
13900233400459	1.5242767	1.7307129	0.10908508
13900237672920	1.7502899	1.5951233	0.20803833
13900240907784	1.7502899	1.5547943	0.20803833
13900247743721	2.0312958	1.5547943	0.41452026
13900252718086	2.1082458	1.6708527	0.5000305
13900257967110	2.1607819	1.7172699	0.5818939
13900262788887	2.1913452	1.727066	0.66374207
13900268861885	2.1986694	1.7331543	0.7260437
13900272829170	2.1864471	1.7820435	0.74316406
13900278017159	2.1620178	1.8883209	0.7052765
13900283388252	2.1339264	2.0337067	0.62709045
13900288087959	2.1339264	2.1790924	0.5269165
13900291322823	2.1058044	2.1790924	0.5269165
13900298280830	2.0765076	2.2866058	0.41940308
13900303011055	2.0496216	2.3330383	0.31188965
13900308443184	2.034958	2.3024902	0.20927429
13900313142891	2.0373993	2.1754303	0.10784912
13900318330879	2.0630646	1.9359741	-0.0045318604
13900323213692	2.1156006	1.5902252	-0.13769531
13900328249092	2.1925507	1.1809387	-0.29040527
13900333986397	2.269516	0.7692108	-0.4455719
13900338686104	2.3025208	0.41859436	-0.57629395
13900341676826	2.2512054	0.17546082	-0.6605835
13900348695869	2.1094818	0.043533325	-0.69111633
13900353395576	1.9164429	-0.009002686	-0.68014526
13900358461494	1.728302	-0.024871826	-0.64837646
13900363466377	1.5939178	-0.03465271	-0.61782837
13900369508858	1.5352631	-0.039535522	-0.59584045
13900373537178	1.5413818	-0.0309906	-0.57873535
13900378999825	1.584137	-0.0041046143	-0.5530853
13900384279366	1.6378937	0.038650513	-0.5029907
13900389101143	1.6904297	0.09239197	-0.4272461
13900392030830	1.6904297	0.15715027	-0.4272461
13900399141426	1.7759552	0.15715027	-0.26963806
13900403749580	1.8052826	0.31106567	-0.23176575
13900409059639	1.8272552	0.40026855	-0.22808838
13900413850899	1.8394928	0.49189758	-0.24765015
13900419984932	1.8419342	0.573761	-0.2830658
13900423891182	1.8272552	0.6226196	-0.3294983
13900429384346	1.7967224	0.6042938	-0.39179993
13900434480782	1.7612915	0.4992218	-0.47610474
13900439363594	1.7612915	0.32818604	-0.58239746
13900442354317	1.7331848	0.32818604	-0.58239746
13900449831123	1.7063141	0.16081238	-0.79130554
13900454073067	1.6586609	0.08016968	-0.79130554
13900460023994	1.5694733	0.12538147	-0.8328552
13900464174385	1.4448547	0.26708984	-0.80718994
13900469789619	1.3080292	0.4491272	-0.7241211
13900474275703	1.1834259	0.638504	-0.60928345
13900479463692	1.0917816	0.8461914	-0.48466492
13900485170479	1.0368042	1.0868835	-0.369812
13900490114326	1.0111542	1.3422241	-0.27697754
13900492738838	0.9940491	1.5462341	-0.20976257
13900502626534	0.90608215	1.6415405	-0.08882141
13900510408516	0.84010315	1.5743561	-0.011856079
13900514558907	0.7826843	1.5621185	0.07487488
13900520021553	0.7423706	1.6146545	0.1616211
13900524629707	0.7142792	1.6842957	0.23736572
13900530367012	0.6873932	1.6952972	0.29356384
13900535432930	0.65197754	1.6073303	0.33021545
13900540651436	0.6079712	1.4533997	0.35220337
13900550752754	0.52490234	1.2994537	0.3766327
13900554811592	0.5029144	1.1846161	0.3912964
13900560701485	0.49069214	1.2175903	0.40596008
13900564912910	0.48214722	1.2689209	0.42060852
13900570680733	0.46258545	1.3043365	0.4340515
13900575014229	0.46258545	1.3055725	0.44873047
13900580995674	0.38075256	1.3055725	0.4658203
13900585970039	0.3269806	1.1809387	0.48538208
13900590883369	0.27078247	1.0673218	0.50491333
13900593416328	0.27078247	0.9317169	0.50491333
13900600984688	0.21948242	0.9317169	0.52812195
13900605196114	0.17547607	0.7887726	0.55378723
13900611147041	0.1437378	0.65071106	0.58555603
13900615266914	0.12173462	0.5261078	0.6209717
13900621034737	0.10585022	0.41737366	0.6625061
13900625337715	0.09120178	0.32206726	0.7077179
13900631105537	0.07531738	0.24266052	0.7529297
13900636232491	0.060638428	0.17301941	0.7969055
13900641237373	0.048431396	0.10949707	0.8408966
13900643800850	0.041107178	0.054534912	0.89219666
13900651430244	0.038650513	0.030090332	0.9545288
13900655519600	0.036209106	0.06430054	1.0204773
13900661562080	0.025222778	0.1681366	1.0815735
13900665590401	0.0019989014	0.32818604	1.1255646
13900671297188	-0.029769897	0.51142883	1.1512146
13900675661201	-0.0700531	0.68125916	1.1622162
13900681459541	-0.116485596	0.8022156	1.1695404
13900686067696	-0.1690216	0.8510742	1.1817474
13900691835518	-0.22520447	0.8205414	1.2013092
13900702028389	-0.33395386	0.7227936	1.2465057
13900705904121	-0.37670898	0.45280457	1.2623901
13900712190742	-0.40725708	0.35263062	1.2746124
13900715944405	-0.4268036	0.302536	1.2831573
13900721468086	-0.442688	0.30130005	1.2880402
13900726045723	-0.442688	0.33674622	1.2880402
13900732484932	-0.47322083	0.33674622	1.2697296
13900736818428	-0.48910522	0.4466858	1.2538452
13900742616768	-0.5001068	0.49554443	1.2428436
13900752443428	-0.50743103	0.5419922	1.2562866
13900756288643	-0.5111084	0.63972473	1.2562866
13900762575264	-0.5111084	0.63972473	1.2819366
13900766328926	-0.50987244	0.67759705	1.3173676
13900772310371	-0.5111084	0.68981934	1.3552399
13900776369209	-0.51719666	0.65682983	1.3894348
13900782899971	-0.5269928	0.56396484	1.4187622
13900786958809	-0.53552246	0.42225647	1.4407654
13900792940254	-0.5379944	0.28053284	1.4444122
13900802766914	-0.50743103	0.15715027	1.372345
13900806581612	-0.4671173	0.1534729	1.2990417
13900813142891	-0.415802	0.13392639	1.2110748
13900816682930	-0.3620453	0.082611084	1.1084442
13900828279610	-0.27041626	0.010559082	0.8543396
13900832430000	-0.23500061	-0.08229065	0.70651245
13900836824532	-0.20323181	-0.09207153	0.55867004
13900842592354	-0.1678009	-0.11894226	0.4267273
13900845186348	-0.1678009	-0.20812988	0.4267273
13900853090401	-0.04685974	-0.20812988	0.24836731
13900856935616	0.050872803	-0.6247406	0.1982727
13900863405342	0.16815186	-0.924057	0.1616211
13900867006416	0.16815186	-1.2465973	0.1616211
13900872896309	0.40516663	-1.2465973	0.10664368
13900877107735	0.40516663	-1.807373	0.10664368
13900882967110	0.58599854	-1.807373	0.09197998
13900887453194	0.58599854	-1.9894104	0.09197998
13900893617744	0.7362671	-1.9894104	0.0846405
13900903535957	0.797348	-1.7829285	0.0846405
13900907289619	0.84498596	-1.7059631	0.0834198
13900913576241	0.8816376	-1.7059631	0.0663147
13900917360420	0.9073181	-1.7511749	0.022338867
13900923341866	0.92684937	-1.7780457	-0.026519775
13900927461739	0.9341736	-1.7499542	-0.0521698
13900933961983	0.9207306	-1.6742096	-0.042404175
13900937715645	0.8755493	-1.5813599	-0.013092041
13900944093819	0.8156738	-1.4823914	0.013793945
13900953981514	0.84498596	-1.1574249	0.12007141
13900957643623	0.97206116	-0.89720154	0.2434845
13900964082832	1.0820007	-0.63941956	0.375412
13900967683907	1.0612335	-0.47203064	0.4316101
13900973848457	0.8645477	-0.43537903	0.3607483
13900977754707	0.54444885	-0.47691345	0.19703674
13900982820625	0.22192383	-0.49035645	0.034561157
13900988222237	-0.0041046143	-0.40116882	-0.054611206
13900992891426	-0.10305786	-0.22157288	-0.07171631
13900996217842	-0.10305786	-0.0309906	-0.07171631
13901002962227	-0.09938049	-0.0309906	-0.07171631
13901007997627	-0.09938049	0.11805725	-0.11325073
13901013033028	-0.08229065	0.11805725	-0.11325073
13901018068428	-0.063964844	0.075286865	-0.18045044
13901023531075	-0.024871826	0.0056610107	-0.26597595
13901028169746	0.039871216	-0.05419922	-0.3685913
13901034456367	0.21824646	-0.08717346	-0.6190491
13901038850899	0.21824646	-0.061523438	-0.6190491
13901043245430	0.30621338	-0.061523438	-0.7656555
13901046632881	0.38075256	0.011764526	-0.92204285
13901053346748	0.42349243	0.12049866	-1.0686493
13901058382149	0.4161682	0.22923279	-1.1651459
13901063417549	0.35995483	0.30497742	-1.1688232
13901068422432	0.26589966	0.35139465	-1.0552063
13901073763008	0.14982605	0.39537048	-0.82795715
13901078523750	0.024002075	0.45036316	-0.5164337
13901084993477	-0.095718384	0.507782	-0.15602112
13901088838692	-0.18612671	0.5517578	0.21780396
13901093599434	-0.23988342	0.5688782	0.57455444
13901096986885	-0.27041626	0.5541992	0.8934326
13901103670235	-0.29606628	0.51878357	1.1609802
13901108675117	-0.33151245	0.48701477	1.372345
13901113771553	-0.3791504	0.480896	1.5262756
13901118806953	-0.4329071	0.507782	1.630127
13901124208565	-0.48054504	0.56152344	1.6924286
13901128847237	-0.50131226	0.6213989	1.7156372
13901133882637	-0.481781	0.65560913	1.7034302
13901139162178	-0.4206848	0.64949036	1.6643372
13901145448799	-0.33761597	0.6104126	1.6228027
13901154024239	-0.25332642	0.5676422	1.6007996
13901159090157	-0.18000793	0.5358734	1.6020355
13901164095039	-0.12136841	0.51387024	1.6105804
13901169130440	-0.07861328	0.4857788	1.6081238
13901174593086	-0.057861328	0.45036316	1.5873566
13901179170723	-0.063964844	0.42103577	1.555603
13901184267159	-0.09082031	0.41615295	1.5238342
13901189638252	-0.12382507	0.44302368	1.4981842
13901194337959	-0.14459229	0.4857788	1.4749756
13901197633858	-0.14459229	0.5236664	1.4444122
13901204408760	-0.13114929	0.5444336	1.4004364
13901209383125	-0.111587524	0.5444336	1.3417969
13901214449043	-0.08961487	0.5358734	1.2758331
13901219484444	-0.06150818	0.5309906	1.207428
13901224763985	-0.037094116	0.5371094	1.1450958
13901229555244	-0.03829956	0.5554352	1.1060028
13901234590645	-0.076171875	0.5945282	1.1060028
13901240053291	-0.1519165	0.67149353	1.15242
13901244691963	-0.25453186	0.8254242	1.2379608
13901248018379	-0.25453186	1.1076508	1.3405762
13901254732246	-0.48789978	1.1076508	1.4309998
13901259767647	-0.5502014	2.011734	1.4749756
13901264833565	-0.534317	2.3782349	1.450531
13901269838448	-0.4512329	2.473526	1.371109
13901275514717	-0.33883667	2.2585144	1.2758331
13901279939766	-0.23988342	1.8443451	1.204956
13901284975166	-0.17024231	1.4081879	1.1731873
13901290285225	-0.1335907	1.0868835	1.1707458
13901295015450	-0.1335907	0.92071533	1.1744232
13901298402901	-0.12258911	0.8767395	1.1744232
13901305116768	-0.1348114	0.8767395	1.1585388
13901310152168	-0.1690216	0.90483093	1.1072388
13901315157051	-0.22155762	0.97325134	1.0070496
13901320192451	-0.28141785	1.0685577	0.85798645
13901325685616	-0.33883667	1.1748352	0.67230225
13901330293770	-0.38404846	1.2640381	0.4817047
13901335298653	-0.4170227	1.3055725	0.33021545
13901340822334	-0.4341278	1.2835693	0.25445557
13901345399971	-0.4341278	1.2188263	0.26301575
13901348695869	-0.4170227	1.1467438	0.33021545
13901355470772	-0.38648987	1.102768	0.4108429
13901360536690	-0.35227966	1.0990906	0.46705627
13901365511055	-0.32418823	1.1247406	0.46949768
13901370546455	-0.30706787	1.1577301	0.4096222
13901376100655	-0.2985077	1.1650696	0.30455017
13901380617256	-0.2850952	1.1259766	0.22024536
13901385713692	-0.26065063	1.0429077	0.22880554
13901391115303	-0.22888184	0.9634857	0.3448639
13901395753975	-0.20567322	0.94636536	0.50979614
13901399110909	-0.20567322	1.0147858	0.50979614
13901405824776	-0.21299744	1.0147858	0.66986084
13901410860176	-0.23376465	1.2579193	0.62953186
13901415895576	-0.25697327	1.3361053	0.55500793
13901420930977	-0.28141785	1.3690948	0.47558594
13901426637764	-0.30706787	1.3617554	0.39863586
13901430971260	-0.3327179	1.3128967	0.32409668
13901436037178	-0.34983826	1.2212677	0.26057434
13901441377754	-0.35716248	1.102768	0.2300415
13901446138496	-0.35716248	0.9854584	0.2300415
13901449464912	-0.35472107	0.9854584	0.24957275
13901456178780	-0.3461609	0.896286	0.31921387
13901461183662	-0.33517456	0.8400879	0.42184448
13901466249580	-0.32662964	0.8009796	0.5366821
13901471284981	-0.31930542	0.76068115	0.65397644
13901477144356	-0.31684875	0.71669006	0.7700348
13901481325264	-0.31318665	0.67393494	0.88731384
13901486391182	-0.30586243	0.6372833	1.009491
13901493379707	-0.26921082	0.60795593	1.2758331
13901496492500	-0.26921082	0.5700836	1.2758331
13901499788399	-0.24720764	0.5700836	1.3918762
13901506502266	-0.2325592	0.573761	1.4676514
13901511568184	-0.22644043	0.599411	1.5042877
13901516603584	-0.22644043	0.638504	1.5250549
13901521638985	-0.22399902	0.69226074	1.5543823
13901527498360	-0.2166748	0.7728882	1.6191254
13901531709785	-0.20567322	0.909729	1.7266388
13901536714668	-0.19223022	1.1247406	1.8622589
13901542635078	-0.17756653	1.4020844	1.9856567
13901546815987	-0.15924072	1.6989594	2.0467377
13901550142403	-0.15924072	1.9787292	2.0467377
13901556886787	-0.118927	1.9787292	1.8830261
13901561891670	-0.111587524	2.473526	1.6924286
13901566927071	-0.116485596	2.705658	1.5006256
13901571992989	-0.13114929	2.9170227	1.3552399
13901577882881	-0.14703369	3.0892792	1.2733765
13901582033272	-0.15802002	3.1980133	1.2416229
13901587099190	-0.15802002	3.2236633	1.2416229
13901592531319	-0.1506958	3.2236633	1.2648315
13901597169991	-0.1506958	3.0355377	1.2648315
13901600557442	-0.13237	3.0355377	1.3075867
13901607210274	-0.10914612	2.8828125	1.3662262
13901612245674	-0.08105469	2.7471924	1.437088
13901617281075	-0.045654297	2.6506805	1.5152893
13901622346992	-0.0028839111	2.5944824	1.603241
13901627657051	0.043548584	2.5712738	1.69487
13901632387276	0.07896423	2.5688324	1.7730713
13901637453194	0.09120178	2.570053	1.799942
13901642763252	0.0655365	2.5443878	1.7241974
13901647493477	-0.01020813	2.4588776	1.5238342
13901650880928	-0.12747192	2.2854004	1.2574921
13901657564278	-0.25576782	2.011734	1.0326996
13901662599678	-0.35350037	1.6708527	0.9252014
13901667665596	-0.38771057	1.3361053	0.92276
13901672700996	-0.35105896	1.089325	0.961853
13901678560371	-0.26797485	0.9769287	0.98872375
13901682741280	-0.17146301	0.9854584	0.98262024
13901687776680	-0.09082031	1.0551147	0.93740845
13901693147774	-0.04319763	1.1198578	0.8518982
13901697847481	-0.029769897	1.1308594	0.7333832
13901701204414	-0.029769897	1.074646	0.7333832
13901707948799	-0.04197693	1.074646	0.4743805
13901713014717	-0.019973755	0.8193054	0.36686707
13901717989082	0.04232788	0.68981934	0.28378296
13901723055000	0.1461792	0.6018524	0.22636414
13901728975410	0.27200317	0.56152344	0.19459534
13901733156319	0.27200317	0.52975464	0.19459534
13901738161201	0.39172363	0.52975464	0.18115234
13901744081612	0.50901794	0.44792175	0.16894531
13901748232002	0.50901794	0.09729004	0.16894531
13901751558418	0.49435425	0.09729004	0.1506195
13901758333321	0.45281982	-0.0627594	0.117630005
13901763338203	0.39907837	-0.14706421	0.07487488
13901768373604	0.33674622	-0.17271423	0.030883789
13901773409004	0.26467896	-0.18247986	-0.010650635
13901779207344	0.19381714	-0.20324707	-0.0521698
13901783479805	0.14006042	-0.23867798	-0.098587036
13901788515205	0.11073303	-0.2753296	-0.14868164
13901794038887	0.09729004	-0.2948761	-0.19511414
13901798586006	0.083862305	-0.2899933	-0.23544312
13901801942940	0.064315796	-0.26678467	-0.2671814
13901808626289	0.036209106	-0.25456238	-0.2965088
13901813661690	0.0044403076	-0.28633118	-0.32461548
13901818727608	-0.030975342	-0.37184143	-0.35638428
13901823732491	-0.067611694	-0.5001221	-0.38935852
13901829469795	-0.09815979	-0.6333008	-0.4174652
13901833833809	-0.11404419	-0.73591614	-0.4321289
13901838838692	-0.107940674	-0.78723145	-0.4272461
13901844575996	-0.079833984	-0.78479004	-0.40647888
13901848909492	-0.033416748	-0.7481384	-0.37471008
13901852296944	-0.033416748	-0.7017212	-0.37471008
13901858980293	0.08874512	-0.7017212	-0.30873108
13901864046211	0.14982605	-0.61009216	-0.27697754
13901869081612	0.20724487	-0.57099915	-0.24885559
13901874147530	0.25857544	-0.54411316	-0.22688293
13901879610176	0.30133057	-0.53067017	-0.21220398
13901884157295	0.30133057	-0.52822876	-0.21220398
13901889192696	0.33065796	-0.52822876	-0.20855713
13901895113106	0.33309937	-0.52700806	-0.20855713
13901899263496	0.33309937	-0.5196686	-0.20855713
13901902620430	0.3086548	-0.5196686	-0.19755554
13901909364815	0.27322388	-0.50868225	-0.17066956
13901914369698	0.23535156	-0.48913574	-0.12669373
13901919405098	0.20480347	-0.46347046	-0.0680542
13901924471016	0.18771362	-0.44514465	0.0064697266
13901929964180	0.18403625	-0.45858765	0.098083496
13901934541817	0.18283081	-0.52944946	0.20927429
13901939546700	0.15470886	-0.67115784	0.33998108
13901945100899	0.07775879	-0.8348694	0.48658752
13901949678535	-0.037094116	-0.88131714	0.62586975
13901952974434	-0.13969421	-0.64186096	0.7211609
13901959718819	-0.18000793	-0.072525024	0.74316406
13901964723701	-0.14579773	0.6873779	0.69062805
13901969789619	-0.068847656	1.41185	0.59410095
13901974825020	0.009338379	1.944519	0.48902893
13901980501289	0.06187439	2.2475128	0.3973999
13901984865303	0.08140564	2.3269348	0.32655334
13901989900703	0.07408142	2.188858	0.27033997
13901995241280	0.055755615	1.8419037	0.22024536
13901999971504	0.034988403	1.333664	0.16282654
13902003358955	0.034988403	0.73135376	0.16282654
13902010042305	-0.012649536	0.73135376	-0.0155181885
13902015108223	-0.044418335	-0.44758606	-0.13401794
13902020143623	-0.044418335	-0.91185	-0.25376892
13902025148506	-0.0859375	-0.91185	-0.25376892
13902031068916	-0.20323181	-1.2563782	-0.45410156
13902035249825	-0.20323181	-1.5972443	-0.45410156
13902040376778	-0.26921082	-1.5972443	-0.5188751
13902045625801	-0.32418823	-1.6118927	-0.5542908
13902050325508	-0.3620453	-1.5434723	-0.55796814
13902053712959	-0.37548828	-1.4115295	-0.5372009
13902060487862	-0.3644867	-1.2380524	-0.50175476
13902065462227	-0.33151245	-1.0437927	-0.4638977
13902070467110	-0.27897644	-0.845871	-0.4321289
13902075533028	-0.21911621	-0.666275	-0.4028015
13902081026192	-0.1678009	-0.52700806	-0.3673706
13902085603828	-0.1348114	-0.43293762	-0.32461548
13902090700264	-0.11404419	-0.370636	-0.27818298
13902096529121	-0.092056274	-0.32054138	-0.23544312
13902100679512	-0.063964844	-0.26800537	-0.19755554
13902104036446	-0.029769897	-0.21057129	-0.16456604
13902110872383	0.008117676	-0.15194702	-0.13891602
13902115785713	0.04232788	-0.100616455	-0.1169281
13902120821114	0.06919861	-0.060302734	-0.09614563
13902125887032	0.08508301	-0.02609253	-0.070495605
13902131380196	0.09484863	0.010559082	-0.03996277
13902135927315	0.10217285	0.0496521	-0.0082092285
13902140993233	0.10585022	0.08140564	0.017440796
13902146455879	0.10585022	0.09605408	0.0357666
13902151155586	0.10340881	0.09239197	0.045547485
13902154420967	0.10340881	0.075286865	0.045547485
13902161134834	0.10340881	0.075286865	0.051651
13902166139717	0.10340881	0.039871216	0.051651
13902171205635	0.10096741	0.039871216	0.052886963
13902176210518	0.09240723	0.03742981	0.052886963
13902181947823	0.055755615	0.0496521	0.04800415
13902186311836	0.055755615	0.10827637	0.04800415
13902191347237	0.03742981	0.10827637	0.037002563
13902196687813	0.024002075	0.1351471	0.021118164
13902201387520	0.014221191	0.14126587	0.0015563965
13902204744453	0.0056762695	0.115615845	-0.020401001
13902211488838	-0.0041046143	0.05329895	-0.042404175
13902216524239	-0.016326904	-0.035873413	-0.06437683
13902221529121	-0.032211304	-0.13238525	-0.08149719
13902226625557	-0.056625366	-0.21180725	-0.09370422
13902232088203	-0.088378906	-0.2582245	-0.102264404
13902236635323	-0.118927	-0.26922607	-0.10592651
13902241670723	-0.1360321	-0.25212097	-0.10714722
13902246950264	-0.1335907	-0.21669006	-0.10714722
13902251741524	-0.116485596	-0.16659546	-0.10470581
13902255098457	-0.08717346	-0.12626648	-0.102264404
13902261964912	-0.039535522	-0.14582825	-0.099823
13902266878242	0.021560669	-0.26800537	-0.09370422
13902271883125	0.07531738	-0.46102905	-0.0839386
13902276918526	0.09484863	-0.62106323	-0.0680542
13902282411690	0.07041931	-0.6455078	-0.049728394
13902287019844	0.019104004	-0.52822876	-0.033843994
13902292024727	-0.030975342	-0.34007263	-0.02407837
13902297487373	-0.059066772	-0.16539001	-0.021636963
13902302187080	-0.06150818	-0.046875	-0.02407837
13902305482979	-0.06150818	0.019104004	-0.02407837
13902312166328	-0.044418335	0.019104004	-0.022842407
13902317201729	-0.016326904	0.04109192	-0.01675415
13902322267647	0.011779785	0.031326294	-0.0082092285
13902327272530	0.032546997	-0.0041046143	-8.8500977E-4
13902332582588	0.043548584	-0.049316406	-8.8500977E-4
13902337343330	0.043548584	-0.08961487	-0.0057678223
13902342378731	0.03742981	-0.11405945	-0.010650635
13902347627754	0.028884888	-0.12382507	-0.013092041
13902352449532	0.021560669	-0.12994385	-0.011856079
13902355836983	0.016662598	-0.13850403	-0.010650635
13902362550850	0.0154418945	-0.14826965	-0.009414673
13902367525215	0.0154418945	-0.16047668	-0.0082092285
13902372621651	0.0154418945	-0.17271423	-0.0082092285
13902377596016	0.014221191	-0.18371582	-0.0057678223
13902382936592	0.013000488	-0.19468689	-0.002090454
13902387697334	0.014221191	-0.20080566	0.0027923584
13902392824287	0.016662598	-0.20692444	0.008911133
13902398012276	0.0178833	-0.21669006	0.012557983
13902402773018	0.0178833	-0.2288971	0.01499939
13902406160469	0.0178833	-0.23623657	0.01499939
13902412874336	0.011779785	-0.23623657	0.019897461
13902417909737	0.008117676	-0.21913147	0.024780273
13902422945137	0.0044403076	-0.1971283	0.030883789
13902428011055	0.0032348633	-0.17147827	0.0357666
13902433412666	0.0032348633	-0.14706421	0.03944397
13902438051338	0.0032348633	-0.12506104	0.03944397
13902443086739	0.0044403076	-0.107940674	0.037002563
13902448579903	0.008117676	-0.09451294	0.040664673
13902453188057	0.008117676	-0.072525024	0.052886963
13902456514473	0.0056762695	-0.063964844	0.052886963
13902463289375	-0.04319763	-0.063964844	0.041885376
13902468263741	-0.19589233	-0.22401428	-0.057052612
13902473329659	-0.44145203	-0.75668335	-0.27453613
13902478365059	-0.66381836	-1.6204529	-0.5506439
13902484254951	-0.71147156	-2.4072418	-0.7485657
13902488405342	-0.5294342	-2.7041168	-0.7632141
13902493440742	-0.22520447	-2.5245361	-0.59950256
13902498781319	0.0068969727	-2.219101	-0.3637085
13902503572578	0.0496521	-1.9979706	-0.17190552
13902506868477	-0.051742554	-1.7438507	-0.0680542
13902513612862	-0.15557861	-1.2942505	-0.030166626
13902518617744	-0.1653595	-0.6943817	-0.0155181885
13902523653145	-0.104263306	-0.11529541	-0.002090454
13902528719063	-0.03829956	0.3318634	0.012557983
13902534059639	0.0032348633	0.6336212	0.030883789
13902538789864	0.034988403	0.8119812	0.050445557
13902543794746	0.067977905	0.8914032	0.06387329
13902549104805	0.10096741	0.8938446	0.06877136
13902553987617	0.12173462	0.83154297	0.07243347
13902557252998	0.12173462	0.7203522	0.07243347
13902563966866	0.11685181	0.7203522	0.07243347
13902568971748	0.09729004	0.4466858	0.0663147
13902574037666	0.07408142	0.32206726	0.05532837
13902579042549	0.054534912	0.22189331	0.041885376
13902585054512	0.039871216	0.14981079	0.028442383
13902589143867	0.028884888	0.10949707	0.016235352
13902594179268	0.019104004	0.09849548	0.008911133
13902599550362	0.011779785	0.10827637	0.0052337646
13902604219551	0.011779785	0.12904358	0.0052337646
13902607576485	0.0044403076	0.12904358	0.0027923584
13902614442940	-0.0053253174	0.14981079	-8.8500977E-4
13902619386787	-0.017532349	0.16081238	-0.0069732666
13902624361153	-0.032211304	0.15715027	-0.01675415
13902629396553	-0.044418335	0.14248657	-0.030166626
13902635286446	-0.055419922	0.1217041	-0.04484558
13902639467354	-0.06272888	0.09605408	-0.055847168
13902644502754	-0.063964844	0.06674194	-0.06317139
13902649995918	-0.06150818	0.03253174	-0.06561279
13902654573555	-0.056625366	-0.0041046143	-0.06561279
13902657961006	-0.05418396	-0.039535522	-0.06437683
13902664735909	-0.05418396	-0.07496643	-0.06072998
13902669679756	-0.05418396	-0.10429382	-0.0521698
13902674715157	-0.05418396	-0.12261963	-0.04360962
13902679781075	-0.05418396	-0.12626648	-0.035079956
13902685274239	-0.05418396	-0.112854004	-0.025283813
13902689821358	-0.052978516	-0.084732056	-0.014297485
13902694856758	-0.04685974	-0.044418335	3.5095215E-4
13902700258369	-0.03829956	0.0019989014	0.013793945
13902704927559	-0.032211304	0.050857544	0.026000977
13902708284492	-0.032211304	0.10217285	0.026000977
13902715028877	-0.032211304	0.10217285	0.03944397
13902720033760	-0.032211304	0.20478821	0.041885376
13902725099678	-0.029769897	0.24876404	0.04310608
13902730104561	-0.027313232	0.28541565	0.044326782
13902735475655	-0.024871826	0.315979	0.040664673
13902740236397	-0.023651123	0.34162903	0.0357666
13902745210762	-0.023651123	0.36361694	0.0357666
13902750978584	-0.039535522	0.36361694	0.030883789
13902755281563	-0.039535522	0.39782715	0.030883789
13902758669014	-0.056625366	0.39782715	0.030883789
13902765352364	-0.07493591	0.40148926	0.028442383
13902770418282	-0.088378906	0.38926697	0.024780273
13902775423164	-0.09449768	0.36849976	0.017440796
13902780550117	-0.09693909	0.34895325	0.011352539
13902785982246	-0.1018219	0.33918762	0.0064697266
13902790529366	-0.11404419	0.34162903	0.0015563965
13902795564766	-0.12503052	0.34651184	-0.002090454
13902801088448	-0.13114929	0.33795166	-0.0045318604
13902805666084	-0.12870789	0.30374146	-0.0045318604
13902809084053	-0.12870789	0.25364685	-0.0069732666
13902815736885	-0.1360321	0.20722961	-0.013092041
13902820772285	-0.1482544	0.184021	-0.019195557
13902825807686	-0.16290283	0.17791748	-0.02407837
13902830843086	-0.17512512	0.170578	-0.030166626
13902836366768	-0.184906	0.14736938	-0.03996277
13902840913887	-0.18978882	0.11071777	-0.054611206
13902845949287	-0.18612671	0.06674194	-0.07293701
13902851411934	-0.17512512	0.022766113	-0.09126282
13902856020088	-0.15924072	-0.01876831	-0.10714722
13902859377022	-0.15924072	-0.055419922	-0.10714722
13902866090889	-0.14335632	-0.055419922	-0.12913513
13902871126289	-0.1519165	-0.0786438	-0.13279724
13902876161690	-0.1665802	-0.05908203	-0.13279724
13902881166573	-0.17878723	-0.028549194	-0.12669373
13902886537666	-0.184906	-0.0053253174	-0.1181488
13902891237373	-0.184906	0.0032196045	-0.1181488
13902896303291	-0.18000793	0.0032196045	-0.10958862
13902901613350	-0.1665802	-0.01020813	-0.1010437
13902906374092	-0.1482544	-0.040756226	-0.090042114
13902909731026	-0.13237	-0.084732056	-0.079055786
13902916505928	-0.120147705	-0.13482666	-0.070495605
13902921449776	-0.11282349	-0.18371582	-0.06437683
13902926515694	-0.10914612	-0.22279358	-0.058288574
13902931581612	-0.107940674	-0.24845886	-0.049728394
13902937227364	-0.10549927	-0.2594452	-0.03996277
13902941621895	-0.1018219	-0.25578308	-0.030166626
13902946626778	-0.09938049	-0.24234009	-0.02407837
13902951997871	-0.09938049	-0.22157288	-0.022842407
13902956728096	-0.10305786	-0.1971283	-0.021636963
13902960085030	-0.11038208	-0.17636108	-0.021636963
13902966798897	-0.12136841	-0.15927124	-0.022842407
13902971803780	-0.14091492	-0.14950562	-0.026519775
13902976839180	-0.1678009	-0.14459229	-0.033843994
13902981905098	-0.198349	-0.14706421	-0.042404175
13902987398262	-0.22644043	-0.15315247	-0.049728394
13902991975899	-0.2484436	-0.15315247	-0.06072998
13902996980782	-0.2642975	-0.13606262	-0.074157715
13903002473946	-0.2826538	-0.09329224	-0.090042114
13903007082100	-0.30586243	-0.045639038	-0.1010437
13903010622139	-0.30586243	-0.027313232	-0.1010437
13903017152901	-0.3461609	-0.027313232	-0.10470581
13903022157784	-0.35350037	-0.15803528	-0.11325073
13903027223701	-0.35716248	-0.27166748	-0.13279724
13903032228584	-0.35716248	-0.37672424	-0.15602112
13903038301582	-0.36572266	-0.37672424	-0.17190552
13903042299385	-0.36572266	-0.5025635	-0.17190552
13903047365303	-0.36328125	-0.5025635	-0.17678833
13903052675362	-0.35350037	-0.5184479	-0.17434692
13903057405586	-0.34007263	-0.5001221	-0.16822815
13903060976143	-0.32783508	-0.45614624	-0.15968323
13903067476387	-0.31806946	-0.3938446	-0.14746094
13903072511787	-0.31195068	-0.316864	-0.12913513
13903077547188	-0.31195068	-0.22035217	-0.10836792
13903082613106	-0.32051086	-0.11038208	-0.082717896
13903087923164	-0.33395386	0.0032196045	-0.0521698
13903092683907	-0.3486023	0.10461426	-0.020401001
13903097719307	-0.35960388	0.1864624	0.010116577
13903103029366	-0.36694336	0.25	0.0357666
13903107790108	-0.37304688	0.3000946	0.05532837
13903111421700	-0.38404846	0.34283447	0.07121277
13903117860909	-0.3986969	0.38072205	0.0821991
13903122865791	-0.41947937	0.41615295	0.085861206
13903127931709	-0.4451294	0.45401	0.077316284
13903132997627	-0.4768982	0.48945618	0.054107666
13903138795967	-0.5111084	0.5041046	0.019897461
13903143037910	-0.5404358	0.4772339	-0.019195557
13903148042793	-0.5550842	0.39170837	-0.057052612
13903153444405	-0.5526428	0.24632263	-0.090042114
13903158144112	-0.534317	0.05329895	-0.11936951
13903161775703	-0.534317	-0.16171265	-0.11936951
13903168214912	-0.48789978	-0.16171265	-0.17555237
13903173280830	-0.4744568	-0.5404358	-0.20976257
13903178285713	-0.4744568	-0.6748352	-0.20976257
13903183321114	-0.47077942	-0.6748352	-0.25009155
13903188844795	-0.4903412	-0.78845215	-0.32217407
13903193361397	-0.4903412	-1.0584564	-0.32217407
13903198488350	-0.5037842	-1.0584564	-0.33805847
13903203889961	-0.5159912	-1.2075043	-0.3294983
13903208467598	-0.53063965	-1.3125763	-0.30506897
13903212801094	-0.54408264	-1.3443451	-0.27941895
13903218568916	-0.5526428	-1.3113403	-0.26353455
13903223573799	-0.5526428	-1.2551575	-0.25497437
13903228609200	-0.54652405	-1.2148438	-0.24397278
13903233644600	-0.5391998	-1.1977234	-0.23052979
13903239015694	-0.53308105	-1.1977234	-0.22320557
13903243745918	-0.53063965	-1.208725	-0.22444153
13903248750801	-0.53552246	-1.2282715	-0.22200012
13903254152412	-0.54896545	-1.2551575	-0.20855713
13903258852119	-0.56729126	-1.2795868	-0.18655396
13903263002510	-0.58561707	-1.2893677	-0.16212463
13903268922920	-0.59661865	-1.2734833	-0.13769531
13903273927803	-0.60150146	-1.2282715	-0.11203003
13903278963203	-0.6039429	-1.1586304	-0.0839386
13903283968086	-0.61006165	-1.0694427	-0.055847168
13903289278145	-0.6186218	-0.9668274	-0.03262329
13903294130440	-0.62838745	-0.85931396	-0.0155181885
13903299104805	-0.64060974	-0.75668335	-0.003326416
13903304750557	-0.6552582	-0.67115784	0.0040130615
13903309206123	-0.6687012	-0.60765076	0.010116577
13903313203926	-0.6687012	-0.56243896	0.010116577
13903319276924	-0.68336487	-0.56243896	0.019897461
13903324281807	-0.68336487	-0.50746155	0.019897461
13903329347725	-0.68336487	-0.50746155	0.027236938
13903334383125	-0.68092346	-0.49768066	0.038223267
13903340120430	-0.67237854	-0.49890137	0.07121277
13903344423409	-0.65893555	-0.5184479	0.07121277
13903349458809	-0.64060974	-0.5184479	0.09197998
13903354860420	-0.62106323	-0.5343323	0.11274719
13903359560127	-0.600296	-0.5526581	0.1347351
13903364229317	-0.5770874	-0.5685425	0.15794373
13903369630928	-0.5526428	-0.57832336	0.1799469
13903374666328	-0.53063965	-0.57832336	0.19947815
13903379671211	-0.51231384	-0.56365967	0.2141571
13903384706612	-0.5001068	-0.5331116	0.22268677
13903390138741	-0.495224	-0.48913574	0.22880554
13903394777412	-0.50131226	-0.44026184	0.23124695
13903399843330	-0.51475525	-0.39872742	0.23492432
13903405122871	-0.53552246	-0.37184143	0.23980713
13903409914131	-0.5563202	-0.35839844	0.2459259
13903414186592	-0.57585144	-0.35231018	0.25325012
13903419954414	-0.59295654	-0.35231018	0.26179504
13903424959297	-0.60639954	-0.35839844	0.27278137
13903430025215	-0.61738586	-0.36695862	0.28746033
13903435030098	-0.62594604	-0.37672424	0.30578613
13903440340157	-0.63449097	-0.3889618	0.32287598
13903445161934	-0.64060974	-0.4072876	0.33876038
13903450166817	-0.64427185	-0.43293762	0.35464478
13903455537910	-0.64427185	-0.46470642	0.37174988
13903460237617	-0.64183044	-0.49401855	0.39007568
13903464723701	-0.64183044	-0.51356506	0.39007568
13903470308418	-0.63938904	-0.51356506	0.40716553
13903475313301	-0.6369324	-0.5172272	0.42304993
13903480409737	-0.63327026	-0.50624084	0.43649292
13903485414619	-0.62838745	-0.48303223	0.44628906
13903492586250	-0.60762024	-0.45492554	0.4584961
13903495546455	-0.60762024	-0.39016724	0.4584961
13903500520821	-0.59661865	-0.39016724	0.46217346
13903505830879	-0.58807373	-0.357193	0.46461487
13903510591621	-0.5844116	-0.330307	0.4658203
13903515230293	-0.5819702	-0.3095398	0.46705627
13903520692940	-0.57829285	-0.2936554	0.46705627
13903525697823	-0.57341003	-0.2814331	0.4658203
13903530733223	-0.57218933	-0.2765503	0.45970154
13903535768623	-0.57218933	-0.28755188	0.45117188
13903541170235	-0.57218933	-0.32054138	0.44137573
13903545839424	-0.56973267	-0.3779602	0.43040466
13903550874825	-0.5685272	-0.45370483	0.41696167
13903556245918	-0.56729126	-0.5379944	0.40107727
13903560945625	-0.5660858	-0.6186218	0.38275146
13903564272041	-0.5660858	-0.6833954	0.38275146
13903571046944	-0.56484985	-0.6833954	0.33876038
13903576021309	-0.561203	-0.75546265	0.31433105
13903581087227	-0.5563202	-0.7603607	0.28866577
13903586092110	-0.5502014	-0.7481384	0.26669312
13903591554756	-0.54164124	-0.7224884	0.24713135
13903596162910	-0.52819824	-0.68704224	0.2276001
13903601228828	-0.508667	-0.65283203	0.20803833
13903606447334	-0.48789978	-0.62841797	0.18971252
13903611299629	-0.48789978	-0.6222992	0.18971252
13903615999336	-0.4646759	-0.6222992	0.17138672
13903621370430	-0.44145203	-0.6357422	0.15673828
13903626405830	-0.4133606	-0.6638336	0.14694214
13903631441231	-0.3791504	-0.7017212	0.14450073
13903636446114	-0.34007263	-0.7481384	0.1457367
13903641786690	-0.29974365	-0.80189514	0.1457367
13903646577950	-0.26065063	-0.8605499	0.13841248
13903651582832	-0.22155762	-0.91552734	0.121292114
13903656862373	-0.17512512	-0.9595032	0.09564209
13903661653633	-0.11282349	-0.9863739	0.065093994
13903665010567	-0.030975342	-0.9924774	0.03211975
13903671693916	0.0667572	-0.9729309	-0.003326416
13903676759834	0.17427063	-0.9216156	-0.046051025
13903681825752	0.28422546	-0.84098816	-0.09738159
13903686861153	0.38807678	-0.7408142	-0.15602112
13903692537422	0.48336792	-0.6333008	-0.22200012
13903696870918	0.5713196	-0.52700806	-0.29286194
13903701967354	0.65930176	-0.43293762	-0.3649292
13903707155342	0.7594757	-0.3547516	-0.43333435
13903712007637	0.8681946	-0.2899933	-0.49443054
13903715364571	0.8681946	-0.23135376	-0.49443054
13903722078438	1.089325	-0.23135376	-0.5860596
13903727144356	1.1944122	-0.10429382	-0.6263733
13903732149239	1.3019257	-0.03465271	-0.6715851
13903737184639	1.4155426	0.027648926	-0.72532654
13903742586250	1.5426025	0.071624756	-0.7876587
13903747224922	1.6855469	0.08628845	-0.85606384
13903752260323	1.845581	0.0655365	-0.9147186
13903757509346	2.0190735	0.0032196045	-0.95137024
13903762361641	2.0190735	-0.11773682	-0.95137024
13903765749092	2.182785	-0.11773682	-0.95625305
13903772432442	2.3122864	-0.30465698	-0.930603
13903777437325	2.3819427	-0.548996	-0.8805084
13903782503242	2.3770294	-0.8165436	-0.8133087
13903787508125	2.296402	-1.0584564	-0.73023987
13903792787666	2.155899	-1.2319336	-0.63371277
13903797609444	1.986084	-1.3076935	-0.52497864
13903802644844	1.819931	-1.2673645	-0.4113617
13903808107491	1.6831055	-1.1000061	-0.2965088
13903812715645	1.5865936	-0.8104553	-0.18655396
13903816103096	1.536499	-0.4280548	-0.08882141
13903822786446	1.536499	7.7819824E-4	-0.0057678223
13903827791328	1.5963593	0.42225647	0.057769775
13903832857246	1.7221985	0.7887726	0.098083496
13903837892647	1.912796	1.0514374	0.11274719
13903843202705	2.1461334	1.1662903	0.10784912
13903847993965	2.3770294	1.1052094	0.09564209
13903852998848	2.5493011	0.8852844	0.089538574
13903858308907	2.6152802	0.5517578	0.098083496
13903863100166	2.5603027	0.16569519	0.11885071
13903866426582	2.5603027	-0.23501587	0.11885071
13903873140450	2.169342	-0.23501587	0.1823883
13903878145332	1.9237823	-1.0327911	0.22148132
13903883211250	1.7099762	-1.4286499	0.26179504
13903888277168	1.5609131	-1.807373	0.29600525
13903893709297	1.4912872	-2.1457825	0.31311035
13903898286934	1.4912872	-2.4109192	0.30455017
13903903322334	1.4912872	-2.4109192	0.30455017
13903908723946	1.5426025	-2.5721588	0.21536255
13903913423653	1.6208038	-2.607605	0.21536255
13903916750069	1.7075348	-2.5086517	0.14450073
13903923524971	1.793045	-2.2887268	0.06265259
13903928560371	1.872467	-1.9857483	-0.02407837
13903933565254	1.9506531	-1.6412201	-0.11325073
13903938570137	2.0325012	-1.2893677	-0.19999695
13903944093819	2.1156006	-0.9521637	-0.27574158
13903948671455	2.1913452	-0.64430237	-0.3356018
13903953737373	2.2304382	-0.38160706	-0.3869171
13903959230537	2.1876678	-0.20202637	-0.43945313
13903963808174	2.0202942	-0.16783142	-0.5005493
13903967165108	1.7368469	-0.3290863	-0.56895447
13903973878975	1.4130859	-0.6491852	-0.6385956
13903978853340	1.155304	-0.9741516	-0.6972351
13903983949776	1.0404663	-1.1109772	-0.72779846
13903988924141	1.0710144	-0.9485016	-0.7155609
13903994234200	1.1944122	-0.5184479	-0.6703491
13903999086494	1.3446655	0.044769287	-0.61660767
13904004060860	1.483963	0.60795593	-0.57629395
13904009676094	1.5975647	1.0966492	-0.54818726
13904014101143	1.6782227	1.4998169	-0.52375793
13904017488594	1.6782227	1.8235779	-0.52375793
13904024202461	1.7050934	1.8235779	-0.47366333
13904029207344	1.6391296	2.254837	-0.45289612
13904034273262	1.5303802	2.3721313	-0.4296875
13904039369698	1.3862305	2.422226	-0.3930359
13904044618721	1.2139587	2.3990173	-0.33439636
13904049348946	1.2139587	2.3061676	-0.33439636
13904054414864	1.0245819	2.3061676	-0.25253296
13904059694405	0.8254547	2.1705475	-0.15234375
13904064485664	0.62753296	2.0312653	-0.046051025
13904067842598	0.43449402	1.9127655	0.05532837
13904074556465	0.24757385	1.8223572	0.1457367
13904079591866	0.067977905	1.7575989	0.22148132
13904084657784	-0.10914612	1.7123871	0.27890015
13904089693184	-0.28753662	1.6781921	0.32043457
13904095125313	-0.4646759	1.6390991	0.34976196
13904099763985	-0.6369324	1.5706787	0.36930847
13904104768867	-0.8018646	1.4607239	0.38519287
13904110262032	-0.95825195	1.3177795	0.39863586
13904114839668	-1.1011963	1.1589508	0.41207886
13904118196602	-1.2270355	1.0013428	0.42796326
13904124910469	-1.3296661	0.870636	0.44873047
13904129915352	-1.4066315	0.791214	0.47558594
13904134981270	-1.4493866	0.7802124	0.50491333
13904140016670	-1.4506073	0.8388672	0.5269165
13904145509834	-1.4066315	0.94392395	0.5305786
13904150331612	-1.321106	1.0673218	0.519577
13904155122871	-1.1989441	1.1809387	0.5000305
13904161073799	-1.049881	1.2652435	0.46826172
13904165193672	-0.87272644	1.3116608	0.40716553
13904168550606	-0.87272644	1.3238983	0.40716553
13904175264473	-0.4487915	1.3238983	0.1616211
13904180269356	-0.2166748	1.3214569	3.5095215E-4
13904185335274	0.0154418945	1.3434296	-0.16334534
13904190431709	0.0154418945	1.372757	-0.31607056
13904195680733	0.23413086	1.372757	-0.4480133
13904200746651	0.4271698	1.350769	-0.4480133
13904205446358	0.5847626	1.350769	-0.55918884
13904211275215	0.7069397	1.306778	-0.7485657
13904215547676	0.7924652	1.2640381	-0.7485657
13904218904610	0.8413391	1.2090454	-0.8304138
13904225618477	0.8498688	1.1198578	-0.89759827
13904230775948	0.82177734	0.9818115	-0.94892883
13904235719795	0.7570343	0.80589294	-0.9843445
13904241060371	0.6605072	0.6067352	-0.9965515
13904246095772	0.53956604	0.40270996	-0.9782257
13904251009102	0.4137268	0.21211243	-0.91960144
13904255830879	0.30621338	0.060653687	-0.8267517
13904261568184	0.23413086	-0.045639038	-0.7106781
13904265901680	0.19503784	-0.12382507	-0.5897217
13904269258614	0.164505	-0.19958496	-0.4797821
13904275972481	0.10952759	-0.2948761	-0.39179993
13904281038399	0.008117676	-0.41581726	-0.3319397
13904286043282	-0.1360321	-0.55511475	-0.28796387
13904291139717	-0.29606628	-0.6956024	-0.24276733
13904296480293	-0.4365692	-0.80311584	-0.18411255
13904301424141	-0.53308105	-0.84954834	-0.11203003
13904306154366	-0.5709686	-0.832428	-0.031402588
13904312624092	-0.54408264	-0.77378845	0.051651
13904316255684	-0.4451294	-0.70536804	0.12496948
13904319612617	-0.4451294	-0.6455078	0.12496948
13904326357002	-0.09693909	-0.6455078	0.17138672
13904331453438	0.047210693	-0.62353516	0.13595581
13904336397285	0.047210693	-0.680954	0.13595581
13904341554756	0.087524414	-0.680954	0.077316284
13904346742744	0.0044403076	-0.75914	0.01499939
13904352266426	-0.35350037	-0.8165436	-0.038726807
13904356569405	-0.35350037	-0.8141022	-0.038726807
13904362062569	-0.5025482	-0.8141022	-0.003326416
13904366609688	-0.586853	-0.7921295	0.07243347
13904369966621	-0.60517883	-0.77745056	0.16770935
13904376680489	-0.57463074	-0.7603607	0.25935364
13904381868477	-0.5111084	-0.7224884	0.33265686
13904386781807	-0.4341278	-0.64430237	0.39007568
13904392549629	-0.35472107	-0.50624084	0.4401703
13904397066231	-0.28018188	-0.2936554	0.4975891
13904402620430	-0.21788025	-0.013885498	0.5684509
13904406923409	-0.17512512	0.3000946	0.65153503
13904412325020	-0.1641388	0.6067352	0.7346039
13904416963692	-0.18856812	0.8755188	0.804245
13904420290108	-0.23988342	1.0990906	0.85066223
13904427034492	-0.30950928	1.2884521	0.86776733
13904432283516	-0.3950348	1.469284	0.8494415
13904437105293	-0.50987244	1.6659698	0.7956848
13904442903633	-0.67237854	1.9017639	0.70407104
13904447572823	-0.90083313	2.193756	0.5806732
13904452882881	-1.202591	2.5505066	0.4291687
13904457246895	-1.5593414	2.9695587	0.25813293
13904462740059	-1.9368439	3.4032593	0.08097839
13904467317696	-2.2874908	3.7416992	-0.08760071
13904470674629	-2.2874908	3.8003235	-0.08760071
13904477388496	-2.5599365	3.8003235	-0.3649292
13904482698555	-2.7138672	3.3971558	-0.4773407
13904487459297	-2.7138672	1.0429077	-0.4773407
13904494722481	-2.3668976	1.0429077	-0.6495819
13904497774239	-2.3668976	-2.043167	-0.6495819
13904503816719	-1.9429626	-2.043167	-0.7400055
13904507600899	-1.9429626	-3.88797	-0.7400055
13904513246651	-1.8293457	-3.88797	-0.7790985
13904517641182	-1.7926941	-4.111557	-0.82307434
13904521028633	-1.8073425	-3.931961	-0.85850525
13904527773018	-1.8415527	-3.4713593	-0.86338806
13904533388252	-1.8659973	-2.882492	-0.81941223
13904537813301	-1.8635559	-2.2924042	-0.7167969
13904543428535	-1.8342285	-1.7768402	-0.56407166
13904548128242	-1.7890167	-1.3565521	-0.383255
13904553773994	-1.7377167	-1.0303497	-0.20611572
13904557954903	-1.6864014	-0.78479004	-0.06317139
13904563539619	-1.6289825	-0.60765076	0.03211975
13904568025703	-1.5642395	-0.49035645	0.0821991
13904571413155	-1.4970245	-0.42926025	0.09686279
13904578096504	-1.4335022	-0.43170166	0.09197998
13904583620186	-1.3785248	-0.5001221	0.077316284
13904588167305	-1.3406525	-0.6308594	0.056549072
13904594087715	-1.321106	-0.80677795	0.034561157
13904598421211	-1.3149872	-1.0010376	0.017440796
13904603975410	-1.3113403	-1.1769562	0.011352539
13904608308907	-1.2966614	-1.2881317	0.016235352
13904614534492	-1.2661285	-1.3003693	0.030883789
13904618379707	-1.2233582	-1.208725	0.051651
13904621736641	-1.2233582	-1.0389099	0.051651
13904628450508	-1.1757202	-1.0389099	0.07853699
13904633913155	-1.1317444	-0.82754517	0.15184021
13904638521309	-1.0950928	-0.3938446	0.15184021
13904644197578	-1.0694427	-0.3938446	0.18727112
13904649049873	-1.0547638	-0.21057129	0.22024536
13904654695625	-1.0474396	-0.07008362	0.25445557
13904658662910	-1.0437622	0.020324707	0.28866577
13904664522285	-1.0437622	0.059417725	0.31921387
13904668764229	-1.0572052	0.04597473	0.33876038
13904672090645	-1.0987549	-0.02609253	0.34732056
13904678835030	-1.1757202	-0.14950562	0.35586548
13904684480782	-1.2795715	-0.29977417	0.3790741
13904688875313	-1.3773041	-0.44270325	0.42184448
13904694582100	-1.4310608	-0.5404358	0.48049927
13904699159737	-1.4188385	-0.5673218	0.54156494
13904705232735	-1.351654	-0.5001221	0.598999
13904709016914	-1.255127	-0.33518982	0.65153503
13904714967842	-1.14151	-0.11038208	0.7028351
13904719087715	-1.0169067	0.0899353	0.7504883
13904722414131	-1.0169067	0.184021	0.7504883
13904729158516	-0.7542114	0.184021	0.8018036
13904734895821	-0.64427185	7.7819824E-4	0.7859192
13904739229317	-0.55996704	-0.16539001	0.74072266
13904745546455	-0.5062256	-0.2960968	0.6710663
13904749513741	-0.4842224	-0.37184143	0.5831146
13904755708809	-0.495224	-0.41337585	0.48414612
13904759370918	-0.53063965	-0.46102905	0.3839569
13904764986153	-0.57218933	-0.54533386	0.29112244
13904769411201	-0.57218933	-0.666275	0.29112244
13904772798653	-0.6027374	-0.666275	0.21047974
13904779512520	-0.60517883	-0.79577637	0.14450073
13904785463448	-0.534317	-0.89108276	0.05532837
13904789583321	-0.534317	-0.88131714	0.05532837
13904795961494	-0.43536377	-0.88131714	-0.003326416
13904800020332	-0.43536377	-0.6723938	-0.003326416
13904805940742	-0.3999176	-0.6723938	-0.035079956
13904809724922	-0.3803711	-0.5587616	-0.0692749
13904815401192	-0.37060547	-0.47203064	-0.102264404
13904819795723	-0.36572266	-0.43293762	-0.12913513
13904823152657	-0.3620453	-0.45248413	-0.14379883
13904829897041	-0.35227966	-0.52578735	-0.14135742
13904835909004	-0.32783508	-0.6296234	-0.12181091
13904839937325	-0.27897644	-0.73957825	-0.08882141
13904846254463	-0.2007904	-0.83610535	-0.054611206
13904850435371	-0.09815979	-0.89964294	-0.031402588
13904856386299	0.0178833	-0.9142914	-0.026519775
13904860078926	0.13517761	-0.86787415	-0.04484558
13904866182442	0.24757385	-0.75914	-0.08149719
13904870119209	0.35507202	-0.60520935	-0.12913513
13904873506660	0.35507202	-0.4280548	-0.12913513
13904880251045	0.6030884	-0.4280548	-0.22932434
13904886476631	0.75213623	-0.084732056	-0.2830658
13904890291328	0.9073181	0.082611084	-0.3478241
13904896486397	1.0526886	0.25608826	-0.43089294
13904900575752	1.1797485	0.42591858	-0.52864075
13904906923409	1.2921448	0.56152344	-0.6349335
13904910402412	1.2921448	0.6311798	-0.7400055
13904915437813	1.4021149	0.6189575	-0.7400055
13904920534248	1.5303802	0.6189575	-0.83529663
13904923860664	1.689209	0.5248718	-0.91716003
13904930574532	1.8749084	0.36361694	-0.98802185
13904936830635	2.2487488	0.15715027	-1.1101837
13904940645332	2.2487488	-0.23623657	-1.1101837
13904945680733	2.3917084	-0.23623657	-1.1663818
13904950929756	2.4808807	-0.3461914	-1.2164764
13904955721016	2.5053253	-0.36819458	-1.2555695
13904960756416	2.471115	-0.316864	-1.2775726
13904966005440	2.3977966	-0.22525024	-1.2726746
13904970857735	2.3049622	-0.13482666	-1.236023
13904974184151	2.2035522	-0.076187134	-1.1676025
13904980928535	2.0948334	-0.05908203	-1.0747528
13904987306709	1.9799805	-0.052978516	-0.9660187
13904990999336	1.8773499	0.010559082	-0.85362244
13904996034737	1.8174896	0.2035675	-0.7485657
13905001405830	1.8406982	0.54808044	-0.6581421
13905006075020	1.9665375	0.98301697	-0.58361816
13905011140938	2.1779022	1.3947449	-0.52375793
13905016512032	2.418579	1.6818542	-0.46878052
13905021181221	2.6164856	1.7979279	-0.4138031
13905024568672	2.6164856	1.7441559	-0.4138031
13905031313057	2.6959076	1.7441559	-0.2855072
13905037660713	2.5578613	1.1736145	-0.21343994
13905041353340	2.3269348	0.66537476	-0.13645935
13905046388741	2.0447388	0.031326294	-0.058288574
13905051790352	1.7527313	-0.68704224	0.016235352
13905056459541	1.7527313	-1.4359741	0.08097839
13905061494942	1.4864044	-1.4359741	0.08097839
13905066927071	1.2640533	-2.1629028	0.17506409
13905071565742	1.0954437	-3.3394165	0.17506409
13905074922676	0.99160767	-3.3394165	0.21536255
13905081636543	0.963501	-3.6680603	0.2642517
13905086641426	1.0135956	-3.7377014	0.33265686
13905091676826	1.1320953	-3.4945679	0.4108429
13905096742744	1.2970428	-2.9228058	0.4584961
13905101991768	1.4912872	-2.0749207	0.4267273
13905106813545	1.6953125	-1.0853271	0.28866577
13905111848946	1.8871155	-0.11773682	0.06997681
13905117128487	2.0312958	0.69226074	-0.18778992
13905121919746	2.1058044	1.2591248	-0.45166016
13905125276680	2.1156006	1.5450287	-0.69847107
13905131990547	2.0948334	1.5718994	-0.89759827
13905137025948	2.077713	1.4387207	-1.017334
13905142061348	2.0728302	1.2860107	-1.0503235
13905147096748	2.0691528	1.2102661	-1.022232
13905152376289	2.0447388	1.2212677	-0.9635773
13905157167549	1.9885254	1.2701263	-0.88905334
13905162202950	1.8969116	1.3116608	-0.8010864
13905167451973	1.7771759	1.3409882	-0.7057953
13905172273750	1.6403351	1.3849792	-0.61660767
13905175600166	1.6403351	1.4790497	-0.61660767
13905182344551	1.3495789	1.4790497	-0.48954773
13905187379951	1.2041931	1.8174591	-0.44677734
13905192415352	1.0575714	2.0007324	-0.4113617
13905197481270	0.9073181	2.14122	-0.3820343
13905202852364	0.75213623	2.2084198	-0.35638428
13905207521553	0.75213623	2.193756	-0.35638428
13905212526436	0.59698486	2.193756	-0.3294983
13905217989082	0.4491577	2.11557	-0.29774475
13905222627754	0.3135376	2.0141754	-0.25985718
13905226015205	0.18647766	1.9298706	-0.21708679
13905232729073	0.06309509	1.8834381	-0.16578674
13905237703438	-0.063964844	1.8785553	-0.110809326
13905242769356	-0.2007904	1.9029846	-0.061935425
13905247804756	-0.35105896	1.9433136	-0.025283813
13905253206367	-0.5135498	1.9799652	0.0040130615
13905257906075	-0.68336487	1.9872894	0.03211975
13905262910957	-0.8531952	1.944519	0.06265259
13905268678780	-1.0205536	1.8480072	0.09197998
13905272981758	-1.1867065	1.7172699	0.12007141
13905276369209	-1.3430939	1.5767975	0.1506195
13905283052559	-1.4799347	1.4497223	0.19094849
13905288057442	-1.5837708	1.350769	0.24713135
13905293123360	-1.644867	1.2872467	0.31799316
13905298128242	-1.6582947	1.2591248	0.3949585
13905303407784	-1.6265411	1.2566833	0.46949768
13905308229561	-1.5495605	1.2652435	0.5317993
13905313264961	-1.4212799	1.2676849	0.5660095
13905318880196	-1.2331543	1.2554779	0.55989075
13905323305244	-0.970459	1.2371521	0.5012665
13905326692696	-0.970459	1.2298279	0.5012665
13905333406563	-0.24597168	1.2298279	0.23124695
13905338411446	0.15594482	1.2799225	0.045547485
13905343477364	0.52490234	1.3214569	-0.14135742
13905348512764	0.52490234	1.3617554	-0.14135742
13905353944893	1.0307007	1.3617554	-0.44189453
13905358583565	1.0307007	1.4399567	-0.44189453
13905363618965	1.1369781	1.4399567	-0.54696655
13905368867989	1.1540985	1.4533997	-0.6239319
13905373689766	1.1015625	1.4204102	-0.67770386
13905377046700	1.0013733	1.3324432	-0.71191406
13905383760567	0.87187195	1.193161	-0.7314453
13905388826485	0.7289276	1.0196686	-0.74121094
13905393831367	0.59576416	0.83154297	-0.7424469
13905398897285	0.49925232	0.64460754	-0.72532654
13905404268379	0.45526123	0.4613495	-0.6764679
13905408968086	0.4454956	0.2610016	-0.5897217
13905413972969	0.422287	0.006881714	-0.4797821
13905419466133	0.33918762	-0.32662964	-0.369812
13905424043770	0.177948	-0.7139282	-0.28674316
13905427400703	-0.04319763	-1.0792236	-0.24032593
13905434145088	-0.29606628	-1.3529053	-0.22808838
13905439119453	-0.5563202	-1.5202637	-0.23788452
13905444185371	-0.8165436	-1.6143341	-0.26963806
13905449190254	-1.0669861	-1.6607666	-0.32095337
13905454469795	-1.2868958	-1.6546631	-0.37347412
13905459291573	-1.4017334	-1.5776825	-0.396698
13905464326973	-1.280777	-1.4249725	-0.3600464
13905469850655	-0.831192	-1.1903992	-0.25621033
13905474428291	-0.13114929	-0.858078	-0.10348511
13905477724190	-0.13114929	-0.42926025	-0.10348511
13905484438057	0.936615	-0.42926025	0.24836731
13905489473457	0.936615	0.4308014	0.42549133
13905494569893	0.94885254	0.4308014	0.42549133
13905499574776	0.705719	0.6055145	0.58799744
13905504976387	0.38807678	0.494339	0.7211609
13905509676094	0.098526	0.14859009	0.8079071
13905514650459	-0.13237	-0.28388977	0.8494415
13905519991035	-0.31562805	-0.640625	0.8628845
13905524751778	-0.46221924	-0.82388306	0.86654663
13905528108711	-0.5770874	-0.80555725	0.86776733
13905534822578	-0.6552582	-0.6112976	0.8641052
13905539857979	-0.6943512	-0.291214	0.856781
13905544893379	-0.6943512	0.08505249	0.8494415
13905549898262	-0.6687012	0.4466858	0.85066223
13905555330391	-0.64060974	0.7570038	0.8628845
13905560030098	-0.62716675	1.0245819	0.8775482
13905565004463	-0.63938904	1.2835693	0.8861084
13905570436592	-0.67726135	1.5670013	0.88365173
13905575105782	-0.7371216	1.8858795	0.86654663
13905578462715	-0.8275299	2.2365112	0.8250122
13905585176582	-0.9753418	2.6262512	0.7504883
13905590211983	-1.2233582	3.0648499	0.64053345
13905595247383	-1.5972137	3.518097	0.4963684
13905600313301	-2.0663605	3.8418732	0.31799316
13905605684395	-2.526947	3.8088837	0.11274719
13905610384102	-2.8531494	3.231018	-0.10714722
13905615388985	-2.9631195	2.1094513	-0.31973267
13905621156807	-2.872696	0.6702728	-0.50787354
13905625459785	-2.6637726	-0.7603607	-0.6569214
13905628816719	-2.6637726	-1.9161072	-0.6569214
13905635530586	-2.423111	-1.9161072	-0.7962036
13905640535469	-2.2007446	-2.660141	-0.7962036
13905645601387	-2.0052643	-2.9667969	-0.8059845
13905650636787	-1.8305664	-2.8873901	-0.8181915
13905655916328	-1.6802979	-2.542862	-0.85972595
13905660738106	-1.5569	-2.0956879	-0.9256897
13905665773506	-1.4676971	-1.6913147	-0.97457886
13905671053047	-1.4200745	-1.3919983	-0.95625305
13905675844307	-1.4261627	-1.1818542	-0.8475189
13905679170723	-1.4958191	-1.0181427	-0.6581421
13905685884590	-1.6143188	-0.86543274	-0.42356873
13905690919991	-1.7401581	-0.6992798	-0.18289185
13905695985909	-1.8244629	-0.5025635	0.026000977
13905700990791	-1.8330078	-0.2631073	0.1799469
13905706789131	-1.7597198	0.0044403076	0.27278137
13905711061592	-1.6277618	0.25852966	0.31311035
13905716096992	-1.4750519	0.4491272	0.31921387
13905721376534	-1.3443146	0.5358734	0.30088806
13905726167793	-1.2600098	0.50045776	0.26545715
13905729494209	-1.2600098	0.35263062	0.21292114
13905736238594	-1.241684	0.119262695	0.14694214
13905741243477	-1.2673645	-0.16047668	0.077316284
13905746309395	-1.2856903	-0.44514465	0.021118164
13905751344795	-1.2783356	-0.6968384	-0.0069732666
13905756715889	-1.2465668	-0.8776398	-0.0069732666
13905761415596	-1.2050323	-0.9607086	0.011352539
13905766450996	-1.1720581	-0.9399414	0.034561157
13905771913643	-1.1622772	-0.83854675	0.05532837
13905776521797	-1.1720581	-0.6968384	0.07853699
13905779878731	-1.1720581	-0.54411316	0.07853699
13905786592598	-1.189148	-0.54411316	0.110305786
13905791597481	-1.2099152	-0.40361023	0.1481781
13905796663399	-1.2355957	-0.2973175	0.18847656
13905801698799	-1.2783356	-0.24845886	0.22636414
13905806947823	-1.347992	-0.27288818	0.27157593
13905811739082	-1.4469299	-0.3645172	0.33509827
13905816805000	-1.5544434	-0.48791504	0.4242859
13905822237129	-1.6265411	-0.5954132	0.5366821
13905826875801	-1.622879	-0.6381836	0.6576233
13905830202217	-1.5471191	-0.5832062	0.7724762
13905836946602	-1.4322815	-0.423172	0.8726654
13905841951485	-1.3198853	-0.17636108	0.9594116
13905847017403	-1.2257996	0.09605408	1.0339203
13905852052803	-1.1463928	0.30618286	1.0901184
13905857301826	-1.0718842	0.37094116	1.1157684
13905862123604	-0.9961395	0.25120544	1.0962372
13905867159004	-0.9167175	-0.016326904	1.0302582
13905872438545	-0.8373108	-0.33763123	0.92276
13905877229805	-0.75665283	-0.613739	0.7932434
13905880556221	-0.75665283	-0.78845215	0.7932434
13905887300606	-0.61372375	-0.78845215	0.53912354
13905892305489	-0.5709686	-0.8739624	0.4340515
13905897401924	-0.5550842	-0.86787415	0.34609985
13905902406807	-0.56240845	-0.8641968	0.27401733
13905907838936	-0.5795288	-0.8531952	0.21292114
13905912477608	-0.58561707	-0.80921936	0.1616211
13905917482491	-0.5660858	-0.7139282	0.11152649
13905922762032	-0.508667	-0.5795288	0.05899048
13905927583809	-0.508667	-0.43659973	0.05899048
13905930910225	-0.4096985	-0.43659973	-0.002090454
13905937624092	-0.27774048	-0.32054138	-0.07661438
13905942690010	-0.1348114	-0.23501587	-0.17311096
13905947725410	-0.0065460205	-0.16415405	-0.30018616
13905952791328	0.096084595	-0.08229065	-0.45410156
13905958131905	0.1803894	0.014221191	-0.61660767
13905962831612	0.26467896	0.11315918	-0.7693329
13905967867012	0.3636322	0.20478821	-0.9000397
13905973299141	0.47602844	0.30374146	-1.0112305
13905977907295	0.6055298	0.43447876	-1.1101837
13905981325264	0.7570343	0.6030731	-1.200592
13905988039131	0.94029236	0.7863312	-1.2824554
13905993044014	1.1577454	0.94392395	-1.3606415
13905998079414	1.4033203	1.0514374	-1.432724
13906003114815	1.6611023	1.1125336	-1.4889069
13906008333321	1.9274445	1.1369629	-1.5145874
13906013185616	2.196228	1.1296387	-1.4962616
13906018221016	2.466217	1.0954285	-1.431488
13906023622627	2.7191162	1.0404358	-1.3349762
13906028261299	2.917038	0.98057556	-1.2311249
13906031648750	2.917038	0.92315674	-1.2311249
13906038332100	2.9793549	0.92315674	-1.0918579
13906043398018	2.826645	0.8095398	-1.0723114
13906048433418	2.6116028	0.738678	-1.056427
13906053468819	2.4063568	0.63972473	-1.0148773
13906058717842	2.2585297	0.49189758	-0.9318085
13906063539619	2.1766663	0.2793274	-0.8181915
13906068544502	2.1766663	0.013000488	-0.7009125
13906073885078	2.116806	0.013000488	-0.59584045
13906078615303	2.116806	-0.370636	-0.59584045
13906082002754	2.0960388	-0.370636	-0.5054321
13906088716621	2.0765076	-0.3095398	-0.43333435
13906093752022	2.0703888	-0.07984924	-0.3856964
13906098756905	2.0862732	0.20722961	-0.37347412
13906103822823	2.1253662	0.42347717	-0.39179993
13906109193916	2.1730194	0.49189758	-0.4162445
13906113863106	2.204773	0.39416504	-0.41500854
13906118929024	2.196228	0.13392639	-0.369812
13906124300117	2.1290436	-0.27288818	-0.28186035
13906128999825	2.0019684	-0.79945374	-0.17190552
13906132356758	1.8309326	-1.3956451	-0.06317139
13906139101143	1.6427765	-1.9979706	0.02355957
13906144106026	1.4656372	-2.5404205	0.08097839
13906149141426	1.3251343	-2.9582367	0.1164093
13906154176826	1.2408295	-3.1964722	0.1457367
13906159425850	1.2164001	-3.2013702	0.1799469
13906164278145	1.2457275	-2.9338074	0.21780396
13906169283028	1.3153687	-2.4072418	0.23248291
13906174745674	1.4155426	-1.7169647	0.20191956
13906179323311	1.5340576	-1.0230255	0.117630005
13906182710762	1.5340576	-0.46347046	0.117630005
13906189394112	1.7625122	-0.46347046	-0.15234375
13906194429512	1.8358154	0.1717987	-0.3148346
13906199525948	1.8663483	0.39048767	-0.5029907
13906204561348	1.845581	0.5920868	-0.7216797
13906209810371	1.7735138	0.7276764	-0.95137024
13906214632149	1.7735138	0.7411194	-1.1468353
13906219637032	1.6647797	0.7411194	-1.1468353
13906224947090	1.5597076	0.651947	-1.2555695
13906229677315	1.4986115	0.5517578	-1.2592468
13906233064766	1.4973907	0.5309906	-1.1834717
13906239778633	1.5462646	0.62506104	-1.0784149
13906244783516	1.6158905	0.81321716	-0.97702026
13906249818916	1.6769867	1.0453491	-0.88539124
13906254884834	1.7001953	1.2615662	-0.80352783
13906260255928	1.6794281	1.4228516	-0.7375641
13906264955635	1.6183624	1.5315857	-0.6972351
13906269991035	1.5267181	1.6183319	-0.6752472
13906275240059	1.4069977	1.7062988	-0.6557007
13906280061836	1.260376	1.779602	-0.6263733
13906283418770	1.0930023	1.8186951	-0.588501
13906290132637	0.9158478	1.8150177	-0.54818726
13906295168037	0.7423706	1.7856903	-0.51031494
13906300203438	0.587204	1.7380676	-0.46754456
13906305269356	0.4540558	1.6659698	-0.41012573
13906310640450	0.33309937	1.5841217	-0.3466034
13906315340157	0.20359802	1.5389099	-0.2855072
13906320345039	0.055755615	1.5731201	-0.23176575
13906326082344	-0.104263306	1.6891785	-0.17799377
13906330415840	-0.27165222	1.8321381	-0.1169281
13906333742256	-0.27165222	1.9518433	-0.1169281
13906340486641	-0.63204956	1.9518433	0.019897461
13906345522041	-0.8434143	2.0776978	0.0834198
13906350557442	-1.0779724	2.0923615	0.13961792
13906355592842	-1.3235474	2.0727997	0.18847656
13906360841866	-1.5593414	2.0190582	0.2276001
13906365663643	-1.5593414	1.9408722	0.2276001
13906370668526	-1.7682495	1.9408722	0.26057434
13906376192207	-1.9295197	1.8516693	0.29234314
13906380769844	-2.0223846	1.7575989	0.32655334
13906384126778	-2.0211487	1.6659698	0.3631897
13906390810127	-1.9136353	1.5743561	0.4022827
13906395845528	-1.7071686	1.4851685	0.4450531
13906400911446	-1.4163971	1.3947449	0.48049927
13906405946846	-1.0608826	1.2896881	0.48049927
13906411165352	-0.64671326	1.154068	0.4132843
13906416017647	-0.18122864	0.9818115	0.27278137
13906421022530	0.31477356	0.79489136	0.0821991
13906426302071	0.7912445	0.6336212	-0.114471436
13906431093330	1.1858673	0.5371094	-0.28430176
13906434480782	1.4472961	0.5261078	-0.4138031
13906441225166	1.5609131	0.60917664	-0.5054321
13906446260567	1.5413818	0.7667694	-0.56163025
13906451234932	1.4216461	0.9451599	-0.58117676
13906456270332	1.2359467	1.0709991	-0.56285095
13906461671944	1.0221405	1.0783234	-0.51519775
13906466371651	0.81689453	0.9500427	-0.45289612
13906471376534	0.64585876	0.71546936	-0.3856964
13906476686592	0.5175781	0.42591858	-0.31362915
13906481477852	0.41740417	0.11682129	-0.22320557
13906484834785	0.41740417	-0.19592285	-0.22320557
13906491548653	0.28666687	-0.19592285	0.011352539
13906496858711	0.27566528	-0.83122253	0.09686279
13906501619453	0.27566528	-1.1635132	0.11152649
13906506654854	0.30377197	-1.4860535	0.11152649
13906511934395	0.33674622	-1.4860535	0.056549072
13906516756172	0.3282013	-1.74263	-0.03262329
13906521761055	0.24024963	-1.861145	-0.12669373
13906527254219	0.067977905	-1.8122559	-0.21955872
13906531831856	-0.1665802	-1.6363373	-0.30873108
13906535219307	-0.415802	-1.4200897	-0.3795929
13906541902657	-0.62716675	-1.2319336	-0.41500854
13906546907539	-0.753006	-1.0780029	-0.40402222
13906551973457	-0.77253723	-0.9277344	-0.344162
13906557039375	-0.70047	-0.7579193	-0.23544312
13906562288399	-0.5795288	-0.5819702	-0.082717896
13906567079659	-0.47077942	-0.44026184	0.09686279
13906572115059	-0.4170227	-0.37916565	0.28256226
13906577608223	-0.4316864	-0.4280548	0.46217346
13906582185860	-0.5037842	-0.5856476	0.62953186
13906585542793	-0.60762024	-0.80921936	0.7871399
13906592287178	-0.7212372	-1.0291443	0.93984985
13906597261543	-0.8275299	-1.1733093	1.0864563
13906602296944	-0.91915894	-1.195282	1.2232819
13906607393379	-0.9936676	-1.0853271	1.3381348
13906612581367	-1.0584412	-0.8641968	1.4175568
13906617433662	-1.1268463	-0.56243896	1.4554138
13906622469063	-1.2062683	-0.22401428	1.4602966
13906627748604	-1.2917786	0.10949707	1.4444122
13906632570381	-1.3712006	0.40148926	1.4187622
13906635896797	-1.3712006	0.64582825	1.4187622
13906642610664	-1.4848175	0.64582825	1.3442535
13906647646065	-1.4848175	1.1137543	1.2953796
13906652681465	-1.5287933	1.1137543	1.2953796
13906657747383	-1.595993	1.4301758	1.2440643
13906663148994	-1.7230377	1.8394623	1.1915436
13906667818184	-1.9270782	2.3110504	1.1231232
13906672914619	-2.1787567	2.7337494	1.009491
13906678682442	-2.4072266	2.9170227	0.8250122
13906682924385	-2.5440521	2.6848907	0.5684509
13906686250801	-2.5721588	1.9934082	0.27401733
13906692995186	-2.5208282	0.9928131	-0.0155181885
13906698000069	-2.4389954	-0.048080444	-0.27941895
13906703035469	-2.360794	-0.88864136	-0.5115509
13906708101387	-2.2923737	-1.4322968	-0.7033539
13906713441963	-2.2276306	-1.7145233	-0.83651733
13906718172188	-2.146988	-1.8293762	-0.89027405
13906723207588	-2.0394745	-1.8623505	-0.87561035
13906729127998	-1.9136353	-1.8794708	-0.81941223
13906733278389	-1.7926941	-1.9356537	-0.7510071
13906736635323	-1.7096252	-2.0492706	-0.6862335
13906743349190	-1.6790619	-2.1934357	-0.6239319
13906748354073	-1.6973877	-2.3021698	-0.54574585
13906753450508	-1.7425995	-2.3034058	-0.43577576
13906758455391	-1.7914581	-2.1555786	-0.29406738
13906763795967	-1.8207855	-1.8757935	-0.13645935
13906768556709	-1.8097992	-1.5117188	0.008911133
13906773592110	-1.7438354	-1.1073303	0.121292114
13906779268379	-1.6192017	-0.6882782	0.19703674
13906783632393	-1.4469299	-0.27166748	0.2459259
13906787019844	-1.4469299	0.10093689	0.2459259
13906793703194	-1.2563629	0.10093689	0.29112244
13906798677559	-1.0877533	0.37339783	0.29112244
13906803773994	-0.97413635	0.49310303	0.27890015
13906808839912	-0.9338074	0.43203735	0.23857117
13906814729805	-1.009552	0.19134521	0.1347351
13906818910713	-1.009552	-0.6186218	0.1347351
13906823885078	-1.0669861	-0.6186218	0.10418701
13906829713936	-1.102417	-1.003479	0.09564209
13906833986397	-1.1134186	-1.261261	0.10296631
13906837373848	-1.1072998	-1.3577881	0.121292114
13906844057198	-1.0999756	-1.3064575	0.1457367
13906849092598	-1.0987549	-1.1513062	0.17382813
13906854097481	-1.1036377	-0.9460602	0.20683289
13906859132881	-1.1085205	-0.7432556	0.24224854
13906864656563	-1.1121826	-0.57832336	0.28134155
13906869234200	-1.11586	-0.46347046	0.32533264
13906874269600	-1.1256256	-0.3914032	0.3766327
13906880098457	-1.1402893	-0.34739685	0.43040466
13906884309883	-1.1586151	-0.32174683	0.4792633
13906887666817	-1.1586151	-0.32418823	0.50979614
13906894411201	-1.2270355	-0.32418823	0.52323914
13906899416084	-1.307663	-0.46714783	0.5305786
13906904451485	-1.4139557	-0.613739	0.546463
13906909517403	-1.5104675	-0.79945374	0.57577515
13906914888496	-1.565445	-0.9888153	0.6148834
13906919588203	-1.5715637	-1.1085358	0.6576233
13906924623604	-1.5410309	-1.09021	0.7003937
13906930452461	-1.4774933	-0.9289551	0.7480469
13906934663887	-1.4774933	-0.7078247	0.8066864
13906938051338	-1.3614197	-0.54777527	0.8066864
13906944765205	-1.1842651	-0.54777527	0.87387085
13906949770088	-0.9643707	-0.52334595	0.9337311
13906954836006	-0.7420044	-0.6222992	0.9679413
13906959871407	-0.56240845	-0.7615814	0.96429443
13906965608711	-0.4475708	-0.84954834	0.91908264
13906969911690	-0.40115356	-0.8397522	0.83477783
13906974947090	-0.4133606	-0.75057983	0.7211609
13906980287666	-0.4646759	-0.640625	0.5843353
13906985048409	-0.5294342	-0.5673218	0.43649292
13906988374825	-0.5844116	-0.5526581	0.28501892
13906995119209	-0.61372375	-0.5868683	0.1335144
13907000124092	-0.61006165	-0.64430237	-0.011856079
13907005128975	-0.56729126	-0.7078247	-0.14746094
13907010225410	-0.48054504	-0.76768494	-0.26474
13907015596504	-0.3486023	-0.82510376	-0.3600464
13907020235176	-0.184906	-0.8690796	-0.4345703
13907025331612	-0.013885498	-0.8776398	-0.49443054
13907030580635	0.14006042	-0.81777954	-0.55184937
13907035371895	0.27444458	-0.6650696	-0.61416626
13907038728828	0.27444458	-0.42926025	-0.61416626
13907045412178	0.55911255	-0.42926025	-0.7534485
13907050508614	0.7533722	0.13270569	-0.82429504
13907055482979	0.9854889	0.39537048	-0.89393616
13907060579414	1.2396088	0.64582825	-0.9660187
13907065858955	1.4912872	0.8938446	-1.0503235
13907070619698	1.7246399	1.1125336	-1.1468353
13907075655098	1.9372101	1.2444763	-1.2494507
13907081148262	2.1375732	1.2322693	-1.341095
13907085725899	2.1375732	1.0575562	-1.341095
13907089082832	2.3318481	1.0575562	-1.405838
13907095766182	2.5175323	0.76312256	-1.4363708
13907100832100	2.6702576	0.4295807	-1.4424896
13907105898018	2.7631073	0.1351471	-1.4424896
13907110902901	2.774109	-0.07008362	-1.4486084
13907116212959	2.7093506	-0.16659546	-1.4620514
13907120973701	2.5957184	-0.15682983	-1.470581
13907126009102	2.466217	-0.06640625	-1.4644928
13907131471748	2.3513794	0.06185913	-1.432724
13907136079903	2.2646332	0.17913818	-1.3728638
13907139436836	2.196228	0.24511719	-1.2922211
13907146150703	2.1265717	0.2524414	-1.2067108
13907151155586	2.0483856	0.23043823	-1.135849
13907156221504	1.9799805	0.23043823	-1.0808563
13907161226387	1.9616547	0.30130005	-1.0258789
13907166505928	2.0325012	0.4515686	-0.95625305
13907171327705	2.196228	0.64949036	-0.8670654
13907176363106	2.4161377	0.830307	-0.7558899
13907181612129	2.6238403	0.92071533	-0.61538696
13907186433907	2.7533264	0.857193	-0.44189453
13907189760323	2.7533264	0.6042938	-0.44189453
13907196535225	2.6555939	0.6042938	-0.070495605
13907201540108	2.4491272	-0.41461182	0.073654175
13907206544991	2.1889038	-1.0596771	0.16770935
13907211610909	1.9225616	-1.6888733	0.21047974
13907217043037	1.6904297	-2.2423096	0.21659851
13907221712227	1.5132751	-2.685791	0.21047974
13907226747627	1.5132751	-3.0119934	0.2141571
13907232545967	1.3226929	-3.0119934	0.2434845
13907236787910	1.3226929	-3.2734375	0.2434845
13907240144844	1.2823639	-3.2734375	0.30332947
13907246858711	1.2774811	-3.1585999	0.38519287
13907251863594	1.3238983	-2.8372955	0.4633789
13907256898994	1.4289703	-2.3131714	0.4902649
13907261964912	1.575592	-1.6412201	0.4267273
13907267213936	1.7307434	-0.9106293	0.25445557
13907272035713	1.8614655	-0.20568848	-0.013092041
13907277071114	1.9421082	0.40026855	-0.34172058
13907282533760	1.9567719	0.8388672	-0.6886749
13907287141914	1.9017944	1.0575562	-0.9990082
13907290498848	1.8126068	1.048996	-1.2017975
13907297182198	1.7454071	0.8632965	-1.2445679
13907302248116	1.7356262	0.61405945	-1.1394958
13907307314034	1.7722778	0.4625702	-0.9684601
13907312318916	1.8211517	0.5371094	-0.8108673
13907317659492	1.8553467	0.8229828	-0.69358826
13907322389717	1.873703	1.1662903	-0.6080475
13907327425117	1.8761444	1.416748	-0.54818726
13907332704659	1.8614655	1.5621185	-0.5164337
13907337495918	1.8174896	1.6867371	-0.49931335
13907340883369	1.8174896	1.8345795	-0.49931335
13907347597237	1.5853577	1.8345795	-0.41500854
13907352602119	1.3874359	2.0532684	-0.3514862
13907357637520	1.1516571	2.0642548	-0.29774475
13907362672920	0.8999634	2.0276184	-0.26353455
13907368105049	0.6470642	1.9652863	-0.24276733
13907372743721	0.6470642	1.8919983	-0.24276733
13907377809639	0.4064026	1.8919983	-0.22200012
13907383119698	0.18403625	1.82724	-0.19267273
13907387849922	-0.013885498	1.7942505	-0.14990234
13907391176338	-0.184906	1.8174591	-0.09126282
13907397920723	-0.3302765	1.9017639	-0.0155181885
13907402986641	-0.45977783	2.0325012	0.07243347
13907407991524	-0.58073425	2.1827698	0.16282654
13907413057442	-0.71147156	2.3281403	0.23492432
13907418275948	-0.8666229	2.4454346	0.27401733
13907423097725	-1.0535583	2.5211792	0.28134155
13907428163643	-1.2624512	2.5480652	0.26789856
13907433534737	-1.4738159	2.5199738	0.25080872
13907438173409	-1.6595306	2.435669	0.23492432
13907441530342	-1.7804871	2.3000488	0.22636414
13907448305244	-1.8049011	2.1265564	0.23492432
13907453310127	-1.7242737	1.9335327	0.26669312
13907458376045	-1.5617981	1.7246246	0.31555176
13907463380928	-1.351654	1.4888153	0.35830688
13907468752022	-1.1195221	1.2212677	0.3656311
13907473451729	-0.85684204	0.93904114	0.32287598
13907478517647	-0.53308105	0.67759705	0.23857117
13907484377022	-0.12747192	0.47357178	0.12617493
13907488557930	0.33674622	0.35383606	3.5095215E-4
13907491945381	0.33674622	0.3318634	3.5095215E-4
13907500398750	1.1455383	0.3318634	-0.25253296
13907503664131	1.3679047	0.60795593	-0.35394287
13907508699532	1.4534149	0.8620758	-0.4272461
13907513765450	1.4534149	1.1161957	-0.4748993
13907519075508	1.3006897	1.2860107	-0.50175476
13907523836250	1.3006897	1.2994537	-0.50175476
13907528871651	1.1088867	1.2994537	-0.5188751
13907534578438	0.8804321	1.1320801	-0.53352356
13907538972969	0.65930176	0.8229828	-0.53352356
13907542268867	0.48336792	0.45280457	-0.50787354
13907549074287	0.37339783	0.0874939	-0.43945313
13907554079170	0.32209778	-0.24601746	-0.3331604
13907559053535	0.29644775	-0.5404358	-0.20243835
13907564119453	0.25489807	-0.7811279	-0.08026123
13907569582100	0.17182922	-0.9558258	-0.0069732666
13907574190254	0.04598999	-1.1000061	-0.025283813
13907579256172	-0.107940674	-1.2832489	-0.14135742
13907585054512	-0.28141785	-1.5483551	-0.30384827
13907589296455	-0.48910522	-1.8537903	-0.45777893
13907592622871	-0.7444458	-2.092041	-0.58117676
13907599367256	-1.0083466	-2.1592255	-0.69358826
13907604433174	-1.1744995	-2.0224	-0.80474854
13907609407539	-1.1195221	-1.7352905	-0.88539124
13907614473457	-0.8092041	-1.4017639	-0.8865967
13907619844551	-0.35960388	-1.0963287	-0.7778778
13907624544258	0.0337677	-0.83122253	-0.56040955
13907629579659	0.22802734	-0.5832062	-0.27209473
13907635408516	0.22192383	-0.35231018	0.04310608
13907639650459	0.11317444	-0.17636108	0.34609985
13907642976875	0.11317444	-0.10305786	0.34609985
13907649690742	-0.076171875	-0.10305786	0.8335571
13907654695625	-0.14459229	-0.2789917	1.0082703
13907659792061	-0.14459229	-0.43904114	1.1389923
13907664827461	-0.23864746	-0.43904114	1.1389923
13907670137520	-0.3803711	-0.5673218	1.2342834
13907674867744	-0.56484985	-0.62597656	1.306366
13907679933662	-0.7713318	-0.6027374	1.358902
13907685762520	-0.9814606	-0.51112366	1.3931122
13907689973946	-1.1842651	-0.36819458	1.4016724
13907693361397	-1.3809662	-0.18736267	1.3882294
13907700075264	-1.5715637	0.0154418945	1.3625793
13907705080147	-1.7462769	0.2035675	1.3344727
13907710115547	-1.8892059	0.33918762	1.3051453
13907715150948	-1.9796143	0.41003418	1.270935
13907720399971	-1.9979401	0.43936157	1.2379608
13907725252266	-1.931961	0.46868896	1.2098694
13907730226631	-1.7816925	0.533432	1.1903076
13907735567207	-1.5740051	0.66293335	1.179306
13907740327950	-1.3797455	0.8901825	1.179306
13907743715401	-1.3186646	1.2395935	1.1988678
13907750429268	-1.5129089	1.6940613	1.2391663
13907755464668	-1.9808502	2.1180115	1.2794952
13907760469551	-2.5892487	2.256073	1.2746124
13907765504951	-3.1109314	1.8687744	1.1781006
13907770815010	-3.3723755	0.9085083	0.9728546
13907775575752	-3.3357239	-0.43170166	0.6845093
13907780641670	-3.073059	-1.8305817	0.35830688
13907786104317	-2.6955414	-3.0022125	0.028442383
13907790681953	-2.308258	-3.7780304	-0.28674316
13907794038887	-2.308258	-4.0956726	-0.28674316
13907800752754	-1.7743683	-4.0956726	-0.80718994
13907805788155	-1.7743683	-3.5128937	-0.80718994
13907810884590	-1.6692963	-3.5128937	-0.97213745
13907815858955	-1.6460876	-2.8580627	-1.0674286
13907821260567	-1.675415	-2.1983185	-1.09552
13907825929756	-1.7425995	-1.6925354	-1.0588684
13907830965157	-1.8415527	-1.4152069	-0.9464569
13907836458321	-1.9649658	-1.347992	-0.75465393
13907841005440	-2.094452	-1.4115295	-0.5005493
13907844392891	-2.204422	-1.5129395	-0.22932434
13907851106758	-2.2606049	-1.5654755	3.5095215E-4
13907856142159	-2.2410736	-1.5153809	0.15184021
13907861238594	-2.138443	-1.3553467	0.23124695
13907866243477	-1.9710541	-1.1354218	0.27767944
13907871858711	-1.7706909	-0.93385315	0.32287598
13907876283760	-1.5764465	-0.80799866	0.37052917
13907881288643	-1.4225159	-0.7640228	0.40472412
13907886598701	-1.3296661	-0.76890564	0.41696167
13907891389961	-1.29422	-0.78356934	0.4132843
13907894746895	-1.2966614	-0.78967285	0.40716553
13907901491280	-1.3137817	-0.7811279	0.40596008
13907906465645	-1.3272247	-0.75546265	0.4108429
13907911531563	-1.3296661	-0.706604	0.4132843
13907916597481	-1.3272247	-0.63941956	0.4157257
13907921968575	-1.321106	-0.56365967	0.41940308
13907926637764	-1.3088989	-0.48913574	0.4291687
13907931703682	-1.280777	-0.4280548	0.44384766
13907936983223	-1.2294769	-0.38772583	0.4633789
13907941743965	-1.154953	-0.36695862	0.48538208
13907945070381	-1.154953	-0.34985352	0.48538208
13907951814766	-1.0669861	-0.34985352	0.50735474
13907956880684	-0.9778137	-0.3144226	0.5207977
13907961855049	-0.90937805	-0.2606659	0.52323914
13907966920967	-0.8825073	-0.21546936	0.519577
13907972353096	-0.90815735	-0.21057129	0.5146942
13907976991768	-0.97901917	-0.24845886	0.5207977
13907982027168	-1.0669861	-0.3009796	0.54400635
13907987489815	-1.1317444	-0.34375	0.58921814
13907992097969	-1.1427307	-0.36695862	0.6502991
13907995454903	-1.0999756	-0.3596344	0.71383667
13908002138252	-1.0291138	-0.30221558	0.7688141
13908007204170	-0.95092773	-0.20324707	0.8091278
13908012270088	-0.8666229	-0.11405945	0.8335571
13908017274971	-0.77253723	-0.10185242	0.8408966
13908022585030	-0.67848206	-0.18980408	0.8311157
13908027376289	-0.60150146	-0.3327484	0.7993469
13908032381172	-0.5538635	-0.46102905	0.7419281
13908037904854	-0.5367584	-0.52944946	0.66374207
13908042451973	-0.5404358	-0.5343323	0.5672302
13908045808907	-0.5404358	-0.50624084	0.45970154
13908052553291	-0.57341003	-0.50624084	0.34120178
13908057558174	-0.5844116	-0.462265	0.21659851
13908062563057	-0.5795288	-0.45492554	0.09564209
13908067628975	-0.5550842	-0.44026184	-0.009414673
13908072877998	-0.51475525	-0.41337585	-0.09248352
13908077699776	-0.46221924	-0.3889618	-0.14990234
13908082735176	-0.3974762	-0.3938446	-0.18534851
13908088014717	-0.31195068	-0.43904114	-0.20367432
13908092836494	-0.31195068	-0.49523926	-0.21464539
13908096162910	-0.20443726	-0.52212524	-0.21464539
13908102907295	-0.083496094	-0.52212524	-0.22932434
13908107912178	0.041107178	-0.49768066	-0.26109314
13908112947578	0.16571045	-0.43293762	-0.30751038
13908118013496	0.2976532	-0.3461914	-0.35882568
13908123384590	0.44425964	-0.24356079	-0.4089203
13908128084297	0.59942627	-0.11529541	-0.4614563
13908133119698	0.7509308	0.054534912	-0.52864075
13908138887520	0.8889923	0.2707672	-0.6214905
13908143159981	1.0196991	0.5358734	-0.74365234
13908146516914	1.1577454	0.8400879	-0.89271545
13908153230782	1.3190155	1.1467438	-1.0588684
13908158296700	1.5120544	1.3751984	-1.2250366
13908163362617	1.7356262	1.4362793	-1.3740692
13908168336983	1.9873047	1.2896881	-1.4889069
13908174013252	2.257309	0.9818115	-1.5622253
13908178438301	2.5163116	0.61650085	-1.6013184
13908183412666	2.7240143	0.30374146	-1.6208649
13908188905830	2.8425293	0.115615845	-1.6391907
13908193513985	2.852295	0.08016968	-1.66362
13908196840401	2.852295	0.17424011	-1.66362
13908203615303	2.6226044	0.17424011	-1.6856232
13908208589668	2.467453	0.50289917	-1.6538544
13908213686104	2.3403778	0.6104126	-1.598877
13908218721504	2.2536469	0.62872314	-1.53656
13908224336739	2.194992	0.54563904	-1.4803772
13908228761787	2.1351318	0.36972046	-1.4351654
13908233797188	2.052063	0.14981079	-1.3899536
13908239259834	1.9567719	-0.027313232	-1.3264313
13908243898506	1.9567719	-0.0627594	-1.3264313
13908247224922	1.8956757	-0.0627594	-1.2225952
13908253999825	1.9225616	0.0899353	-1.0747528
13908258974190	2.0569458	0.39170837	-0.9024811
13908264009590	2.2621918	0.7227936	-0.7326813
13908269044991	2.4601135	0.95248413	-0.58239746
13908274873848	2.579834	0.9903717	-0.44433594
13908279146309	2.58107	0.8070984	-0.29774475
13908284242744	2.466217	0.40881348	-0.13157654
13908289491768	2.2646332	-0.17147827	0.052886963
13908294374580	2.021515	-0.8800812	0.23612976
13908297578926	1.7796173	-1.6363373	0.3912964
13908304445381	1.5707092	-2.3559418	0.50491333
13908309358711	1.4082031	-2.9594574	0.57455444
13908314394112	1.2933655	-3.3846283	0.60510254
13908319429512	1.2298431	-3.5776672	0.60388184
13908325410957	1.2298431	-3.4921265	0.57333374
13908329500313	1.3043671	-3.110962	0.5134735
13908334749336	1.4472961	-2.480545	0.43040466
13908340303535	1.6244507	-1.724289	0.32043457
13908344606514	1.7832794	-0.9936981	0.17626953
13908347932930	1.7832794	-0.39016724	0.17626953
13908354677315	1.9323273	-0.39016724	-0.23664856
13908359651680	1.9372101	0.36361694	-0.4822235
13908364931221	1.9164429	0.52731323	-0.71435547
13908369752998	1.8687897	0.56152344	-0.89515686
13908375520821	1.793045	0.5236664	-1.0039063
13908379854317	1.7063141	0.5041046	-1.0368805
13908385072823	1.6378937	0.560318	-1.0039063
13908390382881	1.6073608	0.67393494	-0.92692566
13908395113106	1.6073608	0.7887726	-0.92692566
13908398317451	1.6208038	0.7887726	-0.8304138
13908405336494	1.6635437	0.8901825	-0.72288513
13908410005684	1.7111969	1.0001373	-0.60194397
13908415468330	1.7356262	1.140625	-0.46754456
13908420137520	1.7246399	1.2994537	-0.34172058
13908425172920	1.6794281	1.4607239	-0.251297
13908430208321	1.6036835	1.6183319	-0.20732117
13908435243721	1.4925079	1.7649231	-0.19267273
13908440950508	1.3348999	1.8773346	-0.18655396
13908445711250	1.1320953	1.9347534	-0.18045044
13908448640938	0.90364075	1.944519	-0.17434692
13908455812569	0.6690674	1.9347534	-0.17066956
13908460390205	0.44181824	1.9408722	-0.1670227
13908465486641	0.23046875	1.9787292	-0.15478516
13908470491524	0.04232788	2.0557098	-0.12669373
13908476534004	-0.120147705	2.1693268	-0.08026123
13908480562325	-0.25697327	2.3037262	-0.01675415
13908486024971	-0.3791504	2.4319916	0.054107666
13908492952461	-0.5025482	2.526062	0.122528076
13908496400948	-0.64671326	2.566391	0.18727112
13908498994942	-0.64671326	2.5443878	0.18727112
13908506105537	-1.024231	2.5443878	0.30088806
13908510805244	-1.2429199	2.3318176	0.33876038
13908516481514	-1.4554901	2.172989	0.36442566
13908520845528	-1.6326447	2.0080566	0.38519287
13908526399727	-1.7377167	1.8467865	0.41696167
13908530916328	-1.7377167	1.6928558	0.41696167
13908536043282	-1.7474823	1.6928558	0.46461487
13908541841621	-1.4933777	1.5437927	0.59288025
13908546114082	-1.4933777	1.1846161	0.59288025
13908549318428	-1.3027802	1.1846161	0.64419556
13908556947823	-1.11586	0.9011688	0.65153503
13908561098213	-0.9154968	0.5383148	0.57821655
13908567018623	-0.6540375	0.16081238	0.4132843
13908571199532	-0.29730225	-0.13726807	0.19459534
13908576662178	0.13638306	-0.2789917	-0.01675415
13908581270332	0.57743835	-0.23135376	-0.18411255
13908586458321	0.94885254	-4.4250488E-4	-0.30873108
13908592165108	1.2029572	0.36727905	-0.41256714
13908597200508	1.3410187	0.79733276	-0.49931335
13908599702950	1.3862305	1.206604	-0.56040955
13908607271309	1.3581085	1.5218201	-0.58483887
13908611452217	1.2591553	1.6781921	-0.5726166
13908616670723	1.0991211	1.6390991	-0.5347595
13908621553535	0.90608215	1.4081879	-0.48466492
13908627534981	0.7264862	1.0379944	-0.4272461
13908631624336	0.59820557	0.6055145	-0.3649292
13908637514229	0.53100586	0.17301941	-0.28918457
13908642336006	0.49191284	-0.22279358	-0.20123291
13908647615547	0.4381714	-0.5648804	-0.11569214
13908657686348	0.21214294	-0.8507538	-0.054611206
13908661867256	0.05819702	-1.3577881	-0.12059021
13908667635078	-0.10305786	-1.6375427	-0.24397278
13908671907539	-0.10305786	-1.9124451	-0.4028015
13908677614326	-0.5062256	-1.9124451	-0.57385254
13908682008858	-0.5062256	-2.1323547	-0.57385254
13908687898750	-1.0217896	-2.1323547	-0.9049225
13908692934151	-1.1378479	-1.576477	-1.0332184
13908697786446	-1.1378479	-1.1207733	-1.0332184
13908700380440	-1.0303497	-1.1207733	-1.1040802
13908707887764	-0.72735596	-0.6968384	-1.0918579
13908712190742	-0.36938477	-0.35231018	-0.97457886
13908718141670	-0.11404419	-0.065200806	-0.7473297
13908722231026	-0.030975342	0.19134521	-0.4248047
13908728029366	-0.08105469	0.38072205	-0.055847168
13908732332344	-0.17634583	0.42713928	0.29844666
13908738069649	-0.25209045	0.3000946	0.59165955
13908743227119	-0.2985077	0.047210693	0.8127899
13908748232002	-0.34007263	-0.23379517	0.975296
13908750825996	-0.3999176	-0.45126343	1.1047821
13908758363838	-0.4768982	-0.5538788	1.2171936
13908762483711	-0.5563202	-0.52090454	1.3246918
13908768404121	-0.62228394	-0.35595703	1.437088
13908772585030	-0.673584	-0.0786438	1.5617065
13908778139229	-0.71635437	0.28297424	1.69487
13908782686348	-0.7578888	0.6873779	1.8243866
13908788362617	-0.7994232	1.088089	1.9221191
13908793001289	-0.84095764	1.4472809	1.9636536
13908798647041	-0.87516785	1.7478333	1.9294434
13908808717842	-0.8996124	2.0031738	1.6118011
13908812837715	-0.89105225	2.5028534	1.3442535
13908818636055	-0.8983917	2.8156128	1.0326996
13908822939034	-0.8983917	3.2065735	1.0326996
13908829286690	-1.2710114	3.2065735	0.42060852
13908833009834	-1.2710114	4.0630035	0.42060852
13908838930244	-2.3754578	4.0630035	-0.042404175
13908843355293	-2.3754578	3.7697906	-0.042404175
13908849062080	-2.9557648	3.7697906	-0.21464539
13908859132881	-3.435913	1.2921295	-0.4981079
13908863252754	-3.3039703	-0.30221558	-0.6288147
13908869051094	-3.0315247	-1.7340698	-0.7522125
13908873293037	-2.719986	-2.826294	-0.85362244
13908879732246	-2.434082	-3.5043488	-0.92692566
13908883394356	-2.2056274	-3.7596893	-0.9660187
13908889619942	-2.0333862	-3.635086	-0.97457886
13908893861885	-1.906311	-3.2306824	-0.95869446
13908899294014	-1.8085785	-2.682129	-0.9232483
13908901796455	-1.7328339	-2.1238098	-0.87438965
13908909486885	-1.6815033	-1.6387787	-0.7998657
13908913576241	-1.661972	-1.2465973	-0.6789093
13908919893379	-1.6766205	-0.9326172	-0.49443054
13908923647041	-1.7083893	-0.6626282	-0.26229858
13908929536934	-1.7205963	-0.396286	-0.033843994
13908933687325	-1.6802979	-0.10549927	0.13595581
13908939485664	-1.5813293	0.19746399	0.22392273
13908944185371	-1.4506073	0.45280457	0.24102783
13908949953194	-1.3284302	0.57740784	0.20927429
13908960054512	-1.2099152	0.51142883	0.041885376
13908963899727	-1.2099152	-0.16539001	0.041885376
13908970338936	-1.2184753	-0.16539001	-0.13645935
13908974001045	-1.2184753	-1.0340271	-0.13645935
13908979829903	-1.2123566	-1.0340271	-0.20855713
13908984102364	-1.2123566	-1.3040161	-0.20855713
13908990450020	-1.1793823	-1.3040161	-0.27941895
13908994417305	-1.1793823	-0.82266235	-0.27941895
13909000642891	-1.1634979	-0.82266235	-0.33927917
13909010500069	-1.1598358	-0.15927124	-0.3294983
13909014253731	-1.1586151	0.048416138	-0.29040527
13909020601387	-1.1647339	0.11805725	-0.22320557
13909024385567	-1.189148	0.038650513	-0.12425232
13909030397530	-1.2392426	-0.16903687	0.012557983
13909034425850	-1.3052216	-0.45980835	0.19459534
13909040926094	-1.347992	-0.7640228	0.4108429
13909044740791	-1.3223267	-0.9949341	0.6344147
13909050752754	-1.2184753	-1.0718842	0.83477783
13909060762520	-0.96925354	-0.6650696	1.1084442
13909064607735	-0.92037964	-0.3254242	1.1915436
13909071138496	-0.91304016	-0.081085205	1.245285
13909074678535	-0.90205383	-0.039535522	1.2697296
13909080812569	-0.858078	-0.20448303	1.2611694
13909084779854	-0.7823334	-0.48547363	1.2159576
13909090974922	-0.6919098	-0.75302124	1.1377716
13909095308418	-0.61006165	-0.9081726	1.0314789
13909101289864	-0.5550842	-0.92041016	0.91052246
13909111360664	-0.5245514	-0.8299866	0.6710663
13909114961739	-0.5245514	-0.6565094	0.6710663
13909121675606	-0.50743103	-0.6565094	0.49147034
13909125063057	-0.50743103	-0.7432556	0.49147034
13909130891914	-0.48910522	-0.7432556	0.4157257
13909135133858	-0.48298645	-0.80067444	0.33876038
13909141481514	-0.5025482	-0.79945374	0.1481781
13909145509834	-0.54896545	-0.62106323	0.1481781
13909150240059	-0.60762024	-0.62106323	0.0357666
13909153627510	-0.64915466	-0.52822876	-0.07537842
13909160371895	-0.64427185	-0.48179626	-0.16946411
13909165376778	-0.5770874	-0.48547363	-0.24032593
13909170412178	-0.45489502	-0.51478577	-0.2989502
13909175417061	-0.30706787	-0.5526581	-0.35638428
13909180757637	-0.16168213	-0.574646	-0.4186859
13909185518379	-0.03465271	-0.548996	-0.47854614
13909191957588	0.07896423	-0.44270325	-0.52864075
13909195772285	0.20236206	-0.2582245	-0.57385254
13909200594063	0.35630798	-0.044418335	-0.6202698
13909204012032	0.35630798	0.14370728	-0.6202698
13909210695381	0.7558136	0.14370728	-0.7497711
13909215700264	0.9732666	0.45524597	-0.83529663
13909220735664	1.1846313	0.68003845	-0.9256897
13909225740547	1.3923187	0.9842529	-1.0112305
13909231172676	1.5951233	1.3190155	-1.0918579
13909235841866	1.794281	1.5914459	-1.174942
13909240877266	1.9922028	1.7331543	-1.2628937
13909246339912	2.1925507	1.7209473	-1.3484192
13909250948067	2.1925507	1.5792389	-1.3484192
13909254274483	2.3990326	1.5792389	-1.4156036
13909261018867	2.6018372	1.3483276	-1.4608154
13909266084785	2.7704315	1.0795441	-1.4901428
13909271089668	2.8632965	0.82666016	-1.5157928
13909276155586	2.8449707	0.638504	-1.5438995
13909281618233	2.715454	0.533432	-1.563446
13909286226387	2.506546	0.4992218	-1.5622253
13909291231270	2.2756348	0.5041046	-1.5341187
13909296724434	2.0765076	0.5089874	-1.48526
13909301302071	1.9408875	0.48213196	-1.431488
13909304628487	1.8627014	0.39537048	-1.3875122
13909311372871	1.8174896	0.2475586	-1.3594208
13909316408272	1.7869415	0.08016968	-1.3349762
13909321443672	1.7783966	-0.02609253	-1.2934418
13909326479073	1.8174896	-0.0053253174	-1.2164764
13909331758614	1.9201202	0.1400299	-1.1077423
13909336549873	2.0752716	0.33551025	-0.9819031
13909341585274	2.2402039	0.4796753	-0.8475189
13909346895332	2.3648224	0.50045776	-0.69358826
13909351656075	2.4100342	0.36605835	-0.51031494
13909355013008	2.4100342	0.08140564	-0.51031494
13909361757393	2.2389832	0.08140564	-0.1010437
13909366731758	2.065506	-0.7982178	0.07121277
13909371767159	1.8749084	-1.2856903	0.19215393
13909376863594	1.6928711	-1.7401733	0.25689697
13909382173653	1.5377045	-2.1335754	0.28134155
13909386903877	1.4204407	-2.453659	0.28990173
13909391969795	1.3532257	-2.685791	0.30455017
13909397279854	1.3397827	-2.8067322	0.33753967
13909402040596	1.3397827	-2.7749786	0.33753967
13909405397530	1.3788757	-2.7749786	0.38519287
13909412080879	1.4631805	-2.5501862	0.44384766
13909417146797	1.5816803	-2.1066895	0.4951477
13909422182198	1.7160797	-1.4628448	0.5146942
13909427217598	1.8443756	-0.6894989	0.4658203
13909432771797	1.9445496	0.1217041	0.31921387
13909437288399	2.0105286	0.8840637	0.0675354
13909442293282	2.0483856	1.4924927	-0.25741577
13909447816963	2.0630646	1.8211365	-0.60072327
13909452394600	2.0410614	1.8089142	-0.90127563
13909455690498	1.9665375	1.5584717	-1.1162872
13909462495918	1.8578186	1.2921295	-1.2286835
13909467500801	1.7686157	1.1809387	-1.2445679
13909472536201	1.7490692	1.2298279	-1.187149
13909477571602	1.8016052	1.3483276	-1.0808563
13909483125801	1.8871155	1.4717255	-0.9525757
13909487642403	1.9506531	1.5963287	-0.8181915
13909492677803	1.9555359	1.7343903	-0.6996765
13909498262520	1.8895569	1.8834381	-0.6190491
13909502748604	1.7576294	2.0178223	-0.57873535
13909506105537	1.7576294	2.1167908	-0.57873535
13909512788887	1.3483429	2.1167908	-0.54940796
13909517824287	1.102768	2.1742096	-0.53352356
13909522890205	0.85354614	2.1448822	-0.51519775
13909527925606	0.6152954	2.0972443	-0.49443054
13909533632393	0.39907837	2.0471497	-0.46998596
13909537965889	0.39907837	2.0043793	-0.43577576
13909543031807	0.20848083	1.9750824	-0.43577576
13909548341866	0.044769287	1.9750824	-0.32583618
13909553072090	-0.09693909	1.9640808	-0.32583618
13909556429024	-0.22155762	1.9787292	-0.24885559
13909563173409	-0.33639526	2.0141754	-0.16090393
13909568147774	-0.45733643	2.059372	-0.07537842
13909573244209	-0.60150146	2.0935822	-0.002090454
13909578249092	-0.77745056	2.0996857	0.054107666
13909583711739	-0.9814606	2.075241	0.1005249
