accelerometer_timestamp	accelerometer_x_data	accelerometer_y_data	accelerometer_z_data
254705150309004	0.8163605	3.1251068	10.388229
254705158701338	1.0342712	3.226242	10.625946
254705167093672	0.7487488	3.224228	10.453964
254705175486006	0.28897095	3.1327972	9.950668
254705183878340	0.09036255	3.1618805	9.618637
254705192270674	0.29499817	3.2570038	9.375656
254705200663008	0.37153625	3.3362274	9.00885
254705209055342	0.4011383	3.345581	8.656525
254705217447676	0.42988586	3.312088	8.384796
254705225840010	0.44700623	3.2998962	8.206299
254705234232344	0.43011475	3.309845	8.203323
254705242624678	0.42913818	3.2850647	8.409714
254705251017012	0.4313507	3.2352295	8.671967
254705259409346	0.43434143	3.1748047	8.958908
254705267801680	0.3976593	3.1192322	9.195633
254705276194014	0.28997803	3.0778656	9.300644
254705284586348	0.22497559	3.0388641	9.294647
254705292978682	0.24995422	3.0083923	9.275574
254705301371016	0.2910614	2.977066	9.295288
254705309763350	0.31614685	2.9691925	9.333939
254705318155684	0.33338928	2.9814606	9.351852
254705326548018	0.3612213	2.9919891	9.302994
254705334940352	0.3353119	2.9999695	9.13649
254705343332686	0.31585693	3.00148	8.967209
254705351725020	0.3070984	3.0024567	8.869965
254705360117354	0.20681763	3.0055237	8.863495
254705368509688	0.16087341	2.9982758	9.018188
254705376902022	0.41793823	2.972519	9.396683
254705385294356	0.6950989	2.9974518	9.8573
254705393686690	0.5904846	3.05719	9.961334
254705402079024	0.34194946	3.0711517	9.78038
254705410471358	0.17384338	3.043518	9.525894
254705418863692	0.1912384	3.012329	9.349899
254705427256026	0.33569336	3.0282745	9.299652
254705435648360	0.3027954	3.1150055	9.315598
254705444040694	0.19436646	3.1808167	9.270599
254705452433028	0.06466675	3.1752014	9.215851
254705460825362	0.024414063	3.1212158	9.22403
254705469217696	0.054748535	3.0631561	9.293655
254705477610030	0.026977539	3.0403748	9.345535
254705486002364	-0.040420532	3.0106506	9.299942
254705494394698	-0.13000488	2.9355774	9.2052765
254705502787032	-0.08818054	2.9127197	9.06398
254705511179366	-0.019760132	2.9910889	8.946899
254705519571700	0.063797	3.118454	8.948975
254705527964034	0.24064636	3.1795654	9.122604
254705536356368	0.34371948	3.1993866	9.201874
254705544748702	0.3060913	3.1882172	9.244278
254705553141036	0.10110474	3.1470947	9.332443
254705561533370	-0.13877869	3.0433502	9.3237
254705569925704	-0.26800537	2.8978424	9.138596
254705578318038	-0.22293091	2.7879028	8.8211975
254705586710372	-0.3153839	2.76503	8.460358
254705595102706	-0.5805664	2.7713013	8.234802
254705603495040	-0.7037506	2.8772736	8.264313
254705611887374	-0.5609894	3.0107727	8.5260315
254705620279708	-0.15896606	3.1054535	8.950256
254705628672042	0.36628723	3.143341	9.443863
254705637064376	0.80233765	3.148285	9.91658
254705645456709	0.9517822	3.1296234	10.152939
254705653849043	0.88835144	3.136139	10.167053
254705662241377	0.7189026	3.1575165	10.032455
254705670633711	0.5474396	3.178482	9.840454
254705679026045	0.44857788	3.1927185	9.677444
254705687418379	0.45256042	3.186737	9.634567
254705695810713	0.47976685	3.2242584	9.671982
254705704203047	0.5291748	3.2790222	9.775314
254705712595381	0.55578613	3.3108978	9.792419
254705720987715	0.55104065	3.315918	9.633316
254705729380049	0.55300903	3.332367	9.326569
254705737772383	0.5276184	3.3557281	8.997559
254705746164717	0.5141907	3.422226	8.722733
254705754557051	0.5368042	3.4619598	8.645233
254705762949385	0.5961304	3.4964142	8.7617035
254705771341719	0.67663574	3.525406	9.04422
254705779734053	0.738678	3.5076447	9.43544
254705788126387	0.6561737	3.446518	9.745102
254705796518721	0.49832153	3.3644867	9.7912445
254705804911055	0.36431885	3.3027344	9.7174835
254705813303389	0.2677765	3.2688599	9.55452
254705821695723	0.20762634	3.2657318	9.3396
254705830088057	0.18904114	3.2967224	9.13678
254705838480391	0.26182556	3.3306122	9.122818
254705846872725	0.35310364	3.3433533	9.242279
254705855265059	0.41140747	3.3271637	9.334503
254705863657393	0.4316864	3.3035583	9.349167
254705872049727	0.41067505	3.2883453	9.278961
254705880442061	0.33937073	3.2812195	9.153992
254705888834395	0.23750305	3.2710266	9.122421
254705897226729	0.19677734	3.2471924	9.15657
254705905619063	0.1320343	3.2092438	9.208923
254705914011397	0.07417297	3.1539307	9.261154
254705922403731	0.052505493	3.0966492	9.295441
254705930796065	0.049942017	3.0794373	9.292114
254705939188399	-0.00390625	3.0784454	9.314041
254705947580733	-0.046417236	3.0602417	9.335068
254705955973067	-0.055023193	3.0635223	9.294312
254705964365401	-0.05192566	3.0640717	9.24794
254705972757735	-0.048812866	3.038559	9.260605
254705981150069	-0.024932861	2.9936676	9.355469
254705989542403	0.029052734	3.0028381	9.433884
254705997934737	0.063430786	3.0099945	9.419952
254706006327071	0.08628845	3.0219269	9.348282
254706014719405	0.08241272	3.0398712	9.297348
254706023111739	0.04475403	3.058609	9.300476
254706031504073	-0.008300781	3.066101	9.28096
254706039896407	-0.037216187	3.056137	9.274979
254706048288741	-0.01626587	3.045166	9.289856
254706056681075	0.028961182	3.0563965	9.303619
254706065073409	0.10095215	3.081253	9.2834015
254706073465743	0.1855011	3.1159515	9.236404
254706081858077	0.2191925	3.178238	9.247025
254706090250411	0.18760681	3.2118378	9.346863
254706098642745	0.20280457	3.1726532	9.288666
254706107035079	0.19404602	3.1679382	9.195251
254706115427413	0.16087341	3.1929474	9.142395
254706123819747	0.122909546	3.2238464	9.165649
254706132212081	0.099975586	3.2602386	9.23082
254706140604415	0.063079834	3.2622375	9.295624
254706148996749	0.08229065	3.241394	9.37381
254706157389083	0.098983765	3.2399292	9.414627
254706165781417	0.09152222	3.2672882	9.443787
254706174173751	0.06802368	3.3086395	9.486877
254706182566084	0.07020569	3.326828	9.501846
254706190958418	0.111206055	3.274109	9.440338
254706199350752	0.15919495	3.2605743	9.349976
254706207743086	0.15455627	3.2685547	9.2404175
254706216135420	0.13122559	3.2876587	9.143997
254706224527754	0.12930298	3.3121185	9.09169
254706232920088	0.1073761	3.339035	9.089691
254706241312422	0.1182251	3.324234	9.113525
254706249704756	0.10267639	3.301773	9.170959
254706258097090	0.07910156	3.2792358	9.238281
254706266489424	0.07237244	3.2382202	9.277191
254706274881758	0.08218384	3.1813354	9.2764435
254706283274092	0.044311523	3.188324	9.302368
254706291666426	0.03994751	3.1785278	9.285889
254706300058760	0.06654358	3.1968231	9.261139
254706308451094	0.05937195	3.2209625	9.240082
254706316843428	0.030166626	3.2385101	9.217758
254706325235762	0.024658203	3.2426758	9.182983
254706333628096	0.06939697	3.2257843	9.131302
254706342020430	0.09020996	3.2494812	9.185364
254706350412764	0.07763672	3.2620392	9.246445
254706358805098	0.046707153	3.2620392	9.301498
254706367197432	0.022384644	3.240982	9.344238
254706375589766	0.021697998	3.2094574	9.364777
254706383982100	0.03164673	3.2273407	9.329987
254706392374434	-0.010665894	3.2298126	9.248627
254706400766768	0.026397705	3.2263336	9.16214
254706409159102	0.10273743	3.208603	9.074524
254706417551436	0.16267395	3.199295	8.964539
254706425943770	0.177948	3.2253876	8.77533
254706434336104	0.19981384	3.2820282	8.383682
254706442728438	0.2673645	3.3164978	8.706116
254706451120772	0.35829163	3.2913208	9.230591
254706459513106	0.39746094	3.2515259	9.62178
254706467905440	0.37983704	3.211853	9.788254
254706476297774	0.3345337	3.1768188	9.780334
254706484690108	0.29664612	3.1718445	9.7673645
254706493082442	0.2834015	3.176529	9.854858
254706501474776	0.42494202	3.232071	9.757202
254706509867110	0.76397705	3.3655396	9.310181
254706518259444	0.83343506	3.4987793	8.711487
254706526651778	0.24615479	3.5043182	8.3389435
254706535044112	-0.058929443	3.308899	8.397766
254706543436446	-0.15385437	3.1784363	8.928986
254706551828780	-0.20921326	3.149475	9.630096
254706560221114	-0.17012024	3.1612854	10.172638
254706568613448	-0.12098694	3.188919	10.293915
254706577005782	-0.1697998	3.2265167	9.970276
254706585398116	-0.19075012	3.23349	9.448837
254706593790450	-0.07424927	3.1736603	9.110962
254706602182784	0.017440796	3.1723938	8.983948
254706610575118	0.032943726	3.2286987	8.759384
254706618967452	0.12805176	3.3329773	8.077744
254706627359786	0.42863464	3.4813995	7.109619
254706635752120	0.433609	3.6539001	8.37381
254706644144454	0.44511414	3.3931885	9.644714
254706652536788	0.35923767	3.1929474	10.269516
254706660929122	0.20402527	3.1314545	10.478485
254706669321456	0.07026672	3.1776733	10.468124
254706677713790	0.07122803	3.2660217	10.293732
254706686106124	0.29838562	3.3016968	10.086945
254706694498458	0.75605774	3.316269	9.554749
254706702890792	0.96643066	3.3990173	8.707291
254706711283126	0.6726837	3.5686798	8.053635
254706719675459	0.28625488	3.6704712	7.8319397
254706728067793	0.4442749	3.5298767	7.9878693
254706736460127	0.48942566	3.4566498	8.530548
254706744852461	0.23252869	3.5200806	9.296265
254706753244795	-0.058273315	3.5379486	9.881592
254706761637129	-0.2453003	3.4489899	10.05719
254706770029463	-0.28396606	3.2970276	9.818069
254706778421797	-0.20153809	3.1886597	9.378845
254706786814131	0.048706055	3.2006378	9.0468445
254706795206465	0.19543457	3.2823334	8.943451
254706803598799	0.12956238	3.3872528	8.919067
254706811991133	0.034469604	3.4447937	8.909073
254706820383467	0.0015716553	3.438324	8.878189
254706828775801	0.011398315	3.3986511	8.807404
254706837168135	0.020370483	3.4066315	8.64888
254706845560469	0.04937744	3.4437408	8.569534
254706853952803	0.11325073	3.5043945	8.611877
254706862345137	0.13294983	3.5360107	8.723129
254706870737471	0.13322449	3.5148315	8.848434
254706879129805	0.18789673	3.4550781	8.979279
254706887522139	0.13703918	3.4431152	9.261429
254706895914473	0.01133728	3.4456482	9.414505
254706904306807	-0.036346436	3.4102478	9.42836
254706912699141	-0.03302002	3.377411	9.362427
254706921091475	-0.0030975342	3.3691254	9.309219
254706929483809	0.052947998	3.370636	9.330292
254706937876143	0.12750244	3.3517609	9.297501
254706946268477	0.19236755	3.3283234	9.287979
254706954660811	0.22602844	3.3170013	9.31102
254706963053145	0.21812439	3.3234406	9.307114
254706971445479	0.19132996	3.3355255	9.257858
254706979837813	0.19334412	3.3319702	9.207687
254706988230147	0.23251343	3.3319702	9.243927
254706996622481	0.24630737	3.3221588	9.283218
254707005014815	0.24055481	3.2977448	9.299683
254707013407149	0.25419617	3.280899	9.312683
254707021799483	0.27304077	3.2772522	9.3346405
254707030191817	0.237854	3.2737732	9.356308
254707038584151	0.15385437	3.2647705	9.31131
254707046976485	0.08943176	3.2511444	9.289108
254707055368819	0.05126953	3.2525635	9.277954
254707063761153	0.045455933	3.2701874	9.237015
254707072153487	0.07084656	3.2963715	9.152359
254707080545821	0.11503601	3.3172607	9.057236
254707088938155	0.16259766	3.327179	9.083008
254707097330489	0.13713074	3.3292542	9.156479
254707105722823	0.1375122	3.2714386	9.225586
254707114115157	0.16265869	3.2090607	9.254471
254707122507491	0.1897583	3.1757202	9.252808
254707130899825	0.19789124	3.1625824	9.263321
254707139292159	0.20776367	3.168518	9.237625
254707147684493	0.20811462	3.1674805	9.222107
254707156076827	0.22561646	3.1606903	9.249222
254707164469161	0.23405457	3.162384	9.28775
254707172861495	0.23175049	3.178421	9.299927
254707181253829	0.25193787	3.2018585	9.266449
254707189646163	0.30760193	3.2197418	9.24855
254707198038497	0.3107605	3.2113495	9.206924
254707206430831	0.26203918	3.2048187	9.172913
254707214823165	0.19520569	3.1936798	9.164551
254707223215499	0.1516571	3.1723022	9.199982
254707231607833	0.16577148	3.1451416	9.286362
254707240000167	0.24232483	3.1272583	9.308228
254707248392501	0.30325317	3.1319122	9.316223
254707256784834	0.32933044	3.1178741	9.272171
254707265177168	0.3093567	3.0779877	9.233307
254707273569502	0.26786804	3.0300293	9.233948
254707281961836	0.25914	3.0081787	9.251343
254707290354170	0.23918152	3.0151672	9.290237
254707298746504	0.21414185	3.0281525	9.295456
254707307138838	0.25753784	3.049347	9.263138
254707315531172	0.2953186	3.0682983	9.200928
254707323923506	0.285614	3.0763397	9.142731
254707332315840	0.27781677	3.0716095	9.144974
254707340708174	0.28878784	3.0387115	9.23172
254707349100508	0.29803467	3.023819	9.255966
254707357492842	0.26924133	2.9923706	9.191162
254707365885176	0.2537384	2.9640503	9.105789
254707374277510	0.28016663	2.9598389	9.060715
254707382669844	0.31166077	2.9779663	9.062408
254707391062178	0.3544159	2.980957	9.11409
254707399454512	0.3761444	2.9569092	9.236023
254707407846846	0.3618164	2.948639	9.33255
254707416239180	0.33840942	2.9293976	9.410004
254707424631514	0.3313141	2.893097	9.480835
254707433023848	0.34339905	2.8894196	9.521057
254707441416182	0.38017273	2.892395	9.481293
254707449808516	0.3818817	2.8853607	9.3647
254707458200850	0.22273254	2.9043121	9.198349
254707466593184	0.260437	2.8970032	9.090225
254707474985518	0.61376953	2.8385315	9.120361
254707483377852	0.7866211	2.7940521	9.270386
254707491770186	0.63308716	2.8448792	9.417938
254707500162520	0.48324585	2.8434448	9.507187
254707508554854	0.33950806	2.8001404	9.558517
254707516947188	0.28738403	2.7367096	9.57901
254707525339522	0.35101318	2.6863403	9.574753
254707533731856	0.41038513	2.6901855	9.554108
254707542124190	0.56744385	2.76474	9.468628
254707550516524	0.65934753	2.8451996	9.291153
254707558908858	0.74331665	2.8972015	9.091888
254707567301192	0.82632446	2.9415436	8.928223
254707575693526	0.83026123	2.9919586	8.833771
254707584085860	0.57084656	3.0106049	8.806885
254707592478194	0.13912964	2.9049072	8.781952
254707600870528	-0.1101532	2.7092133	8.847366
254707609262862	-0.087677	2.647522	9.241196
254707617655196	0.2951355	2.6596832	9.670959
254707626047530	0.88098145	2.652542	9.807632
254707634439864	1.0920868	2.6928253	9.687073
254707642832198	0.88571167	2.7805634	9.72197
254707651224532	0.6580658	2.780243	9.861557
254707659616866	0.5564575	2.752121	10.012283
254707668009200	0.6135864	2.7236938	10.110733
254707676401534	0.7593689	2.7039948	10.11235
254707684793868	0.82354736	2.6930847	9.987732
254707693186202	0.71221924	2.6960602	9.861496
254707701578536	0.57987976	2.679123	9.751694
254707709970870	0.46562195	2.6380463	9.608322
254707718363204	0.37130737	2.6141052	9.431061
254707726755538	0.31063843	2.629074	9.246002
254707735147872	0.35820007	2.620163	9.082489
254707743540206	0.42189026	2.665619	8.7873535
254707751932540	0.48568726	2.747055	8.528381
254707760324874	0.56959534	2.7774963	8.380783
254707768717208	0.6238556	2.7466278	8.3979645
254707777109542	0.5864258	2.6834717	8.5937195
254707785501876	0.44384766	2.6136627	8.925735
254707793894209	0.32789612	2.4817505	9.311981
254707802286543	0.18585205	2.3886871	9.63829
254707810678877	0.06800842	2.3136292	9.906937
254707819071211	-0.064208984	2.25	10.132004
254707827463545	-0.22964478	2.198944	10.342575
254707835855879	-0.28530884	2.1601868	10.589096
254707844248213	0.20115662	2.1457672	10.779556
254707852640547	0.70581055	2.3424377	10.548126
254707861032881	0.83088684	2.5787506	9.944397
254707869425215	0.60346985	2.7233887	9.182373
254707877817549	0.29841614	2.7218475	8.514557
254707886209883	0.20071411	2.6331177	8.077866
254707894602217	0.2602234	2.6356964	7.8759155
254707902994551	0.40161133	2.7382813	7.7003937
254707911386885	0.72561646	2.7675323	7.6187744
254707919779219	0.89764404	2.6964417	8.250565
254707928171553	0.5844879	2.5804138	9.944458
254707936563887	0.4618683	2.4647675	10.720123
254707944956221	0.58128357	2.4223938	10.851608
254707953348555	0.65382385	2.4414063	10.902374
254707961740889	0.8160248	2.5733337	10.804504
254707970133223	0.9382782	2.732315	10.525726
254707978525557	0.7854309	2.7964478	10.109894
254707986917891	0.43247986	2.8293457	9.808807
254707995310225	0.30290222	2.7791443	9.52861
254708003702559	0.3678589	2.6981964	9.318802
254708012094893	0.47695923	2.6456146	9.235092
254708020487227	0.54930115	2.6305084	9.300888
254708028879561	0.574173	2.632309	9.502853
254708037271895	0.57618713	2.6525574	9.807571
254708045664229	0.60469055	2.6838684	9.98111
254708054056563	0.6367645	2.7171936	9.919388
254708062448897	0.60762024	2.7706146	9.628723
254708070841231	0.5070648	2.8426971	9.146927
254708079233565	0.3954773	2.920807	8.526138
254708087625899	0.4716339	3.0111694	7.7808075
254708096018233	0.7492676	2.9766388	8.383865
254708104410567	0.75712585	2.8489075	9.113174
254708112802901	0.6042938	2.72464	9.528702
254708121195235	0.5052185	2.6594849	9.586151
254708129587569	0.65205383	2.673294	9.544983
254708137979903	0.8279877	2.798523	9.601624
254708146372237	0.69033813	2.8936615	9.722473
254708154764571	0.51750183	3.0170746	9.758469
254708163156905	0.39686584	3.1172333	9.516052
254708171549239	0.3960266	3.092987	9.106598
254708179941573	0.51257324	2.894638	8.814133
254708188333907	0.48275757	2.7892761	8.665024
254708196726241	0.3874817	2.8839111	8.621002
254708205118575	0.3944702	2.9585571	8.688553
254708213510909	0.47639465	2.918213	8.888504
254708221903243	0.5559082	2.789566	9.216827
254708230295577	0.564209	2.6729736	9.631287
254708238687911	0.5532379	2.6051788	9.987228
254708247080245	0.59625244	2.62352	10.05777
254708255472579	0.60050964	2.6730042	10.001465
254708263864913	0.57199097	2.733307	9.85408
254708272257247	0.5219269	2.7845764	9.665619
254708280649581	0.46185303	2.8101807	9.502457
254708289041915	0.4548645	2.8301086	9.417709
254708297434249	0.50520325	2.8130798	9.332565
254708305826583	0.5141907	2.8508148	9.168472
254708314218917	0.47331238	2.9176025	9.005325
254708322611251	0.4434662	2.9556885	8.949417
254708331003584	0.5035095	2.9179077	9.060455
254708339395918	0.5492401	2.8403778	9.264236
254708347788252	0.58236694	2.7916565	9.499496
254708356180586	0.5306854	2.7890167	9.570633
254708364572920	0.467865	2.7869568	9.522537
254708372965254	0.447052	2.7574768	9.436737
254708381357588	0.46220398	2.7107239	9.389877
254708389749922	0.47003174	2.6833038	9.388901
254708398142256	0.43286133	2.6816864	9.393219
254708406534590	0.40847778	2.6836853	9.398224
254708414926924	0.4190979	2.6571655	9.422379
254708423319258	0.4592743	2.6185455	9.471344
254708431711592	0.50331116	2.6264038	9.525116
254708440103926	0.52056885	2.700531	9.472305
254708448496260	0.46932983	2.738739	9.376221
254708456888594	0.430542	2.7385712	9.268707
254708465280928	0.4344635	2.705307	9.257629
254708473673262	0.4923706	2.6718292	9.376816
254708482065596	0.5816345	2.691391	9.520477
254708490457930	0.58862305	2.7302856	9.521469
254708498850264	0.5653229	2.7547607	9.438858
254708507242598	0.54545593	2.760498	9.370636
254708515634932	0.52149963	2.7417145	9.342331
254708524027266	0.490448	2.710205	9.331879
254708532419600	0.46400452	2.6961823	9.282745
254708540811934	0.41714478	2.7061615	9.190018
254708549204268	0.40348816	2.7185364	9.161133
254708557596602	0.47781372	2.721695	9.195572
254708565988936	0.5630646	2.701065	9.288986
254708574381270	0.5806885	2.677536	9.398651
254708582773604	0.5215149	2.7158508	9.439484
254708591165938	0.47277832	2.744278	9.394806
254708599558272	0.48257446	2.7739105	9.370712
254708607950606	0.50450134	2.7781677	9.380508
254708616342940	0.5154724	2.7828827	9.439072
254708624735274	0.50453186	2.7990723	9.5303955
254708633127608	0.47572327	2.7968292	9.588852
254708641519942	0.4736786	2.787674	9.563461
254708649912276	0.4870453	2.780426	9.531723
254708658304610	0.5028229	2.7645264	9.485687
254708666696944	0.5281677	2.7620087	9.421951
254708675089278	0.5670471	2.7825012	9.33136
254708683481612	0.6055603	2.8000793	9.202652
254708691873946	0.5695648	2.7870789	9.165649
254708700266280	0.5818939	2.7592468	9.269058
254708708658614	0.6144409	2.7468262	9.388184
254708717050948	0.62757874	2.7452698	9.453247
254708725443282	0.6086273	2.7525177	9.461731
254708733835616	0.5909424	2.7823486	9.479111
254708742227950	0.5969238	2.773407	9.467178
254708750620284	0.5488281	2.785553	9.473801
254708759012618	0.5226288	2.7827911	9.483124
254708767404952	0.5149994	2.7716217	9.50676
254708775797286	0.5145416	2.764618	9.555511
254708784189620	0.5312958	2.7639008	9.623993
254708792581954	0.5526123	2.7750702	9.601639
254708800974288	0.5811157	2.776825	9.614929
254708809366622	0.49293518	2.8278656	9.516174
254708817758956	0.42793274	3.1594696	8.995224
254708826151290	0.5847473	3.532425	8.2938385
254708834543624	1.1014862	2.9247131	8.584778
254708842935958	0.98121643	2.793518	9.30246
254708851328292	0.56378174	2.884613	9.780945
254708859720626	0.4967804	2.9042664	9.697418
254708868112959	0.608963	2.8356476	9.356583
254708876505293	0.60040283	2.7588806	9.167587
254708884897627	0.45195007	2.7564545	9.304703
254708893289961	0.38116455	2.6826782	9.586853
254708901682295	0.30264282	2.586609	9.751938
254708910074629	0.13659668	2.6026459	9.6059265
254708918466963	0.025787354	2.695404	9.23114
254708926859297	0.13415527	2.753418	8.869019
254708935251631	0.42730713	2.6873932	8.765228
254708943643965	0.5052643	2.5638733	9.062866
254708952036299	0.44891357	2.3439941	9.49913
254708960428633	0.3255005	2.3353271	9.752441
254708968820967	0.15771484	2.4938812	9.740036
254708977213301	-0.011703491	2.7368011	9.422211
254708985605635	-0.04562378	3.1285095	8.752975
254708993997969	0.40367126	2.9615173	8.674438
254709002390303	0.8834381	2.7043762	9.076187
254709010782637	1.1530914	2.6100159	9.706696
254709019174971	1.0832672	2.7110748	10.223175
254709027567305	0.70747375	2.910141	10.321915
254709035959639	0.38883972	2.9797974	9.886047
254709044351973	0.49717712	2.868454	9.52623
254709052744307	0.5819855	2.787857	9.385132
254709061136641	0.57943726	2.7957458	9.275497
254709069528975	0.5299072	2.8604126	9.111176
254709077921309	0.5012665	2.902069	8.927765
254709086313643	0.49116516	2.85318	8.926498
254709094705977	0.4413147	2.797348	9.124893
254709103098311	0.34521484	2.7699127	9.257233
254709111490645	0.2843628	2.7341766	9.295853
254709119882979	0.26416016	2.6996613	9.220184
254709128275313	0.27519226	2.6863403	9.097763
254709136667647	0.36697388	2.6765747	9.168045
254709145059981	0.42373657	2.640686	9.452866
254709153452315	0.37574768	2.6221771	9.650543
254709161844649	0.3436432	2.594452	9.682495
254709170236983	0.35990906	2.5721436	9.576523
254709178629317	0.39956665	2.5746307	9.398468
254709187021651	0.39457703	2.5746307	9.203049
254709195413985	0.40890503	2.5794525	9.07576
254709203806319	0.44511414	2.6000977	9.10582
254709212198653	0.4844818	2.6013184	9.218628
254709220590987	0.5003662	2.579239	9.364761
254709228983321	0.47698975	2.5475464	9.527466
254709237375655	0.4440918	2.5236206	9.697937
254709245767989	0.46600342	2.5388336	9.727478
254709254160323	0.48321533	2.5285797	9.798996
254709262552657	0.4912567	2.506363	9.901138
254709270944991	0.48205566	2.4838867	9.963562
254709279337325	0.44898987	2.4687653	9.912216
254709287729659	0.399292	2.4588318	9.787964
254709296121993	0.35235596	2.474121	9.6332245
254709304514327	0.35029602	2.4978027	9.450653
254709312906661	0.40727234	2.4970093	9.284683
254709321298995	0.44766235	2.5079803	9.185059
254709329691329	0.4003601	2.5753632	9.179153
254709338083663	0.37893677	2.6357117	9.198608
254709346475997	0.40455627	2.598938	9.171936
254709354868331	0.4440918	2.5423126	9.21019
254709363260665	0.44207764	2.4937897	9.315628
254709371652999	0.40428162	2.4640198	9.468704
254709380045333	0.36816406	2.45047	9.629776
254709388437667	0.36003113	2.427124	9.700851
254709396830001	0.3875122	2.415741	9.738876
254709405222334	0.3891449	2.398758	9.7258
254709413614668	0.3942566	2.3931122	9.680771
254709422007002	0.40777588	2.3997803	9.598251
254709430399336	0.41264343	2.4120789	9.481079
254709438791670	0.38372803	2.4359894	9.436203
254709447184004	0.35812378	2.4492188	9.371506
254709455576338	0.37748718	2.4656525	9.3758545
254709463968672	0.41018677	2.4804382	9.434097
254709472361006	0.43971252	2.4884949	9.508911
254709480753340	0.46192932	2.4886322	9.557449
254709489145674	0.4492035	2.4896088	9.565277
254709497538008	0.40483093	2.4822845	9.541824
254709505930342	0.38409424	2.4591522	9.514511
254709514322676	0.37313843	2.4250488	9.518478
254709522715010	0.36991882	2.3923035	9.559128
254709531107344	0.3844757	2.3743286	9.62207
254709539499678	0.41030884	2.3703613	9.728439
254709547892012	0.38996887	2.3709717	9.740677
254709556284346	0.38587952	2.3756561	9.679794
254709564676680	0.39042664	2.3736725	9.560608
254709573069014	0.3871765	2.3749084	9.418121
254709581461348	0.36810303	2.394577	9.306
254709589853682	0.3782196	2.389511	9.30397
254709598246016	0.38633728	2.3854523	9.371857
254709606638350	0.3776703	2.3656921	9.446564
254709615030684	0.37968445	2.3390198	9.479218
254709623423018	0.39924622	2.323227	9.449631
254709631815352	0.41993713	2.3343506	9.374741
254709640207686	0.42292786	2.3453064	9.320908
254709648600020	0.36120605	2.3350067	9.319778
254709656992354	0.32661438	2.3438568	9.344086
254709665384688	0.3446045	2.3370209	9.348511
254709673777022	0.3854828	2.3201904	9.320908
254709682169356	0.3813324	2.3353882	9.278244
254709690561690	0.3333435	2.3647614	9.206772
254709698954024	0.25334167	2.3506165	9.126251
254709707346358	0.22955322	2.2818146	9.128586
254709715738692	0.23509216	2.2155914	9.249161
254709724131026	0.28974915	2.1775513	9.488022
254709732523360	0.45292664	2.1618195	9.823807
254709740915694	0.6034851	2.2246246	10.109955
254709749308028	0.65286255	2.324524	10.189941
254709757700362	0.7162018	2.4035187	10.144119
254709766092696	0.73664856	2.445053	9.940155
254709774485030	0.70399475	2.4652252	9.601044
254709782877364	0.7380066	2.4758759	9.19899
254709791269698	1.3651428	2.3163452	8.7642975
254709799662032	0.7281647	2.6054535	9.069061
254709808054366	0.41281128	2.833023	9.568832
254709816446700	0.46554565	2.857071	10.022888
254709824839034	0.690567	2.7336273	10.24588
254709833231368	0.8421631	2.6796112	10.137192
254709841623702	0.77438354	2.7823029	9.720444
254709850016036	0.7448273	2.8971405	9.408325
254709858408370	0.73727417	2.9421692	9.289429
254709866800704	0.7420654	2.9431763	9.303986
254709875193038	0.7316742	2.9434357	9.341721
254709883585372	0.6696472	2.9664612	9.311264
254709891977706	0.6068573	2.9475098	9.339188
254709900370040	0.74516296	2.8850555	9.53952
254709908762374	0.875824	2.8586578	9.663528
254709917154708	0.904068	2.8972473	9.640427
254709925547042	0.84739685	2.973236	9.531876
254709933939376	0.81425476	3.0148468	9.482773
254709942331709	0.84877014	2.9955444	9.401535
254709950724043	0.88793945	2.963379	9.164841
254709959116377	0.7884064	3.004654	8.910736
254709967508711	0.661026	3.038391	8.739624
254709975901045	0.58932495	3.0230255	8.699249
254709984293379	0.5801239	2.990387	8.782486
254709992685713	0.72624207	2.9118652	8.843124
254710001078047	0.74554443	2.9015656	8.933746
254710009470381	0.8147583	2.8825989	9.091904
254710017862715	0.83387756	2.8905182	9.2265625
254710026255049	0.77763367	2.9198456	9.311859
254710034647383	0.7769623	2.893921	9.432175
254710043039717	0.69021606	2.9248352	9.486008
254710051432051	0.61932373	2.9296265	9.406128
254710059824385	0.6319885	2.9526367	9.368561
254710068216719	0.64401245	2.982544	9.363495
254710076609053	0.60554504	3.0056305	9.315369
254710085001387	0.5465851	3.0220795	9.138016
254710093393721	0.3319702	3.049408	9.203827
254710101786055	0.4186554	3.0066528	9.229294
254710110178389	0.4539032	2.9846191	9.121887
254710118570723	0.47935486	2.9814148	9.012238
254710126963057	0.5921478	2.983551	8.980347
254710135355391	0.8267212	2.9962006	8.973618
254710143747725	0.9028778	3.1068878	9.104599
254710152140059	0.9418335	3.1967926	9.116348
254710160532393	0.9743042	3.2503967	9.062332
254710168924727	1.0245667	3.2787018	9.054565
254710177317061	1.0616302	3.2981262	9.156342
254710185709395	0.9787903	3.3189697	9.315338
254710194101729	0.91815186	3.2752228	9.494263
254710202494063	0.86750793	3.2567139	9.515671
254710210886397	0.9903412	3.2308807	8.662643
254710219278731	1.0398254	3.3264923	8.006165
254710227671065	0.92941284	3.499649	8.371872
254710236063399	1.0453949	3.3366852	9.193069
254710244455733	1.0782013	3.1259613	9.654282
254710252848067	0.99768066	3.0397797	9.7948
254710261240401	0.937973	3.0359344	9.89328
254710269632735	0.8861389	3.0634308	10.064789
254710278025069	0.8480072	3.085846	10.267029
254710286417403	0.95043945	3.0988007	10.248322
254710294809737	1.0293884	3.1119537	9.52652
254710303202071	0.99990845	3.0993347	8.688126
254710311594405	0.9425354	3.1489563	8.443909
254710319986739	0.8872833	3.1953583	8.809204
254710328379073	0.81121826	3.1744537	9.480637
254710336771407	0.62535095	3.117813	10.055176
254710345163741	0.5828247	3.0540314	10.177689
254710353556075	0.5000458	3.0081635	9.944641
254710361948409	0.43232727	3.0006561	9.648117
254710370340743	0.40948486	3.0144348	9.418579
254710378733077	0.43067932	3.038391	9.254913
254710387125411	0.44636536	3.1043854	8.999527
254710395517745	0.56266785	3.168991	8.640686
254710403910079	0.81993103	3.2741852	7.398117
254710412302413	1.2761993	3.4743347	7.0575714
254710420694747	1.6996155	3.6112976	7.8329926
254710429087081	1.7644043	3.5342102	9.15094
254710437479415	1.2115479	3.3284302	10.018173
254710445871749	0.8765564	3.1713715	10.193115
254710454264083	0.8011627	3.127716	10.1914215
254710462656417	0.832428	3.1249847	10.115433
254710471048751	0.9253998	3.1360016	10.0203705
254710479441084	1.0519409	3.1585846	9.890442
254710487833418	1.1027985	3.199463	9.590347
254710496225752	1.3237457	3.1874695	9.052032
254710504637760	1.2982635	3.233078	8.505966
254710513030094	0.88835144	3.3003235	8.244888
254710521422428	0.6037445	3.278183	8.346527
254710529814762	0.8515625	3.1289215	8.704056
254710538207096	1.0893402	3.0776825	9.053558
254710546599430	0.96118164	3.1479034	9.211731
254710554991764	0.7840271	3.1789246	9.344666
254710563384098	0.7009125	3.1568146	9.386841
254710571776432	0.718338	3.0988464	9.3980255
254710580168766	0.7717285	3.0408936	9.4592285
254710588561100	0.78189087	3.0388794	9.518112
254710596953434	0.723526	3.1042175	9.303513
254710605345768	0.6893463	3.1515808	9.045303
254710613738102	0.71821594	3.162918	8.901871
254710622130436	0.76834106	3.1579285	8.881653
254710630522770	0.78356934	3.1649475	8.908722
254710638915104	0.785553	3.1837616	8.906754
254710647307438	0.7673645	3.1982727	8.974045
254710655699772	0.74295044	3.1900177	9.100281
254710664092106	0.72213745	3.1517181	9.226349
254710672484440	0.6663513	3.1061249	9.335403
254710680876774	0.564621	3.0732574	9.408096
254710689269108	0.5836334	3.0122528	9.308105
254710697661442	0.6708069	2.9888306	9.248093
254710706053776	0.7098541	3.0081635	9.166687
254710714446110	0.7479248	3.0303345	9.135117
254710722838444	0.77008057	3.0501404	9.208252
254710731230778	0.739975	3.0708313	9.3975525
254710739623112	0.72109985	3.0340576	9.573486
254710748015446	0.7281647	3.0325775	9.542526
254710756407780	0.74842834	3.0432434	9.354919
254710764800114	0.8078308	3.0626678	9.157181
254710773192448	0.9007416	3.0896149	9.081268
254710781584782	1.0005951	3.1180725	9.186523
254710789977116	1.0704346	3.1109772	9.350525
254710798369450	1.0399323	3.1163025	9.324814
254710806761784	0.9975128	3.1289368	9.20668
254710815154118	0.9711304	3.129242	9.107956
254710823546452	0.97473145	3.1197052	9.095657
254710831938786	0.99217224	3.1177979	9.178101
254710840331120	0.90841675	3.137741	9.306702
254710848723454	0.750824	3.0963593	9.438629
254710857115788	0.65193176	3.0416412	9.440475
254710865508122	0.61602783	2.9886932	9.376312
254710873900456	0.6156769	2.9592285	9.351257
254710882292790	0.6317291	2.9711914	9.41687
254710890685124	0.7201843	3.007965	9.39003
254710899077458	0.77241516	3.0242004	9.267944
254710907469792	0.7827606	3.030243	9.271332
254710915862126	0.7487488	3.018692	9.292007
254710924254460	0.72566223	2.9897156	9.300339
254710932646794	0.78408813	2.9592896	9.344238
254710941039128	0.80622864	3.0186462	9.354309
254710949431462	0.8425598	3.0991058	9.368774
254710957823796	0.8701935	3.132309	9.304321
254710966216130	0.8808594	3.1498413	9.22052
254710974608464	0.8775177	3.161209	9.196533
254710983000798	0.86846924	3.146103	9.2778015
254710991393132	0.85849	3.1291656	9.31868
254710999785466	0.87013245	3.0902405	9.262314
254711008177800	0.91482544	3.0783234	9.251373
254711016570133	0.93006897	3.078827	9.239212
254711024962467	0.8871155	3.0792084	9.180191
254711033354801	0.8096771	3.0764923	9.077713
254711041747135	0.81066895	3.055542	9.077713
254711050139469	0.84617615	3.059372	9.153793
254711058531803	0.86351013	3.0622559	9.249481
254711066924137	0.86701965	3.053833	9.3164215
254711075316471	0.8879242	3.0369263	9.349243
254711083708805	0.95770264	3.0249481	9.377731
254711092101139	0.99606323	3.0441284	9.401962
254711100493473	0.98039246	3.096344	9.394623
254711108885807	1.0230713	3.1052551	9.343689
254711117278141	1.1300354	3.1203156	9.299774
254711125670475	1.2931671	3.1716309	9.299408
254711134062809	1.5137787	3.2479706	9.350616
254711142455143	1.7685547	3.3823853	9.489044
254711150847477	2.099533	3.5299377	9.698364
254711159239811	2.139862	3.6483612	9.913742
254711167632145	1.796524	3.7055664	9.938217
254711176024479	1.4207001	3.6620636	9.79538
254711184416813	1.4888763	3.5080109	9.666138
254711192809147	0.4300537	3.5099945	8.92337
254711201201481	0.26203918	3.387268	8.953751
254711209593815	0.5311127	3.2605743	9.248093
254711217986149	0.8377991	3.1815643	9.496414
254711226378483	0.93685913	3.1688385	9.542786
254711234770817	0.80696106	3.2043457	9.417816
254711243163151	0.66937256	3.179428	9.421799
254711251555485	0.4779358	3.127304	9.545502
254711259947819	0.22608948	3.1015625	9.658676
254711268340153	-0.07789612	3.0972137	9.685928
254711276732487	-0.41441345	3.0815735	9.542877
254711285124821	-0.7467804	3.010025	9.159195
254711293517155	-0.85446167	2.8205872	8.753418
254711301909489	-0.7888336	2.6650085	8.393463
254711310301823	-0.5787964	2.4830322	8.5112
254711318694157	-0.64346313	2.5042572	8.97403
254711327086491	-1.0224304	2.725769	9.46225
254711335478825	-1.2179413	2.81427	9.722733
254711343871159	-1.1950073	2.715561	9.8632965
254711352263493	-1.1652222	2.6706848	9.872208
254711360655827	-1.0918884	2.6802673	9.856598
254711369048161	-0.9967041	2.7373047	9.700363
254711377440495	-0.93989563	2.8151703	9.345886
254711385832829	-0.98428345	2.871231	8.907959
254711394225163	-0.93644714	2.8878174	8.836685
254711402617497	-0.8735199	2.8980255	8.990265
254711411009831	-0.96710205	2.8643188	9.18277
254711419402165	-1.0905914	2.8266602	9.34848
254711427794499	-1.0618286	2.7987976	9.49408
254711436186833	-0.7838745	2.7438507	9.669174
254711444579167	-0.2669983	2.8969269	9.902771
254711452971501	-0.08270264	3.2440033	9.924988
254711461363835	0.074539185	3.4775543	9.88649
254711469756169	0.2728424	3.524826	9.744934
254711478148503	0.46228027	3.463028	9.409073
254711486540837	0.5890808	3.4379883	8.783936
254711494933171	1.6159973	3.3352966	7.548645
254711503325505	3.1105804	3.6232758	8.054352
254711511717839	2.8457794	4.124222	8.013733
254711520110173	1.8152618	4.592682	7.4360046
254711528502507	1.3261566	4.8456726	7.9004364
254711536894841	1.2856293	4.9074097	11.387817
254711545287175	1.3374786	5.450775	8.696899
254711553679508	1.0529175	5.175171	6.652664
254711562071842	0.87571716	4.5950623	6.0983276
254711570464176	0.54304504	4.12558	6.096222
254711578856510	-0.0042877197	3.9364471	5.7005615
254711587248844	-0.19940186	3.8494263	4.966522
254711595641178	0.15156555	3.9321747	4.95755
254711604033512	0.3023529	4.3977814	5.674301
254711612425846	-0.23995972	4.7552795	6.302368
254711620818180	-0.9407959	4.9796906	7.021576
254711629210514	-1.3724823	5.163452	8.013641
254711637602848	-1.9797211	5.281784	8.870285
254711645995182	-2.3236542	5.125717	8.81958
254711654387516	-1.8993988	4.50235	8.185806
254711662779850	-1.9250793	3.973175	7.341324
254711671172184	-2.7877197	4.1793823	6.8619385
254711679564518	-4.228882	5.373871	7.1191864
254711687956852	-5.5161896	7.06958	7.937042
254711696349186	-3.6017303	6.6948395	8.576202
254711704741520	-2.3035889	6.0635376	8.241074
254711713133854	-1.3365936	5.485443	6.9998016
254711721526188	-0.47862244	4.961197	5.5776215
254711729918522	0.93310547	3.8982239	4.2785034
254711738310856	4.1242676	1.0294342	2.2912598
254711746703190	-0.7821655	1.5880737	4.4422913
254711755095524	-4.6360016	4.3700104	4.863144
254711763487858	-5.447632	5.419937	4.9807587
254711771880192	-4.397995	5.6119843	5.4636383
254711780272526	-3.475235	6.369293	6.085144
254711788664860	-3.566986	6.346924	5.5915985
254711797057194	-3.027237	5.469223	4.732773
254711805449528	-2.6742096	5.2178345	4.626526
254711813841862	-2.6322784	5.377136	5.0155487
254711822234196	-3.3423615	5.7936707	5.503952
254711830626530	-5.0135345	6.3266907	5.746704
254711839018864	-7.1884155	6.8972626	5.7457123
254711847411198	-8.511444	7.759659	6.07872
254711855803532	-8.825409	8.661453	6.366226
254711864195866	-7.914917	9.2099	6.2608643
254711872588200	-6.1199646	9.394043	5.439682
254711880980534	-4.243225	9.399017	4.0953064
254711889372868	-3.1239777	9.289688	3.3368683
254711897765202	-2.9723206	9.799606	2.5593414
254711906157536	-3.3040314	10.728073	1.6527557
254711914549870	-3.805725	11.66095	0.8287964
254711922942204	-4.086334	12.343231	0.34098816
254711931334538	-3.929657	12.74472	0.16397095
254711939726872	-3.5956726	13.141541	-0.40629578
254711948119206	-3.0657806	13.135559	-0.74372864
254711956511540	-2.534607	12.799179	-0.38482666
254711964903874	-2.264801	12.186142	-0.026748657
254711973296208	-2.1819	11.49382	0.16816711
254711981688542	-2.1863708	10.969437	0.3882141
254711990080876	-2.731079	10.71199	0.80470276
254711998473210	-3.535324	10.43158	1.3990784
254712006865544	-3.8147583	10.132965	1.875351
254712015257878	-3.7886047	9.822586	2.109665
254712023650212	-3.6900024	9.49556	2.047409
254712032042546	-3.6461334	9.181473	1.7412109
254712040434880	-3.4377441	9.021942	1.3134918
254712048827214	-2.9935455	9.095459	1.1331329
254712057219548	-2.4189453	9.182587	0.953125
254712065611882	-1.9072418	9.289581	0.6416931
254712074004216	-1.4337463	9.395203	0.19769287
254712082396550	-0.8577881	9.45047	-0.30685425
254712090788883	-0.19670105	9.390381	-0.8864441
254712099181217	-0.13327026	9.633179	-1.3878937
254712107573551	-0.18548584	9.840134	-1.6145782
254712115965885	-0.28533936	9.848236	-1.6841736
254712124358219	-0.44517517	9.646011	-1.6187592
254712132750553	-0.6719513	9.368454	-1.3656311
254712141142887	-0.8045654	9.226883	-0.85217285
254712149535221	-0.78848267	9.080002	-0.49798584
254712157927555	-0.68037415	9.00087	-0.34292603
254712166319889	-0.65522766	9.060226	-0.21644592
254712174712223	-0.8063965	9.199066	-0.022781372
254712183104557	-1.1079559	9.30867	0.18078613
254712191496891	-1.4349823	9.497528	0.049591064
254712199889225	-1.69487	9.8824005	0.06175232
254712208281559	-1.8493958	10.221848	0.14227295
254712216673893	-1.8768005	10.433731	0.17167664
254712225066227	-1.72435	10.493973	0.038085938
254712233458561	-1.3363037	10.415237	-0.2703247
254712241850895	-0.81829834	10.216461	-0.4172058
254712250243229	-0.4983673	10.050598	-0.45689392
254712258635563	-0.29400635	10.060181	-0.5730438
254712267027897	-0.19360352	10.194061	-0.6233368
254712275420231	-0.18183899	10.353409	-0.59809875
254712283812565	-0.2420044	10.453918	-0.6023407
254712292204899	-0.36894226	10.578827	-0.7180939
254712300597233	-0.20539856	10.520111	-0.7163849
254712308989567	-0.004333496	10.375504	-0.6976776
254712317381901	0.11166382	10.300781	-0.6603546
254712325774235	-0.1903534	10.066666	-0.54945374
254712334166569	-1.5763397	8.915283	-0.36380005
254712342558903	-5.2264404	5.227295	-0.58514404
254712350951237	0.6751709	9.169388	2.3924255
254712359343571	0.8226013	10.916748	2.2728424
254712367735905	-0.7020416	10.36322	1.1439056
254712376128239	-1.8438721	7.430252	-0.32598877
254712384520573	-3.0205383	2.9521027	-2.397644
254712392912907	2.1408386	5.130844	0.5987091
254712401305241	1.9464569	5.7144775	0.16775513
254712409697575	0.53367615	5.217224	-0.44714355
254712418089909	0.76571655	4.7848206	-0.19532776
254712426482243	2.3878632	4.8851624	0.6351929
254712434874577	2.5408325	5.16864	0.9058533
254712443266911	0.84513855	5.474365	0.522171
254712451659245	-0.2645111	6.238373	0.47885132
254712460051579	-0.91264343	7.499466	0.1355896
254712468443913	-1.5186157	9.068527	-0.36366272
254712476836247	-2.1299133	10.647797	-0.7153473
254712485228581	-2.3878784	11.971573	-0.6812744
254712493620915	-2.28125	12.976868	-0.6223755
254712502013249	-1.8477325	12.858902	0.5924835
254712510405583	-0.868927	19.608002	2.8151398
254712518797917	-0.6961975	17.700012	-0.79714966
254712527190251	0.19110107	7.4612427	-6.137329
254712535582585	4.9882965	9.171265	0.7411804
254712543974919	2.0350952	11.775574	0.6686249
254712552367253	-0.05267334	12.372391	0.76371765
254712560759587	0.22080994	12.380737	0.66864014
254712569151921	0.7481079	12.096146	0.49154663
254712577544255	0.5737152	11.522949	0.5095978
254712585936589	1.087143	10.5504	0.926239
254712594328923	1.600235	9.463486	1.2121582
254712602721257	1.7105255	8.603256	1.3569336
254712611113591	1.8000641	7.9976654	1.4359436
254712619505925	1.8845673	7.6389465	1.4065552
254712627898258	1.9312592	7.544449	1.2045441
254712636290592	1.9381104	7.745392	0.82250977
254712644682926	1.8074951	8.401413	0.7068634
254712653075260	1.3602753	8.977798	0.04496765
254712661467594	0.8939667	9.374298	0.08085632
254712669859928	0.2204895	9.57283	0.60917664
254712678252262	-0.63175964	9.615036	1.0235138
254712686644596	-1.2345123	9.564316	0.90927124
254712695036930	-1.0705109	9.661728	1.6855927
254712703429264	-0.4044342	9.399811	1.0469055
254712711821598	0.3358307	9.180405	1.7480469
254712720213932	-0.0443573	8.825424	2.2875671
254712728606266	-1.304718	8.683792	1.8860626
254712736998600	-1.2423248	9.632767	2.2302094
254712745390934	-1.1047363	9.155197	2.8992157
254712753783268	-0.97047424	9.78334	1.9592743
254712762175602	-0.7553253	10.387405	1.5623169
254712770567936	-0.7648773	10.7966	1.4471436
254712778960270	-0.83969116	10.973984	1.2300262
254712787352604	-0.14520264	10.762497	1.2282562
254712795744938	-0.90115356	10.40802	0.16680908
254712804137272	-1.1037445	9.879349	0.6491852
254712812529606	-0.9951782	9.399857	1.2213745
254712820921940	-0.80218506	9.1814575	1.588623
254712829314274	-0.6452637	9.26738	1.7373962
254712837706608	-0.50149536	9.428772	1.5809784
254712846098942	-0.05706787	9.6454315	1.250946
254712854491276	0.08468628	9.921204	0.83102417
254712862883610	-0.114364624	10.243515	0.5378418
254712871275944	-0.5023651	10.561584	0.48710632
254712879668278	-0.8121338	10.757187	0.749527
254712888060612	-0.7010956	10.62706	1.3079834
254712896452946	-0.7748718	10.174423	1.6589355
254712904845280	-0.4786682	9.810974	1.7180023
254712913237614	-0.0947876	9.480545	1.7761841
254712921629948	0.13397217	9.218094	1.9111176
254712930022282	0.097351074	9.074509	2.0073395
254712938414616	-0.04084778	9.050873	1.7726288
254712946806950	0.030639648	9.086136	1.4817963
254712955199284	-0.1828003	9.35582	1.3031769
254712963591618	-0.24055481	9.431564	1.0883026
254712971983952	-0.1995697	9.436096	0.9058533
254712980376286	-0.21412659	9.603455	0.8196869
254712988768620	-0.21806335	9.922714	0.7110901
254712997160954	-1.0331421	10.543961	1.0242004
254713005553288	-1.2324524	11.1202545	2.3788757
254713013945622	-1.6074677	11.448822	3.0875854
254713022337956	-1.9626007	11.037979	2.177002
254713030730290	-1.9676819	9.923798	0.27592468
254713039122624	-1.8560028	9.197968	0.049591064
254713047514958	-1.1595154	8.484253	0.6569977
254713055907292	-0.95140076	8.023788	1.2459106
254713064299626	-0.99264526	7.72818	1.5089874
254713072691960	-1.0125122	7.5577393	1.3499603
254713081084294	-0.77934265	7.4649506	0.92233276
254713089476628	-0.24183655	7.3753967	0.65078735
254713097868962	0.10812378	7.3355103	0.26594543
254713106261296	0.46888733	7.2191772	0.0010070801
254713114653630	0.8764038	7.4421997	-0.2620697
254713123045964	1.084732	8.271317	-0.2607727
254713131438298	0.8262634	8.996628	0.21940613
254713139830632	0.19128418	7.147476	0.8012848
254713148222966	1.243927	5.220413	-0.4207611
254713156615300	2.0007172	4.749298	-1.0387878
254713165007633	2.0512695	5.6692657	-1.1974487
254713173399967	1.3502197	6.634903	-0.6506958
254713181792301	0.33973694	6.4897766	0.53964233
254713190184635	0.44908142	5.854599	0.8189697
254713198576969	0.17973328	5.69693	1.751358
254713206969303	-0.34690857	5.820053	2.437729
254713215361637	-0.28207397	5.893997	2.00943
254713223753971	0.013656616	6.022995	1.1419525
254713232146305	-0.17233276	6.354233	0.98828125
254713240538639	-0.45552063	6.442856	1.3142395
254713248930973	-0.7977905	6.387787	2.6450348
254713257323307	-1.0477295	6.3457184	3.7917938
254713265715641	-1.3620453	6.2943573	4.6961365
254713274107975	-1.7356873	6.2163696	5.3075104
254713282500309	-2.0832825	6.094101	5.645996
254713290892643	-2.3958893	5.88295	5.891983
254713299284977	-2.7868805	6.0532684	6.076462
254713307677311	-3.2602386	6.118225	6.3514557
254713316069645	-3.6633453	6.0776215	6.617935
254713324461979	-3.7593079	5.927536	6.6670074
254713332854313	-3.412506	5.6830597	6.3867493
254713341246647	-3.0256195	5.437317	6.2699738
254713349638981	-2.620102	5.23378	6.327545
254713358031315	-2.4863892	5.1853027	6.492584
254713366423649	-2.4588776	5.3965454	6.6210175
254713374815983	-2.469635	5.9286194	6.637085
254713383208317	-2.5634308	6.768509	6.5538635
254713391600651	-2.8256378	7.741577	6.4800873
254713399992985	-2.739914	8.478165	6.373581
254713408385319	-2.6938171	9.021439	6.2072754
254713416777653	-2.5370178	9.450119	5.8785706
254713425169987	-2.3531494	9.78334	5.45784
254713433562321	-2.3320465	9.998627	5.115082
254713441954655	-2.2304993	10.028076	4.8398743
254713450346989	-1.872345	9.9392395	4.7033844
254713458739323	-1.7593231	9.753403	4.88739
254713467131657	-1.7831573	9.653503	5.2342987
254713475523991	-1.8213348	9.750458	5.547104
254713483916325	-1.8327637	10.050537	5.678131
254713492308659	-2.0780182	10.400482	5.8187103
254713500700993	-1.7098846	10.859894	5.2420044
254713509093327	-1.3190765	11.342651	4.794815
254713517485661	-1.2920685	11.831406	4.682846
254713525877995	-1.5110931	12.225311	4.672226
254713534270329	-1.5448914	12.3806305	4.3526154
254713542662663	-1.5856476	12.269287	4.1120605
254713551054997	-1.6156006	12.112152	3.9855194
254713559447331	-1.6040192	11.790054	3.832199
254713567839665	-1.5302734	11.333984	3.70932
254713576231999	-1.4888611	10.808762	3.6808014
254713584624333	-1.5978851	10.284012	3.7597961
254713593016667	-1.5440521	9.827377	3.783722
254713601409001	-1.6302643	9.487228	3.9759827
254713609801335	-1.5357513	9.066711	4.133484
254713618193669	-1.3306274	8.705551	4.174408
254713626586003	-0.9304962	8.585281	3.9599457
254713634978337	-0.2538147	8.839523	3.476715
254713643370671	-0.4223938	9.332031	3.9580536
254713651763005	-1.4494324	9.756683	4.671646
254713660155339	-2.0816956	9.792633	4.9724274
254713668547673	-2.4423065	9.623062	5.1289063
254713676940007	-2.690979	9.42543	5.2561035
254713685332341	-2.8435364	9.285156	5.2195587
254713693724675	-2.614212	9.007996	4.935425
254713702117008	-2.571991	8.710159	4.9523773
254713710509342	-2.6541138	8.427292	5.0956726
254713718901676	-2.4049377	8.298721	4.8219757
254713727294010	-1.6131897	8.409988	3.967392
254713735686344	-0.41848755	8.795563	2.7954102
254713744078678	0.21768188	9.418808	1.9733582
254713752471012	0.07583618	10.093063	1.9288635
254713760863346	-0.31274414	10.56749	3.360382
254713769255680	-0.5440979	10.400314	3.7680511
254713777648014	0.32054138	9.53981	0.8866577
254713786040348	2.9333038	8.639984	-5.2872467
254713794432682	-1.2613525	9.818527	-2.4524384
254713802825016	-1.1653442	10.438492	-0.7005005
254713811217350	-0.56362915	10.522659	0.024291992
254713819609684	-0.12138367	10.192032	0.6435394
254713828002018	-0.040908813	9.656143	1.6038971
254713836394352	-0.4880066	9.1633	2.6409912
254713844786686	-0.95555115	9.03598	3.0973206
254713853179020	-1.1104736	9.265472	2.4507294
254713861571354	-0.5486603	9.421188	1.1969604
254713869963688	-0.21972656	9.612137	0.36628723
254713878356022	-0.61912537	9.909714	0.42175293
254713886748356	-1.2974396	10.223434	0.89523315
254713895140690	-1.6906128	10.596252	1.3026886
254713903533024	-2.0167694	10.652542	1.5780334
254713911925358	-1.9839172	10.403854	1.8844452
254713920317692	-1.8770142	10.1445465	1.9801788
254713928710026	-1.9250336	10.026138	1.9583435
254713937102360	-2.0314941	9.8658905	2.3909302
254713945494694	-2.134201	9.762192	2.060913
254713953887028	-2.1880493	10.181381	1.1755066
254713962279362	-2.488861	10.698151	1.2454071
254713970671696	-2.9082184	10.795059	2.1558838
254713979064030	-3.1672058	10.192612	3.2650604
254713987456364	-3.0016022	9.02179	3.8595734
254713995848698	-3.6982117	7.6234894	6.5302734
254714004241032	-3.607132	5.691971	5.864868
254714012633366	-0.8517151	3.9730682	-3.8034058
254714021025700	-0.11923218	4.2393494	-6.8321686
254714029418034	-2.5534668	6.1764526	1.7995453
254714037810368	-1.9108734	6.108902	3.9532318
254714046202702	-0.111953735	5.1836243	1.6137238
254714054595036	-0.39378357	5.0414734	1.2289581
254714062987370	-0.64923096	5.8425903	1.4063873
254714071379704	-1.3154602	7.3157654	1.6870575
254714079772038	-2.6557465	8.790192	1.7944031
254714088164372	-3.532669	9.36821	1.460495
254714096556706	-3.364685	9.379135	0.77563477
254714104949040	-3.0904694	9.506653	0.289917
254714113341374	-3.1419678	10.225052	0.07369995
254714121733708	-3.5141296	11.371109	0.03364563
254714130126042	-3.6669464	11.804016	0.0012817383
254714138518376	-2.5756836	9.417755	-0.18800354
254714146910710	-3.2585602	9.4982605	-0.02796936
254714155303044	-2.51651	8.426056	1.0361938
254714163695378	-1.9993134	7.391876	1.3131256
254714172087712	-1.6809845	7.09758	0.9863281
254714180480046	-1.0387421	7.4384155	0.781723
254714188872380	0.2297821	7.148178	1.3318939
254714197264714	-0.6795044	7.237915	1.5881348
254714205657048	-1.5740051	9.266083	2.43396
254714214049382	-1.530426	9.962265	2.2914124
254714222441716	-0.69351196	9.626617	1.0753326
254714230834050	0.26979065	9.409592	-0.388031
254714239226383	0.43736267	9.823975	-0.63586426
254714247618717	0.43136597	9.552948	-2.4659271
254714256011051	0.636734	8.948135	-4.1272125
254714264403385	0.4381256	8.184601	-4.976059
254714272795719	0.458786	6.855133	-5.2010803
254714281188053	1.024765	4.862549	-4.869644
254714289580387	0.99990845	2.9560394	-2.9233704
254714297972721	0.75645447	2.394806	-1.3477631
254714306365055	-0.018371582	3.066742	-1.1015778
254714314757389	-1.6798248	4.807419	-2.294342
254714323149723	-4.4955444	7.624237	-3.9966125
254714331542057	-7.4877014	10.272934	-5.213669
254714339934391	-7.085129	8.605972	-5.990982
254714348326725	-9.964172	11.575745	-5.7272797
254714356719059	-11.0638275	13.411636	-4.222122
254714365111393	-10.927734	13.539932	-3.3099213
254714373503727	-10.23407	12.655075	-3.2119598
254714381896061	-8.720276	11.240738	-3.4348755
254714390288395	-4.160324	8.391464	-3.479538
254714398680729	0.78082275	5.3904877	-4.3967896
254714407073063	1.9412537	4.5054474	-2.2653503
254714415465397	0.8859558	6.0243835	0.7645416
254714423857731	-1.3297272	9.305038	3.0232239
254714432250065	-3.6154022	12.5989685	3.024887
254714440642399	-4.7947845	13.456177	-0.16273499
254714449034733	-4.1602936	12.362595	-2.9876099
254714457427067	-3.1883392	11.8550415	-3.8383636
254714465819401	-2.9206085	11.55986	-4.311371
254714474211735	-2.9550476	11.18045	-4.547699
254714482604069	-2.2690887	10.553299	-3.7732544
254714490996403	-0.5892029	9.528488	-1.4353485
254714499388737	0.7078705	8.454773	0.9456787
254714507781071	1.9760742	9.243195	2.7461548
254714516173405	1.097641	9.64476	0.9023285
254714524565739	-0.4056549	8.949631	-2.1376648
254714532958073	-0.33154297	7.7910614	-2.7350922
254714541350407	0.4401245	7.6494904	-1.1687927
254714549742741	0.39923096	8.518631	0.059631348
254714558135075	0.13664246	8.563705	-0.20687866
254714566527409	0.010543823	8.318756	-0.5979767
254714574919743	-0.11468506	8.16095	-0.9290314
254714583312077	-0.546463	8.222443	-1.559555
254714591704411	-1.2691193	8.502747	-1.9879761
254714600096745	-1.2614746	8.913055	-2.211502
254714608489079	-0.77926636	8.812592	-1.6357727
254714616881413	-0.23521423	8.474991	-1.5505066
254714625273747	0.06037903	8.27916	-1.7923889
254714633666081	0.0044403076	8.448639	-1.5432434
254714642058415	-0.13174438	8.606689	-1.5621338
254714650450749	-2.3607788	7.9734497	2.3378296
254714658843083	-4.3571777	8.311447	3.934906
254714667235417	-2.3659973	9.112106	1.3858185
254714675627751	2.1042633	8.614136	-2.9844513
254714684020085	4.509262	5.3725433	-5.237015
254714692412419	3.6633606	1.9919128	-5.762848
254714700804753	4.977646	2.2104187	-3.9552155
254714709197087	3.8324127	2.9387817	-2.5130157
254714717589421	3.226715	3.6557617	-2.7906494
254714725981755	4.340912	3.6528015	-4.0520477
254714734374089	6.061081	2.8110352	-5.3053894
254714742766423	4.5929413	4.946167	-9.664108
254714751158757	2.2618408	8.023773	-5.364197
254714759551091	-18.650742	26.842133	-0.054901123
254714767943425	-22.445755	28.978943	3.473587
254714776335758	-6.2470093	14.962524	3.098648
254714784728092	4.7692566	10.559402	-1.2689819
254714793120426	6.839325	9.70137	-1.6489868
254714801512760	7.905426	8.752655	-1.1501312
254714809905094	8.045731	8.949341	-0.8795471
254714818297428	7.4614563	9.836975	-1.5907135
254714826689762	6.7647705	10.68158	-2.8327484
254714835082096	6.639267	10.9579315	-3.041565
254714843474430	7.0776215	10.886368	0.622345
254714851866764	6.284149	11.397903	-0.067977905
254714860259098	5.2842407	11.73259	-2.054062
254714868651432	4.8810883	11.911118	-2.8302155
254714877043766	5.121689	11.727234	-1.9229279
254714885436100	5.556122	10.927078	-0.39874268
254714893828434	6.024719	10.7256775	0.64811707
254714902220768	2.8498383	12.258469	1.286087
254714910613102	0.7835846	10.991257	-0.026245117
254714919005436	-1.9961243	7.643921	-2.119049
254714927397770	-4.0165405	4.095642	-4.204254
254714935790104	-1.3585663	2.40419	-5.9492188
254714944182438	2.6363678	3.5930176	-5.7543945
254714952574772	4.457443	5.1063843	-3.5710144
254714960967106	4.8013	6.2297974	-1.1808167
254714969359440	3.8130188	7.8073425	-0.368927
254714977751774	2.5893555	9.430283	-1.183197
254714986144108	2.9546356	9.603912	-1.9164581
254714994536442	3.5016632	9.950928	-1.7834473
254715002928776	3.5252533	9.740768	-1.8582458
254715011321110	3.5886993	9.487061	-1.9646912
254715019713444	3.6241608	9.266449	-2.0509338
254715028105778	3.6104126	9.100693	-2.1468353
254715036498112	3.654953	9.016388	-2.3252106
254715044890446	3.6858673	8.9785	-2.5026703
254715053282780	3.686676	8.973328	-2.6229706
254715061675114	3.646698	8.935364	-2.653885
254715070067448	3.5868683	8.873581	-2.605774
254715078459782	3.5185852	8.788879	-2.5187225
254715086852116	3.4395142	8.662308	-2.438614
254715095244450	3.3597717	8.4878235	-2.2840729
254715103636784	3.389923	8.356903	-2.1732025
254715112029118	3.4047852	8.268204	-2.141037
254715120421452	3.420929	8.221008	-2.1688385
254715128813786	3.45549	8.213013	-2.2275543
254715137206120	3.4960632	8.238937	-2.2915344
254715145598454	3.5020294	8.285797	-2.3573303
254715153990788	3.488556	8.326462	-2.3868713
254715162383122	3.4220886	8.372406	-2.4342957
254715170775456	3.287384	8.416428	-2.4819489
254715179167790	3.1141205	8.452209	-2.5166016
254715187560124	2.9675903	8.480286	-2.5479279
254715195952458	2.8493195	8.511108	-2.6065674
254715204344792	2.9044342	8.378815	-2.5890503
254715212737126	2.7445526	8.409363	-2.833664
254715221129460	2.6464386	8.430939	-3.087204
254715229521794	2.737793	8.340103	-3.224228
254715237914128	2.82016	8.228668	-3.3933563
254715246306462	2.765335	8.131943	-3.5458984
254715254698796	2.7568054	8.02417	-3.589157
254715263091130	2.839325	7.9407806	-3.7069092
254715271483464	2.8772583	7.9325867	-3.799591
254715279875798	2.8869019	7.99559	-3.7704468
254715288268132	3.058197	8.072952	-3.625183
254715296660466	2.9448853	8.292618	-3.5645447
254715305052800	3.115158	8.495621	-3.5865784
254715313445133	3.0565643	8.694946	-3.6114807
254715321837467	3.0050354	8.838791	-3.610672
254715330229801	3.0557556	8.900269	-3.5579224
254715338622135	2.9101563	8.900406	-3.4245453
254715347014469	2.596115	8.741882	-3.2560577
254715355406803	2.3861694	8.607452	-3.1870422
254715363799137	2.5338593	8.425369	-2.5331116
254715372191471	2.9476318	8.200912	-1.5704193
254715380583805	3.4225464	7.859146	-0.7563782
254715388976139	3.8155212	7.2343903	-0.26696777
254715397368473	3.6061401	6.9442444	-0.60894775
254715405760807	4.0367584	6.797455	-0.8544769
254715414153141	4.405304	7.262985	-0.58122253
254715422545475	4.4285736	8.222351	0.3748169
254715430937809	3.8761597	9.308151	1.4547119
254715439330143	2.5346527	10.170502	1.4273529
254715447722477	2.2275085	10.167526	0.7076874
254715456114811	2.02388	9.788559	0.3848877
254715464507145	1.668335	9.31456	0.2154541
254715472899479	1.1613159	9.004822	0.067230225
254715481291813	0.63708496	9.026855	-0.06907654
254715489684147	0.30963135	9.385361	-0.09011841
254715498076481	0.576828	9.866913	-0.51086426
254715506468815	0.86486816	10.059952	-1.1800842
254715514861149	1.0603027	9.967941	-1.4967804
254715523253483	1.0392761	9.760956	-1.5131989
254715531645817	0.93852234	9.610031	-1.4355621
254715540038151	1.2923584	9.567566	-1.3631287
254715548430485	2.3422241	9.235565	-1.5605316
254715556822819	2.5191956	8.9019165	-1.7319031
254715565215153	2.1208954	8.612961	-1.5232544
254715573607487	1.8679504	8.327316	-1.1962738
254715581999821	2.019516	8.126663	-0.94644165
254715590392155	1.8171539	8.323929	-0.4777069
254715598784489	1.730423	8.43959	-0.042007446
254715607176823	1.580719	8.9496	-0.14482117
254715615569157	1.3144836	9.518921	-0.34173584
254715623961491	0.9654541	10.013412	-0.3217163
254715632353825	0.6528168	10.339981	0.017852783
254715640746159	0.5735016	10.359329	0.4816742
254715649138493	0.710083	10.006393	0.9871521
254715657530827	1.0643158	9.520264	1.3269653
254715665923161	1.3665619	9.005386	1.1098938
254715674315495	1.5931244	8.581375	0.4087677
254715682707829	1.7797852	8.319489	-0.45384216
254715691100163	1.8815765	8.186462	-1.0675507
254715699492497	1.9909058	8.467773	-1.3697357
254715707884831	1.7528076	8.877457	-1.2458191
254715716277165	1.461853	9.2078705	-0.7730255
254715724669499	1.1870422	9.453217	-0.07234192
254715733061833	0.9088898	9.5946045	0.68733215
254715741454167	0.6385193	9.403748	1.298645
254715749846501	1.0402985	9.054779	1.1141968
254715758238835	1.0419464	8.973068	0.54055786
254715766631169	0.5931549	8.930786	-0.035873413
254715775023503	0.50193787	8.680679	-0.33969116
254715783415837	1.189148	8.300903	-0.3542328
254715791808171	1.355133	8.570282	-0.48544312
254715800200505	0.6457062	8.969131	-0.81004333
254715808592839	0.57847595	8.985809	-0.8933716
254715816985173	0.9654541	8.851364	-0.664978
254715825377507	1.3317871	8.802246	-0.22029114
254715833769841	1.250473	8.920303	0.23777771
254715842162175	0.7375641	8.926254	0.45248413
254715850554508	0.35725403	8.940079	0.25080872
254715858946842	0.6123047	8.757614	-0.027923584
254715867339176	1.075058	8.764221	-0.39491272
254715875731510	1.1730804	9.027008	-0.6022339
254715884123844	0.69255066	9.405792	-0.39772034
254715892516178	0.47883606	9.705978	0.12017822
254715900908512	0.45007324	9.976913	0.4005432
254715909300846	0.34536743	9.9939575	0.5732269
254715917693180	0.24481201	9.911011	0.8105316
254715926085514	0.2131195	9.893005	1.0938263
254715934477848	0.3115387	10.022476	1.2571716
254715942870182	0.6455231	10.170578	1.0424652
254715951262516	0.5223999	10.368301	0.36618042
254715959654850	0.46192932	10.39946	-0.25474548
254715968047184	0.35560608	10.323898	-0.77134705
254715976439518	0.1867218	10.243637	-1.1539459
254715984831852	0.033676147	10.246979	-1.3808289
254715993224186	0.05960083	10.267914	-1.5572968
254716001616520	0.05393982	10.218979	-1.6332703
254716010008854	-0.3821106	10.257141	-1.5130157
254716018401188	-0.57177734	10.591049	-1.0753326
254716026793522	-0.26782227	11.160431	-0.53411865
254716035185856	0.3033905	11.707443	-0.3143158
254716043578190	0.20069885	11.875931	-0.72309875
254716051970524	-0.14511108	11.53746	-0.6058655
254716060362858	-0.0844574	11.28949	-0.032669067
254716068755192	0.28871155	11.079269	0.6332245
254716077147526	0.6979675	10.96666	1.0565338
254716085539860	1.036499	11.132278	1.1485901
254716093932194	1.864502	11.755524	1.219162
254716102324528	2.3845062	12.407776	1.1128082
254716110716862	2.6775818	12.57019	0.707489
254716119109196	2.7584991	12.0490265	0.053527832
254716127501530	2.7031403	11.127853	-0.60336304
254716135893864	2.6576843	10.328201	-1.0218506
254716144286198	2.9724426	9.929916	-1.4557953
254716152678532	3.855835	9.836761	-2.3684235
254716161070866	4.4615936	9.638092	-2.5604553
254716169463200	5.0097656	9.272232	-2.381607
254716177855534	5.5626984	8.847549	-2.210205
254716186247868	5.78891	8.64035	-2.2734375
254716194640202	4.499756	9.156815	-2.4488983
254716203032536	3.3465424	9.725952	-2.0142212
254716211424870	2.3567352	9.724442	-0.84336853
254716219817204	1.7327728	9.329285	0.047042847
254716228209538	1.8197021	8.842087	-0.19685364
254716236601872	2.8556824	8.582764	-1.8265991
254716244994206	3.8247833	8.461121	-3.2243958
254716253386540	3.3148499	8.286621	-2.4272766
254716261778874	2.8750916	8.110062	-1.0305023
254716270171208	2.3682861	7.790207	-0.052230835
254716278563542	1.8610535	7.264496	-0.31263733
254716286955876	1.7749786	6.6549377	-1.9020538
254716295348210	2.1468658	6.287033	-3.6378632
254716303740544	2.5475464	6.2364197	-3.916748
254716312132878	2.9294128	6.2562714	-3.6167603
254716320525212	3.2342987	6.329468	-3.2436523
254716328917546	3.3770752	6.4427185	-3.044632
254716337309880	3.3250122	6.5504	-2.957077
254716345702214	3.3635864	6.61438	-2.660553
254716354094548	3.2842407	6.5	-2.3787231
254716362486882	3.2360535	6.3674927	-2.2809448
254716370879216	3.2176666	6.2190094	-2.3204193
254716379271550	3.241867	6.0229645	-2.4369507
254716387663883	3.3523865	5.724991	-2.614151
254716396056217	3.4580688	5.2464294	-2.8983002
254716404448551	3.3238068	4.8459167	-3.3262024
254716412840885	3.307373	4.5414886	-3.7549744
254716421233219	3.4154663	4.4360504	-4.0667267
254716429625553	3.5371094	4.559067	-4.2210236
254716438017887	3.5609436	4.854233	-4.267395
254716446410221	3.5838013	5.202133	-4.339966
254716454802555	3.5933685	5.574753	-4.4924774
254716463194889	3.5312042	5.9812775	-4.6036835
254716471587223	3.4005432	6.4033813	-4.6207123
254716479979557	3.1948395	6.8290253	-4.5006714
254716488371891	2.8877563	7.2657623	-4.212326
254716496764225	2.6036072	7.7144012	-3.8873138
254716505156559	2.4802856	8.098892	-3.479187
254716513548893	2.438034	8.505737	-3.0676117
254716521941227	2.5257874	8.963058	-2.807251
254716530333561	2.72406	9.448669	-2.780838
254716538725895	2.931076	9.897629	-2.9969482
254716547118229	3.392105	10.272339	-3.690506
254716555510563	3.6032257	10.7061	-4.606186
254716563902897	3.883377	11.268768	-5.6341095
254716572295231	4.0382233	12.0334015	-6.5320435
254716580687565	4.05896	12.868378	-7.0293427
254716589079899	4.3858643	13.243637	-6.886734
254716597472233	4.900757	12.082626	-6.00206
254716605864567	5.429611	9.933975	-5.252136
254716614256901	4.7593536	7.7129974	-4.9506073
254716622649235	3.8009949	5.8082886	-4.8279877
254716631041569	3.5455475	4.386978	-4.654007
254716639433903	3.7855682	3.387085	-4.5740204
254716647826237	3.6503906	3.0182953	-4.441818
254716656218571	3.7014465	3.1674194	-4.1848755
254716664610905	3.7684174	3.8154144	-4.0783844
254716673003239	3.9503174	4.72139	-4.089432
254716681395573	4.2657013	5.717285	-4.094208
254716689787907	4.544754	6.8360443	-3.9828186
254716698180241	5.420761	8.142914	-3.896225
254716706572575	5.7437744	9.8689575	-4.2876434
254716714964909	5.4963684	11.715912	-4.685135
254716723357243	4.9646454	13.712082	-4.9282074
254716731749577	4.372162	15.731857	-5.118408
254716740141911	3.6632843	17.185135	-5.5994263
254716748534245	2.4429474	16.674667	-5.4987183
254716756926579	2.2935944	14.050568	-3.7175293
254716765318913	2.7943573	10.095123	-1.6356506
254716773711247	3.8228302	5.777542	-2.1362305E-4
254716782103581	5.2151184	2.1246796	0.8953247
254716790495915	6.460388	-0.056732178	1.3459015
254716798888249	6.026016	0.0029144287	-0.06260681
254716807280583	5.7057037	0.86787415	-1.2487488
254716815672917	4.318222	2.9080658	-1.9174042
254716824065251	2.3943024	6.093109	-1.9974213
254716832457585	0.70928955	9.953308	-1.7294464
254716840849919	-1.0675659	13.685699	-1.6816101
254716849242253	-1.9459534	15.309418	-0.8123779
254716857634587	-1.3339081	15.268555	0.77885437
254716866026921	-0.5529175	13.972641	2.2678375
254716874419255	0.12564087	12.084152	3.1329193
254716882811589	0.8516846	10.285156	3.0477142
254716891203923	1.7958984	9.077148	2.1424255
254716899596257	2.0842743	8.152176	0.34121704
254716907988591	2.116928	7.179657	-1.6099548
254716916380925	2.3380127	6.520996	-2.9163055
254716924773258	2.732788	6.3361664	-3.2926483
254716933165592	3.129715	6.6896057	-2.847519
254716941557926	3.393631	7.519211	-2.33432
254716949950260	3.3647156	8.482315	-1.7690277
254716958342594	3.0597534	9.335876	-0.9222107
254716966734928	2.662506	9.918808	0.1736908
254716975127262	2.2215576	10.12529	1.3560486
254716983519596	1.7332306	9.961472	2.3409119
254716991911930	1.2187653	9.63945	2.8444061
254717000304264	0.8847656	9.184814	2.542328
254717008696598	0.54229736	8.891403	1.9196777
254717017088932	0.43530273	8.7323	1.1555939
254717025481266	0.50901794	8.688675	0.4417572
254717033873600	0.5927124	8.734009	-0.09538269
254717042265934	0.70269775	8.828415	-0.58695984
254717050658268	0.7691498	9.037445	-0.7604828
254717059050602	0.86535645	9.125992	-0.3692932
254717067442936	0.98114014	9.199829	0.002243042
254717075835270	1.0646515	9.249908	0.29193115
254717084227604	1.0773315	9.204483	0.6141968
254717092619938	1.0832977	9.032013	0.6211853
254717101012272	1.1663666	8.85498	0.1947937
254717109404606	1.1230927	8.796097	0.056274414
254717117796940	1.0895538	8.789703	-0.19050598
254717126189274	1.0853577	8.748001	-0.38223267
254717134581608	1.0603027	8.596619	-0.23751831
254717142973942	0.96281433	8.348831	-0.26087952
254717151366276	1.1250153	8.398712	-0.5055847
254717159758610	1.317276	8.52858	-0.64649963
254717168150944	1.4803467	8.770172	-0.70961
254717176543278	1.5209503	8.931107	-0.6615906
254717184935612	1.3874664	8.801407	-0.46710205
254717193327946	1.1800842	8.562134	-0.17300415
254717201720280	0.94351196	8.428345	-0.1383667
254717210112614	0.48886108	8.407425	-0.25598145
254717218504948	0.52659607	8.281891	-0.3010254
254717226897282	0.69332886	8.264999	-0.23474121
254717235289616	0.3257599	8.729446	-0.11264038
254717243681950	0.39753723	9.450272	0.099731445
254717252074284	0.628479	10.083145	0.13493347
254717260466618	0.8130493	10.610474	0.37171936
254717268858952	1.1348419	10.966339	0.7617035
254717277251286	1.5531769	11.083542	1.1924438
254717285643620	1.8975677	10.928162	1.4906464
254717294035954	2.1043396	10.707123	1.2532959
254717302428288	2.247345	10.628693	0.9554596
254717310820622	2.3690186	10.619888	0.65660095
254717319212956	2.4436188	10.532288	0.44735718
254717327605290	2.5269775	10.350815	0.14411926
254717335997624	2.6833344	10.160599	-0.47558594
254717344389958	2.735199	10.072861	-0.8634186
254717352782292	2.3936005	9.866806	-1.0221405
254717361174626	1.8189392	9.572708	-0.9677582
254717369566960	1.0876465	9.424362	-0.79693604
254717377959294	0.3279724	9.5933075	-0.49790955
254717386351628	-0.22850037	10.194855	-0.07154846
254717394743962	-0.23434448	11.374649	-0.013137817
254717403136296	-0.31826782	12.361084	-0.18185425
254717411528630	-0.73521423	12.508499	-0.18066406
254717419920964	-1.1065674	12.098465	0.1479187
254717428313298	-1.1783752	11.617355	0.58351135
254717436705632	-0.9365845	11.421326	0.7471466
254717445097966	-0.813324	11.202316	0.80622864
254717453490300	-0.8882446	11.270264	0.99209595
254717461882633	-0.5391083	11.408157	0.9760132
254717470274967	0.23190308	11.476761	0.7947693
254717478667301	1.0069275	11.242554	0.45980835
254717487059635	1.2285309	10.451019	-0.02468872
254717495451969	1.1208954	9.309616	-0.2206726
254717503844303	1.5137329	8.669617	-0.09552002
254717512236637	1.9632568	8.513824	-0.5635834
254717520628971	2.4023895	8.769302	-1.3660736
254717529021305	2.9134216	9.322647	-2.0224915
254717537413639	3.5630646	10.008957	-2.0377045
254717545805973	3.6528015	10.623108	-1.4394989
254717554198307	3.9700012	11.276413	-1.2185364
254717562590641	4.008896	11.708496	-1.2980652
254717570982975	4.117325	11.708832	-1.0912628
254717579375309	4.4081726	11.265701	-0.5072632
254717587767643	4.5831146	10.63179	-0.066589355
254717596159977	4.2090454	10.228348	-0.022537231
254717604552311	4.120941	10.197464	-0.27601624
254717612944645	4.1483	10.438232	-0.39367676
254717621336979	4.287445	10.737427	-0.31269836
254717629729313	4.264633	10.862854	-0.00869751
254717638121647	3.576645	10.571701	0.548996
254717646513981	2.4296112	9.556473	0.9786377
254717654906315	1.8202972	8.173187	0.81677246
254717663298649	1.6351013	6.931061	0.009063721
254717671690983	1.8480988	6.053711	-1.5568237
254717680083317	2.3232574	5.626175	-3.4530334
254717688475651	2.8483124	5.669159	-4.6892853
254717696867985	3.4030762	6.1976013	-3.6313934
254717705260319	3.3736267	6.5393677	-2.3117065
254717713652653	3.490158	6.627426	-1.7691498
254717722044987	3.5782623	6.5084534	-1.8059235
254717730437321	3.390396	6.3019867	-2.0649872
254717738829655	2.8598785	6.163971	-2.2832031
254717747221989	2.4692383	5.7931976	-2.7672882
254717755614323	2.4118652	5.3017273	-3.2478638
254717764006657	2.4774475	4.8615265	-3.3142395
254717772398991	2.6459656	4.5570526	-3.0680695
254717780791325	2.9417572	4.29747	-2.6935425
254717789183659	3.3595428	3.8758545	-2.3300018
254717797575993	3.2827759	3.9516144	-2.197403
254717805968327	3.6642303	3.6463776	-2.29068
254717814360661	3.8559418	3.2341156	-2.8134308
254717822752995	3.7341766	2.9140167	-3.4780273
254717831145329	3.4204102	2.81427	-3.993744
254717839537663	3.157135	2.9938507	-4.234207
254717847929997	2.7225037	3.4711304	-4.2768555
254717856322331	2.190033	4.177948	-4.2499237
254717864714665	1.6649933	5.0981445	-4.240448
254717873106999	1.2745819	6.250885	-4.2891235
254717881499333	1.1834106	7.645706	-4.375
254717889891667	1.6332245	9.292496	-4.4129944
254717898284001	2.690857	11.000198	-4.3921204
254717906676335	3.7750397	12.902298	-4.3183746
254717915068669	4.3415985	14.832916	-4.2201233
254717923461003	4.5530396	16.190018	-4.3043976
254717931853337	4.6375427	16.43663	-4.761307
254717940245671	4.6738586	15.436737	-5.615143
254717948638005	5.1410217	13.193253	-6.409363
254717957030339	4.9293976	10.416092	-7.267273
254717965422673	4.2728577	7.961914	-7.742523
254717973815007	3.5535889	6.00943	-7.7691193
254717982207341	3.0807037	4.6123047	-7.304367
254717990599675	2.9490356	3.9020386	-6.22081
254717998992008	3.4902954	4.9875793	-4.970749
254718007384342	4.0417023	6.7483063	-4.238098
254718015776676	4.734543	8.4711	-3.5346222
254718024169010	5.4927673	10.191376	-2.8999023
254718032561344	6.161148	12.125092	-2.4173126
254718040953678	6.554245	14.403091	-1.9872589
254718049346012	6.178665	16.118011	-2.039917
254718057738346	5.3672333	15.927551	-2.6407623
254718066130680	4.281784	13.4774475	-3.1463013
254718074523014	3.338028	9.449066	-3.408844
254718082915348	2.9434052	4.843094	-3.4120178
254718091307682	3.2550507	0.7711029	-3.0914917
254718099700016	4.3365326	-1.6483154	-2.358902
254718108092350	5.1410675	-2.5123596	-0.19352722
254718116484684	5.116028	-1.2092743	1.6598816
254718124877018	4.340576	2.3017883	2.1719055
254718133269352	3.1447144	7.47731	0.8875122
254718141661686	1.942688	12.716293	-1.7769775
254718150054020	0.7153778	15.904724	-3.893631
254718158446354	-0.5696106	16.814423	-3.092392
254718166838688	-0.59298706	15.517319	-0.55114746
254718175231022	-0.057922363	13.156433	1.9387512
254718183623356	0.19718933	10.897522	2.9725647
254718192015690	0.8751068	9.110291	2.6504974
254718200408024	1.3763123	8.102615	1.4249725
254718208800358	1.5414124	7.4195404	-0.32154846
254718217192692	1.875	6.9418945	-2.366623
254718225585026	2.4043884	6.712555	-4.0836487
254718233977360	2.886673	6.8130493	-4.8270874
254718242369694	2.927536	7.3275146	-4.1092377
254718250762028	2.619522	7.953598	-3.031723
254718259154362	2.627121	8.404541	-1.9255981
254718267546696	2.909851	8.683685	-0.8043213
254718275939030	2.9914703	8.853638	0.36836243
254718284331364	2.4068604	9.015976	1.480896
254718292723698	1.3580017	9.307098	2.029251
254718301116032	0.9221039	9.781876	2.2967072
254718309508366	0.84132385	9.929367	1.7314911
254718317900700	0.7744446	9.737396	0.5635681
254718326293034	0.6538696	9.260757	-0.608963
254718334685368	0.55960083	8.669205	-1.1643372
254718343077702	0.57455444	8.442886	-0.9350128
254718351470036	0.63168335	8.462952	-0.46232605
254718359862370	0.6655426	8.55275	-0.13348389
254718368254704	0.8364105	8.687576	-0.056030273
254718376647038	1.0988312	8.742905	-0.13780212
254718385039372	1.3324585	8.666901	-0.2039032
254718393431706	1.5163574	8.767288	-0.103515625
254718401824040	1.5491638	8.663055	0.13464355
254718410216374	1.48172	8.473404	0.32029724
254718418608708	1.4167328	8.168472	0.14048767
254718427001042	1.4483185	7.9351654	-0.23960876
254718435393376	1.5817261	7.950424	-0.4657898
254718443785710	1.576767	8.0247345	-0.36767578
254718452178044	1.6243134	8.17157	-0.28353882
254718460570378	1.6736145	8.414413	-0.34532166
254718468962712	1.6652222	8.662064	-0.55641174
254718477355046	1.5987396	8.876099	-0.8447418
254718485747380	1.5097809	9.041153	-1.0783234
254718494139714	1.4496765	9.084946	-1.0049896
254718502532048	1.4711456	8.98172	-0.52111816
254718510924382	1.5986023	8.903809	-0.0664978
254718519316716	1.7535706	8.954163	0.15296936
254718527709050	1.894867	9.087448	0.1267395
254718536101383	1.9613647	9.221008	-0.003967285
254718544493717	1.6293488	9.496201	0.016967773
254718552886051	1.0422668	9.884567	0.3925171
254718561278385	0.60472107	10.212448	0.9860687
254718569670719	0.38432312	10.623901	1.5649567
254718578063053	0.31147766	10.927368	1.8930664
254718586455387	0.3399353	10.867554	1.8308868
254718594847721	0.866745	10.75621	1.452179
254718603240055	1.5695496	10.645813	0.8717804
254718611632389	2.0480957	10.441605	0.22491455
254718620024723	2.2939606	10.239105	-0.46707153
254718628417057	2.3104095	10.1210785	-1.1030731
254718636809391	1.9390106	10.138748	-1.4573822
254718645201725	0.7748108	10.318832	-1.1079102
254718653594059	0.023605347	10.652084	-0.7490082
254718661986393	-0.06895447	11.24234	-1.1000366
254718670378727	-0.22647095	11.68869	-1.2742767
254718678771061	-0.78819275	11.892548	-0.7298584
254718687163395	-1.5619049	12.034973	0.48867798
254718695555729	-1.6845398	12.290207	1.4318542
254718703948063	-1.3049164	12.98291	1.4351807
254718712340397	-1.0345612	13.675629	1.2526855
254718720732731	-0.22602844	13.627945	1.3303986
254718729125065	1.1463013	12.8042145	1.6770325
254718737517399	2.5332794	11.736847	1.9784698
254718745909733	3.4036713	10.932266	1.7312164
254718754302067	3.9852295	10.0811	0.8030853
254718762694401	4.3640137	9.308151	-0.2271576
254718771086735	4.586914	8.915558	-0.7359314
254718779479069	4.694107	8.864929	-0.648407
254718787871403	4.7459717	8.876617	-0.33085632
254718796263737	4.9358673	8.90506	-0.16635132
254718804656071	4.636566	9.078552	-0.20428467
254718813048405	4.211426	9.292648	-0.44270325
254718821440739	3.9137878	9.671722	-0.74546814
254718829833073	3.7905579	10.181229	-0.90805054
254718838225407	3.7659607	10.623184	-0.82980347
254718846617741	4.0850067	10.738831	-1.1797485
254718855010075	4.363968	10.701096	-1.6948242
254718863402409	4.421707	10.668259	-1.8039551
254718871794743	4.3058014	10.41153	-1.4233856
254718880187077	4.320099	10.007889	-0.898407
254718888579411	4.7199554	9.784576	-0.6796112
254718896971745	4.4926453	9.747681	-0.39845276
254718905364079	3.5086212	9.28363	-0.06315613
254718913756413	2.4037018	8.386978	-0.026168823
254718922148747	1.6162262	7.3386536	-0.18666077
254718930541081	1.3007355	6.358429	-0.52130127
254718938933415	1.3439941	5.5504	-1.1326904
254718947325749	1.6548462	5.074051	-2.1500092
254718955718083	2.1828156	5.06073	-2.7948914
254718964110417	2.6676636	5.3893585	-2.763153
254718972502751	2.9264374	5.8728485	-2.3567352
254718980895085	3.0502625	6.288315	-1.9805145
254718989287419	3.3197937	6.4759064	-1.8777161
254718997679753	3.5408173	6.4458923	-2.013733
254719006072087	3.6806183	6.3982697	-2.2703705
254719014464421	3.7071075	6.259598	-2.4872437
254719022856755	3.5770416	6.0384064	-2.664215
254719031249089	3.3747406	5.682617	-2.8205109
254719039641423	3.260971	5.096634	-2.9632263
254719048033757	3.131363	4.5811768	-3.1666107
254719056426091	2.9959412	4.1988373	-3.4818878
254719064818425	3.0045624	3.7478638	-3.7766418
254719073210758	3.1594696	3.3596344	-4.030548
254719081603092	3.3380585	3.1175232	-4.270767
254719089995426	3.3434906	2.9905853	-4.528778
254719098387760	3.18544	3.1734772	-4.6033325
254719106780094	2.9808655	3.561325	-4.57193
254719115172428	2.61792	4.2091217	-4.4244537
254719123564762	2.3190613	5.093231	-4.1009827
254719131957096	2.281662	6.137802	-3.5809631
254719140349430	2.5331116	7.260376	-2.9448242
254719148741764	2.7335052	8.637238	-2.7514038
254719157134098	2.6474152	10.6642	-3.4392242
254719165526432	2.91568	12.636429	-4.457962
254719173918766	3.2697449	14.442917	-5.6140747
254719182311100	3.587738	15.87767	-6.6455994
254719190703434	4.2938538	16.424622	-7.1612396
254719199095768	6.0025635	15.34613	-6.620514
254719207488102	7.013794	12.963776	-5.6303864
254719215880436	6.5014954	9.855194	-5.3586426
254719224272770	5.220215	6.8973083	-5.89299
254719232665104	4.095993	4.7259827	-6.801285
254719241057438	3.310318	3.338745	-7.5218964
254719249449772	2.6095428	2.6260529	-7.463257
254719257842106	2.496582	2.4307709	-6.603592
254719266234440	3.3598022	3.136612	-5.617111
254719274626774	4.632736	4.959137	-4.846924
254719283019108	5.6390686	7.6764526	-4.324005
254719291411442	6.0540466	10.513672	-3.7636719
254719299803776	6.58844	12.617355	-2.94812
254719308196110	7.291382	14.624039	-2.0019073
254719316588444	7.330658	16.916977	-1.3375702
254719324980778	6.3884583	18.42389	-1.9627686
254719333373112	4.8120117	17.760696	-3.8414612
254719341765446	3.492157	14.011551	-5.200287
254719350157780	3.2058716	7.9162903	-5.2380524
254719358550114	3.8913574	2.2534485	-3.990387
254719366942448	5.3044434	-2.2162628	-1.0188599
254719375334782	6.5193634	-4.140747	2.3250427
254719383727116	6.7197723	-3.2047272	4.131302
254719392119450	5.9252014	-0.68836975	3.402588
254719400511784	3.5184326	3.902832	0.84228516
254719408904118	1.5154419	9.470551	-2.4329224
254719417296452	-0.43829346	14.797958	-5.1912994
254719425688786	-1.7338104	18.044556	-5.2471313
254719434081120	-1.8082733	18.188797	-2.028717
254719442473454	-0.8578186	15.93486	1.84375
254719450865788	0.21670532	12.833542	4.320816
254719459258122	0.6279297	10.07869	4.828125
254719467650456	0.9505768	8.276947	3.583908
254719476042790	1.3558655	7.2312775	0.9814453
254719484435124	1.8772888	6.500351	-2.4066925
254719492827458	2.5972443	5.8408966	-5.7977905
254719501219792	3.055481	5.956192	-5.954834
254719509612126	3.0671082	6.523056	-4.4982147
254719518004460	3.0751495	7.278656	-2.9458008
254719526396794	3.127472	8.049576	-1.6850891
254719534789128	3.0777283	8.701141	-0.5309143
254719543181462	2.7944489	9.128571	0.7076111
254719551573796	2.2032166	9.317001	1.8242645
254719559966130	1.6878052	9.505096	2.5513
254719568358464	1.3086395	9.607239	2.5189667
254719576750798	0.95848083	9.497894	1.7509155
254719585143132	0.57585144	9.166916	0.5860596
254719593535466	0.4183197	8.856857	-0.6282959
254719601927800	0.41125488	8.618744	-1.5341034
254719610320133	0.37234497	8.588257	-1.593689
254719618712467	0.33329773	8.671524	-1.2943268
254719627104801	0.36160278	8.71373	-0.89416504
254719635497135	0.5193634	8.636154	-0.48464966
254719643889469	0.8243866	8.612152	-0.07861328
254719652281803	0.9558258	8.386276	-0.15809631
254719660674137	1.04245	8.375687	-0.035736084
254719669066471	1.0644531	8.38353	-0.038467407
254719677458805	1.0780182	8.318237	-0.28398132
254719685851139	1.1222839	8.169006	-0.70780945
254719694243473	1.0425415	7.9905396	-1.009903
254719702635807	1.176117	7.9336853	-1.2277985
254719711028141	1.3046265	7.970459	-1.1134186
254719719420475	1.2015991	7.975815	-0.6646271
254719727812809	1.0195923	7.9949036	-0.22064209
254719736205143	1.0407104	8.142227	-0.18283081
254719744597477	1.1443939	8.402451	-0.4699707
254719752989811	1.2990112	8.784683	-0.55918884
254719761382145	1.5057526	9.040634	-0.4618683
254719769774479	1.7756348	9.155487	-0.20176697
254719778166813	2.139038	9.18515	0.12528992
254719786559147	2.545578	9.188583	0.38819885
254719794951481	2.6220245	9.052155	0.55656433
254719803343815	2.1962585	9.525909	0.75390625
254719811736149	1.536972	10.040924	1.0620422
254719820128483	0.91737366	10.575531	1.4397583
254719828520817	0.4588623	11.07901	1.7372742
254719836913151	0.20796204	11.442596	1.7915192
254719845305485	0.39727783	11.566101	1.7064819
254719853697819	0.99964905	11.451599	1.4217834
254719862090153	1.6240387	11.170074	0.8353882
254719870482487	2.0261078	10.868317	0.16171265
254719878874821	2.133133	10.6579895	-0.43486023
254719887267155	1.9193268	10.626617	-0.8273773
254719895659489	0.9023895	10.904785	-0.8014679
254719904051823	0.17086792	11.677643	-0.6725464
254719912444157	-0.052352905	12.411423	-1.157959
254719920836491	-0.4532318	12.724274	-1.144867
254719929228825	-1.0770264	12.537491	-0.3965912
254719937621159	-1.3861542	12.10614	0.30943298
254719946013493	-1.3978729	11.756622	0.4207306
254719954405827	-1.4498444	11.666367	0.4031067
254719962798161	-1.2420502	11.710892	0.42022705
254719971190495	-0.9533386	11.914307	0.59407043
254719979582829	-0.66212463	12.070374	1.0049744
254719987975163	-0.24246216	11.807343	1.6525726
254719996367497	0.8361511	11.1493225	2.29451
254720004759831	1.7906799	10.577667	2.272583
254720013152165	2.708252	9.849365	1.467453
254720021544499	3.5410614	9.365463	0.39079285
254720029936833	4.314636	9.275833	-0.59965515
254720038329167	5.1399536	9.424637	-1.3797455
254720046721501	6.1725464	9.5359955	-1.9547424
254720055113835	6.3441315	9.543411	-2.3883667
254720063506169	5.3462677	9.80365	-2.891159
254720071898503	4.0757294	10.206924	-2.8215942
254720080290837	3.2018433	10.60704	-2.0471954
254720088683171	2.8488922	10.868393	-1.094162
254720097075505	2.5258331	10.765015	0.17518616
254720105467839	2.8843231	10.588272	0.60873413
254720113860173	3.2344666	10.705322	0.6627655
254720122252507	3.6123505	10.90361	0.7322693
254720130644841	3.9147797	10.970474	0.9703827
254720139037175	3.7943878	10.832794	1.1565704
254720147429508	3.6073608	10.27269	0.90982056
254720155821842	2.9432526	9.460312	0.7437744
254720164214176	2.466095	8.271042	0.43252563
254720172606510	2.1921082	7.0842285	-0.2394104
254720180998844	2.141861	6.198593	-1.2550507
254720189391178	2.444931	5.686264	-2.286148
254720197783512	2.7302856	5.68219	-3.0325317
254720206175846	2.491623	5.6825867	-3.0914764
254720214568180	2.2037811	5.784729	-2.854309
254720222960514	2.0814362	6.000763	-2.5440826
254720231352848	2.1437683	6.235611	-2.3559723
254720239745182	2.2445984	6.296234	-2.4308624
254720248137516	2.2844849	6.1586456	-2.2045288
254720256529850	2.367096	5.9136353	-1.9627228
254720264922184	2.437149	5.7313538	-1.9314728
254720273314518	2.6259613	5.527878	-2.053482
254720281706852	2.939209	5.2378235	-2.1975555
254720290099186	3.1513062	4.9248047	-2.2818756
254720298491520	3.3026276	4.584076	-2.459549
254720306883854	3.284256	4.220627	-2.6599884
254720315276188	3.2467957	3.8553162	-2.8530884
254720323668522	3.2113342	3.469452	-3.0753632
254720332060856	3.190628	3.0950317	-3.3892822
254720340453190	3.2452698	2.8648834	-3.8553162
254720348845524	3.3289795	2.812317	-4.3128204
254720357237858	3.3562012	2.8771362	-4.6272583
254720365630192	3.275116	3.1448212	-4.760788
254720374022526	3.0647736	3.6287994	-4.6752167
254720382414860	2.7027893	4.384918	-4.4139404
254720390807194	2.1819	5.5437164	-4.193878
254720399199528	1.9087372	7.610214	-4.075058
254720407591862	2.013214	10.5407715	-3.9437866
254720415984196	2.2865295	14.082794	-3.8113403
254720424376530	3.0950775	17.570587	-3.7238464
254720432768864	4.3673553	20.021759	-3.885788
254720441161198	4.906494	20.077545	-4.7773285
254720449553532	5.8438416	16.531906	-6.677887
254720457945866	6.0672455	12.256424	-8.726212
254720466338200	6.3671265	8.104218	-9.984009
254720474730534	6.1360016	4.939087	-10.170578
254720483122868	5.0385284	3.2259064	-9.300903
254720491515202	4.3212585	2.4244232	-7.498001
254720499907536	4.000061	2.2574768	-4.5612793
254720508290397	4.3067017	3.9022217	-3.0327759
254720516682731	4.5476074	6.90625	-2.6468658
254720525075065	4.927841	10.022812	-2.3048859
254720533467399	5.9039917	12.302261	-1.313446
254720541859733	7.525223	14.219711	-0.67529297
254720550252067	8.3159485	16.03897	-0.9942932
254720558644401	7.0404816	16.314987	-3.2816162
254720567036735	5.637741	14.326996	-5.664383
254720575429069	4.5469513	10.609634	-6.9366455
254720583821403	3.7226257	6.0991516	-6.608032
254720592213737	3.6697845	2.1051483	-5.128479
254720600606071	4.9448853	-0.69488525	0.19972229
254720608998405	5.960678	-0.95851135	3.2692108
254720617390739	6.115158	0.7141113	3.4326935
254720625783073	5.1919556	3.8110962	1.1148682
254720634175407	3.441925	7.4515686	-2.0833282
254720642567741	1.6040192	10.414719	-3.973938
254720650960075	-0.1437378	12.195358	-4.0556946
254720659352409	-1.1341858	13.053772	-2.8182983
254720667744743	-1.6817169	13.244644	-0.36878967
254720676137077	-1.4763794	13.062225	2.1667175
254720684529410	-0.32424927	12.658478	3.3566284
254720692921744	0.793808	11.531311	2.7209473
254720701314078	0.27586365	9.801132	0.96040344
254720709706412	0.14993286	8.611816	-0.65112305
254720718098746	0.8060913	7.9910583	-2.0696564
254720726491080	1.8667145	7.7635345	-3.363678
254720734883414	2.670761	7.6791534	-4.431793
254720743275748	3.1652832	7.5914307	-4.3989105
254720751668082	3.1062622	7.421524	-3.223343
254720760060416	2.9634247	7.4062805	-2.202301
254720768452750	2.9567413	7.544586	-1.3228607
254720776845084	2.9998627	7.785736	-0.5438843
254720785237418	2.8975677	8.086288	0.19216919
254720793629752	2.6278381	8.471512	1.1230011
254720802022086	2.082367	8.798065	1.638794
254720810414420	1.5508423	9.122421	1.6950226
254720818806754	1.1521912	9.236572	1.2461243
254720827199088	0.82847595	9.125687	0.23924255
254720835591422	0.48762512	8.899261	-1.1056519
254720843983756	0.3939209	8.547852	-1.6506042
254720852376090	0.13475037	8.360275	-1.3577423
254720860768424	0.09927368	8.319244	-1.243454
254720869160758	0.21299744	8.442688	-1.217102
254720877553092	0.41888428	8.594513	-1.1217041
254720885945426	0.68603516	8.590424	-0.8517456
254720894337760	0.91204834	8.473404	-0.49873352
254720902730094	0.9444885	8.22702	-0.14863586
254720911122428	0.9109497	7.9724426	0.04534912
254720919514762	0.9098816	7.780945	-0.016738892
254720927907096	0.9175873	7.636734	-0.16300964
254720936299430	0.8692932	7.5088654	-0.16264343
254720944691764	0.90818787	7.61055	-0.31617737
254720953084098	0.94033813	7.912964	-0.6873779
254720961476432	1.1950836	8.32019	-0.9020691
254720969868766	1.4771729	8.6957855	-1.1257019
254720978261100	1.6887054	8.991196	-1.3343201
254720986653434	1.8451233	9.221863	-1.3131104
254720995045768	1.9887543	9.327805	-0.8353729
254721003438102	2.224228	9.412689	-0.46826172
254721011830436	2.1664429	9.49939	-0.046432495
254721020222770	1.6998749	9.676117	0.4276886
254721028615104	0.8104553	9.945511	0.9476471
254721037007438	-0.31652832	10.248199	1.4593506
254721045399772	-0.8716736	10.704544	1.5571442
254721053792106	-1.0131378	11.226944	1.2393188
254721062184440	-0.80851746	11.5327	0.97354126
254721070576774	-0.20452881	11.499619	0.70176697
254721078969108	0.56152344	11.272095	0.29826355
254721087361442	1.1110382	11.111786	-0.3120575
254721095753776	1.3605194	10.988525	-0.7633362
254721104146110	1.0281982	11.191788	-0.8818512
254721112538444	0.46647644	11.719421	-0.61846924
254721120930778	0.23892212	12.353775	-0.6688843
254721129323112	0.32247925	12.833282	-1.0970154
254721137715446	0.12924194	12.909592	-1.1513977
254721146107780	-0.40083313	12.2556305	0.26316833
254721154500114	-0.5023346	11.848267	1.3324432
254721162892448	-0.4242859	11.909622	1.5308533
254721171284782	-0.25260925	12.272598	1.2698364
254721179677116	0.2533722	12.494492	1.0381012
254721188069450	1.4640503	11.960312	1.2471924
254721196461784	2.1928558	10.771896	2.0108948
254721204854118	2.4186096	9.791061	2.0769196
254721213246452	2.7655487	8.719055	1.6486969
254721221638785	3.2810974	8.016418	0.8889313
254721230031119	3.9341583	8.019226	0.088760376
254721238423453	4.703964	8.694992	-0.37356567
254721246815787	5.7610626	9.623123	-0.7837982
254721255208121	6.897522	10.3967285	-1.253891
254721263600455	7.289627	11.104401	-1.7842865
254721271992789	6.7668457	11.642868	-2.0986633
254721280385123	5.7516327	11.815247	-2.0254517
254721288777457	5.0661163	11.420212	-1.7048645
254721297169791	4.5859985	10.879456	-2.3161774
254721305562125	4.0738525	10.612793	-2.8578033
254721313954459	3.5886993	10.658051	-2.600769
254721322346793	3.1340942	10.671204	-1.4951019
254721330739127	2.7141418	10.467926	-0.27412415
254721339131461	2.3409576	10.190598	-0.4214325
254721347523795	1.9451141	10.117706	-1.4459229
254721355916129	1.6232147	10.251572	-1.6795502
254721364308463	1.2267456	10.176773	-1.007843
254721372700797	0.89775085	9.745056	-0.18603516
254721381093131	0.8267517	8.882797	0.14639282
254721389485465	1.1244354	7.5999603	-0.15924072
254721397877799	1.3649902	6.19841	-1.2297821
254721406270133	1.8708038	5.0756226	-2.1650696
254721414662467	2.5850677	4.436081	-2.854477
254721423054801	3.116043	4.2821503	-2.948639
254721431447135	3.255478	4.473114	-2.4539032
254721439839469	3.266037	4.7921753	-1.9910889
254721448231803	3.2361298	4.993576	-1.6870117
254721456624137	3.2186737	5.0339203	-1.5365143
254721465016471	3.242752	4.934952	-1.6724548
254721473408805	3.2608643	4.7904053	-1.9404144
254721481801139	3.260971	4.638489	-2.1824036
254721490193473	3.325821	4.3903046	-2.4062042
254721498585807	3.2859497	4.230789	-2.482956
254721506978141	3.2505646	4.054199	-2.5331268
254721515370475	3.2736053	3.888504	-2.618332
254721523762809	3.346939	3.7540436	-2.7008057
254721532155143	3.4667358	3.653183	-2.7638397
254721540547477	3.658966	3.5590973	-2.884079
254721548939811	3.7645721	3.4839478	-3.2181854
254721557332145	3.8031769	3.3851013	-3.6273193
254721565724479	3.7901459	3.4428406	-4.097229
254721574116813	3.7163544	3.7378235	-4.540344
254721582509147	3.5445251	4.3056183	-4.856003
254721590901481	3.2086792	5.1323395	-4.972229
254721599293815	2.7946167	6.430176	-4.6877594
254721607686149	2.5087128	8.225342	-4.472702
254721616078483	2.5002441	10.778046	-4.261078
254721624470817	2.8115387	13.89827	-3.94339
254721632863151	3.479477	17.03392	-3.5443115
254721641255485	4.7095337	19.457932	-3.3519897
254721649647819	5.5994415	18.673065	-3.7305298
254721658040153	6.2360535	16.39502	-4.8028107
254721666432487	6.626663	13.08432	-6.650711
254721674824821	6.395508	9.54332	-8.783295
254721683217155	5.421173	6.568863	-10.42366
254721691609489	4.598633	4.5399475	-10.816483
254721700001823	4.8255615	3.4654694	-9.45401
254721708394157	5.2538147	3.5648956	-7.358673
254721716786491	5.1161957	4.8363037	-5.6454926
254721725178825	4.7111664	6.7795258	-4.4621735
254721733571159	4.586975	8.759689	-3.2767944
254721741963493	4.8573456	10.181122	-0.72717285
254721750355827	6.221451	12.206833	1.0832977
254721758748160	6.8266144	13.009033	1.5390778
254721767140494	6.276352	11.973068	-0.112838745
254721775532828	5.5089417	9.846588	-3.0391388
254721783925162	5.551422	7.9066467	-5.686798
254721792317496	5.442093	6.4901886	-7.3507843
254721800709830	5.234558	4.3698425	-5.3194427
254721809102164	5.5157166	3.0418549	-1.7149048
254721817494498	5.808838	3.683838	0.9011841
254721825886832	5.7361755	5.8637543	1.5427246
254721834279166	5.0553436	8.256943	0.4859619
254721842671500	3.7522583	10.107376	-0.9367523
254721851063834	2.0836487	10.462906	-1.6301422
254721859456168	0.144104	10.566711	-1.5366669
254721867848502	-1.0078583	10.457748	-0.7834625
254721876240836	-1.4279633	10.525223	0.17637634
254721884633170	-1.5232544	11.1297	1.0635071
254721893025504	-0.88023376	11.808716	2.50354
254721901417838	-0.36779785	11.589874	2.9968262
254721909810172	-0.2469635	10.957611	2.1847992
254721918202506	0.33792114	10.035385	0.49613953
254721926594840	1.7090302	9.017334	-1.6926575
254721934987174	3.5612946	8.121887	-4.05217
254721943379508	4.345627	7.6543427	-5.5739594
254721951771842	3.9213562	7.3669434	-4.6238556
254721960164176	3.5817719	7.050705	-3.391693
254721968556510	3.3701324	7.0109253	-2.1817627
254721976948844	3.2835083	7.271866	-1.137085
254721985341178	3.2599182	7.645874	-0.32789612
254721993733512	3.0136566	8.054657	0.1516571
254722002125846	2.4960327	8.465988	0.8676758
254722010518180	1.7105713	8.847946	1.6050415
254722018910514	1.0044556	9.190475	2.0350037
254722027302848	0.5409241	9.395615	1.8673401
254722035695182	0.2512207	9.32431	0.98747253
254722044087516	-0.1146698	8.941452	-0.19995117
254722052479850	-0.19424438	8.62825	-0.9442291
254722060872184	-0.19224548	8.438248	-0.9678345
254722069264518	-0.10244751	8.370331	-0.5684967
254722077656852	0.071517944	8.334396	-0.12069702
254722086049186	0.30593872	8.231277	0.11845398
254722094441520	0.51467896	8.154755	0.10255432
254722102833854	0.79260254	8.129456	-0.09303284
254722111226188	0.97265625	8.2434845	-0.4759369
254722119618522	1.0710297	8.3867035	-0.7117462
254722128010856	1.1092834	8.441742	-0.7661743
254722136403190	1.127533	8.350159	-0.9181824
254722144795524	1.4412689	8.220795	-1.233963
254722153187858	1.1667328	8.199234	-1.3947296
254722161580192	1.1011505	8.229187	-1.0567932
254722169972526	1.0524445	8.258987	-0.66542053
254722178364860	0.9550781	8.304443	-0.4453125
254722186757194	0.97377014	8.42218	-0.24526978
254722195149528	1.0453339	8.4987335	-0.14189148
254722203541862	1.0988007	8.694534	-0.03778076
254722211934196	1.1403961	8.845261	0.0856781
254722220326530	1.1886749	9.070267	0.12184143
254722228718864	1.2453003	9.424606	0.06425476
254722237111198	1.2858734	9.83905	0.031539917
254722245503532	1.2013855	9.9513855	0.33073425
254722253895866	0.9952545	10.130554	1.0927124
254722262288200	0.7489929	10.49968	1.644989
254722270680534	0.5740509	10.850006	1.8699036
254722279072868	0.6690979	10.998383	1.8312225
254722287465202	1.2617798	10.877045	1.6510162
254722295857535	2.0480347	10.697113	1.3150482
254722304249869	2.4813538	10.521057	0.7371521
254722312642203	2.7251587	10.486023	0.045211792
254722321034537	2.7827911	10.575439	-0.80700684
254722329426871	2.641739	10.692703	-1.6086273
254722337819205	2.2699432	10.701447	-1.9236755
254722346211539	1.2918701	10.50206	-1.8838043
254722354603873	-0.10731506	10.06839	-1.4175262
254722362996207	-1.0411835	10.126221	-0.51026917
254722371388541	-1.0869751	11.02179	0.021759033
254722379780875	-0.7377472	12.519775	-0.21697998
254722388173209	-1.2432556	13.784744	-0.7959137
254722396565543	-2.0797577	13.699005	-0.26449585
254722404957877	-2.388321	13.297379	0.29910278
254722413350211	-2.2580566	12.869003	0.7607422
254722421742545	-1.8459778	12.552277	1.1864929
254722430134879	-1.2864227	12.401169	1.5169678
254722438527213	-0.48791504	12.349319	1.4801025
254722446919547	1.2058716	11.691284	1.1252594
254722455311881	2.3128662	10.725174	0.5351105
254722463704215	2.8123322	9.594452	0.07635498
254722472096549	3.0554504	8.496246	-0.17973328
254722480488883	3.2051697	7.6412506	-0.19454956
254722488881217	3.083664	7.210495	0.09025574
254722497273551	3.2755127	7.2283936	0.2651825
254722505665885	3.9595947	7.5101776	0.23121643
254722514058219	4.4675903	8.038849	-0.044174194
254722522450553	4.7164307	8.858444	-0.52919006
254722530842887	4.7294006	9.938721	-1.1256714
254722539235221	4.433731	11.1138	-1.6287842
254722547627555	3.6710358	11.725967	-0.609848
254722556019889	3.6976776	11.778931	-0.26098633
254722564412223	4.0462036	11.684341	-0.7208252
254722572804557	4.451462	11.381744	-1.0843811
254722581196891	4.732422	10.883591	-0.84217834
254722589589225	4.792572	10.531555	-0.66189575
254722597981559	4.993347	10.520615	-0.7503662
254722606373893	4.5443726	10.443466	-0.61865234
254722614766227	3.6282196	10.0950775	-0.3577118
254722623158561	2.5282288	9.47197	-0.17584229
254722631550895	1.5872803	8.623825	-0.2059021
254722639943229	1.1355896	7.5643463	-0.38093567
254722648335563	1.0640106	6.556427	-0.84413147
254722656727897	1.6690674	5.680374	-2.5760345
254722665120231	2.3513947	5.3450317	-3.9209747
254722673512565	2.7467804	5.545868	-4.077759
254722681904899	2.8107452	6.060852	-3.1378784
254722690297233	2.9083252	6.572632	-2.191925
254722698689567	3.0524597	6.6163635	-1.6342773
254722707081901	3.1075134	6.628525	-1.3859406
254722715474235	3.3214417	6.420944	-1.4683685
254722723866569	3.4392853	6.103363	-1.7960968
254722732258903	3.3471527	5.7389526	-2.2209167
254722740651237	3.592987	5.0657806	-2.5808258
254722749043571	3.3377533	4.766678	-2.6775208
254722757435905	3.6215668	4.245224	-2.7250519
254722765828239	3.3980713	3.9653015	-2.7050323
254722774220573	3.1362	3.6853027	-2.5214996
254722782612907	3.272934	3.2189178	-2.2639313
254722791005241	2.7282257	3.1682434	-2.4716797
254722799397575	2.9467773	2.750824	-3.0048828
254722807789909	2.6559906	2.463089	-3.7377777
254722816182243	2.3760986	2.4001923	-4.349304
254722824574577	2.2417908	2.584671	-4.712372
254722832966910	2.2221832	3.0314026	-4.831711
254722841359244	2.3657532	3.821045	-4.7808685
254722849751578	2.4538422	4.906204	-4.6377563
254722858143912	2.4498901	6.3605804	-4.648346
254722866536246	2.38945	8.630524	-5.014618
254722874928580	2.3485565	12.018509	-5.5910645
254722883320914	2.5761719	16.38446	-6.0944366
254722891713248	3.7117767	20.765366	-6.353668
254722900105582	5.549576	21.99759	-5.912384
254722908497916	6.488434	19.656723	-5.2222137
254722916890250	6.5808105	15.32457	-5.5019836
254722925282584	5.9834595	10.443771	-6.8144836
254722933674918	4.995163	6.2687683	-8.382523
254722942067252	4.179077	4.0262756	-9.046509
254722950459586	4.0366364	4.4669037	-8.926483
254722958851920	3.7235565	6.1128387	-7.894821
254722967244254	3.7647247	7.5708313	-6.0962677
254722975636588	4.334244	8.663361	-3.9792633
254722984028922	5.1879883	9.975159	-2.165451
254722992421256	5.265518	11.961182	-1.1813812
254723000813590	6.034317	14.090759	-1.3918304
254723009205924	5.9772186	14.287582	-2.6962128
254723017598258	5.170944	12.306076	-4.3159027
254723025990592	4.124405	8.78804	-5.1338654
254723034382926	3.5582428	4.844681	-4.4517975
254723042775260	4.235214	1.4238892	-3.366043
254723051167594	5.4776	-0.2949524	-2.0987854
254723059559928	6.2592773	-0.48039246	0.83047485
254723067952262	6.193115	1.1741028	3.2435455
254723076344596	5.2968445	4.4375305	3.523178
254723084736930	3.8609009	8.6666565	1.3303223
254723093129264	2.4820251	12.326736	-2.2360382
254723101521598	0.8637085	13.68042	-3.8327026
254723109913932	-0.3201294	13.5251465	-2.8279114
254723118306266	-0.6726227	12.265121	-0.5479584
254723126698600	-0.28160095	10.662491	1.403717
254723135090934	0.45477295	9.476746	1.8453827
254723143483268	1.4154968	8.613205	0.7550659
254723151875602	1.3637848	7.975281	-0.6356354
254723160267936	1.5254364	7.6443787	-2.0355072
254723168660270	1.8896484	7.621704	-2.878891
254723177052604	2.2366333	7.8385315	-3.1911163
254723185444938	2.3130188	8.1770935	-3.416748
254723193837272	2.1495056	8.428345	-3.7108765
254723202229606	1.8426666	8.430023	-2.9451294
254723210621940	1.4840698	8.493103	-1.8474731
254723219014274	1.1863251	8.661774	-0.8435211
254723227406608	1.0393066	9.008331	-0.12806702
254723235798942	1.094696	9.564316	0.23822021
254723244191276	1.3240051	9.823547	-0.20744324
254723252583610	1.3135834	9.78331	-0.4807129
254723260975944	1.246048	9.518692	-0.5853882
254723269368278	1.1811371	9.182892	-0.8054657
254723277760612	1.1321259	8.782196	-1.0843811
254723286152946	1.072586	8.215561	-1.1097107
254723294545280	0.9328613	7.7751923	-1.1643829
254723302937614	0.82307434	7.6396637	-1.2706451
254723311329948	0.83862305	7.756378	-1.3217773
254723319722282	0.91160583	8.012207	-1.2427673
254723328114616	0.97566223	8.2712555	-1.0683441
254723336506950	1.0054474	8.408752	-0.903595
254723344899284	1.0948029	8.430084	-0.5857544
254723353291618	1.0217743	8.405472	-0.21502686
254723361683952	0.97554016	8.280411	-0.06062317
254723370076285	0.9779053	8.116959	0.040527344
254723378468619	0.99302673	7.980133	0.1144104
254723386860953	0.9605713	7.915695	-0.04815674
254723395253287	0.98939514	7.9584503	-0.46565247
254723403645621	1.0714569	8.16423	-0.6322479
254723412037955	1.1100616	8.446732	-0.8652954
254723420430289	1.097992	8.72464	-0.7387085
254723428822623	1.0883331	8.878937	-0.11154175
254723437214957	1.156189	8.806641	0.515625
254723445607291	1.16716	8.617203	0.64923096
254723453999625	1.1582794	8.659454	0.5881195
254723462391959	1.2332764	8.954224	0.5331421
254723470784293	1.1755524	9.378647	0.63879395
254723479176627	0.7980652	9.819733	1.019043
254723487568961	0.10142517	10.264313	1.6965027
254723495961295	-0.5377197	10.546616	2.1388397
254723504353629	-0.79714966	10.654495	2.1905823
254723512745963	-0.5314789	10.55452	1.8747253
254723521138297	0.12825012	10.305252	1.3146515
254723529530631	0.93185425	10.039261	0.6160736
254723537922965	1.5770111	9.963837	-0.19494629
254723546315299	1.914978	10.234207	-1.02594
254723554707633	2.0161133	10.549576	-1.6247711
254723563099967	1.4656067	10.784775	-1.8562317
254723571492301	0.38928223	10.946152	-1.6553192
254723579884635	-0.6589203	11.114059	-1.1776886
254723588276969	-0.8035431	11.416962	-0.9070587
254723596669303	-0.93814087	11.814774	-0.39059448
254723605061637	-1.5657043	12.167496	0.36209106
254723613453971	-2.0539856	12.5099945	1.178299
254723621846305	-2.116272	12.750122	1.7053375
254723630238639	-1.7001038	12.819077	1.721756
254723638630973	-0.89346313	12.745285	1.3356018
254723647023307	0.11154175	12.612686	1.331604
254723655415641	0.84628296	12.249298	1.7906799
254723663807975	1.3761902	11.489868	2.1969604
254723672200309	1.8482666	10.528885	2.4197845
254723680592643	2.450943	9.674454	2.3330688
254723688984977	3.359146	9.1692505	1.6468048
254723697377311	4.389969	9.271103	0.65571594
254723705769645	5.2230225	9.734421	-0.08918762
254723714161979	6.0330963	10.05838	-0.6314392
254723722554313	6.4812775	10.193771	-1.162384
254723730946647	6.315628	10.201813	-1.8039246
254723739338981	5.9934998	10.044952	-2.3786469
254723747731315	5.6545258	9.958221	-2.3467407
254723756123649	5.2799377	9.972885	-1.7595062
254723764515983	4.6047516	10.242691	-1.444931
254723772908317	4.035263	10.682861	-1.7024384
254723781300651	3.9729767	11.153275	-2.27536
254723789692985	4.040863	11.59816	-2.0770264
254723798085319	3.647049	11.654999	0.72854614
254723806477653	3.2826233	11.331345	2.5506744
254723814869987	2.7685547	10.814285	2.5035248
254723823262321	2.2175903	10.233673	0.45088196
254723831654655	1.9425964	9.65834	-2.4517975
254723840046989	2.247284	9.029526	-3.285019
254723848439323	2.0473938	8.535019	-1.9506836
254723856831657	1.3271332	7.9055176	-0.43833923
254723865223991	0.91516113	6.9976654	0.07853699
254723873616325	0.9734955	6.0132446	-0.9155121
254723882008659	1.4044952	5.289322	-3.1535645
254723890400993	2.2663116	5.0726166	-4.4795685
254723898793327	3.1556091	5.5769043	-3.5604706
254723907185660	3.4253082	6.0925293	-2.5153198
254723915577994	3.481369	6.3700867	-1.7628632
254723923970328	3.5876312	6.3417206	-1.2881775
254723932362662	3.7529602	6.04924	-0.97525024
254723940754996	3.4493408	5.6816406	-0.96409607
254723949147330	3.5082703	5.181137	-1.4758301
254723957539664	3.3921814	4.862198	-1.9478455
254723965931998	3.209381	4.5459595	-2.381195
254723974324332	3.0784302	4.1013184	-2.8870087
254723982716666	3.075714	3.538559	-3.4571533
254723991109000	3.1860352	3.1121216	-3.5525665
254723999501334	3.5062866	2.9026947	-3.325714
254724007893668	3.640747	2.776184	-3.2569427
254724016286002	3.8396149	2.6494293	-3.4014893
254724024678336	3.9608002	2.584076	-3.7210388
254724033070670	3.6795044	2.7052612	-4.0874023
254724041463004	3.2873993	2.9362488	-4.3309937
254724049855338	2.8049011	3.40831	-4.1962585
254724058247672	2.422165	4.059555	-4.045471
254724066640006	2.1521454	4.872223	-3.902542
254724075032340	1.9359741	6.0416107	-3.810852
254724083424674	1.7228241	7.9618073	-3.8858795
254724091817008	1.7156982	11.229538	-4.4247284
254724100209342	1.9998627	15.451721	-4.867996
254724108601676	2.9128265	19.250076	-4.9184875
254724116994010	4.11084	21.401382	-4.7626495
254724125386344	5.1774597	21.17279	-4.6984406
254724133778678	5.80896	18.120712	-5.1770325
254724142171012	6.3722534	12.846573	-7.0194855
254724150563346	5.972183	8.168198	-9.150635
254724158955680	5.3351746	4.933365	-10.4135895
254724167348014	4.7230988	3.026245	-10.470596
254724175740348	4.217407	2.3112183	-8.973846
254724184132682	3.8028564	2.687088	-5.9809875
254724192525016	3.6918945	4.411972	-3.7830048
254724200917350	3.072235	7.498459	-3.2083588
254724209309684	3.0831451	9.5381775	-2.5224915
254724217702018	3.9826355	10.626892	-1.405014
254724226094352	5.224304	11.120331	-0.33563232
254724234486686	5.7868805	11.017166	-0.32644653
254724242879020	5.0401306	10.297333	-2.3154755
254724251271354	4.656311	9.906158	-4.1874695
254724259663688	4.656723	8.93631	-5.261902
254724268056022	4.961273	7.4856567	-5.250931
254724276448356	5.5398407	6.0316315	-3.5486145
254724284840690	6.4524994	5.215454	0.586853
254724293233024	7.6218567	5.255188	3.5489502
254724301625358	6.70665	6.078308	2.8646088
254724310017692	5.2325745	7.1506653	0.16716003
254724318410026	3.6846924	7.9929657	-2.4033813
254724326802360	2.0057526	8.564301	-3.5117188
254724335194694	-0.19116211	9.309494	-2.8123932
254724343587028	-1.771637	10.686188	-1.0688934
254724351979362	-2.1113281	11.740158	0.7441406
254724360371696	-1.2113953	11.905167	2.2540588
254724368764030	0.015167236	11.296951	2.7571716
254724377156364	0.734787	10.216049	1.9829407
254724385548698	0.6043091	9.093552	0.49230957
254724393941032	0.9402771	8.035919	-1.1855774
254724402333366	1.5188751	7.445175	-3.638153
254724410725700	2.0696106	7.346756	-5.6874847
254724419118034	2.558731	7.5511475	-6.2628937
254724427510368	2.8145752	7.845352	-5.275543
254724435902702	2.4314423	8.086578	-3.7762756
254724444295035	1.8253632	8.451263	-2.584488
254724452687369	1.429779	8.809189	-1.2813263
254724461079703	1.2792816	8.86116	-0.19059753
254724469472037	1.1208191	8.839966	0.5357208
254724477864371	0.8464813	8.986694	0.93336487
254724486256705	0.6651459	9.360458	1.2089691
254724494649039	0.7717743	9.963669	1.3044128
254724503041373	0.85310364	10.295685	0.40330505
254724511433707	1.1700134	10.122116	-1.1359711
254724519826041	1.3723602	9.4852295	-2.2181091
254724528218375	1.2840881	8.545212	-2.232193
254724536610709	1.3496552	7.611847	-1.9944305
254724545003043	1.2419739	7.2010803	-2.1280212
254724553395377	1.1028442	7.231369	-1.8079071
254724561787711	1.0339203	7.5270386	-1.4128113
254724570180045	1.023056	7.9150696	-1.0175781
254724578572379	0.9999695	8.191025	-0.6797943
254724586964713	0.85154724	8.102158	-0.5990906
254724595357047	0.6487732	7.817871	-0.7303009
254724603749381	0.47595215	7.717224	-0.7021637
254724612141715	0.3246765	7.7033997	-0.70947266
254724620534049	0.25732422	7.8470917	-0.8648834
254724628926383	0.3274536	8.183334	-1.1813354
254724637318717	0.5408325	8.585144	-1.5582123
254724645711051	0.79655457	8.912384	-1.5818329
254724654103385	0.92822266	9.042374	-0.946167
254724662495719	1.1136627	9.014404	-0.25700378
254724670888053	1.330307	8.8585205	0.21318054
254724679280387	1.4804688	8.64238	0.47354126
254724687672721	1.4725189	8.507202	0.8174896
254724696065055	1.0145111	8.50325	1.072876
254724704457389	0.294281	8.611801	1.4376526
254724712849723	-0.48091125	9.105179	1.7302704
254724721242057	-1.0929718	9.846771	1.7724915
254724729634391	-1.3001251	10.52034	1.4640656
254724738026725	-0.8228607	10.7691345	0.9380493
254724746419059	0.16134644	10.744293	0.3597412
254724754811393	1.0417938	10.693237	-0.15808105
254724763203727	1.6976624	10.797592	-0.66212463
254724771596061	2.093277	11.013901	-1.2010498
254724779988395	2.2110748	11.21994	-1.7034454
254724788380729	1.9556122	11.387924	-1.8147736
254724796773063	1.1169739	11.516281	-1.4810486
254724805165397	0.29284668	11.591522	-0.9945679
254724813557731	0.3199768	11.853439	-0.59939575
254724821950065	0.51753235	12.235748	-0.276062
254724830342399	-0.099853516	12.573486	0.18800354
254724838734733	-1.1743774	12.905487	1.2118378
254724847127067	-1.1982422	13.250061	1.8287201
254724855519401	-0.8996277	13.664032	1.5458984
254724863911735	-0.32855225	13.826523	1.3549194
254724872304069	0.4827881	13.451416	1.5729675
254724880696403	1.4396667	12.421722	2.0480804
254724889088737	2.195877	11.278793	2.4479523
254724897481071	2.5030823	10.028946	2.1601563
254724905873405	2.8399963	8.7509	1.5992432
254724914265739	3.286255	7.9332275	0.9801483
254724922658073	3.85318	7.7306824	0.4183197
254724931050407	4.546158	8.062164	-0.09944153
254724939442741	5.4248657	8.708038	-0.6987457
254724947835075	5.7610626	9.496979	-1.4455719
254724956227409	5.5976105	10.219559	-1.8858643
254724964619743	5.0911255	10.881577	-2.058197
254724973012077	4.480713	11.5182495	-1.6681824
254724981404410	4.0086365	12.069153	-0.5343933
254724989796744	3.8585358	11.876297	-0.0155181885
254724998189078	3.593933	11.3485565	-0.30819702
254725006581412	3.573227	10.735199	-1.1448517
254725014973746	3.7407227	10.186157	-1.6761475
254725023366080	3.8563538	9.714951	-1.4761505
254725031758414	3.6155548	9.293793	-0.62841797
254725040150748	2.6672668	9.23613	0.33876038
254725048543082	1.5713501	9.2499695	0.7694702
254725056935416	0.929718	9.061722	0.8327484
254725065327750	0.89486694	8.484604	0.01965332
254725073720084	1.1643066	7.573761	-1.5108337
254725082112418	1.2829895	6.53598	-3.0473785
254725090504752	1.4134369	5.692993	-3.8757477
254725098897086	1.8541107	5.4638977	-3.7495422
254725107289420	2.3506927	5.5365753	-3.0953522
254725115681754	2.7631836	5.7459106	-2.286911
254725124074088	3.0547485	5.8990784	-1.6309509
254725132466422	3.261795	5.845566	-1.2856903
254725140858756	3.3310547	5.6805573	-1.4364471
254725149251090	3.399704	5.396759	-1.5650024
254725157643424	3.4459686	5.0210114	-1.6347351
254725166035758	3.4241943	4.6575623	-1.7739105
254725174428092	3.3725128	4.3302	-2.0501404
254725182820426	3.3778687	3.9821777	-2.4056854
254725191212760	3.2585144	3.6742249	-2.5230408
254725199605094	3.0902557	3.35878	-2.6104279
254725207997428	3.1456146	3.024582	-2.8091583
254725216389762	3.3569794	2.7439117	-2.9944
254725224782096	3.559845	2.53125	-3.1442108
254725233174430	3.6482391	2.3341217	-3.4026947
254725241566764	3.807251	2.2291107	-3.7847137
254725249959098	3.7405853	2.5016022	-4.274719
254725258351432	3.5291748	3.0635529	-4.776581
254725266743766	3.1876678	3.9507751	-5.04776
254725275136100	2.7787933	5.1467285	-5.0235596
254725283528434	2.4181366	6.627487	-4.8867493
254725291920768	2.3763733	8.725861	-4.754547
254725300313102	2.9376068	11.604233	-4.8262177
254725308705436	3.5531616	14.977051	-4.6375427
254725317097770	4.5049133	17.427979	-4.3266754
254725325490104	5.628708	18.040817	-4.11763
254725333882438	6.129471	16.988037	-4.1465454
254725342274772	7.0495453	14.243378	-4.674515
254725350667106	7.7006836	11.830902	-5.6178284
254725359059440	7.6877594	9.661713	-6.568802
254725367451774	6.959793	7.550705	-7.1508484
254725375844108	5.9105225	5.6244507	-7.014923
254725384236442	5.3967285	4.453705	-5.925415
254725392628776	6.103592	4.914322	-5.081955
254725401021110	5.43869	6.4018555	-5.084564
254725409413444	5.4208984	8.765106	-4.3226624
254725417805778	6.231003	11.18718	-2.8008118
254725426198112	7.116104	12.5611725	-0.8868866
254725434590446	7.1125946	12.014709	1.3074646
254725442982780	7.1205597	9.421341	0.15142822
254725451375114	6.2141266	6.96167	-2.7397919
254725459767448	4.782654	5.22348	-5.054779
254725468159782	3.5139618	4.0743713	-5.5217743
254725476552116	2.9721527	3.4562836	-3.800232
254725484944450	3.1968536	4.06044	-0.23532104
254725493336784	3.9045868	6.580246	2.6125183
254725501729118	4.1288757	9.987518	2.5818024
254725510121452	3.539795	12.68985	0.15174866
254725518513785	2.446991	13.571274	-2.6272278
254725526906119	1.2834778	12.38768	-3.8217163
254725535298453	0.2659607	10.144882	-2.8488007
254725543690787	-0.68829346	9.62204	-1.8378906
254725552083121	-0.812027	9.546555	-0.036514282
254725560475455	-0.90467834	9.8694	1.6490326
254725568867789	-0.8188019	10.3650055	2.487976
254725577260123	-0.25750732	10.663284	2.120163
254725585652457	0.6528015	10.2968445	0.72047424
254725594044791	1.6348572	9.69165	-1.5048828
254725602437125	3.0611267	8.96051	-3.3665314
254725610829459	4.1649933	8.29863	-4.4634094
254725619221793	4.3237762	7.8612213	-4.4854584
254725627614127	3.6141815	7.6825714	-3.5087585
254725636006461	3.1657104	7.634262	-2.016693
254725644398795	2.9390717	7.9692535	-1.048523
254725652791129	2.9101868	8.3535	-0.3284607
254725661183463	2.8345795	8.620285	0.17327881
254725669575797	2.4901123	8.694931	0.53338623
254725677968131	1.9148865	8.610077	0.8494873
254725686360465	1.6335754	8.479874	1.1576385
254725694752799	1.220047	8.262817	1.3305817
254725703145133	0.8462677	8.075287	0.6430664
254725711537467	0.58529663	7.944748	-0.39494324
254725719929801	0.43133545	7.9162292	-1.1549225
254725728322135	0.3461151	8.014023	-1.2821503
254725736714469	0.31132507	8.190964	-1.1668549
254725745106803	0.2774048	8.300873	-0.970932
254725753499137	0.3488617	8.285538	-0.7831726
254725761891471	0.41358948	8.115616	-0.7429962
254725770283805	0.4578247	7.8590546	-0.7084503
254725778676139	0.4827881	7.6281433	-0.43940735
254725787068473	0.34461975	7.449234	-0.04676819
254725795460807	0.07246399	7.396591	-0.06729126
254725803853141	-0.06704712	7.3808594	-0.13975525
254725812245475	-0.077178955	7.4260254	-0.41397095
254725820637809	0.10826111	7.500519	-0.871109
254725829030143	0.45593262	7.577667	-1.3382874
254725837422477	0.55900574	7.775879	-1.6246948
254725845814811	0.7239227	8.012543	-1.3662415
254725854207145	0.9181671	8.15979	-0.93336487
254725862599479	1.0781097	8.267471	-0.3791046
254725870991813	1.2731934	8.406448	0.086517334
254725879384147	1.6258087	8.621231	0.18507385
254725887776481	2.0757294	8.803574	-0.15086365
254725896168815	2.0781097	9.111038	-0.324234
254725904561149	1.4997101	9.353882	-0.021362305
254725912953483	0.6696472	9.695648	0.64990234
254725921345817	-0.1308136	10.211517	1.2706146
254725929738151	-0.6926575	10.850449	1.3282471
254725938130485	-0.9847717	11.45961	1.0730286
254725946522819	-0.28814697	11.551407	0.48539734
254725954915153	0.5400543	11.241196	-0.2399292
254725963307487	0.993042	10.891388	-0.8006439
254725971699821	0.68414307	10.784042	-0.875824
254725980092155	-0.3062439	11.10762	-0.408432
254725988484489	-0.7923279	12.185135	-0.16688538
254725996876823	-0.2677307	14.020218	-1.2901306
254726005269157	-0.7753296	14.979538	-1.10112
254726013661491	-1.4026489	14.641174	0.2619171
254726022053825	-1.3381958	13.7144165	1.4659424
254726030446159	-0.5159912	13.4848175	1.1945953
254726038838493	0.65948486	13.711319	1.0725555
254726047230827	2.1876068	12.617538	1.4514008
254726055623160	3.4996338	11.239136	1.5516205
254726064015494	4.3717804	9.826538	1.4857635
254726072407828	5.09079	8.6054535	1.2836761
254726080800162	6.099167	7.9332123	0.7927704
254726089192496	6.589157	8.687424	0.16105652
254726097584830	6.753998	9.854462	-0.2515564
254726105977164	6.4716644	11.132141	-0.5619049
254726114369498	5.573288	12.460342	-0.91722107
254726122761832	4.348236	13.659027	-1.3741913
254726131154166	3.454712	14.359726	-1.822525
254726139546500	3.2668457	14.023743	-1.6445923
254726147938834	3.1878967	13.116013	-2.1650543
254726156331168	3.3982544	12.060867	-2.7521973
254726164723502	3.800476	11.174866	-3.123413
254726173115836	4.161743	10.554825	-2.8700867
254726181508170	4.2525787	10.058884	-1.6333466
254726189900504	4.164459	9.810165	0.19874573
254726198292838	3.975235	9.526566	1.7276459
254726206685172	3.5342712	9.141907	2.032669
254726215077506	2.7348328	8.488861	1.3511963
254726223469840	1.7020569	7.498123	0.2300415
254726231862174	0.864975	6.3128967	-0.68930054
254726240254508	0.8699646	5.5781097	-1.8079376
254726248646842	1.0865784	5.241745	-2.9124146
254726257039176	1.2222595	5.14122	-3.4024658
254726265431510	1.5021973	5.2192383	-3.4004211
254726273823844	1.9729309	5.3729706	-3.0811615
254726282216178	2.3592834	5.4605103	-2.410797
254726290608512	2.4807587	5.4240723	-1.5685272
254726299000846	2.6461334	5.196518	-0.9116516
254726307393180	2.809372	4.844208	-0.5361328
254726315785514	2.9476318	4.4578094	-0.53260803
254726324177848	3.0180511	4.105057	-0.8662262
254726332570182	2.9527588	3.8057556	-1.3442535
254726340962516	2.785263	3.702057	-1.7430573
254726349354850	2.7437592	3.4808502	-2.1595001
254726357747184	2.7802124	3.1578674	-2.5653229
254726366139518	2.90036	2.769333	-2.9614258
254726374531852	3.0310974	2.4172058	-3.3179169
254726382924186	3.0282135	2.2509766	-3.5776672
254726391316520	3.268402	2.3378754	-3.9027863
254726399708854	3.6260529	2.7263336	-4.3742523
254726408101188	3.7934418	3.4833832	-4.688019
254726416493522	3.6644897	4.539627	-4.847748
254726424885856	3.2962494	5.9109344	-4.801895
254726433278190	2.9349518	7.763275	-4.3223267
254726441670524	2.6241608	10.594788	-3.9598846
254726450062858	2.9492188	14.1223755	-3.809082
254726458455192	4.3826904	17.091843	-3.7320557
254726466847526	6.4133606	18.23973	-3.9391174
254726475239860	8.275375	16.879974	-4.663788
254726483632194	9.198639	13.62323	-5.9429626
254726492024528	9.104202	10.654114	-6.924057
254726500416862	8.3858185	8.762375	-6.9645233
254726508809196	7.6645355	7.503784	-6.164032
254726517201530	7.3126526	6.5050964	-4.699173
254726525593864	7.6198883	5.947769	-3.1139374
254726533986198	8.607971	6.8103027	-2.5527496
254726542378532	8.037674	9.45639	-3.134018
254726550770866	9.196762	12.50647	-4.027481
254726559163200	10.082718	13.798645	-4.1010895
254726567555534	9.893494	12.440338	-3.629242
254726575947868	8.66803	8.822144	-3.4830017
254726584340202	7.2790375	4.8443146	-4.376251
254726592732535	5.4606934	1.9532623	-4.2623596
254726601124869	4.739609	1.3113708	-3.3951874
254726609517203	4.1368103	2.7451172	-1.8526917
254726617909537	3.3353882	5.8250885	-0.4257965
254726626301871	2.508133	9.845047	-0.004333496
254726634694205	2.190094	12.940735	-1.108017
254726643086539	2.0884094	13.150909	-0.7828369
254726651478873	1.7195587	11.802246	0.0044555664
254726659871207	1.2566528	10.221359	0.29933167
254726668263541	0.59288025	9.105957	0.15367126
254726676655875	-0.3171234	8.704651	0.04397583
254726685048209	-0.9802246	8.722992	0.47790527
254726693440543	-0.49369812	9.51062	1.5895691
254726701832877	-0.06776428	10.342514	2.1537628
254726710225211	0.2730713	10.772903	1.9035797
254726718617545	0.5384979	10.735657	0.5768585
254726727009879	0.91529846	10.35202	-1.7025299
254726735402213	1.9232178	9.654221	-3.878418
254726743794547	3.4592896	8.604874	-3.9435425
254726752186881	4.1466064	7.7303925	-3.68013
254726760579215	4.0650177	7.141144	-3.224289
254726768971549	3.617508	6.789688	-2.5656586
254726777363883	3.2412262	6.5722046	-1.6897125
254726785756217	2.9391327	6.543289	-0.8731537
254726794148551	2.3853302	6.6141205	0.022232056
254726802540885	1.9714508	7.0009613	0.72120667
254726810933219	1.8608856	7.721985	1.0864105
254726819325553	1.9315338	8.6306305	1.1080475
254726827717887	1.8294525	9.407028	0.9095154
254726836110221	1.0103912	9.437836	0.79222107
254726844502555	0.32669067	8.589661	0.41604614
254726852894889	0.13291931	7.871002	-0.23313904
254726861287223	0.0670166	7.572342	-0.8658447
254726869679557	0.0027770996	7.7300262	-1.20961
254726878071891	-0.014343262	8.184448	-1.0861664
254726886464225	0.050857544	8.708023	-0.6175995
254726894856559	0.1641388	8.957031	-0.22479248
254726903248893	0.25390625	8.836533	-0.09388733
254726911641227	0.2697754	8.462112	0.110443115
254726920033561	0.28771973	8.021606	0.40333557
254726928425895	0.45884705	7.7210236	0.53800964
254726936818229	0.80625916	7.526886	0.34080505
254726945210563	0.47566223	7.5502625	-0.280838
254726953602897	0.88700867	7.529999	-0.5566101
254726961995231	1.2885742	7.7526093	-0.77926636
254726970387565	1.5367737	8.271439	-0.9740753
254726978779899	2.010025	8.949646	-0.9540405
254726987172233	2.4354706	9.591766	-0.9937897
254726995564567	2.6678467	9.901627	-0.7666931
