accelerometer_timestamp	accelerometer_x_data	accelerometer_y_data	accelerometer_z_data
1443708008816656837	-3.783432	9.731003	0.62861633
1443708008900580177	1.3314514	3.4932556	0.5943146
1443708008908972511	1.5787201	3.5106964	-0.0776062
1443708008917364845	1.6192169	3.569809	-0.30252075
1443708008925757179	1.4763184	3.5224304	-0.7776184
1443708008934149513	1.5480042	3.2112885	-0.82714844
1443708008942541847	0.7309723	2.6049194	-1.1434021
1443708008950934181	0.33535767	2.4029388	-1.0709229
1443708008959326515	-0.06541443	2.1892242	-0.9035187
1443708008967718849	-0.5732269	1.8244324	-0.20959473
1443708008976111183	-1.0532684	1.3899689	0.2212677
1443708008984503517	-1.1264954	1.2414703	0.9387207
1443708008992895851	-1.2993622	1.1810608	1.5877533
1443708009001288185	-1.5666962	1.0319519	2.261078
1443708009009680519	-1.9199066	0.7992401	2.7623596
1443708009018072853	-2.1529999	0.7239227	2.9468536
1443708009026465187	-2.1278076	0.83239746	3.1399384
1443708009034857521	-2.0121307	0.9840393	3.381546
1443708009043249855	-1.3381042	1.4196167	4.205719
1443708009051642189	-0.59928894	2.210205	5.279068
1443708009060034523	0.036605835	3.3967133	5.735153
1443708009068426857	0.075149536	4.268097	5.8520966
1443708009076819191	0.102767944	5.498047	6.0834503
1443708009085211525	0.15226746	9.07933	6.971344
1443708009093603858	0.36698914	15.311188	7.678528
1443708009101996192	0.09579468	22.727478	7.315323
1443708009110388526	-0.641922	28.462082	6.7742615
1443708009118780860	-0.6101837	31.951157	7.3350067
1443708009127173194	0.89619446	29.611526	8.376389
1443708009135565528	3.1608734	24.170792	9.313568
1443708009143957862	3.377472	19.569199	9.773422
1443708009152350196	2.7348633	15.392258	9.975204
1443708009160742530	1.0368347	8.457596	8.631714
1443708009169134864	3.7898865	4.398651	7.0715027
1443708009177527198	4.360382	1.1868286	6.4796143
1443708009185919532	4.317322	0.3244629	6.59079
1443708009194311866	3.9351044	-0.27290344	6.4532776
1443708009202704200	1.9288788	0.7036896	5.1401215
1443708009211096534	-0.5796356	3.4508362	3.5751953
1443708009219488868	-2.0376892	6.5396423	2.8272552
1443708009227881202	-2.6044617	9.058655	2.5862732
1443708009236273536	-4.046112	13.504761	2.7627563
1443708009244665870	-6.6228027	17.987442	3.1109772
1443708009253058204	-8.101913	19.726791	2.3119812
1443708009261450538	-7.7977905	19.08348	2.2308655
1443708009269842872	-7.1134186	17.924866	2.543167
1443708009278235206	-5.4025574	13.922638	3.6145935
1443708009286627540	-4.917862	9.438248	1.3904572
1443708009295019874	-3.0807495	5.467575	-2.0259552
1443708009303412208	-1.6400299	4.2177124	-2.4706268
1443708009311804542	-0.19718933	3.1861115	-2.7649384
1443708009320196876	0.12466431	3.6844635	-2.6814117
1443708009328589210	-1.6222229	6.3658447	-2.7879944
1443708009336981544	-2.3444366	8.51889	-3.0618439
1443708009345373878	-2.8199615	9.365204	-3.661377
1443708009353766212	-3.287262	9.684708	-5.4562225
1443708009362158546	-2.5297852	8.91954	-6.3115845
1443708009370550880	-0.9011688	8.6779175	-4.2257996
1443708009378943214	0.11122131	9.439774	-3.0401306
1443708009387335548	0.9363251	10.376038	-2.3004913
1443708009395727882	2.8387604	11.700226	-1.4041443
1443708009404120216	4.753998	11.83461	-1.2792206
1443708009412512550	2.9120636	11.350052	-0.40422058
1443708009420904884	1.8292847	10.8983	-0.6799011
1443708009429297218	0.958374	10.308273	-0.97714233
1443708009437689552	0.3792572	9.508972	-0.8249054
1443708009446081886	-0.30143738	9.041565	-0.54937744
1443708009454474220	-0.16705322	8.725098	-1.1467896
1443708009462866554	0.19087219	8.5336	-1.3652649
1443708009471258888	-0.08241272	8.578064	-1.1571045
1443708009479651222	-1.0105591	8.410538	0.046813965
1443708009488043556	-1.3010712	8.079269	0.4086609
1443708009496435890	-1.4544983	8.202286	0.38771057
1443708009504828224	-1.6305695	8.421402	0.36586
1443708009513220558	-2.0203552	8.806442	1.3009186
1443708009521612892	-1.7657318	8.85878	1.1316528
1443708009530005226	-1.1329498	8.410721	1.5428467
1443708009538397560	-0.87205505	8.24556	1.3989105
1443708009546789894	-0.63101196	8.087769	0.97213745
1443708009555182228	-0.46452332	7.9551544	0.023452759
1443708009563574562	-0.3113556	7.9070435	-0.43110657
1443708009571966896	-0.25013733	8.082962	-0.42422485
1443708009580359230	-0.31697083	8.387558	-0.34710693
1443708009588751564	-0.18695068	8.902466	0.16407776
1443708009597143898	-0.13346863	9.254929	0.14544678
1443708009605536232	-0.064331055	9.281891	0.03262329
1443708009613928566	0.026916504	9.251053	-0.029067993
1443708009622320900	0.11578369	8.778732	0.14970398
1443708009630713233	0.84498596	8.363098	-0.18177795
1443708009639105567	1.5615997	7.9266357	-0.1539917
1443708009647497901	1.8340607	8.158615	-0.594162
1443708009655890235	2.290863	8.713272	-1.0075378
1443708009664282569	3.0598755	10.259827	-1.2285919
1443708009672674903	3.5452576	11.829086	-1.386673
1443708009681067237	3.927826	12.32518	-1.7150726
1443708009689459571	4.1411743	12.061066	-1.9714813
1443708009697851905	3.4051056	11.022171	-1.5977325
1443708009706244239	2.1964111	9.985321	-0.6187439
1443708009714636573	1.4282227	9.801956	-0.48791504
1443708009723028907	1.2094879	9.712006	-0.44369507
1443708009731421241	1.0783997	9.599564	-0.35565186
1443708009739813575	0.15625	10.38916	-1.6602173
1443708009748205909	-0.17658997	11.02684	-1.241272
1443708009756598243	-0.9192352	11.910034	-0.90257263
1443708009764990577	-1.0226898	12.19278	-0.32357788
1443708009773382911	-1.1058502	12.504471	0.15431213
1443708009781775245	-1.4079285	13.079468	0.026824951
1443708009790167579	-1.6735992	13.354858	-0.4771881
1443708009798559913	-1.3089447	12.8645935	-0.48461914
1443708009806952247	-0.8828888	12.367859	-0.3079071
1443708009815344581	-0.28471375	12.549957	-0.10961914
1443708009823736915	0.4841919	13.218277	1.1719666
1443708009832129249	1.3552399	13.963318	2.4646149
1443708009840521583	2.0037994	14.135101	2.5566864
1443708009848913917	2.6135864	14.216949	2.4739838
1443708009857306251	2.823822	14.298721	1.4549866
1443708009865698585	2.519165	13.522034	1.1006165
1443708009874090919	1.8879089	12.487549	-0.1559906
1443708009882483253	1.52034	11.982468	-0.8679962
1443708009890875587	0.9042206	11.187561	-1.3964996
1443708009899267921	-0.15708923	9.3706665	-1.3055267
1443708009907660255	-1.063324	7.52507	-0.4661255
1443708009916052589	-1.6383209	7.1879883	0.5217285
1443708009924444923	-2.0579376	7.5157166	1.3236847
1443708009932837257	-3.0635834	9.765274	2.66214
1443708009941229591	-4.2808075	14.812119	3.4288025
1443708009949621925	-5.0845795	20.637634	1.0087433
1443708009958014259	-5.7861176	21.27156	-1.6755371
1443708009966406593	-6.5633087	21.220154	-4.288147
1443708009974798927	-8.792664	18.218002	-5.5846405
1443708009983191261	-7.2957	14.0065	-2.9780579
1443708009991583595	-5.1533356	11.012985	0.24624634
1443708009999975929	-5.119919	10.444275	1.8656158
1443708010008368263	-5.7909393	10.518829	3.1466217
1443708010016760597	-5.342987	11.665115	3.3694305
1443708010025152931	-0.7185669	12.3802185	3.0625916
1443708010033545265	1.7957458	12.612305	2.8467255
1443708010041937599	1.9313354	12.816666	2.635315
1443708010050329933	-0.5834961	13.269943	1.5535736
1443708010058722267	-2.796112	12.826813	-0.3688507
1443708010067114601	-3.3991394	10.735977	-2.1677551
1443708010075506935	-2.9861145	9.36261	-1.935379
1443708010083899269	-2.3663788	8.000549	-1.5688324
1443708010092291603	0.013031006	6.1343536	-1.099411
1443708010100683937	1.4877014	4.913681	-0.12823486
1443708010109076271	1.5168762	4.066269	1.0026093
1443708010117468605	1.6100616	3.565033	1.6137238
1443708010125860939	1.8683167	3.0106812	1.4981232
1443708010134253273	2.0152893	2.6592102	0.6318512
1443708010142645607	1.7416992	2.7289581	0.17553711
1443708010151037941	1.7272034	2.7021027	-0.010253906
1443708010159430275	1.8981323	2.5555878	-0.108566284
1443708010167822608	2.0759735	2.1191711	0.02041626
1443708010176214942	1.3959656	1.4443054	0.39138794
1443708010184607276	0.470932	1.2182922	1.01268
1443708010192999610	0.27371216	1.0929565	1.1330414
1443708010201391944	0.063323975	0.9626312	1.2536163
1443708010209784278	-0.38578796	0.7976532	1.4803925
1443708010218176612	-0.79556274	0.6980438	1.6721344
1443708010226568946	-1.230484	0.6099243	1.7707367
1443708010234961280	-1.5080872	0.55851746	1.800293
1443708010243353614	-1.7904053	0.58425903	1.849884
1443708010251745948	-2.0369568	0.74186707	2.2816162
1443708010260138282	-1.9521332	1.2961731	3.175003
1443708010268530616	-1.5731659	1.8847504	3.9439545
1443708010276922950	-1.1464844	2.367981	4.6026306
1443708010285315284	-0.71255493	3.5143127	5.3558044
1443708010293707618	-0.7468262	5.367752	5.946991
1443708010302099952	-0.78248596	9.079422	7.102066
1443708010310492286	-0.43032837	12.954971	7.8706207
1443708010318884620	-0.017242432	17.959976	8.14711
1443708010327276954	0.32017517	29.032059	6.3973083
1443708010335669288	0.3812561	34.851288	7.772949
1443708010344061622	2.7605133	31.008057	9.287369
1443708010352453956	3.7661743	27.164001	9.604813
1443708010360846290	4.3298035	20.818253	9.843445
1443708010369238624	2.537201	12.818207	9.997894
1443708010377630958	2.0992737	7.7060394	9.198944
1443708010386023292	2.8863373	5.4150696	7.774231
1443708010394415626	3.49617	3.7828522	6.3180847
1443708010402807960	2.962204	1.2837372	6.0084534
1443708010411200294	3.4114227	0.17929077	6.307434
1443708010419592628	1.1882019	0.45819092	5.0360413
1443708010427984962	-0.4729309	1.1522064	4.0528564
1443708010436377296	-2.1236877	2.010437	3.1750183
1443708010444769630	-3.4910889	4.0770874	2.909729
1443708010453161964	-4.3042145	8.548981	2.9917297
1443708010461554298	-5.374008	13.416794	2.7966766
1443708010469946632	-6.380966	15.734024	2.4689484
1443708010478338966	-7.2709045	17.579071	2.2476654
1443708010486731300	-7.629486	17.795502	2.1512756
1443708010495123634	-7.1893616	16.402863	2.6111755
1443708010503515968	-7.188385	14.985748	2.4129333
1443708010511908302	-7.4332275	13.700546	1.8872833
1443708010520300636	-5.481186	9.107361	-0.18817139
1443708010528692970	-1.6183472	5.7860107	-3.0512238
1443708010537085304	0.9305725	5.3947296	-4.4771576
1443708010545477638	-0.6425171	6.489731	-4.0093536
1443708010553869972	-2.237854	8.013489	-3.5788727
1443708010562262306	-3.612091	10.457062	-3.6390991
1443708010570654640	-3.5771332	10.528687	-4.604248
1443708010579046974	-2.4496918	9.429718	-4.905945
1443708010587439308	-1.4774323	9.014587	-4.258209
1443708010595831642	-0.34587097	8.709549	-3.0862732
1443708010604223976	1.39711	8.978394	-2.8582
1443708010612616310	3.221466	9.52356	-2.8748474
1443708010621008644	4.962921	10.0672	-2.6730652
1443708010629400978	5.9193726	10.593506	-1.015152
1443708010637793312	4.040558	10.548813	-0.03868103
1443708010646185646	2.3690796	10.047195	-0.014404297
1443708010654577980	1.8376465	9.958511	0.0048675537
1443708010662970314	1.2907867	9.738358	-0.13017273
1443708010671362648	0.92793274	8.973297	-1.0594025
1443708010679754982	0.8061218	8.588135	-1.8138123
1443708010688147316	0.041137695	8.873444	-1.591507
1443708010696539650	-0.20755005	9.16069	-1.6197815
1443708010704931983	-0.63246155	9.206451	-1.2983704
1443708010713324317	-1.0098572	8.837906	-0.4963684
1443708010721716651	-1.4835968	8.573151	0.2898407
1443708010730108985	-1.9835052	8.435989	0.8695984
1443708010738501319	-2.453888	8.3029785	1.3997498
1443708010746893653	-1.9742584	7.753174	1.757431
1443708010755285987	-1.8680115	7.580612	1.4081421
1443708010763678321	-0.9171295	7.527832	1.0817108
1443708010772070655	-0.9492645	7.9044037	0.88957214
1443708010780462989	-1.0089264	8.376312	0.5863037
1443708010788855323	-1.1150818	9.014053	-0.06350708
1443708010797247657	-1.1037445	9.233841	-0.52804565
1443708010805639991	-1.0730286	9.301468	-0.65049744
1443708010814032325	-1.0222626	9.2404175	-0.5560303
1443708010822424659	-0.92196655	9.002182	-0.5969391
1443708010830816993	-0.8749237	8.606079	-0.7782593
1443708010839209327	-0.57621765	8.376526	-1.0150299
1443708010847601661	-0.14437866	8.156021	-0.7940979
1443708010855993995	0.29000854	7.916977	-0.43873596
1443708010864386329	1.2956085	8.245575	-0.44081116
1443708010872778663	2.2076874	9.003571	0.018539429
1443708010881170997	2.746109	9.970749	-0.042800903
1443708010889563331	3.1380768	10.496384	-0.28378296
1443708010897955665	3.571457	11.038864	-0.72613525
1443708010906347999	4.033493	11.344681	-1.5206909
1443708010914740333	3.623001	11.067322	-1.5384216
1443708010923132667	2.6536255	10.845306	-1.0111389
1443708010931525001	2.2307892	10.700714	-0.4456482
1443708010939917335	1.5785065	10.528427	-0.22825623
1443708010948309669	1.0264282	10.461639	-0.51934814
1443708010956702003	0.35188293	10.644592	-0.87323
1443708010965094337	0.17276001	11.046005	-1.1310425
1443708010973486671	0.12521362	11.48233	-1.3726654
1443708010981879005	0.1979065	12.061844	-0.9360199
1443708010990271339	-0.3910675	13.068741	-0.7744293
1443708010998663673	-0.16748047	12.656036	0.46446228
1443708011007056007	-0.31529236	12.7890625	0.36036682
1443708011015448341	-0.25422668	12.785461	0.27427673
1443708011023840675	0.34042358	12.274796	0.41937256
1443708011032233009	0.89079285	12.025009	0.5112152
1443708011040625343	1.1482239	12.34079	0.6409149
1443708011049017677	1.2664642	12.476379	1.2861023
1443708011057410011	1.6618195	13.052444	2.0478973
1443708011065802345	1.9861755	13.677292	2.3668365
1443708011074194679	1.7116547	13.688965	1.9165192
1443708011082587013	1.2777557	13.497314	1.1500397
1443708011090979347	0.8407898	13.296173	0.35577393
1443708011099371681	-0.082901	12.9296875	-2.64682
1443708011107764015	-0.99098206	11.267395	-2.9461365
1443708011116156349	-1.859787	9.161133	-1.7316132
1443708011124548683	-1.9343262	8.318039	-0.60128784
1443708011132941017	-2.2156677	8.064423	0.9050598
1443708011141333351	-3.058319	10.010483	3.0488129
1443708011149725685	-4.47789	14.328934	3.8761902
1443708011158118019	-5.6448975	17.634369	2.745041
1443708011166510353	-6.263077	19.27687	1.0453491
1443708011174902687	-7.462433	19.597961	-2.7242584
1443708011183295021	-7.9494324	17.743362	-4.4449615
1443708011191687355	-6.7644653	14.344116	-2.2603455
1443708011200079689	-5.8931274	12.55603	-0.41015625
1443708011208472023	-5.105774	11.017426	1.3166046
1443708011216864357	-4.7017975	10.243729	2.965805
1443708011225256691	-5.1209106	10.951843	3.4422607
1443708011233649025	-2.812729	11.46109	3.007782
1443708011242041358	-0.8013916	11.856934	2.3696747
1443708011250433692	1.0006866	12.195084	1.745636
1443708011258826026	0.92497253	12.264648	1.0521393
1443708011267218360	-1.0163269	11.817184	-0.0035095215
1443708011275610694	-2.027832	11.0807495	-0.73506165
1443708011284003028	-2.4121094	10.34433	-1.0589294
1443708011292395362	-2.4078674	8.597931	-0.94454956
1443708011300787696	-1.5340729	6.4677887	-0.63848877
1443708011309180030	-0.19129944	5.2206573	-0.032043457
1443708011317572364	0.222229	4.9463196	0.24246216
1443708011325964698	0.56025696	4.7164917	0.4970398
1443708011334357032	0.9785156	4.1268005	0.7458191
1443708011342749366	1.4021301	3.610672	-0.2741089
1443708011351141700	1.7820587	3.4552765	-1.1370087
1443708011359534034	2.1187744	3.3106842	-0.9924164
1443708011367926368	2.030487	3.1234436	-0.825058
1443708011376318702	1.6015778	2.9855347	-0.6264038
1443708011384711036	1.3968811	3.026886	-0.3912201
1443708011393103370	1.1244202	3.11557	-0.12390137
1443708011401495704	0.81944275	2.9714203	0.27346802
1443708011409888038	0.30690002	2.7146912	0.40400696
1443708011418280372	-0.44526672	2.5218506	0.9119568
1443708011426672706	-0.9093323	2.4210663	1.3709869
1443708011435065040	-1.3382416	2.3262177	1.8130951
1443708011443457374	-1.9028931	2.1088257	2.3072357
1443708011451849708	-2.1963654	1.8912811	2.66185
1443708011460242042	-2.1792603	1.8392181	2.881012
1443708011468634376	-1.9781189	1.9137573	3.0982056
1443708011477026710	-1.5370178	2.1717072	3.4213104
1443708011485419044	-0.89533997	2.9217834	3.8608246
1443708011493811378	-0.48947144	4.131653	4.268692
1443708011502203712	-0.18473816	5.4044037	4.749542
1443708011510596046	0.03694153	6.567505	5.252701
1443708011518988380	0.24708557	9.420303	6.4438477
1443708011527380714	0.33709717	14.311478	7.9015503
1443708011535773048	0.3642273	21.751251	8.064117
1443708011544165382	0.397995	25.28714	8.266556
1443708011552557716	0.49873352	28.161179	8.520447
1443708011560950050	1.4895935	26.066986	9.095551
1443708011569342384	2.32518	21.9216	8.737213
1443708011577734718	3.0798798	17.707596	8.082275
1443708011586127052	1.7002106	15.005447	7.70636
1443708011594519386	1.1853027	11.604874	7.3185577
1443708011602911720	1.8071442	7.3140717	6.6132813
1443708011611304054	2.147293	4.219055	6.0010223
1443708011619696388	2.009735	2.8048859	5.739563
1443708011628088722	1.6633759	1.8833923	5.4825287
1443708011636481056	0.714798	1.3147736	5.2245026
1443708011644873390	-1.2085571	1.8729401	4.447418
1443708011653265724	-2.6325073	3.4052887	3.7675781
1443708011661658058	-2.8535767	4.892227	3.6254578
1443708011670050392	-3.0568237	6.777252	3.4809418
1443708011678442726	-3.7209015	12.023315	3.1167603
1443708011686835060	-5.46904	15.764313	2.5163574
1443708011695227394	-6.5604095	17.266144	1.8147583
1443708011703619728	-6.8823547	17.70375	1.6161957
1443708011712012062	-6.7803497	17.520828	1.6880951
1443708011720404396	-5.919525	15.48735	1.8798676
1443708011728796730	-4.478256	11.7894745	-0.1998291
1443708011737189064	-2.8776855	8.929428	-1.9513702
1443708011745581398	-1.3277283	6.7542114	-2.7559204
1443708011753973732	0.32615662	4.887192	-3.094864
1443708011762366066	-0.6654663	5.325943	-3.190216
1443708011770758400	-2.2435303	7.6481323	-3.3414307
1443708011779150733	-2.6670074	8.710999	-3.4513092
1443708011787543067	-3.0919952	9.6085205	-3.7147064
1443708011795935401	-3.285324	9.190613	-4.787018
1443708011804327735	-2.2770844	7.9697876	-4.7264404
1443708011812720069	-0.8215027	7.8728027	-3.4548798
1443708011821112403	0.09484863	8.495483	-2.6888885
1443708011829504737	1.2977448	9.648682	-2.0354004
1443708011837897071	2.9990845	10.921463	-1.5190887
1443708011846289405	3.9859314	11.807098	-0.9718323
1443708011854681739	4.230789	12.076935	-1.1285706
1443708011863074073	4.3805084	12.078217	-1.6124573
1443708011871466407	2.8056335	11.734268	0.62561035
1443708011879858741	0.72172546	10.621918	2.0084076
1443708011888251075	1.302124	9.020584	-0.14904785
1443708011896643409	1.4531403	8.630524	-0.9291687
1443708011905035743	1.0587006	8.266586	-1.1401825
1443708011913428077	-1.0579376	7.951111	0.6144562
1443708011921820411	-0.6223297	7.589218	-0.099227905
1443708011930212745	-0.58670044	7.694977	-0.72998047
1443708011938605079	-0.8096924	7.8928986	-0.46136475
1443708011946997413	-1.214798	8.28598	0.17480469
1443708011955389747	-1.6963806	8.607819	0.9753876
1443708011963782081	-1.6158447	8.449799	1.8569946
1443708011972174415	-1.4896545	8.372925	2.2392883
1443708011980566749	-1.4433899	8.385773	2.3947906
1443708011988959083	-1.0623169	8.159485	1.9897003
1443708011997351417	-0.96447754	7.912796	0.75434875
1443708012005743751	-0.9485016	7.6924896	-0.36672974
1443708012014136085	-1.0564575	7.9077606	-0.5749359
1443708012022528419	-1.0587158	8.194458	-0.6614227
1443708012030920753	-0.7399292	8.691162	-0.43075562
1443708012039313087	-0.57229614	8.866669	-0.39570618
1443708012047705421	-0.43043518	8.812714	-0.28668213
1443708012056097755	-0.4291687	8.891098	-0.48910522
1443708012064490089	0.12556458	8.732117	-0.30647278
1443708012072882423	0.77996826	8.667572	-0.45425415
1443708012081274757	1.6439819	8.739044	-0.8123779
1443708012089667091	2.0320892	9.24852	-1.1157379
1443708012098059425	2.2165222	9.898193	-1.4254761
1443708012106451759	3.0621643	11.233429	-1.390976
1443708012114844093	3.7322083	11.977554	-1.3053131
1443708012123236427	3.887207	11.267151	-1.2538147
1443708012131628761	3.418747	10.695877	-1.2332611
1443708012140021095	2.8818054	10.121902	-1.2463837
1443708012148413429	2.2790985	9.623062	-1.2998505
1443708012156805763	1.9654694	9.6644745	-1.3501587
1443708012165198097	1.6058502	10.186615	-1.4038544
1443708012173590431	1.2279968	10.596603	-1.2104187
1443708012181982765	0.4921112	11.605331	-0.91300964
1443708012190375099	0.029907227	12.551727	-0.16395569
1443708012198767433	-0.7726288	13.301117	-0.025650024
1443708012207159767	-1.0522919	13.3823395	-0.23667908
1443708012215552101	-1.145462	13.292374	-0.46095276
1443708012223944435	-0.94592285	12.20372	-0.5518036
1443708012232336769	-0.4934082	11.977737	-0.78427124
1443708012240729103	0.16670227	11.734131	0.6322632
1443708012249121437	0.30293274	12.467987	0.7665558
1443708012257513771	0.69906616	13.298798	1.1201324
1443708012265906105	1.497345	14.289734	1.9064484
1443708012274298439	1.6042175	14.719345	2.194168
1443708012282690773	1.4030762	14.592758	2.1029205
1443708012291083107	0.86187744	14.1987915	0.613266
1443708012299475441	0.3227234	13.334396	-1.2693176
1443708012307867775	-0.5458374	12.11731	-1.7406158
1443708012316260108	-1.5208893	9.877319	-0.68125916
1443708012324652442	-2.144989	8.994003	-0.20605469
1443708012333044776	-2.7066193	8.431717	0.089538574
1443708012341437110	-3.811905	9.016327	1.568039
1443708012349829444	-4.4584656	11.437088	2.0809937
1443708012358221778	-5.373886	15.279846	2.0452423
1443708012366614112	-5.8571167	17.075287	1.2644806
1443708012375006446	-6.675125	18.468918	-0.3098297
1443708012383398780	-8.069504	18.210098	-2.6387787
1443708012391791114	-8.544983	16.650894	-2.8749237
1443708012400183448	-8.184479	15.036667	-2.365982
1443708012408575782	-6.6394196	12.508835	-0.86372375
1443708012416968116	-5.0435333	10.418869	1.0328827
1443708012425360450	-4.613434	9.935181	2.3073578
1443708012433752784	-4.758957	10.33223	2.7728271
1443708012442145118	-4.9755096	10.849533	3.0832062
1443708012450537452	-1.7415314	11.476044	2.2717438
1443708012458929786	1.5213623	12.032913	1.6975708
1443708012467322120	1.0428009	12.043304	1.3041992
1443708012475714454	-0.27453613	12.032379	1.2476501
1443708012484101957	-1.5626984	11.80011	1.1013794
1443708012492494291	-2.2050934	10.671082	0.61161804
1443708012500886625	-1.6362915	8.8354645	0.115615845
1443708012509278959	-1.0411682	7.4220123	-0.060195923
1443708012517671293	-0.6613922	6.5487213	-0.2015686
1443708012526063627	0.3050995	5.489609	-0.31446838
1443708012534455961	0.8364563	4.750183	-0.48661804
1443708012542848295	0.41404724	4.2607574	0.353302
1443708012551240629	0.70111084	4.002182	0.5162964
1443708012559632963	1.1586304	3.7836914	0.4912262
1443708012568025297	1.716568	3.5410004	-0.14341736
1443708012576417631	1.6542053	3.6842651	-0.61434937
1443708012584809965	1.7989502	3.4056854	-1.1707153
1443708012593202299	1.5464172	3.3542633	-0.7555847
1443708012601594633	1.2142181	3.2858124	-0.4111786
1443708012609986967	0.84703064	3.1857452	0.0045166016
1443708012618379301	0.6831665	3.0919342	0.7589264
1443708012626771635	0.4773407	3.0117645	1.3761902
1443708012635163969	0.23443604	2.9436493	1.8722839
1443708012643556303	-0.23461914	2.922821	2.4053497
1443708012651948637	-0.6163025	2.9908447	2.9092712
1443708012660340971	-0.8941345	3.044754	3.2158508
1443708012668733305	-0.99057007	3.0069427	3.306427
1443708012677125639	-1.0602264	2.9556274	3.374405
1443708012685517973	-0.9544525	2.7817993	3.5777283
1443708012693910307	-0.62039185	2.6770935	3.92453
1443708012702302641	-0.27130127	2.8069153	4.1636353
1443708012710694975	-0.1177063	2.8962402	4.303726
1443708012719087309	-0.11657715	3.2407227	4.479904
1443708012727479643	-0.32637024	4.3256073	4.7268524
1443708012735871977	-0.47216797	6.1409607	5.0588074
1443708012744264311	-0.49412537	8.090195	5.537842
1443708012752656645	-0.40930176	9.873428	6.070572
1443708012761048979	-0.09509277	14.426941	6.777817
1443708012769441313	-0.40582275	22.29625	7.1657257
1443708012777833647	-1.3069	28.556152	7.142395
1443708012786225981	-0.8169098	28.190002	6.9947815
1443708012794618315	-0.1443634	27.060165	6.9075623
1443708012803010649	1.2779541	22.44931	8.095459
1443708012811402983	1.8763428	15.597214	9.201569
1443708012819795317	1.0284424	10.212662	9.077927
1443708012828187651	1.8432617	8.134491	8.783615
1443708012836579985	2.5516205	5.7139893	7.9391327
1443708012844972319	2.6228638	2.9432373	6.589386
1443708012853364652	2.0915985	2.0218964	5.4883575
1443708012861756986	1.3163452	2.8695374	4.6894226
1443708012870149320	0.41348267	3.9337006	4.1650543
1443708012878541654	-1.3621979	7.2602386	3.4929047
1443708012886933988	-2.088913	12.522675	2.377472
1443708012895326322	-3.8189087	17.29065	1.5065613
1443708012903718656	-5.026123	18.046494	0.83821106
1443708012912110990	-6.10054	18.406403	0.14050293
1443708012920503324	-6.019272	16.55423	-0.44306946
1443708012928895658	-4.8324738	13.16507	1.5673828
1443708012937287992	-3.1026459	9.998413	2.140808
1443708012945680326	-2.0224304	8.306442	0.51693726
1443708012954072660	-0.17056274	6.0068665	-1.004303
1443708012962464994	1.2546692	3.684082	-1.1585693
1443708012970857328	-0.6908417	3.3822021	-1.2786713
1443708012979249662	-2.0740204	4.2599487	-1.6959381
1443708012987641996	-2.3195038	5.2714233	-1.7775421
1443708012996034330	-2.355957	7.3420105	-2.1016846
1443708013004426664	-3.1560516	8.714859	-4.387512
1443708013012818998	-3.3955383	8.666229	-6.0640564
1443708013021211332	-3.1257782	8.594849	-5.5634766
1443708013029603666	-2.7808228	8.7465515	-4.8069763
1443708013037996000	-1.7924957	10.476456	-2.5912628
1443708013046388334	0.18838501	12.064072	-1.2382813
1443708013054780668	2.4511566	12.817459	-0.88845825
1443708013063173002	3.3694305	12.848953	-0.901947
1443708013071565336	3.3011017	12.576279	-0.9085083
1443708013079957670	2.0414429	11.758118	-0.80140686
1443708013088350004	0.9346466	10.629852	-0.5589905
1443708013096742338	0.50668335	9.912155	-0.6498718
1443708013105134672	0.33639526	9.433411	-0.91397095
1443708013113527006	1.3328247	9.019058	-3.1184387
1443708013121919340	2.074768	9.529007	-2.7937927
1443708013130311674	0.82644653	9.334106	-1.1889801
1443708013138704008	-0.26364136	9.046799	0.2758026
1443708013147096342	0.7762909	8.322968	0.07771301
1443708013155488676	-0.27774048	8.075623	0.6927643
1443708013163881010	-1.0983124	8.066544	0.90792847
1443708013172273344	-1.6631622	8.093536	1.163681
1443708013180665678	-1.996109	7.959564	1.2063293
1443708013189058012	-2.0763092	7.7469635	0.86782837
1443708013197450346	-2.002884	7.7295227	0.5903778
1443708013205842680	-1.8579254	7.755905	0.36950684
1443708013214235014	-1.7551117	7.778412	0.112472534
1443708013222627348	-1.7849274	7.7180023	-0.6439514
1443708013231019682	-1.7828674	7.70665	-1.1799469
1443708013239412016	-1.4802246	8.054367	-0.960022
1443708013247804350	-1.5065155	8.402344	-0.89149475
1443708013256196684	-1.5022888	8.762009	-0.78253174
1443708013264589018	-1.2576752	9.08577	-0.46380615
1443708013272981352	-0.8979187	8.920349	-0.5326538
1443708013281373686	-0.3229828	8.753952	-0.5661316
1443708013289766020	0.14291382	8.611938	-0.27760315
1443708013298158354	0.8606262	8.685287	-0.115737915
1443708013306550688	1.7687073	9.273254	-0.04017639
1443708013314943022	2.4667664	10.252594	0.20832825
1443708013323335356	2.95047	11.009659	0.06585693
1443708013331727690	3.373291	11.614349	-0.29849243
1443708013340120024	4.90654	11.552887	-1.1838837
1443708013348512358	4.8141327	11.171219	-1.769989
1443708013356904692	3.4774323	10.641602	-0.875473
1443708013365297026	2.9029388	10.550354	-0.25923157
1443708013373689360	2.251068	10.504959	0.2923584
1443708013382081694	1.2520752	10.692383	0.23016357
1443708013390474027	0.44657898	10.831833	-0.73483276
1443708013398866361	-0.062042236	10.953659	-1.4430847
1443708013407258695	-0.19955444	11.214569	-1.8376617
1443708013415651029	-0.460083	11.449951	-1.8082428
1443708013424043363	-0.6356201	11.824188	-1.5483246
1443708013432435697	-0.6301575	11.90593	-0.64819336
1443708013440828031	-0.60289	12.011398	-0.2747345
1443708013449220365	-0.5739746	12.215103	-0.27601624
1443708013457612699	-0.52253723	12.10524	-0.16419983
1443708013466005033	-0.22868347	12.245911	-0.39396667
1443708013474397367	0.02079773	12.688995	0.45005798
1443708013482789701	0.14866638	13.179306	0.87675476
1443708013491182035	0.4028778	13.614227	1.3211823
1443708013499574369	1.0493469	13.718628	1.5436249
1443708013507966703	1.1717682	13.443253	1.1438446
1443708013516359037	0.88308716	13.15654	1.0556946
1443708013524751371	0.61383057	13.092285	0.9271698
1443708013533143705	0.11500549	12.808609	-0.33911133
1443708013541536039	-0.74339294	12.240189	-1.8324127
1443708013549928373	-1.8223877	10.768784	-1.9016876
1443708013558320707	-2.3505096	9.5703125	-1.6276855
1443708013566713041	-2.6801758	8.589066	-1.3886414
1443708013575105375	-2.807724	7.7927246	-0.03779602
1443708013583497709	-2.8940582	9.410767	1.9562073
1443708013591890043	-3.5301666	13.252747	3.7296143
1443708013600282377	-4.0712433	15.635529	3.6833496
1443708013608674711	-4.773926	17.917755	2.762207
1443708013617067045	-6.1471252	18.968674	-1.0027313
1443708013625459379	-7.6820374	17.361603	-3.5342102
1443708013633851713	-7.940872	15.216187	-3.32312
1443708013642244047	-6.9673157	13.64566	-2.3380127
1443708013650636381	-5.345093	11.671356	-0.5621643
1443708013659028715	-4.4278107	10.357147	0.95721436
1443708013667421049	-4.6725616	10.411331	1.2384186
1443708013675813383	-3.5525208	10.586487	1.2907715
1443708013684205717	-2.0121918	10.704727	1.3646698
1443708013692598051	0.6680145	10.9969635	1.7692871
1443708013700990385	0.25057983	11.22139	1.7119141
1443708013709382719	-1.2845917	11.446533	1.1177521
1443708013717775053	-1.3687592	11.1605835	0.61203
1443708013726167387	-1.2771606	10.624176	0.2568512
1443708013734559721	-0.8661804	9.360626	0.3413391
1443708013742952055	-0.25271606	7.993988	0.3277893
1443708013751344389	0.52108765	7.0186157	0.18260193
1443708013759736723	0.707428	6.4499054	0.16139221
1443708013768129057	0.9859619	5.813278	0.62205505
1443708013776521391	0.8329468	5.3952484	1.1515503
1443708013784913725	0.9427185	5.016083	1.1220245
1443708013793306059	1.2962799	4.83403	0.40647888
1443708013801698393	1.6683502	4.6990814	-0.42311096
1443708013810090727	1.6136322	4.431488	-1.6945953
1443708013818483061	1.7243347	4.005249	-0.86509705
1443708013826875395	1.7910767	3.5942535	-0.054275513
1443708013835267729	1.5269623	3.4027557	0.31329346
1443708013843660063	1.1256104	3.1282349	0.81196594
1443708013852052397	0.6565857	2.6102905	1.4952698
1443708013860444731	0.4491272	2.1863708	1.88768
1443708013868837065	0.11482239	2.067505	2.0084686
1443708013877229399	-0.18591309	2.0154572	2.005249
1443708013885621733	-0.63386536	2.0008392	2.025177
1443708013894014067	-0.9372406	2.0580597	2.167984
1443708013902406401	-0.99679565	1.9966125	2.233841
1443708013910798735	-1.0690613	1.9354858	2.2729797
1443708013919191069	-1.1500244	1.8802338	2.3128204
1443708013927583402	-1.1635437	1.8881531	2.6153564
1443708013935975736	-0.87916565	2.292862	3.1266785
1443708013944368070	-0.6518707	2.9738617	3.6186981
1443708013952760404	-0.52848816	3.5804749	3.765854
1443708013961152738	-0.49435425	4.5569305	4.0819397
1443708013969545072	-0.47532654	6.759964	4.7847137
1443708013977937406	-0.5285034	10.75737	5.833908
1443708013986329740	-0.47039795	15.034775	6.5494385
1443708013994722074	-0.07197571	18.630157	6.7769165
1443708014003114408	-0.5917053	25.804443	5.8029785
1443708014011506742	-1.6872711	30.261597	6.993286
1443708014019899076	0.8710327	27.198318	8.646774
1443708014028291410	2.263794	24.08142	9.090912
1443708014036683744	3.438324	20.956406	9.408432
1443708014045076078	4.3295746	14.090775	9.590408
1443708014053468412	3.1282806	8.758026	8.319168
1443708014061860746	3.7856903	6.1195374	7.1714478
1443708014070253080	4.0382233	5.021332	6.390686
1443708014078645414	3.9254303	3.6990967	5.9816437
1443708014087037748	3.1081238	2.246582	6.2005005
1443708014095430082	1.5417175	1.8081665	5.7547455
1443708014103822416	0.11685181	2.5314636	4.9122314
1443708014112214750	-0.815567	3.5943298	4.2413483
1443708014120607084	-1.3820496	5.9928894	3.7368622
1443708014128999418	-1.6352844	10.112305	3.884262
1443708014137391752	-3.5897675	14.132156	3.4817047
1443708014145784086	-4.5948486	15.377792	3.153946
1443708014154176420	-5.495392	16.405869	2.804779
1443708014162568754	-5.9830017	16.836182	2.1356049
1443708014170961088	-5.425934	15.688919	2.2965393
1443708014179353422	-4.81868	14.173019	2.9057312
1443708014187745756	-4.047882	12.156204	2.5180054
1443708014196138090	-2.3309784	9.156464	-0.6217804
1443708014204530424	-0.29940796	6.3423004	-2.6427612
1443708014212922758	-0.5714874	5.1160583	-2.0086212
1443708014221315092	-2.195984	4.9431915	-1.2387695
1443708014229707426	-2.816269	5.583969	-2.0980072
1443708014238099760	-2.8683167	7.767166	-2.3035889
1443708014246492094	-3.818695	9.483307	-3.2281036
1443708014254884428	-3.930481	9.366455	-4.1353607
1443708014263276762	-3.8472595	9.017151	-4.9599457
1443708014271669096	-1.8367462	7.6033936	-4.282654
1443708014280061430	-0.5636139	7.8182983	-2.255188
1443708014288453764	0.023910522	9.18457	-0.6406708
1443708014296846098	0.8233185	9.901718	-0.52757263
1443708014305238432	2.4371338	10.599045	-0.7800751
1443708014313630766	4.2055664	11.227402	-1.2071228
1443708014322023100	3.279007	11.701187	-1.0452118
1443708014330415434	2.0608826	12.000153	-0.85806274
1443708014338807768	1.4690552	12.247559	-0.71539307
1443708014347200102	1.3191833	11.672531	-0.30220032
1443708014355592436	1.0832214	10.226166	-0.62324524
1443708014363984770	0.009887695	9.081085	-0.73724365
1443708014372377104	-0.35787964	8.705139	-1.0267792
1443708014380769438	-0.62260437	8.3745575	-1.3128357
1443708014389161772	-0.26719666	8.025772	-1.236145
1443708014397554106	0.025466919	7.7598877	-0.30104065
1443708014405946440	-0.4344635	7.953888	0.72047424
1443708014414338774	-0.6407318	8.167236	1.12146
1443708014422731108	-0.886322	8.333969	1.4779816
1443708014431123442	-0.87597656	8.57431	1.8436127
1443708014439515776	-0.5321655	8.897583	2.224289
1443708014447908110	-0.4059143	8.984299	2.1708374
1443708014456300444	-0.41363525	8.959244	1.888092
1443708014464692777	-0.56433105	8.545166	0.8657837
1443708014473085111	-0.99165344	7.8991394	-0.3142395
1443708014481477445	-1.2155762	7.570633	-0.66545105
1443708014489869779	-1.2519226	7.60701	-0.8469391
1443708014498262113	-1.2565308	7.664444	-1.0245667
1443708014506654447	-1.0503235	7.837494	-1.1030731
1443708014515046781	-0.7346344	8.093262	-0.7281952
1443708014523439115	-0.13269043	8.354401	-0.25164795
1443708014531831449	0.21624756	8.602463	0.01953125
1443708014540223783	0.8016052	8.970627	0.32250977
1443708014548616117	1.2945251	9.586578	0.28157043
1443708014557008451	2.133728	10.347122	-0.03781128
1443708014565400785	2.489746	11.0477295	-0.35517883
1443708014573793119	2.3714905	11.701248	-0.6931915
1443708014582185453	2.54039	12.2530365	-0.5602112
1443708014590577787	4.2050323	12.025116	-0.35368347
1443708014598970121	3.4545746	10.736069	-0.41079712
1443708014607362455	2.8704376	10.298462	-0.3555298
1443708014615754789	2.2896729	9.859604	-0.3970337
1443708014624147123	1.7431793	9.493271	-0.95436096
1443708014632539457	1.2690277	9.559601	-1.3053436
1443708014640931791	0.89289856	9.981125	-1.3710175
1443708014649324125	0.6127167	10.384048	-1.260498
1443708014657716459	0.21305847	10.963333	-0.72665405
1443708014666108793	-0.43115234	12.182877	-0.27160645
1443708014674501127	-0.95547485	13.020172	0.3526764
1443708014682893461	-1.2081451	13.125351	0.38815308
1443708014691285795	-1.3983612	13.101578	0.034072876
1443708014699678129	-1.2906036	12.668106	-0.49110413
1443708014708070463	-0.83750916	12.739609	-0.45417786
1443708014716462797	-0.11758423	13.003204	0.5908203
1443708014724855131	0.33674622	13.2300415	0.91212463
1443708014733247465	0.82836914	13.592392	1.1166382
1443708014741639799	1.3709564	14.26886	1.0764465
1443708014750032133	1.3696289	14.060364	1.6717072
1443708014758424467	0.9753876	13.766769	1.4741669
1443708014766816801	0.6630707	13.54187	0.5359802
1443708014775209135	-0.04020691	12.939621	-0.38175964
1443708014783601469	-1.2346802	11.749527	-0.6089783
1443708014791993803	-2.0619507	9.902191	-0.28215027
1443708014800386137	-2.2468872	9.0186	-0.10935974
1443708014808778471	-2.285431	8.562347	-0.009765625
1443708014817170805	-2.6720276	8.874252	0.49137878
1443708014825563139	-2.9172516	10.708374	2.1918793
1443708014833955473	-3.0928497	14.484741	2.9367828
1443708014842347807	-3.2914276	16.505737	2.9014435
1443708014850740141	-3.6095886	18.360092	2.4548645
1443708014859132475	-5.026245	18.818192	0.2564087
1443708014867524809	-6.7677	16.836502	-1.9484863
1443708014875917143	-6.1292114	14.628143	-2.2142334
1443708014884309477	-5.4705505	13.209274	-1.6673889
1443708014892701811	-4.7896423	11.608124	-0.062301636
1443708014901094145	-4.816391	10.981888	1.2982788
1443708014909486479	-5.112152	11.220642	1.6208191
1443708014917878813	-3.0667725	11.198929	1.5857086
1443708014926271147	-0.3575592	11.073608	1.4996033
1443708014934663481	0.3868103	11.076752	1.9953308
1443708014943055815	-1.1219025	11.348465	2.0151062
1443708014951448149	-1.7972565	10.933472	0.5906372
1443708014959840483	-1.9964752	10.255524	0.06755066
1443708014968232817	-1.9517975	9.310959	-0.38119507
1443708014976625151	-0.99269104	7.7799377	-0.5688629
1443708014985017485	0.05105591	6.8682404	-0.49760437
1443708014993409819	0.5548706	6.337448	-0.18080139
1443708015001802152	1.0655365	5.591629	0.33007813
1443708015010194486	1.420044	4.858719	0.6476593
1443708015018586820	1.502945	4.4509125	0.8743286
1443708015026979154	1.3515472	4.141617	0.9479675
1443708015035371488	1.1465607	3.8338013	0.9434662
1443708015043763822	1.0846405	3.3455963	0.36160278
1443708015052156156	0.99401855	3.1310577	-0.117614746
1443708015060548490	0.8689728	2.6537628	0.3486328
1443708015068940824	0.7667999	2.3459473	0.48936462
1443708015077333158	0.62449646	1.9736786	0.6554413
1443708015085725492	0.45863342	1.4370728	0.97865295
1443708015094117826	0.46939087	1.0654144	1.474289
1443708015102510160	0.30447388	0.8062134	1.8629608
1443708015110902494	0.13224792	0.6301575	2.1007233
1443708015119294828	-0.16616821	0.5700073	2.4485626
1443708015127687162	-0.42126465	0.71954346	2.7063751
1443708015136079496	-0.3789978	0.8824463	2.6984253
1443708015144471830	-0.6761627	0.9655304	2.6928253
1443708015152864164	-1.0957794	1.0323486	2.7075958
1443708015161256498	-0.8658905	1.3170624	2.9867706
1443708015169648832	-0.471344	2.034317	3.5355072
1443708015178041166	-0.5685272	3.066452	4.0619354
1443708015186433500	-0.30699158	3.826004	4.12941
1443708015194825834	-0.33903503	5.015259	4.3020477
1443708015203218168	-0.84628296	8.119034	4.9723053
1443708015211610502	-0.4792328	13.953613	6.2832184
1443708015220002836	-0.060256958	20.384628	6.725067
1443708015228395170	0.14344788	25.267761	5.786209
1443708015236787504	-1.0627594	30.339401	5.764038
1443708015245179838	-0.8476715	29.953964	7.7794037
1443708015253572172	1.6679688	25.859528	8.919601
1443708015261964506	3.1825562	22.8098	9.514465
1443708015270356840	4.3771667	20.078735	10.106949
1443708015278749174	5.023987	12.607239	11.319504
1443708015287141508	2.900116	6.991577	7.7075043
1443708015295533842	4.264389	4.2499695	5.087265
1443708015303926176	4.275955	3.3355408	4.668289
1443708015312318510	3.892807	2.0959473	4.5984344
1443708015320710844	2.3630066	0.6182709	4.9089355
1443708015329103178	0.38597107	1.0578308	3.95549
1443708015337495512	-0.91534424	2.6943665	2.9033966
1443708015345887846	-1.4641266	4.2269745	2.3912506
1443708015354280180	-1.6828613	8.283813	2.235199
1443708015362672514	-3.2256622	13.260986	2.6463928
1443708015371064848	-5.4622345	16.123627	2.879181
1443708015379457182	-5.983551	17.19989	2.8898773
1443708015387849516	-6.200119	18.057129	2.877655
1443708015396241850	-6.3230133	18.48259	3.344864
1443708015404634184	-4.977768	15.574112	4.325348
1443708015413026518	-3.699829	11.663483	3.1298828
1443708015421418852	-3.3721008	9.568588	1.0761261
1443708015429811186	-2.4910126	6.907013	-1.0421295
1443708015438203520	-1.0404358	3.8372192	-1.8859558
1443708015446595854	-2.3486328	3.5442352	-1.5230713
1443708015454988188	-4.195999	5.122177	-2.0018768
1443708015463380522	-4.6374664	6.6650696	-2.3758698
1443708015471772856	-4.648514	8.12886	-3.4096985
1443708015480165190	-5.9550476	8.7313385	-5.528061
1443708015488557524	-5.387924	8.223907	-6.085495
1443708015496949858	-3.9017944	7.7877655	-5.5593567
1443708015505342192	-2.3630676	7.428009	-4.9007874
1443708015513734526	-0.7302246	8.776459	-2.6185455
1443708015522126860	0.8320923	10.357819	-2.0667267
1443708015530519194	2.7288818	11.367615	-3.0028229
1443708015538911527	4.1124115	11.588028	-2.9617004
1443708015547303861	4.9179535	11.70047	-2.4491272
1443708015555696195	3.9803162	11.602631	-1.5921631
1443708015564088529	2.5840912	11.37735	-0.93310547
1443708015572480863	2.0222015	10.989655	-0.2580719
1443708015580873197	1.7086182	10.548828	0.16026306
1443708015589265531	1.6426849	9.834564	-0.8516693
1443708015597657865	1.8201752	9.366348	-1.2942505
1443708015606050199	1.0643158	9.159668	-0.7424011
1443708015614442533	0.767807	8.982208	-0.28302002
1443708015622834867	0.5271454	8.784042	0.13105774
1443708015631227201	0.25204468	8.348862	0.18728638
1443708015639619535	-0.6195984	8.44603	0.8026428
1443708015648011869	-1.1673431	8.551514	1.6730804
1443708015656404203	-1.4051208	8.587509	2.0522003
1443708015664796537	-1.4350739	8.596802	2.34758
1443708015673188871	-1.0150604	8.468674	2.5412903
1443708015681581205	-0.6712036	8.156479	2.2833252
1443708015689973539	-0.7759552	7.881897	1.5818634
1443708015698365873	-1.0374908	7.6704865	0.84994507
1443708015706758207	-1.404007	7.209961	-0.47549438
1443708015715150541	-2.0014496	7.0056	-1.4107513
1443708015723542875	-1.963623	7.1939545	-1.3752747
1443708015731935209	-1.8551636	7.5349426	-1.2957001
1443708015740327543	-1.7066956	7.9306335	-1.1350555
1443708015748719877	-1.155014	8.753052	-0.15124512
1443708015757112211	-0.5022278	9.331848	0.88664246
1443708015765504545	-0.024124146	9.642227	1.2002411
1443708015773896879	0.5950165	10.081375	1.1889038
1443708015782289213	1.3727112	10.571335	0.53178406
1443708015790681547	2.2667084	10.87381	-0.098587036
1443708015799073881	2.8193665	11.110458	-0.26312256
1443708015807466215	2.981308	11.287186	-0.19950867
1443708015815858549	2.5241852	11.927032	-1.3356018
1443708015824250883	5.1233063	11.257217	-1.4505005
1443708015832643217	4.4565887	10.033691	-1.686142
1443708015841035551	3.5585938	9.57756	-1.4532928
1443708015849427885	2.6749268	9.193283	-1.1885834
1443708015857820219	1.5695343	9.0229645	-1.199585
1443708015866212553	0.97076416	9.368607	-1.7607269
1443708015874604887	0.38464355	9.774719	-1.6199951
1443708015882997221	0.05885315	10.088318	-1.2479401
1443708015891389555	-0.59991455	10.880371	-0.9315796
1443708015899781889	-1.3794708	12.147369	-0.45080566
1443708015908174223	-1.8531952	12.734177	0.17323303
1443708015916566557	-2.0775757	12.750275	0.1811676
1443708015924958891	-2.107132	12.64296	-0.1298523
1443708015933351225	-2.1930695	12.835541	-0.7081909
1443708015941743559	-2.019226	13.278534	-0.51756287
1443708015950135893	-1.3474274	13.798904	-0.032333374
1443708015958528227	-0.97805786	14.351791	-0.21669006
1443708015966920561	-0.6045227	14.835968	-0.34980774
1443708015975312895	-0.16438293	14.607788	0.3183136
1443708015983705229	-0.0960083	14.007965	1.0852203
1443708015992097563	0.14758301	13.693848	0.2531128
1443708016000489897	0.3898468	13.315353	-0.66645813
1443708016008882231	0.00869751	12.653168	-1.3649902
1443708016017274565	-1.5708923	11.426071	-0.6967163
1443708016025666899	-2.910324	9.778503	0.51283264
1443708016034059233	-3.228836	8.784195	0.76919556
1443708016042451567	-3.2481232	8.216766	0.7030182
1443708016050843901	-2.9403687	8.44046	0.6923523
1443708016059236235	-2.606903	10.790512	1.3286438
1443708016067628569	-2.8441315	15.146042	1.7552795
1443708016076020902	-3.1095428	16.918976	1.3208923
1443708016084413236	-3.4464111	18.573898	0.74406433
1443708016092805570	-4.271988	18.982162	-0.6318207
1443708016101197904	-4.8264923	17.053757	-1.2405548
1443708016109590238	-4.3798065	14.7300415	-0.6669159
1443708016117982572	-4.1947327	13.560501	0.03416443
1443708016126374906	-3.8865967	12.223755	0.83872986
1443708016134767240	-4.273926	11.24057	0.9851837
1443708016143159574	-4.1508026	11.047562	0.34503174
1443708016151551908	-3.0927277	10.968491	0.13529968
1443708016159944242	-1.9373322	10.842529	0.16293335
1443708016168336576	-1.4276428	10.784775	0.55552673
1443708016176728910	-2.2215881	10.721451	0.9021301
1443708016185121244	-2.6001282	10.11113	0.6078491
1443708016193513578	-2.733139	9.705002	0.5397339
1443708016201905912	-2.6491241	9.133774	0.61026
1443708016210298246	-2.1126556	8.084198	0.035995483
1443708016218690580	-2.1796112	7.7019806	-2.2140656
1443708016227082914	-0.2784729	6.9194336	-0.1821289
1443708016235475248	0.61602783	6.455475	0.38079834
1443708016243867582	1.1549835	5.9026184	0.59687805
1443708016252259916	1.2082825	5.5925293	-0.20755005
1443708016260652250	1.111145	5.251831	-0.78060913
1443708016269044584	1.2004089	4.872467	-0.7134247
1443708016277436918	1.3674774	4.5286713	-0.5463562
1443708016285829252	1.3132019	3.998581	-0.4226532
1443708016294221586	0.80415344	3.5076447	0.0022277832
1443708016302613920	0.9165039	3.2734528	0.5587921
1443708016311006254	0.92100525	3.1995544	0.93600464
1443708016319398588	0.89364624	3.0583038	1.3036041
1443708016327790922	0.64889526	2.6153564	1.6700897
1443708016336183256	0.21568298	2.1192017	2.070694
1443708016344575590	-0.036102295	1.8538208	2.2738037
1443708016352967924	-0.20188904	1.7163086	2.346405
1443708016361360258	-0.44491577	1.5165863	2.3564606
1443708016369752592	-0.68359375	1.4288177	2.4066467
1443708016378144926	-0.6989136	1.4895935	2.7312317
1443708016386537260	-0.5209961	1.4960785	2.9319458
1443708016394929594	-0.30828857	1.4787292	3.064331
1443708016403321928	-0.16340637	1.6369629	3.630188
1443708016411714262	0.12638855	1.9173584	4.2400208
1443708016420106596	-0.08547974	2.363037	4.752548
1443708016428498930	-0.28533936	2.7749634	4.8534393
1443708016436891264	-0.5759125	3.5003662	4.916977
1443708016445283598	-1.1365967	5.609085	4.9298706
1443708016453675932	-1.4364014	9.507706	5.306839
1443708016462068266	-1.3626251	14.262573	5.6446075
1443708016470460600	-1.3144226	18.393875	5.4993896
1443708016478852934	-1.0936737	25.418777	4.5009613
1443708016487245268	0.10383606	30.237762	5.767441
1443708016495637602	2.3815002	28.430893	8.330154
1443708016504029936	3.5772552	25.574127	9.653397
1443708016512422270	4.4434814	22.867493	10.681564
1443708016520814604	5.0855865	15.313934	10.844955
1443708016529206938	4.984314	7.770874	9.4079895
1443708016537599272	5.621002	4.240097	7.833786
1443708016545991606	5.369751	3.2896729	7.378189
1443708016554383940	4.7545013	2.2293549	6.8152313
1443708016562776274	2.7956543	1.5669098	5.618469
1443708016571168608	-0.004180908	2.9994507	3.856491
1443708016579560942	-1.8471985	5.4919434	2.9600677
1443708016587953276	-2.6093292	7.8676453	2.818695
1443708016596345610	-3.0003357	12.577927	2.5034943
1443708016604737944	-5.0703583	16.547028	1.6021576
1443708016613130277	-6.6897125	17.973602	1.3565369
1443708016621522611	-6.7056427	17.996231	1.5903778
1443708016629914945	-6.4832916	17.840714	1.8667145
1443708016638307279	-5.5433197	15.429001	3.860672
1443708016646699613	-5.6375732	11.596329	5.146057
1443708016655091947	-3.997055	7.6642914	1.4542389
1443708016663484281	-1.9548645	5.5224915	-1.4715271
1443708016671876615	0.23950195	3.1744385	-3.2529602
1443708016680268949	0.9924927	1.4637451	-2.5171356
1443708016688661283	-1.6170807	3.0000153	-2.2706604
1443708016697053617	-3.3861847	5.597824	-2.5830383
1443708016705445951	-3.7743225	7.4954376	-2.7353363
1443708016713838285	-4.722641	9.478134	-4.035797
1443708016722230619	-4.9018555	10.020538	-5.7312927
1443708016730622953	-3.200653	9.204819	-5.008133
1443708016739015287	-1.921814	9.41922	-4.1531067
1443708016747407621	-0.75193787	9.8224945	-3.3510437
1443708016755799955	1.1730804	11.049194	-1.9030151
1443708016764192289	4.849289	11.881256	-4.4877167
1443708016772584623	5.374298	12.107437	-3.0681915
1443708016780976957	4.660797	12.187805	-1.1448975
1443708016789369291	1.694397	11.87291	1.0971527
1443708016797761625	1.1213074	11.578552	0.7104492
1443708016806153959	1.2737427	11.299728	-0.39108276
1443708016814546293	0.9080963	10.925095	-0.9160919
1443708016822938627	0.29890442	9.832016	-1.3764496
1443708016831330961	0.17793274	8.754837	-1.8849792
1443708016839723295	-0.46818542	8.493744	-1.2954559
1443708016848115629	-0.7431183	8.403748	-0.89619446
1443708016856507963	-0.9024811	8.310577	-0.59739685
1443708016864900297	-0.9446411	8.182724	-0.017074585
1443708016873292631	-1.2170258	8.252762	0.5983734
1443708016881684965	-2.2062988	8.297165	1.8177185
1443708016890077299	-1.7603302	8.293961	1.7091064
1443708016898469633	-1.2790222	8.190292	1.6327515
1443708016906861967	-0.81718445	8.048325	1.3759308
1443708016915254301	-0.68551636	8.216217	1.0101013
1443708016923646635	-0.77989197	8.332275	0.7693634
1443708016932038969	-0.8827057	8.356689	0.35681152
1443708016940431303	-0.8608246	8.221161	-0.43840027
1443708016948823637	-0.66534424	8.212402	-1.0443268
1443708016957215971	-0.6521759	8.406357	-0.9422455
1443708016965608305	-0.56248474	8.572144	-0.6136627
1443708016974000639	-0.4530182	8.731003	-0.2720642
1443708016982392973	-0.24494934	8.98967	0.08314514
1443708016990785307	-0.05000305	9.254013	0.33883667
1443708016999177641	0.27165222	9.347443	0.6608124
1443708017007569975	0.44580078	9.3493805	0.5162201
1443708017015962309	0.5729828	9.345978	0.26730347
1443708017024354643	0.7198181	9.43515	-0.19522095
1443708017032746977	1.0659485	9.709366	-0.54470825
1443708017041139311	1.3127899	10.093018	-0.6784668
1443708017049531645	1.4361725	10.522278	-0.7632904
1443708017057923979	1.7445068	11.07756	-0.4555359
1443708017066316313	1.7617493	11.511276	-0.03363037
1443708017074708647	1.7064819	11.487671	-0.32989502
1443708017083100981	1.7039795	11.091919	-0.5911865
1443708017091493315	1.7005005	10.653931	-0.8765106
1443708017099885649	1.6240082	10.00856	-1.8204803
1443708017108277983	1.6797333	9.869888	-2.059906
1443708017116670317	1.5054321	10.25386	-1.8174133
1443708017125062651	1.5356293	10.522476	-1.262207
1443708017133454985	1.2986603	11.283173	-0.8491211
1443708017141847319	0.7624359	12.531876	-0.19425964
1443708017150239652	0.25302124	13.230972	0.33351135
1443708017158631986	-0.061065674	13.422394	0.12675476
1443708017167024320	-0.19151306	13.423035	-0.18876648
1443708017175416654	0.060821533	12.800644	-0.22636414
1443708017183808988	0.36717224	12.242783	0.1464386
1443708017192201322	0.6414795	12.542236	1.1499939
1443708017200593656	0.9785919	12.851456	1.5806427
1443708017208985990	1.346878	13.135727	1.9468689
1443708017217378324	1.9478302	13.203476	1.9443359
1443708017225770658	2.1377106	13.244751	1.588562
1443708017234162992	1.9476471	13.274826	1.0202484
1443708017242555326	1.6963959	13.022919	0.2266388
1443708017250947660	1.2240753	12.470703	-0.6629181
1443708017259339994	0.18397522	11.389999	-1.1784058
1443708017267732328	-1.2861633	9.693405	-1.0912933
1443708017276124662	-2.0175018	8.494873	-0.6194763
1443708017284516996	-2.2681122	7.780304	0.023788452
1443708017292909330	-2.952774	8.025848	1.0965729
1443708017301301664	-3.629425	10.166473	2.4856415
1443708017309693998	-4.0090637	14.765198	2.2584991
1443708017318086332	-4.0066223	16.978546	1.7863007
1443708017326478666	-4.1296844	19.109497	1.2249146
1443708017334871000	-5.4861145	20.31746	0.02859497
1443708017343263334	-7.157501	18.362732	-0.87875366
1443708017351655668	-6.130188	15.333893	-0.7220459
1443708017360048002	-5.166916	13.613007	-0.36283875
1443708017368440336	-4.2967987	11.749222	0.41267395
1443708017376832670	-3.9892883	10.715607	1.6434021
1443708017385225004	-4.0585175	10.163162	2.701294
1443708017393617338	-3.586502	11.294296	0.93452454
1443708017402009672	-2.8603668	13.345474	-2.134552
1443708017410402006	-2.4754944	12.870605	-4.8937683
1443708017418794340	-1.8355865	10.974533	-2.4730988
1443708017427186674	0.68211365	9.999268	2.8993073
1443708017435579008	-0.12049866	9.84375	3.020111
1443708017443971342	-1.1475525	9.600845	2.97435
1443708017452363676	-2.3807678	8.757797	1.6958313
1443708017460756010	-0.1385498	7.566025	-0.50450134
1443708017469148344	1.592514	6.8063965	-1.3541718
1443708017477540678	1.6162872	6.276886	-1.0283661
1443708017485933012	1.5754242	5.282257	-0.783432
1443708017494325346	1.3864136	4.1921387	-0.43673706
1443708017502717680	1.5588531	3.9184265	-0.08677673
1443708017511110014	1.6777344	3.8118744	-0.0033569336
1443708017519502348	1.6802979	3.6499329	0.0017852783
1443708017527894682	1.8348694	3.169754	-0.03024292
1443708017536287016	1.6542816	2.8253784	-0.094833374
1443708017544679350	1.6775513	2.6873474	0.15196228
1443708017553071684	1.5824432	2.5357056	0.25219727
1443708017561464018	1.4091034	2.3201904	0.44152832
1443708017569856352	0.81903076	1.8785248	1.1247559
1443708017578248686	0.030593872	1.5624542	2.0131378
1443708017586641020	-0.47705078	1.4008942	2.4324188
1443708017595033354	-0.77201843	1.3841858	2.6072083
1443708017603425688	-1.047821	1.4740143	2.5960693
1443708017611818022	-1.1095734	1.4584503	2.6475525
1443708017620210356	-1.0055542	1.4350433	2.6944122
1443708017628602690	-0.8828125	1.4665222	2.6732025
1443708017636995024	-0.8951874	1.7919159	2.9732513
1443708017645387358	-1.2819824	2.205429	3.316162
1443708017653779692	-0.96113586	2.8026886	3.55336
1443708017662172026	-0.9193573	3.4626617	3.735855
1443708017670564360	-0.8600311	4.472458	3.9343414
1443708017678956694	-0.6319885	7.6128235	4.361374
1443708017687349027	-0.108688354	12.397797	5.464981
1443708017695741361	0.3833313	17.724136	6.3977814
1443708017704133695	0.68536377	21.946045	6.285965
1443708017712526029	1.4447327	26.810455	6.704117
1443708017720918363	2.1204987	28.17775	7.9810944
1443708017729310697	2.434311	25.075073	8.396225
1443708017737703031	2.668335	21.93782	8.161545
1443708017746095365	2.8662567	19.103302	7.9102936
1443708017754487699	2.9543457	11.722488	8.081314
1443708017762880033	2.4848328	6.561615	8.156845
1443708017771272367	2.7992096	4.7878876	7.4738617
1443708017779664701	3.2618866	3.1878052	7.0047607
1443708017788057035	3.6186676	1.6226807	6.4238434
1443708017796449369	3.326355	0.67533875	5.3652344
1443708017804841703	2.1003723	1.4499664	4.081848
1443708017813234037	0.67658997	2.943985	3.0984497
1443708017821626371	-0.12023926	4.2780304	2.9564362
1443708017830018705	-0.75723267	8.067749	3.1561737
1443708017838411039	-1.8289032	14.776627	3.28685
1443708017846803373	-3.6908112	20.034943	2.8661194
1443708017855195707	-4.655075	21.183456	2.362091
1443708017863588041	-5.258484	21.28563	1.8807831
1443708017871980375	-5.1800385	18.606018	3.1301422
1443708017880372709	-5.0633087	13.795105	4.9364014
1443708017888765043	-4.0861053	8.988083	3.2075348
1443708017897157377	-2.8805847	6.928543	1.1338501
1443708017905549711	-1.515274	4.8831177	-0.8913727
1443708017913942045	-1.1490479	3.6633759	-2.0903473
1443708017922334379	-3.697464	4.898926	-1.7476959
1443708017930726713	-4.4974365	6.6081696	-1.6907196
1443708017939119047	-4.216614	7.4840393	-2.0312958
1443708017947511381	-4.506714	8.162872	-3.6243744
1443708017955903715	-4.925232	8.189789	-5.477707
1443708017964296049	-3.7860107	7.7329865	-5.8033905
1443708017972688383	-2.7620544	7.9282074	-4.458557
1443708017981080717	-1.9151001	8.31955	-2.7903595
1443708017989473051	-0.38529968	10.136826	-1.6322174
1443708017997865385	2.8811035	11.697403	-2.4220734
1443708018006257719	5.5230865	12.52388	-3.0079193
1443708018014650053	6.542267	12.491104	-2.7078247
1443708018023042387	6.45697	12.301819	-2.1120758
1443708018031434721	3.1584625	11.793182	-0.9370117
1443708018039827055	0.73553467	11.274063	-0.72280884
1443708018048219389	0.39424133	10.802963	-1.1315155
1443708018056611723	0.14682007	10.693069	-1.3480682
1443708018065004057	-0.6022949	10.576431	-1.5213318
1443708018073396391	-1.0094452	10.186218	-1.6704865
1443708018081788725	-1.738205	9.506226	-0.9916687
1443708018090181059	-1.9739075	8.929916	-0.6329498
1443708018098573393	-2.0632324	8.386917	-0.39839172
1443708018106965727	-2.4618835	7.5727997	0.61383057
1443708018115358061	-2.5153198	7.4335785	1.4107056
1443708018123750395	-2.2835693	7.6406555	2.3035583
1443708018132142729	-2.286789	7.7299805	2.2842712
1443708018140535063	-2.1265411	7.8655853	2.2550507
1443708018148927397	-1.6786499	8.053116	2.16185
1443708018157319731	-1.408081	8.015091	1.5986786
1443708018165712065	-1.3359528	7.881012	0.896698
1443708018174104399	-1.3925018	7.8199615	0.529129
1443708018182496733	-1.3750305	7.9368286	-0.02519226
1443708018190889067	-0.89346313	8.190384	-0.24932861
1443708018199281401	-0.60920715	8.521408	-0.25064087
1443708018207673735	-0.45776367	8.700607	-0.15122986
1443708018216066069	-0.31253052	8.852921	-0.038131714
1443708018224458402	-0.15893555	8.921082	-0.27241516
1443708018232850736	0.09283447	9.075851	-0.57058716
1443708018241243070	0.5150604	8.828537	-0.22912598
1443708018249635404	0.7039795	8.716721	-0.16937256
1443708018258027738	0.9310913	8.597809	-0.17597961
1443708018266420072	1.2332001	8.597031	-0.32913208
1443708018274812406	1.4091797	9.0151825	-0.5756531
1443708018283204740	1.4695435	9.662674	-0.8166504
1443708018291597074	1.5485687	10.294357	-0.997879
1443708018299989408	2.0489502	11.335831	-1.3033905
1443708018308381742	2.2162476	12.183594	-1.5404968
1443708018316774076	1.818161	12.180283	-1.1587524
1443708018325166410	1.5112305	11.8684845	-0.65867615
1443708018333558744	1.2200317	11.521942	-0.14324951
1443708018341951078	0.8407135	10.798416	0.6369324
1443708018350343412	0.59336853	10.712494	0.23899841
1443708018358735746	0.328537	10.888916	0.11376953
1443708018367128080	0.1312561	11.329742	0.054656982
1443708018375520414	-0.10258484	11.959991	0.10986328
1443708018383912748	-0.27565002	12.642502	0.12998962
1443708018392305082	-0.16964722	12.798676	-0.29180908
1443708018400697416	0.011428833	12.658447	-0.6283264
1443708018409089750	0.15922546	12.450882	-0.79348755
1443708018417482084	0.43974304	12.550369	-1.4161682
1443708018425874418	0.7854004	13.18158	-1.2114868
1443708018434266752	1.1027222	13.95932	0.017196655
1443708018442659086	1.302124	14.067078	0.43034363
1443708018451051420	1.5066986	14.107498	0.72906494
1443708018459443754	1.7931824	13.961761	0.4186554
1443708018467836088	1.5139313	14.354645	0.32147217
1443708018476228422	1.1277008	14.91391	0.46662903
1443708018484620756	0.96447754	14.730118	0.043151855
1443708018493013090	0.6416321	13.616547	-1.208252
1443708018501405424	-0.021652222	11.2030945	-2.8945465
1443708018509797758	-0.9038696	9.252838	-2.7458954
1443708018518190092	-1.4477692	8.275223	-1.9728546
1443708018526582426	-1.7440186	7.6557465	-1.3418274
1443708018534974760	-2.0888367	7.6575317	-0.0178833
1443708018543367094	-2.7194672	9.904297	1.705658
1443708018551759428	-3.9156036	14.6032715	3.334259
1443708018560151762	-4.1229706	16.531433	3.2121277
1443708018568544096	-4.436722	18.254608	2.7945251
1443708018576936430	-5.9408264	18.632294	0.3764801
1443708018585328764	-7.0296326	16.773193	-1.6519928
1443708018593721098	-5.9796295	14.255524	-1.9628906
1443708018602113432	-5.0407867	12.779465	-1.4931488
1443708018610505766	-4.2377777	11.053665	-0.30574036
1443708018618898100	-3.860199	9.809509	1.072586
1443708018627290434	-3.4037323	9.963272	1.1905823
1443708018635682768	-2.4853058	10.461151	1.0172272
1443708018644075102	-1.4423676	10.893631	0.9234009
1443708018652467436	1.4672241	11.594971	0.56741333
1443708018660859770	1.1284485	11.84079	-0.11886597
1443708018669252104	-0.030563354	11.696426	-1.1426697
1443708018677644438	0.08189392	11.154709	-1.342514
1443708018686036772	0.2654724	10.380722	-1.4615173
1443708018694429106	0.6063843	8.410889	-1.0975189
1443708018702821440	0.20568848	7.3196716	-0.8460388
1443708018711213774	0.34127808	6.887192	-0.952713
1443708018719606108	0.89727783	6.43277	-1.203598
1443708018727998442	1.7670746	6.111664	-0.8647461
1443708018736390776	2.2042084	5.947769	-0.85009766
1443708018744783110	2.2403412	5.828842	-1.181961
1443708018753175444	2.1143951	5.742096	-1.1896667
1443708018761567777	2.1826935	5.383667	-1.4084015
1443708018769960111	1.7853699	4.529007	-0.8215637
1443708018778352445	0.69311523	3.639923	-0.09249878
1443708018786744779	0.5986023	3.3687897	0.15393066
1443708018795137113	0.49656677	3.116211	0.37754822
1443708018803529447	0.0952301	2.8763428	0.54100037
1443708018811921781	-0.43469238	2.6022644	0.8212738
1443708018820314115	-0.97236633	2.344757	1.140625
1443708018828706449	-1.3444519	2.1327057	1.3957367
1443708018837098783	-1.8946381	1.9648132	1.6434937
1443708018845491117	-2.4250793	1.8416901	1.7897034
1443708018853883451	-2.6125183	1.7034607	1.9308472
1443708018862275785	-2.5592499	1.6540222	2.0885773
1443708018870668119	-2.431366	1.6520844	2.228012
1443708018879060453	-1.8970642	1.7518921	2.4051514
1443708018887452787	-1.6111603	2.2085724	2.841629
1443708018895845121	-1.8279114	3.016388	3.1785126
1443708018904237455	-1.6749725	3.5266266	3.4599762
1443708018912629789	-1.5710907	4.1408997	3.867508
1443708018921022123	-1.7370758	5.532654	5.023514
1443708018929414457	-1.8173981	7.9975433	6.1213074
1443708018937806791	-1.8013306	11.56691	6.7070465
1443708018946199125	-1.8328094	15.27153	7.092621
1443708018954591459	-1.5995789	23.576248	6.7516937
1443708018962983793	-1.0255127	33.87912	7.5806427
1443708018971376127	2.480011	33.579025	9.742172
1443708018979768461	4.7128296	28.666656	10.634384
1443708018988160795	5.6953735	23.893402	11.023804
1443708018996553129	7.2322693	14.011597	9.174179
1443708019004945463	7.720413	6.5894012	7.053482
1443708019013337797	7.509598	3.878006	6.0253754
1443708019021730131	6.5983887	2.4559174	5.749069
1443708019030122465	5.666916	0.96006775	5.4246063
1443708019038514799	4.5231323	-0.4407196	4.6037292
1443708019046907133	2.8733978	-0.146698	3.02948
1443708019055299467	1.3794708	1.0216675	2.2579498
1443708019063691801	0.59420776	2.031189	2.4655151
1443708019072084135	-0.8317566	4.4889526	2.5656128
1443708019080476469	-2.2917633	10.482651	2.9239197
1443708019088868803	-3.917282	18.207565	3.0971832
1443708019097261137	-4.600937	21.715302	2.6976929
1443708019105653471	-4.859253	23.687454	2.1688385
1443708019114045805	-5.169403	23.016708	3.0078735
1443708019122438139	-4.719589	17.325119	4.819458
1443708019130830473	-2.930603	10.237061	2.019516
1443708019139222807	-2.6626282	8.075989	1.7740326
1443708019147615141	-2.804184	5.556137	1.3267212
1443708019156007475	-4.581711	2.9628296	0.103271484
1443708019164399809	-5.618408	3.944107	-0.8474121
1443708019172792143	-5.1956177	5.652466	-1.0111694
1443708019181184477	-5.732193	6.7063446	-1.1654053
1443708019189576811	-6.552002	7.362137	-2.8805542
1443708019197969145	-6.845276	7.1957703	-5.0012665
1443708019206361479	-6.224594	7.0966644	-5.1918488
1443708019214753813	-5.124237	7.21257	-4.283066
1443708019223146147	-3.9437714	7.346863	-3.2343445
1443708019231538481	-1.7327881	8.489395	-0.4905548
1443708019239930815	-0.07899475	10.184326	-1.1147461
1443708019248323149	2.119278	11.515228	-3.9766083
1443708019256715483	3.341507	11.946411	-4.2349396
1443708019265107817	4.313553	12.329987	-3.7894745
1443708019273500151	3.7726288	12.572113	-1.7559509
1443708019281892485	2.0634155	12.542389	-0.88772583
1443708019290284819	1.4764099	12.0550995	-0.6611481
1443708019298677152	1.3665161	11.501175	-0.69392395
1443708019307069486	1.4137268	10.818466	-1.1615295
1443708019315461820	1.9592133	10.38147	-2.0642395
1443708019323854154	1.3917236	10.198593	-2.131134
1443708019332246488	0.8400116	9.970062	-1.6431427
1443708019340638822	0.3979187	9.723297	-1.0995026
1443708019349031156	0.9575043	8.807007	-0.019744873
1443708019357423490	0.054397583	8.10376	1.1211243
1443708019365815824	-0.87986755	7.89299	2.0970764
1443708019374208158	-0.9884796	7.8139496	2.278305
1443708019382600492	-1.2270966	7.804001	2.4470215
1443708019390992826	-1.4486237	7.8618317	2.5138702
1443708019399385160	-1.1941833	7.794342	1.9992523
1443708019407777494	-1.2507477	7.764374	1.0632935
1443708019416169828	-1.4872284	7.712326	0.3018036
1443708019424562162	-1.7039642	7.4739685	-0.5801697
1443708019432954496	-1.738266	7.2784424	-1.0733643
1443708019441346830	-1.613266	7.6835785	-0.8641815
1443708019449739164	-1.444931	8.187653	-0.48258972
1443708019458131498	-1.2733612	8.681808	-0.09638977
1443708019466523832	-0.85972595	9.61795	0.09199524
1443708019474916166	-0.47660828	10.33194	0.80311584
1443708019483308500	0.18598938	10.569519	1.2799835
1443708019491700834	0.18406677	10.698685	0.9927521
1443708019500093168	0.78923035	10.688568	0.7291107
1443708019508485502	1.9659729	10.492447	0.42991638
1443708019516877836	1.7638702	10.591675	0.18786621
1443708019525270170	2.5638885	10.818939	0.12281799
1443708019533662504	4.607376	11.008514	0.03286743
1443708019542054838	6.3839874	11.212418	-0.6473236
1443708019550447172	5.690445	10.797577	-1.1529541
1443708019558839506	4.226349	10.35022	-1.0796051
1443708019567231840	3.3583221	10.2717285	-1.0354462
1443708019575624174	2.5664673	10.236343	-0.99546814
1443708019584016508	1.6977844	10.212509	-0.39831543
1443708019592408842	0.65763855	10.477676	0.021347046
1443708019600801176	-0.4870758	11.408203	-0.55236816
1443708019609193510	-0.9773712	11.84581	-0.7342224
1443708019617585844	-1.4811401	12.263367	-0.91537476
1443708019625978178	-1.8532867	12.725418	-1.466568
1443708019634370512	-1.8364716	13.145416	-2.1452026
1443708019642762846	-1.6291504	13.377426	-2.2179718
1443708019651155180	-1.4177399	13.574692	-2.0971527
1443708019659547514	-0.897171	13.844803	-1.3369751
1443708019667939848	-0.0771637	13.935257	-0.6235504
1443708019676332182	0.34161377	13.973953	-0.4100952
1443708019684724516	0.6815491	14.013794	-0.2693634
1443708019693116850	0.91423035	14.049149	0.4090271
1443708019701509184	0.7437744	13.961578	0.76530457
1443708019709901518	0.1825409	13.798233	0.43962097
1443708019718293852	-0.44013977	13.581665	0.45376587
1443708019726686186	-1.2075195	12.7126465	0.2929077
1443708019735078520	-1.6925507	10.508942	-0.6792908
1443708019743470854	-1.3941956	8.628738	-1.3279877
1443708019751863188	-1.3763885	8.043945	-0.6045685
1443708019760255522	-1.540268	8.198166	0.32850647
1443708019768647856	-2.0226746	10.606277	2.5890808
1443708019777040190	-2.2612305	15.1388855	4.8668823
1443708019785432524	-3.1071472	18.553558	4.388077
1443708019793824858	-4.9965057	18.667786	2.0818634
1443708019802217192	-6.99675	18.323654	-0.44877625
1443708019810609526	-8.768478	14.917236	-5.1274567
1443708019819001860	-8.534805	11.975525	-6.1319275
1443708019827394194	-7.7706757	10.441132	-3.921814
1443708019835786527	-7.224457	9.970749	-2.2979584
1443708019844178861	-6.0957184	9.724411	-0.42884827
1443708019852571195	-4.4002686	10.027725	1.2489166
1443708019860963529	-3.2894287	10.461899	1.5713806
1443708019869355863	-2.478302	10.462936	1.553772
1443708019877748197	-1.8517609	10.207825	1.6977234
1443708019886140531	-1.5101776	9.664078	1.6418762
1443708019894532865	-1.5872803	9.071671	1.7027588
1443708019902925199	-0.53215027	8.32695	1.1208496
1443708019911317533	-0.070739746	8.054779	0.99375916
1443708019919709867	0.38154602	7.7836914	0.9407654
1443708019928102201	1.4930573	6.892227	1.251358
1443708019936494535	1.439331	6.055313	1.294281
1443708019944886869	2.031784	5.660263	1.3989868
1443708019953279203	2.1005402	5.351166	1.5821228
1443708019961671537	2.0523224	4.9208984	1.7414551
1443708019970063871	1.8883209	4.30632	1.6261292
1443708019978456205	1.6454163	3.6815948	1.1390381
1443708019986848539	1.4424438	3.2823792	0.6243744
1443708019995240873	1.3370514	3.0253296	0.14884949
1443708020003633207	1.4319305	2.6454315	-0.138031
1443708020012025541	1.0496826	2.3561401	-0.16015625
1443708020020417875	1.0271912	2.1032562	0.21092224
1443708020028810209	1.0422058	1.9525299	0.46806335
1443708020037202543	1.0364075	1.7932739	0.73812866
1443708020045594877	0.8304901	1.5257721	1.1834259
1443708020053987211	0.5245514	1.3337402	1.6239319
1443708020062379545	0.24961853	1.2771301	2.0257568
1443708020070771879	0.15901184	1.2964172	2.2570953
1443708020079164213	0.09434509	1.4160461	2.634964
1443708020087556547	0.1373291	1.6503143	3.3330078
1443708020095948881	-0.11842346	2.1124725	4.092636
1443708020104341215	-0.25205994	2.7711792	4.53273
1443708020112733549	-0.17752075	3.443344	4.8276825
1443708020121125883	0.119125366	5.1671753	5.638336
1443708020129518217	0.29644775	8.45372	7.136078
1443708020137910551	0.761261	12.574142	8.638794
1443708020146302885	0.25849915	15.229126	8.742844
1443708020154695219	-0.5800476	18.662506	8.866531
1443708020163087553	-2.8779755	26.656372	9.339783
1443708020171479887	-1.6778259	30.032364	9.917084
1443708020179872221	0.91374207	26.104568	8.823257
1443708020188264555	1.8236694	22.14421	7.8034515
1443708020196656889	1.5756836	16.694336	7.0239105
1443708020205049223	0.39718628	11.009064	7.220978
1443708020213441557	0.18861389	7.537674	7.470749
1443708020221833891	0.26994324	5.9831543	7.1428986
1443708020230226225	0.28536987	4.996765	6.7027283
1443708020238618559	0.35595703	3.0879364	5.7358093
1443708020247010893	0.49339294	1.7106476	4.257431
1443708020255403227	0.42015076	1.8493805	2.6062622
1443708020263795561	-0.003982544	2.7348785	1.9578705
1443708020272187895	-0.4827881	4.162491	1.4055786
1443708020280580229	-1.4705963	8.522491	1.4376068
1443708020288972563	-3.5247955	13.08194	1.8199005
1443708020297364897	-5.327759	14.934174	2.2150116
1443708020305757231	-5.6342773	15.1237335	2.718811
1443708020314149565	-5.4135437	14.651337	3.9585876
1443708020322541899	-4.7275696	12.9991	4.80719
1443708020330934233	-4.0870667	10.437332	4.0646515
1443708020339326567	-3.8946686	8.575668	3.3302002
1443708020347718901	-3.8683167	7.0848236	2.7653503
1443708020356111235	-3.3695831	5.527542	1.2629089
1443708020364503569	-2.397873	5.8941956	-2.020584
1443708020372895902	-3.51799	6.773834	-1.2528534
1443708020381288236	-4.093109	7.2281494	-0.66937256
1443708020389680570	-4.5120087	7.8650665	-0.21162415
1443708020398072904	-4.3472137	9.322937	-0.56329346
1443708020406465238	-4.103256	11.008438	-1.6829071
1443708020414857572	-3.6200562	12.078796	-2.169342
1443708020423249906	-3.1079102	12.529907	-2.0086975
1443708020431642240	-1.6875458	12.837509	-1.5972748
1443708020440034574	0.60040283	12.587067	-0.9102173
1443708020448426908	2.6769104	12.037659	-0.3130188
1443708020456819242	3.5429077	11.552399	-0.1078949
1443708020465211576	4.0679016	11.091644	-0.0076446533
1443708020473603910	4.450348	10.094696	-0.18330383
1443708020481996244	3.6105042	9.574112	-0.6720123
1443708020490388578	2.9595032	9.26503	-0.9771881
1443708020498780912	2.9241638	9.179565	-0.85124207
1443708020507173246	2.7270966	9.113358	-0.6344757
1443708020515565580	1.8563232	9.202591	-0.043792725
1443708020523957914	0.79289246	9.477509	0.5067749
1443708020532350248	0.35069275	9.568115	0.65615845
1443708020540742582	0.3012085	9.4826355	0.79496765
1443708020549134916	7.4768066E-4	9.114395	0.58625793
1443708020557527250	-0.56274414	8.669022	-0.07463074
1443708020565919584	-1.3495331	8.386978	0.17715454
1443708020574311918	-1.6026306	8.222626	0.43130493
1443708020582704252	-1.7022247	8.078674	0.58810425
1443708020591096586	-2.458191	8.100037	1.3770142
1443708020599488920	-1.9652252	8.005768	1.6338196
1443708020607881254	-1.8726959	7.8566895	1.7237854
1443708020616273588	-1.8365479	7.70842	1.8126678
1443708020624665922	-2.0476837	7.6358795	1.8586273
1443708020633058256	-2.2616425	7.756546	1.6803741
1443708020641450590	-2.3509674	7.8977814	1.3499298
1443708020649842924	-2.5019684	8.051361	1.1301575
1443708020658235258	-2.430252	8.354034	0.78167725
1443708020666627592	-2.081253	8.780411	0.27912903
1443708020675019926	-1.4502869	8.983841	0.05908203
1443708020683412260	-0.72354126	9.087936	0.01902771
1443708020691804594	-0.34950256	9.095718	-0.0036773682
1443708020700196928	-0.046188354	9.084152	-0.025527954
1443708020708589262	0.28190613	9.106247	0.0143585205
1443708020716981596	0.6170044	9.180923	0.11558533
1443708020725373930	0.7917938	9.193787	0.09887695
1443708020733766264	0.8448639	9.38237	-0.032562256
1443708020742158598	0.8262634	9.919327	-0.37376404
1443708020750550932	1.3335571	10.01236	-0.6538696
1443708020758943266	1.6546783	10.010834	-1.0015717
1443708020767335600	1.9817657	9.973572	-0.97073364
1443708020775727934	2.2467651	10.00943	-1.0259705
1443708020784120268	2.217331	10.152527	-1.0791016
1443708020792512602	1.5745544	10.218597	-0.72050476
1443708020800904936	1.01651	10.1736145	-0.50665283
1443708020809297270	0.52427673	10.1106415	-0.36398315
1443708020817689604	-0.35394287	10.496475	-0.52204895
1443708020826081938	-0.64146423	10.801651	-0.7368927
1443708020834474272	-1.0929718	11.243851	-0.6160431
1443708020842866606	-0.88990784	11.354385	-0.5177307
1443708020851258940	-0.6985016	11.630417	-0.2960205
1443708020859651274	-0.3865204	12.149445	0.4526825
1443708020868043608	0.22738647	12.202621	1.3118896
1443708020876435942	0.7448883	12.244461	1.5197906
1443708020884828276	1.1246643	12.480286	1.4568176
1443708020893220610	1.8799896	12.885513	1.6380157
1443708020901612944	2.7454987	12.847717	2.0098267
1443708020910005277	3.3508759	12.433258	2.1542969
1443708020918397611	3.703308	12.207367	1.938324
1443708020926789945	4.018814	12.026794	1.6665039
1443708020935182279	4.4071198	12.170929	0.76538086
1443708020943574613	4.564041	12.908844	0.40957642
1443708020951966947	4.457489	13.9049835	0.6752777
1443708020960359281	4.2531433	14.508392	0.40730286
1443708020968751615	3.9727173	15.063889	-0.43417358
1443708020977143949	3.3515778	15.003998	-2.380844
1443708020985536283	2.3763428	13.536545	-3.235382
1443708020993928617	1.4875641	11.804367	-2.8797607
1443708021002320951	0.7537079	10.472244	-2.4080963
1443708021010713285	-0.48217773	8.877136	-1.5635376
1443708021019105619	-1.5144806	7.9947357	-0.39933777
1443708021027497953	-2.4098663	8.688065	1.1131592
1443708021035890287	-3.1073914	10.716431	1.7423553
1443708021044282621	-3.789505	12.943848	2.1969604
1443708021052674955	-5.8126373	19.28659	-0.590744
1443708021061067289	-8.138214	20.493622	-3.7973022
1443708021069459623	-9.625122	17.755692	-4.743271
1443708021077851957	-9.2234955	15.596542	-4.160431
1443708021086244291	-7.8882294	12.944138	-2.853714
1443708021094636625	-5.25383	10.224838	-0.31396484
1443708021103028959	-3.5451965	9.579346	1.5609436
1443708021111421293	-2.4041595	10.044296	2.2649994
1443708021119813627	-1.3837128	10.608505	2.509201
1443708021128205961	0.55314636	11.845581	2.5432281
1443708021136598295	1.1405487	12.909821	2.468155
1443708021144990629	0.32383728	13.303345	1.7977448
1443708021153382963	0.34521484	12.85202	1.128952
1443708021161775297	0.42945862	12.285233	0.48205566
1443708021170167631	-0.21817017	10.87468	0.13609314
1443708021178559965	-0.40405273	9.283798	0.396698
1443708021186952299	0.028442383	7.8159027	0.3984375
1443708021195344633	-0.6437378	7.5819855	0.6047058
1443708021203736967	-0.83891296	7.172943	0.7759094
1443708021212129301	-0.34701538	6.732849	0.72013855
1443708021220521635	0.23826599	6.7141266	-0.31066895
1443708021228913969	0.44441223	6.7841797	-1.0431061
1443708021237306303	0.30818176	6.8298035	-1.1208496
1443708021245698637	1.0580444	6.2829437	-0.70954895
1443708021254090971	1.7922668	5.20018	-0.20362854
1443708021262483305	1.0083008	4.7615967	-0.3439026
1443708021270875639	0.57473755	4.6575623	-0.72332764
1443708021279267973	0.16156006	4.5523834	-1.0512695
1443708021287660307	-0.33425903	4.268799	-0.7355957
1443708021296052641	-0.6443176	3.9023285	-0.40434265
1443708021304444975	-1.0987549	3.6511383	0.20515442
1443708021312837309	-1.4078674	3.4956207	0.60549927
1443708021321229643	-1.693512	3.3450775	1.3739471
1443708021329621977	-1.9620667	3.2773285	2.617447
1443708021338014311	-2.0554962	3.2749023	3.588501
1443708021346406645	-2.0045319	3.2637634	4.363037
1443708021354798979	-1.9535522	3.2526245	5.1375885
1443708021363191313	-2.1958923	3.537796	6.669037
1443708021371583647	-1.9034271	3.8040466	8.017426
1443708021379975981	-1.4631805	4.558731	9.173767
1443708021388368315	-1.1819305	5.4648285	9.864624
1443708021396760649	-0.8371277	6.500458	10.531799
1443708021405152983	-0.17346191	8.678284	11.112762
1443708021413545317	0.4065857	11.1775055	11.429916
1443708021421937651	1.9934692	11.824432	10.912659
1443708021430329985	1.8598175	11.991501	10.890808
1443708021438722319	1.9851837	11.678238	10.432266
1443708021447114652	2.647766	10.451233	9.316956
1443708021455506986	3.3996582	8.837616	8.226257
1443708021463899320	3.5457153	7.981201	7.669342
1443708021472291654	3.4351807	7.5159607	7.32106
1443708021480683988	5.0161285	5.702118	6.838318
1443708021489076322	4.624344	4.3112183	6.614914
1443708021497468656	4.3973846	3.5828094	6.591446
1443708021505860990	4.114624	3.2589417	6.540039
1443708021514253324	3.7836456	2.8818207	6.468933
1443708021522645658	3.199417	2.0858154	6.3680725
1443708021531037992	2.3623505	1.0369873	6.3657227
1443708021539430326	1.1137085	0.7321625	5.919174
1443708021547822660	0.30467224	0.8947449	5.3838806
1443708021556214994	-1.9242096	2.0695496	4.0472565
1443708021564607328	-3.7811127	5.608139	2.4331055
1443708021572999662	-4.2875366	13.179352	3.469452
1443708021581391996	-4.1659546	20.608093	5.1474915
1443708021589784330	-3.7893982	27.283463	6.5670013
1443708021598176664	-7.4135284	33.35446	4.223755
1443708021606568998	-9.943939	25.055557	1.0962372
1443708021614961332	-6.892441	12.796127	-3.5275726
1443708021623353666	-5.9863586	10.007874	-4.17659
1443708021631746000	-5.0639343	7.563797	-4.2819366
1443708021640138334	-3.868454	6.8752747	-2.2902985
1443708021648530668	-2.3713226	6.9915314	-1.3098602
1443708021656923002	-1.8968201	6.9465485	-1.36409
1443708021665315336	-2.1217346	6.903488	-1.445694
1443708021673707670	-2.3680725	6.7431946	-1.6238098
1443708021682100004	-1.6104126	6.232559	-2.2577667
1443708021690492338	-0.5514221	6.0663147	-2.6927032
1443708021698884672	0.33535767	6.1421356	-2.916977
1443708021707277006	1.1604004	6.9392395	-1.9190369
1443708021715669340	2.374527	8.337799	-1.2799377
1443708021724061674	4.178772	10.203857	-2.3279114
1443708021732454008	4.617035	10.926147	-2.1569824
1443708021740846342	4.90271	11.60257	-1.88591
1443708021749238676	4.0069427	11.878098	-1.0178375
1443708021757631010	2.0046844	11.401169	-0.15332031
1443708021766023344	0.8839874	10.61702	0.073516846
1443708021774415678	0.57810974	10.169128	0.1885376
1443708021782808012	-0.0012512207	9.811203	0.1817627
1443708021791200346	-0.9183502	9.745102	-0.23587036
1443708021799592680	-1.7186432	9.752182	-0.50549316
1443708021807985014	-1.7957611	9.610855	-0.4046173
1443708021816377348	-1.6190491	9.427063	-0.23561096
1443708021824769682	-1.1508942	9.067215	1.0286255
1443708021833162016	-0.431839	9.004028	2.2613068
1443708021841554350	0.34103394	8.577347	3.5784454
1443708021849946684	0.3879547	8.591492	3.5546722
1443708021858339018	0.3284912	8.638443	3.511078
1443708021866731352	-0.028137207	8.791336	3.363556
1443708021875123686	-0.2698822	8.78418	2.7335663
1443708021883516020	-0.86616516	8.551514	1.5519104
1443708021891908354	-1.2003174	8.225708	0.7872162
1443708021900300688	-1.6500702	7.7338257	-0.35977173
1443708021908693022	-2.2375946	7.5435486	-1.4720306
1443708021917085356	-2.191681	7.7851105	-2.0442505
1443708021925477690	-2.1115112	8.013657	-2.318985
1443708021933870024	-2.1237183	8.214142	-2.5432587
1443708021942262358	-1.7020416	8.702011	-2.2093353
1443708021950654692	-1.2332764	9.346725	-1.4230499
1443708021959047026	-0.90545654	9.952362	-0.9578552
1443708021967439360	-0.7737274	10.166992	-0.7393646
1443708021975831694	-0.5138397	10.461487	-0.66534424
1443708021984224027	0.26713562	11.017715	-0.96365356
1443708021992616361	1.2884216	11.332474	-0.6615753
1443708022001008695	2.022522	11.420792	-0.2212677
1443708022009401029	2.3643951	11.73439	-0.38191223
1443708022017793363	2.7471313	11.727707	-0.20223999
1443708022026185697	2.8493958	11.182083	-0.10202026
1443708022034578031	2.2559357	10.610931	-0.2697296
1443708022042970365	1.6911926	10.46907	-0.29159546
1443708022051362699	1.1912384	10.42923	-0.2639618
1443708022059755033	0.3446808	10.883209	-0.13246155
1443708022068147367	-0.34172058	11.656525	-0.28489685
1443708022076539701	-0.69277954	12.478989	-0.61157227
1443708022084932035	-0.7551117	12.806061	-0.88853455
1443708022093324369	-0.7657318	13.053085	-1.1504517
1443708022101716703	-0.5233612	12.934433	-1.1598358
1443708022110109037	-0.016204834	12.490143	-0.6367035
1443708022118501371	0.44091797	12.133942	-0.12782288
1443708022126893705	0.77186584	11.931534	0.17611694
1443708022135286039	1.3764801	11.663956	0.40621948
1443708022143678373	2.0894775	11.489044	0.26228333
1443708022152070707	2.6126251	11.684555	-0.20744324
1443708022160463041	2.7967834	12.017868	-0.25274658
1443708022168855375	2.918869	12.3591	-0.19361877
1443708022177247709	2.4471588	12.934616	0.5084381
1443708022185640043	2.0290833	13.071579	0.5534668
1443708022194032377	1.693924	12.749634	-0.014511108
1443708022202424711	1.4368744	12.578049	-0.34545898
1443708022210817045	0.9686432	12.391357	-0.71388245
1443708022219209379	0.58673096	11.735153	-1.1959686
1443708022227601713	0.25576782	10.331741	-1.8241119
1443708022235994047	-0.89138794	9.402405	-2.1324768
1443708022244386381	-1.7473297	8.94809	-2.0193787
1443708022252778715	-1.4120331	8.080933	-1.9782257
1443708022261171049	-1.4548035	7.673416	-1.5925598
1443708022269563383	-1.6415558	8.280212	-0.18067932
1443708022277955717	-1.8983917	9.469498	0.7046356
1443708022286348051	-2.1779175	10.721924	1.4641876
1443708022294740385	-3.1548615	14.339294	1.9243164
1443708022303132719	-4.205017	16.433502	0.98524475
1443708022311525053	-5.0588074	16.465912	-0.083114624
1443708022319917387	-5.7232666	15.856079	-0.43910217
1443708022328309721	-6.059555	14.859436	-0.73361206
1443708022336702055	-5.5099335	13.255295	-0.48719788
1443708022345094389	-4.8120728	11.955948	0.41177368
1443708022353486723	-4.5802917	11.183914	0.84391785
1443708022361879057	-4.539154	10.748886	0.8509979
1443708022370271391	-4.665848	10.4361725	0.55729675
1443708022378663725	-4.31192	10.245224	-0.25430298
1443708022387056059	-3.5674438	10.199707	-0.49908447
1443708022395448393	-3.2537231	10.1631775	-0.14736938
1443708022403840727	-3.0091248	10.1171875	0.25108337
1443708022412233061	-3.155182	9.785187	0.4864807
1443708022420625395	-3.204956	8.842636	0.91574097
1443708022429017729	-2.6421967	7.9685516	1.1440887
1443708022437410063	-2.0799103	7.7532654	1.2693939
1443708022445802397	-1.0804443	7.6859894	1.4143982
1443708022454194731	0.96380615	7.6246643	1.4009094
1443708022462587065	2.761139	7.1352234	1.1250305
1443708022470979399	3.3273163	6.799515	1.0707092
1443708022479371733	3.4526367	6.6619873	1.1908722
1443708022487741847	3.7355804	6.4054413	1.3133698
1443708022496134181	3.2871094	5.9893036	1.0536652
1443708022504526515	3.0614014	5.2365265	0.48558044
1443708022512918849	2.7442932	4.8174133	0.21012878
1443708022521311182	2.3681335	4.393402	-0.012664795
1443708022529703516	1.4884491	3.4942932	0.20037842
1443708022538095850	1.4769592	2.4988708	0.7548065
1443708022546488184	1.5061798	1.9188538	1.286438
1443708022554880518	1.1778107	1.7382813	1.6115875
1443708022563272852	0.59558105	1.4738007	2.0598145
1443708022571665186	-0.24325562	1.1324463	2.624054
1443708022580057520	-0.7935333	0.8575897	2.912033
1443708022588449854	-1.0229492	0.74679565	2.996048
1443708022596842188	-1.1456909	0.72494507	3.0615997
1443708022605234522	-1.1351013	0.7187195	3.0910034
1443708022613626856	-0.85969543	0.72062683	3.1729279
1443708022622019190	-1.3522186	1.0695038	3.210312
1443708022630411524	-1.197937	1.3737335	3.2728577
1443708022638803858	-1.0265808	1.7383423	3.3805847
1443708022647196192	-0.9774475	2.7020874	3.9006805
1443708022655588526	-1.212326	4.097824	4.560425
1443708022663980860	-1.5461731	5.8066254	5.0210266
1443708022672373194	-1.9330292	7.2826843	5.321762
1443708022680765528	-2.13443	10.457016	5.9412384
1443708022689157862	-2.140747	17.634796	6.100754
1443708022697550196	-2.1466827	23.550644	5.0757904
1443708022705942530	-2.1325378	27.340073	3.7706604
1443708022714334864	0.1463623	28.023972	6.0561676
1443708022722727198	3.496643	24.957962	9.725006
1443708022731119532	5.1974792	21.204178	11.461227
1443708022739511866	5.1467285	18.57164	11.02182
1443708022747904200	5.036484	15.772385	10.299667
1443708022756296534	5.4595947	10.098709	7.720093
1443708022764688868	5.661072	6.3826294	5.799225
1443708022773081202	5.638611	4.5934296	4.9872437
1443708022781473536	5.092407	3.8448029	5.018738
1443708022789865870	4.1474	3.0819244	5.030609
1443708022798258204	2.5836792	3.1772308	4.5736694
1443708022806650538	0.81547546	5.092346	3.6107025
1443708022815042872	-0.32429504	7.4931946	3.1263123
1443708022823435206	-1.0221558	9.75708	2.9483185
1443708022831827540	-2.9114838	13.872452	2.5009003
1443708022840219874	-5.2198944	17.804245	1.984024
1443708022848612208	-5.579666	20.583801	2.5153809
1443708022857004542	-4.6923676	19.524109	2.6221313
1443708022865396876	-3.7040558	17.841232	2.8680115
1443708022873789210	-2.4105835	12.079071	3.9267273
1443708022882181544	-2.1156158	7.0879364	2.124588
1443708022890573878	-1.2719879	3.9387665	-0.75032043
1443708022898966212	-0.7688446	2.643921	-0.936676
1443708022907358546	-2.3275604	2.2420044	0.18321228
1443708022915750880	-4.7729797	3.7353363	0.75942993
1443708022924143214	-4.965912	5.9384155	-0.4698639
1443708022932535548	-4.9318085	6.7065735	-1.7187958
1443708022940927882	-5.0654755	6.7554016	-3.0181427
1443708022949320216	-6.0473633	6.240799	-5.5153046
1443708022957712550	-6.0193787	6.8307495	-6.092499
1443708022966104884	-3.948639	8.033279	-3.8478851
1443708022974497218	-2.8240814	8.843597	-2.2561646
1443708022982889552	-1.601181	9.822632	-0.8228607
1443708022991281886	0.3708954	11.656647	-0.9534302
1443708022999674220	2.8374481	12.773254	-2.8123016
1443708023008066554	4.1603394	13.17041	-2.820694
1443708023016458888	4.002899	13.261017	-2.1652374
1443708023024851222	3.5353699	13.119141	-1.5041046
1443708023033243556	2.9276276	12.358292	-0.9738312
1443708023041635890	2.5844574	11.097626	-1.0247803
1443708023050028224	2.776291	10.396576	-1.3887329
1443708023058420557	3.1682892	9.989166	-1.7672272
1443708023066812891	3.0529175	9.7591095	-2.3375854
1443708023075205225	2.3611755	9.7313385	-1.5653381
1443708023083597559	2.3062897	9.325836	-0.61587524
1443708023091989893	2.0569763	9.032166	-0.20204163
1443708023100382227	1.6742096	8.674591	0.205719
1443708023108774561	0.7874298	8.070038	0.60354614
1443708023117166895	0.009216309	7.7480164	0.70462036
1443708023125559229	-0.8142395	7.8323364	0.21786499
1443708023133951563	-1.1104889	8.016769	-0.028259277
1443708023142343897	-1.437561	8.384506	-0.087005615
1443708023150736231	-1.7531738	8.6008	-0.022216797
1443708023159128565	-1.689148	8.360489	-0.40914917
1443708023167520899	-1.8251495	8.156174	-0.64460754
1443708023175913233	-2.0976105	8.009018	-0.748703
1443708023184305567	-2.402588	7.8781433	-0.62623596
1443708023192697901	-2.685913	8.311813	-0.41230774
1443708023201090235	-2.7518768	9.111771	-0.37924194
1443708023209482569	-2.6304169	9.356613	-0.27642822
1443708023217874903	-2.4490967	9.622894	-0.17642212
1443708023226267237	-1.9834747	9.835342	0.03981018
1443708023234659571	-1.249466	9.719406	0.48687744
1443708023243051905	-0.5153656	9.60997	0.65927124
1443708023251444239	-0.0134887695	9.519363	0.66185
1443708023259836573	0.8748474	9.392166	0.6311035
1443708023268228907	1.4817657	9.522903	0.26879883
1443708023276621241	2.3397522	10.075043	-0.29354858
1443708023285013575	2.7030182	10.49736	-0.68266296
1443708023293405909	2.8450317	10.848862	-1.017456
1443708023301798243	2.565857	11.134369	-1.3107758
1443708023310190577	1.9381561	10.991257	-1.0881653
1443708023318582911	1.5067444	10.752655	-0.7437134
1443708023326975245	1.4103546	10.566299	-0.7308502
1443708023335367579	1.2406921	10.359329	-0.7278137
1443708023343759913	0.82522583	10.261719	-0.763916
1443708023352152247	0.47125244	10.541473	-0.8126831
1443708023360544581	0.4119873	10.77771	-0.8651886
1443708023368936915	0.4678955	10.922287	-0.9384308
1443708023377329249	0.6321411	11.04953	-0.72792053
1443708023385721583	0.8084259	11.434357	-0.60684204
1443708023394113917	1.0479126	11.505432	-0.14727783
1443708023402506251	1.1896515	11.435684	-0.052093506
1443708023410898585	1.3001709	11.370148	-0.084228516
1443708023419290919	1.7545013	11.015335	0.2006836
1443708023427683253	2.0182495	10.749405	0.723999
1443708023436075587	1.8562622	10.841492	1.7501831
1443708023444467921	1.8151398	11.273315	1.8028717
1443708023452860255	1.7186737	11.743286	2.0406342
1443708023461252589	1.5433197	12.171112	2.4727173
1443708023469644923	1.4691467	12.29808	2.111908
1443708023478037257	1.2803192	12.266235	1.4882355
1443708023486429591	0.97380066	12.155701	1.0506134
1443708023494821925	0.5605469	12.315079	-0.5144043
1443708023503214259	-0.04425049	12.557938	-1.3238068
1443708023511606593	-1.283905	11.7469635	-0.812088
1443708023519998927	-1.800705	10.648682	-0.3282776
1443708023528391261	-2.1522217	9.552399	0.11062622
1443708023536783595	-2.526657	8.716309	0.47929382
1443708023545175929	-2.8327942	9.481491	1.1121979
1443708023553568263	-3.206787	10.372787	1.8248444
1443708023561960597	-3.4921875	11.809082	2.6717224
1443708023570352931	-3.4321747	14.909332	3.5357666
1443708023578745265	-4.124771	17.442337	2.9430237
1443708023587137599	-5.741852	17.722504	0.82089233
1443708023595529932	-5.9869843	16.605652	-0.7664032
1443708023603922266	-5.5435944	15.354492	-1.4237823
1443708023612314600	-4.5546417	13.3472595	-1.5308533
1443708023620706934	-3.939682	12.19635	-0.89445496
1443708023629099268	-3.5472717	11.471512	-0.09251404
1443708023637491602	-3.1548462	10.746658	0.70947266
1443708023645883936	-2.9063568	10.995636	1.1382904
1443708023654276270	-2.5990753	11.443726	1.8647614
1443708023662668604	0.95158386	11.134247	2.356079
1443708023671060938	0.9637909	11.041061	2.502594
1443708023679453272	0.38830566	10.933319	2.3924408
1443708023687845606	-0.87879944	10.370514	1.515686
1443708023696237940	-0.14047241	8.945663	0.6756897
1443708023704630274	0.9799652	8.020477	0.51187134
1443708023713022608	1.500473	7.756363	0.62561035
1443708023721414942	1.9749298	7.30101	0.7603302
1443708023729807276	2.3469086	6.794586	0.9961548
1443708023738199610	2.4964752	6.274353	0.78855896
1443708023746591944	2.398285	5.953186	0.5927582
1443708023754984278	2.2652588	5.6698	0.4237671
1443708023763376612	1.8647308	5.151306	0.12542725
1443708023771768946	1.5471954	4.7013702	-0.23597717
1443708023780161280	1.7536774	4.0727844	-0.6010437
1443708023788553614	1.7536774	3.729004	-0.85873413
1443708023796945948	1.7455902	3.404129	-1.0494385
1443708023805338282	1.5309601	3.0691986	-0.9962311
1443708023813730616	1.0135193	2.5568848	-0.42823792
1443708023822122950	0.67240906	2.1589508	0.21868896
1443708023830515284	0.49954224	1.9610138	0.59140015
1443708023838907618	0.29234314	1.65271	1.1822968
1443708023847299952	-0.2857666	1.4707184	2.0117188
1443708023855692286	-0.99642944	1.471344	2.4996033
1443708023864084620	-0.8222046	1.5950165	2.551239
1443708023872476954	-0.5473938	1.7370911	2.5601807
1443708023880869288	-0.93995667	2.1321106	2.722351
1443708023889261622	-0.66030884	2.4642487	3.0150604
1443708023897653956	-0.2747345	2.9154053	3.3531647
1443708023906046290	-0.3865509	3.3710022	3.6224213
1443708023914438624	-0.51724243	4.137909	3.9617615
1443708023922830958	-0.5873718	5.7602234	4.4807587
1443708023931223292	-0.63468933	8.29686	5.132324
1443708023939615626	-0.8656006	10.9622345	5.8506317
1443708023948007960	-1.1618347	13.359161	6.577423
1443708023956400294	-1.2799072	18.800858	7.2570343
1443708023964792628	0.7929535	24.238922	6.1089935
1443708023973184962	2.1098785	25.131897	6.6237183
1443708023981577296	2.505539	23.976822	6.986145
1443708023989969630	2.8323822	22.615005	7.274719
1443708023998361964	3.021515	19.656006	7.0795135
1443708024006754298	3.3322906	15.803604	6.6314545
1443708024015146632	3.8247223	11.835587	6.2436676
1443708024023538966	4.3567963	10.145538	6.002701
1443708024031931300	4.3618164	8.2308655	5.7951813
1443708024040323634	3.5340424	5.96669	5.8898315
1443708024048715968	3.051941	4.437729	5.7364807
1443708024057108302	2.7514038	3.9043274	5.3073425
1443708024065500636	2.3478394	3.5984344	4.987976
1443708024073892970	1.3820496	3.677658	4.0875854
1443708024082285304	0.09753418	4.8658905	3.2617798
1443708024090677638	-0.4656067	6.9526825	2.9211426
1443708024099069972	-0.47679138	8.583313	3.028473
1443708024107462306	-0.61120605	10.219009	3.13974
1443708024115854640	-2.1062622	11.803268	3.0652924
1443708024124246974	-3.3020782	11.704254	2.8509064
1443708024132639307	-3.754837	11.863815	3.142044
1443708024141031641	-4.0330963	12.3181305	3.6696167
1443708024149423975	-4.6141663	13.061142	4.373352
1443708024157816309	-5.534836	13.642242	4.6443787
1443708024166208643	-5.819107	12.437042	2.7504425
1443708024174600977	-5.6571655	10.811386	0.5444641
1443708024182993311	-5.4875183	9.463852	-1.2226868
1443708024191385645	-5.2875824	7.763504	-3.0544739
1443708024199777979	-5.455002	6.987076	-3.1554413
1443708024208170313	-5.399048	7.736374	-3.8004303
1443708024216562647	-5.205185	7.9308167	-3.9191742
1443708024224954981	-5.0351257	8.048965	-4.108597
1443708024233347315	-4.9392548	7.7636566	-4.740402
1443708024241739649	-4.0767975	7.925003	-5.063339
1443708024250131983	-2.3093567	8.4362335	-4.947281
1443708024258524317	-0.9438324	8.760742	-4.428055
1443708024266916651	0.5597534	9.229431	-3.1912994
1443708024275308985	1.7285919	9.794235	-1.7743073
1443708024283701319	2.2321625	10.438934	-1.9108887
1443708024292093653	2.467743	10.809204	-2.2408295
1443708024300485987	2.6547394	11.014191	-2.3565063
1443708024308878321	3.059845	10.893341	-2.2366486
1443708024317270655	2.9660797	10.860992	-1.55159
1443708024325662989	1.6199341	10.93605	-0.38267517
1443708024334055323	1.4644165	10.8602295	-0.5054016
1443708024342447657	1.3112793	10.730011	-0.6768341
1443708024350839991	1.2273102	10.339035	-1.2917786
1443708024359232325	1.3578949	9.959259	-2.1870117
1443708024367624659	1.4527283	9.620117	-2.0884857
1443708024376016993	1.3775482	9.429245	-1.7331238
1443708024384409327	1.3158569	9.1293335	-1.2337799
1443708024392801661	1.124939	8.872345	-0.5946045
1443708024401193995	0.68385315	8.79599	0.14959717
1443708024409586329	0.43910217	8.791	0.56314087
1443708024417978663	0.30158997	8.798065	0.8266144
1443708024426370997	-0.07086182	8.853104	1.4683838
1443708024434763331	-0.47021484	8.619354	1.763916
1443708024443155665	-0.31056213	8.407486	0.87979126
1443708024451547999	-0.280365	8.182571	0.28089905
1443708024459940333	-0.33900452	7.951889	-0.23269653
1443708024468332667	-0.60598755	7.802109	-0.15324402
1443708024476725001	-0.40216064	8.140244	0.4285431
1443708024485117335	-0.15708923	8.790039	0.5728607
1443708024493509669	-0.12817383	9.300919	0.6127014
1443708024501902003	0.20454407	9.898239	0.8162689
1443708024510294337	0.5293274	10.405258	0.5822449
1443708024518686671	0.74105835	10.433746	-0.1375885
1443708024527079005	0.92897034	10.089554	-0.44577026
1443708024535471339	1.1024628	9.680847	-0.60191345
1443708024543863673	1.5047607	8.903107	-1.0874481
1443708024552256007	1.9351349	8.158951	-1.4720001
1443708024560648341	2.5305023	7.874649	-2.141861
1443708024569040675	2.6750793	7.9960938	-2.440033
1443708024577433009	2.719574	8.270386	-2.7055054
1443708024585825343	2.8848877	8.9162445	-2.5361328
1443708024594217677	3.0882263	9.30983	-1.4876862
1443708024602610011	2.2220154	9.617889	-0.5629883
1443708024611002345	1.9450531	9.822235	-0.07269287
1443708024619394679	1.5074463	10.146225	0.27804565
1443708024627787013	1.1125641	10.643234	0.021011353
1443708024636179347	0.87187195	11.010178	-0.36328125
1443708024644571681	0.65852356	11.309631	-0.693573
1443708024652964015	0.3587799	11.832825	-0.45567322
1443708024661356349	0.04638672	12.744843	-0.37193298
1443708024669748682	-0.0023345947	12.976578	0.16217041
1443708024678141016	-0.16235352	12.922348	0.4623413
1443708024686533350	-0.27030945	12.778412	0.64675903
1443708024694925684	-0.3331604	12.637665	0.7070465
1443708024703318018	-0.078552246	12.329025	0.63720703
1443708024711710352	0.42485046	11.832397	0.96302795
1443708024720102686	0.7461395	11.541946	1.3261108
1443708024728495020	1.0759735	11.860977	1.5538483
1443708024736887354	1.5589447	12.900986	2.0676727
1443708024745279688	2.0980072	14.116837	2.441162
1443708024753672022	2.183319	14.551819	2.1934357
1443708024762064356	2.1299744	14.734955	1.8033752
1443708024770456690	1.592392	13.89476	0.4107666
1443708024778849024	1.232193	13.263687	-1.982727
1443708024787241358	0.27474976	11.1644745	-1.4330597
1443708024795633692	-0.19177246	9.770035	-0.8650055
1443708024804026026	-0.7012024	8.434448	-0.48355103
1443708024812418360	-1.4241943	7.737793	-0.046844482
1443708024820810694	-2.5083466	8.880844	1.9445496
1443708024829203028	-3.4209595	11.331757	3.306839
1443708024837595362	-3.7608948	13.724808	3.5876617
1443708024845987696	-4.4373627	17.135406	1.8110504
1443708024854380030	-5.277527	18.762085	-2.1856842
1443708024862772364	-6.903305	17.57666	-4.506653
1443708024871164698	-6.8770447	16.072586	-4.1897125
1443708024879557032	-6.349472	14.632507	-3.3980255
1443708024887949366	-4.568039	12.070999	-0.6945343
1443708024896341700	-3.686493	10.811188	1.0556183
1443708024904734034	-4.3825684	11.13176	2.4692383
1443708024913126368	-3.908966	11.222366	2.762268
1443708024921518702	-2.7805939	11.477249	2.8868713
1443708024929911036	-0.46566772	12.24115	2.7489166
1443708024938303370	0.068878174	13.102539	2.7681427
1443708024946695704	-0.8514099	13.538345	2.4391785
1443708024955088038	-2.0530853	13.619949	1.979065
1443708024963480372	-2.8962555	13.001022	0.6829834
1443708024971872706	-2.785614	11.232391	-0.22200012
1443708024980265040	-2.003479	8.6440735	-0.5826874
1443708024988657374	-1.3838196	7.238159	-0.84490967
1443708024997049708	-0.81832886	6.100754	-1.0968018
1443708025005442042	0.24894714	4.9973907	-0.3149109
1443708025013834376	0.15615845	4.6298065	0.48883057
1443708025022226710	1.0135956	4.1493073	-0.01890564
1443708025030619044	1.0836487	3.9719543	-0.058746338
1443708025039011378	1.2441711	3.7437744	-0.057113647
1443708025047403712	1.5209045	3.4429169	-0.17936707
1443708025055796046	1.6216125	3.0453339	-0.48840332
1443708025064188380	1.5718842	2.6698456	-0.50305176
1443708025072580714	1.4394989	2.4847717	-0.41758728
1443708025080973048	1.0596161	2.2903442	-0.23898315
1443708025089365382	0.67066956	2.0159912	0.1375122
1443708025097757716	0.5706787	1.7376251	0.7410431
1443708025106150050	0.43382263	1.6600647	1.1216736
1443708025114542384	0.2795105	1.6113129	1.4651031
1443708025122934718	-0.24588013	1.4794006	2.176468
1443708025131327052	-0.85253906	1.2556915	2.613388
1443708025139719386	-1.321518	1.0647736	2.8188477
1443708025148111720	-1.4796143	1.0782623	2.8965912
1443708025156504054	-1.4885406	1.1160126	2.9949799
1443708025164896388	-1.3067322	1.442215	3.3057709
1443708025173288722	-1.1496582	2.3040771	3.8268127
1443708025181681056	-0.9669037	3.1828613	4.149002
1443708025190073390	-0.8364563	3.9109192	4.338562
1443708025198465724	-0.71183777	5.7709503	4.7134094
1443708025206858057	-0.6853943	9.231659	5.5628204
1443708025215250391	-0.36872864	15.141617	7.4756317
1443708025223642725	-0.27876282	19.935745	7.7169952
1443708025232035059	-0.23899841	24.675415	7.704605
1443708025240427393	-0.446167	30.64795	6.711487
1443708025248819727	0.82502747	27.763947	8.217041
1443708025257212061	1.9764099	23.59259	8.876282
1443708025265604395	3.1311646	21.10315	8.675781
1443708025273996729	4.109146	17.022507	8.373779
1443708025282389063	3.602417	11.2508545	7.2611084
1443708025290781397	3.4700775	7.5195007	6.0532227
1443708025299173731	4.2139587	5.7773743	5.8750763
1443708025307566065	4.4575195	4.72287	5.984329
1443708025315958399	3.8452759	2.9947815	6.094513
1443708025324350733	2.7957153	1.7927246	5.525421
1443708025332743067	1.0486145	2.1661682	4.290039
1443708025341135401	0.2646637	2.8793182	3.65773
1443708025349527735	-0.42939758	3.7029114	3.115448
1443708025357920069	-0.8457184	5.96344	3.164505
1443708025366312403	-1.5765839	9.9344635	3.362503
1443708025374704737	-3.2130127	13.836304	3.3167725
1443708025383097071	-4.4262543	15.786606	3.1799011
1443708025391489405	-5.5115356	17.989258	2.3428497
1443708025399881739	-6.056656	18.976746	1.2447968
1443708025408274073	-5.591736	16.674576	1.8627014
1443708025416666407	-5.0888977	14.074005	1.9700012
1443708025425058741	-4.8491974	12.06395	1.3241882
1443708025433451075	-3.1525726	8.674713	-0.7359619
1443708025441843409	-0.7962799	5.7349854	-1.3379669
1443708025450235743	-2.1916656	4.760559	-1.5821381
1443708025458628077	-3.7031555	5.4189606	-2.376358
1443708025467020411	-5.0450897	6.181183	-3.1818542
1443708025475412745	-5.2088776	7.3054657	-3.9611359
1443708025483805079	-5.5723724	7.3995056	-4.8585815
1443708025492197413	-5.373337	6.9002533	-5.8948517
1443708025500589747	-4.5193176	6.62265	-5.9918823
1443708025508982081	-3.2085724	6.6898804	-5.3318787
1443708025517374415	-1.8036499	7.7614746	-3.1789398
1443708025525766749	-0.78422546	9.39473	-1.3570251
1443708025534159083	0.025985718	10.523804	-1.3069458
1443708025542551417	0.73220825	11.39389	-1.8460846
1443708025550943751	2.9132538	12.503647	-2.4894867
1443708025559336085	3.1566162	13.233612	-1.9042206
1443708025567728419	2.2708588	13.414795	-2.0670166
1443708025576120753	1.801117	12.837097	-1.640976
1443708025584513087	1.1968231	12.0802765	-1.0454407
1443708025592905421	0.096084595	10.48378	-0.052124023
1443708025601297755	0.13267517	9.575378	-1.0641174
1443708025609690089	0.7637634	9.194687	-1.917984
1443708025618082423	1.3241119	9.110504	-2.0484314
1443708025626474757	1.8044281	8.98439	-1.6663513
1443708025634867091	1.8257446	8.758438	-0.9458771
1443708025643259425	1.4553833	8.624298	-0.123931885
1443708025651651759	0.9041748	8.583618	0.42237854
1443708025660044093	0.302063	8.549561	0.7970123
1443708025668436427	-0.23664856	8.674332	0.59103394
1443708025676828761	-1.0967255	8.654953	1.2862549
1443708025685221095	-1.7749176	8.704468	1.6335754
1443708025693613429	-1.6881714	8.561813	0.8643799
1443708025702005763	-1.5942535	8.246368	-0.009674072
1443708025710398097	-1.5498962	7.339569	-1.1618805
1443708025718790431	-1.620575	7.066757	-1.602478
1443708025727182765	-1.4201355	7.2565765	-1.4253845
1443708025735575099	-1.168869	7.512329	-0.9922638
1443708025743967432	-0.9577942	8.185089	-0.5241089
1443708025752359766	-0.4015808	9.075119	0.14135742
1443708025760752100	0.099472046	9.530457	0.4196167
1443708025769144434	0.4522705	9.820908	0.45625305
1443708025777536768	1.1776276	9.896683	0.7497711
1443708025785929102	2.354065	9.389694	1.1620026
1443708025794321436	3.6262054	9.046722	0.8688965
1443708025802713770	4.2008057	9.761993	0.06463623
1443708025811106104	4.5079803	10.390457	-0.29328918
1443708025819498438	5.0730286	11.10701	-0.8069763
1443708025827890772	6.492981	11.996704	-1.9317932
1443708025836283106	7.1562653	12.305511	-2.7303772
1443708025844675440	6.625473	12.140366	-2.6391296
1443708025853067774	5.3704224	11.462814	-1.993866
1443708025861460108	3.6010437	10.506226	-0.7113037
1443708025869852442	1.9904785	9.968185	0.67141724
1443708025878244776	1.045227	9.947601	0.85194397
1443708025886637110	0.37176514	10.08255	0.5312805
1443708025895029444	-0.526001	10.428741	-0.92892456
1443708025903421778	-1.3110809	10.724686	-1.9373932
1443708025911814112	-1.8661346	11.095825	-1.842041
1443708025920206446	-1.9001923	11.221146	-1.3324432
1443708025928598780	-1.9311676	11.370605	-0.75660706
1443708025936991114	-1.9356842	11.607422	0.10417175
1443708025945383448	-1.9035492	11.820648	0.59243774
1443708025953775782	-1.7873688	11.936584	0.4613495
1443708025962168116	-1.5412445	11.860107	0.59436035
1443708025970560450	-1.016037	11.558502	1.0860138
1443708025978952784	-0.08198547	11.219009	1.823761
1443708025987345118	0.7156067	11.526733	2.3634186
1443708025995737452	1.1564484	11.937515	2.857071
1443708026004129786	1.5156555	12.294159	3.3608704
1443708026012522120	1.2485657	13.080658	3.493332
1443708026020914454	2.4092407	13.15242	2.3375854
1443708026029306788	1.5021057	12.718201	-0.54852295
1443708026037699122	1.4198608	12.504211	-1.4250336
1443708026046091456	1.1906891	12.144913	-2.1166382
1443708026054483790	0.50813293	10.998917	-2.083725
1443708026062876124	-0.01940918	9.303604	-1.4823914
1443708026071268458	-0.38972473	8.578461	-0.276886
1443708026079660792	-0.68725586	8.769318	0.9800415
1443708026088053126	-1.2391663	10.314789	2.6209564
1443708026096445460	-2.4360504	14.22493	3.2756042
1443708026104837794	-3.8234863	19.224197	0.029922485
1443708026113230128	-4.8703003	20.385132	-2.665512
1443708026121622462	-5.829056	20.437195	-4.8477936
1443708026130014796	-8.821548	18.048187	-5.4776
1443708026138407130	-7.674881	14.876755	-3.2290344
1443708026146799464	-5.3442383	11.953369	-0.23127747
1443708026155191798	-4.983734	11.271576	0.20632935
1443708026163584132	-4.7581635	10.780304	0.77819824
1443708026171976466	-3.9230652	10.958603	1.6643524
1443708026180368800	-1.2371521	11.476532	2.3656921
1443708026188761134	0.043151855	11.933121	2.6916656
1443708026197153468	-0.072509766	12.228073	2.7160797
1443708026205545802	-0.8751831	12.687515	2.0974731
1443708026213938136	-1.7999268	12.706375	0.87615967
1443708026222330470	-1.8473969	11.347992	0.72309875
1443708026230722804	-1.7511749	10.192596	0.98773193
1443708026239115138	-1.6772766	9.16571	1.2589111
1443708026247507472	-1.1050262	7.3021545	1.0510101
1443708026255899806	-0.4474945	5.7194977	0.7150421
1443708026264292140	0.29032898	4.9222717	1.0138092
1443708026272684474	0.582077	4.7076416	1.059433
1443708026281076807	1.009201	4.3898315	1.011383
1443708026289469141	1.7890472	3.9749146	0.49731445
1443708026297861475	2.0885925	3.8883514	0.038238525
1443708026306253809	1.9086914	3.7854767	0.17849731
1443708026314646143	1.9382477	3.5586395	0.31022644
1443708026323038477	1.6858063	3.0352325	0.081329346
1443708026331430811	1.2723083	2.4653015	-0.30355835
1443708026339823145	0.79130554	2.130722	-0.19998169
1443708026348215479	0.5913696	1.9243011	0.015075684
1443708026356607813	0.44229126	1.7308807	0.22712708
1443708026365000147	0.3171234	1.5670471	0.8210449
1443708026373392481	-0.12207031	1.3586731	1.529953
1443708026381784815	-0.5189514	1.1800385	2.1976318
1443708026390177149	-0.7554321	1.1247711	2.441162
1443708026398569483	-0.94192505	1.0912476	2.6853638
1443708026406961817	-1.1614685	1.2101593	2.759674
1443708026415354151	-1.3651276	1.608429	2.7336578
1443708026423746485	-1.3777466	2.0303345	2.909729
1443708026432138819	-1.4201508	2.3625488	3.1179504
1443708026440531153	-1.4318085	3.0141602	3.5132904
1443708026448923487	-1.5579071	4.2595367	3.8482056
1443708026457315821	-2.0674286	6.5850983	4.744232
1443708026465708155	-2.1419525	8.903564	5.3195496
1443708026474100489	-2.1465607	11.350159	5.83902
1443708026482492823	-2.0525665	19.298859	6.483444
1443708026490885157	-3.0703735	29.537964	8.446777
1443708026499277491	-2.2944489	32.72296	10.210373
1443708026507669825	-0.7888336	30.917892	10.509186
1443708026516062159	1.1064606	27.383026	10.429398
1443708026524454493	4.118286	19.876251	9.834274
1443708026532846827	4.1315155	11.8714905	9.526749
1443708026541239161	2.655243	7.6778717	9.04892
1443708026549631495	2.5556335	5.635681	8.352341
1443708026558023829	2.117813	2.700531	6.4231873
1443708026566416163	2.405426	0.8886261	5.1921234
1443708026574808497	1.8456116	-0.117752075	4.956299
1443708026583200831	1.0500946	0.08633423	4.5141144
1443708026591593165	0.19996643	0.5095825	4.014847
1443708026599985499	-1.2533722	2.9702148	3.1818695
1443708026608377833	-1.8404236	7.130554	3.36174
1443708026616770167	-1.9973907	12.269806	4.161209
1443708026625162501	-2.5249634	14.844727	4.402176
1443708026633554835	-3.6163025	17.34491	4.5467834
1443708026641947169	-4.7718506	18.5708	4.320633
1443708026650339503	-4.2400208	17.383362	3.760666
1443708026658731837	-3.6771698	15.454285	3.7452545
1443708026667124171	-3.542221	13.649857	4.1076813
1443708026675516505	-4.2442474	9.916809	3.9335175
1443708026683908839	-3.2097473	7.231308	-0.8373718
1443708026692301173	0.2241211	5.5758057	-5.8619385
1443708026700693507	0.89372253	4.5958405	-4.985306
1443708026709085841	1.0168152	3.824173	-3.6894531
1443708026717478175	-2.1524048	4.94606	-1.252655
1443708026725870509	-2.7230377	7.4465027	-1.8925934
1443708026734262843	-3.1360016	9.743439	-2.7148285
1443708026742655177	-3.3602753	10.561478	-3.4358215
1443708026751047511	-3.3755798	11.040649	-4.1252136
1443708026759439845	-2.5128326	10.583405	-3.9585876
1443708026767832179	-0.7783661	10.052933	-2.7943115
1443708026776224513	0.5292816	10.099487	-1.9234467
1443708026784616847	1.5028229	10.296768	-1.294342
1443708026793009181	3.1829224	10.342743	-1.103836
1443708026801401515	3.1736755	10.352493	-1.1542664
1443708026809793849	3.18219	10.319717	-2.6020355
1443708026818186182	2.1906433	10.460434	-1.311676
1443708026826578516	1.1812592	10.558807	-0.03074646
1443708026834970850	0.32667542	10.344528	0.9608002
1443708026843363184	0.6198883	9.960114	0.54933167
1443708026851755518	1.0093079	9.657181	-0.83395386
1443708026860147852	0.9360504	9.432922	-1.4752655
1443708026868540186	0.6887512	9.116348	-1.4701538
1443708026876932520	0.5987549	8.750946	-0.7251282
1443708026885324854	0.33166504	8.381836	0.3678131
1443708026893717188	0.2768402	8.239944	0.8535919
1443708026902109522	0.44070435	8.21167	0.9840393
1443708026910501856	1.1240234	8.443405	0.4447937
1443708026918894190	0.7762451	8.621353	0.3931427
1443708026927286524	-0.041397095	9.080322	0.8248749
1443708026935678858	-0.086364746	8.951157	1.559372
1443708026944071192	-0.0952301	8.789352	2.176422
1443708026952463526	-0.07702637	8.512329	1.9960785
1443708026960855860	-0.31207275	8.325058	1.0960541
1443708026969248194	-0.27085876	8.129608	0.45425415
1443708026977640528	-0.46878052	8.033859	0.11752319
1443708026986032862	-0.7809906	8.09082	-0.32946777
1443708026994425196	-0.8049774	8.350067	-0.48381042
1443708027002817530	-0.627121	8.501099	-0.39726257
1443708027011209864	-0.48703003	8.5737	-0.3284912
1443708027019602198	-0.43598938	8.956955	-0.010513306
1443708027027994532	0.3108368	9.262802	0.27442932
1443708027036386866	1.1318054	9.397766	0.28434753
1443708027044779200	1.2037659	9.533997	0.1301117
1443708027053171534	1.3812714	9.609177	-0.025024414
1443708027061563868	2.0762024	9.3151245	-0.2103424
1443708027069956202	2.044342	9.409302	-0.7279663
1443708027078348536	1.7338562	10.243881	-1.4410706
1443708027086740870	2.2151642	10.602463	-1.3678131
1443708027095133204	2.0905762	11.06311	-1.2206573
1443708027103525538	1.5401001	11.121353	-1.0629578
1443708027111917872	1.1190033	10.391235	-0.97010803
1443708027120310206	0.8122406	9.862259	-0.9237213
1443708027128702540	0.5661316	9.522324	-0.8948059
1443708027137094874	0.21992493	9.447266	-1.1125793
1443708027145487208	-0.26687622	9.950455	-0.9070282
1443708027153879542	-0.52664185	10.5134735	-0.5014343
1443708027162271876	-0.79460144	11.170212	-0.59846497
1443708027170664210	-1.0072632	11.859711	-0.5410309
1443708027179056544	-1.016983	12.640167	0.07849121
1443708027187448878	-1.1548462	13.045059	0.09851074
1443708027195841212	-1.1282349	12.874481	-0.07736206
1443708027204233546	-0.944458	12.450348	-0.07672119
1443708027212625880	-0.52511597	12.020172	-0.3866577
1443708027221018214	0.23112488	11.742172	-0.3232422
1443708027229410548	1.0776062	11.9127655	0.58039856
1443708027237802882	1.4715424	12.430038	1.0222626
1443708027246195216	1.6977386	13.010956	1.2208252
1443708027254587550	2.33609	13.265717	1.5718536
1443708027262979884	2.720337	13.054169	1.3358307
1443708027271372218	2.5315857	12.827286	0.9038086
1443708027279764552	2.111969	12.747589	0.43856812
1443708027288156886	1.611969	12.64888	-0.08016968
1443708027296549220	0.7856293	12.148804	-0.6066437
1443708027304941554	-0.17929077	10.45459	-0.43547058
1443708027313333888	-0.9763794	8.714233	-0.08407593
1443708027321726222	-1.3985596	7.806885	-0.045516968
1443708027330118556	-2.0024872	7.3954163	0.55152893
1443708027338510890	-2.044159	8.57016	1.9269867
1443708027346903224	-2.4355621	12.549225	2.7336578
1443708027355295557	-2.6347198	15.537827	2.4096527
1443708027363687891	-2.6752167	17.95079	1.8435059
1443708027372080225	-3.9905243	19.533478	-0.658432
1443708027380472559	-6.9403534	18.191238	-2.1545258
1443708027388864893	-6.976639	15.722885	-2.0876007
1443708027397257227	-5.841797	14.047623	-1.5041199
1443708027405649561	-4.386429	12.151291	0.2831421
1443708027414041895	-3.7273254	10.600159	0.54486084
1443708027422434229	-5.636673	11.120407	-5.077606
1443708027430826563	-4.5818176	11.137497	-2.1331787
1443708027439218897	-2.1701202	10.679321	1.6684723
1443708027447611231	1.0467224	10.595551	4.080536
1443708027456003565	1.9126434	11.428879	3.797989
1443708027464395899	-0.026306152	12.350388	2.392868
1443708027472788233	-1.0140228	12.284119	1.7745209
1443708027481180567	-1.6502075	11.998154	1.3696747
1443708027489572901	-1.039032	10.474838	0.69670105
1443708027497965235	-0.1512146	8.693436	0.32362366
1443708027506357569	-0.111968994	7.203842	0.44255066
1443708027514749903	-0.09075928	6.711609	0.4406128
1443708027523142237	0.047302246	6.228607	0.55444336
1443708027531534571	0.37542725	5.849106	0.78274536
1443708027539926905	0.69055176	5.661133	0.78178406
1443708027548319239	1.140091	5.546936	0.71339417
1443708027556711573	1.4960938	5.444763	0.4621277
1443708027565103907	1.647171	5.273056	-0.23028564
1443708027573496241	1.6766052	4.822876	-0.5284271
1443708027581888575	1.6058044	4.11499	-0.358078
1443708027590280909	1.4402313	3.754074	-0.21966553
1443708027598673243	1.2622375	3.4681091	-0.09820557
1443708027607065577	0.28851318	2.9841003	0.099105835
1443708027615457911	0.39648438	2.7093353	0.5587311
1443708027623850245	-0.22125244	2.6848145	1.2265778
1443708027632242579	-0.55474854	2.5074615	1.5819397
1443708027640634913	-0.59690857	2.2751923	1.9541473
1443708027649027247	-0.8811188	1.9503937	2.2772675
1443708027657419581	-1.8300934	1.6801147	2.3234406
1443708027665811915	-1.8316345	1.5104675	2.2380066
1443708027674204249	-1.6664886	1.4089203	2.1872406
1443708027682596583	-1.3254852	1.3116913	2.2289276
1443708027690988917	-0.9610748	1.3522491	2.3039856
1443708027699381251	-0.76756287	1.5768585	2.622635
1443708027707773585	-0.58132935	1.9442749	2.8591309
1443708027716165919	-0.39453125	2.3405914	3.078827
1443708027724558253	-0.46640015	3.6540222	3.520874
1443708027732950587	-0.8273773	5.280533	4.116989
1443708027741342921	-1.0559082	7.7645874	4.8776703
1443708027749735255	-1.1979218	10.166641	5.3943176
1443708027758127589	-0.98298645	14.787674	6.323227
1443708027766519923	-0.20845032	24.679321	6.744751
1443708027774912257	0.25178528	31.90422	6.74028
1443708027783304591	1.0340271	31.527512	7.788849
1443708027791696925	2.2266998	28.756607	8.700058
1443708027800089259	4.2525787	23.613892	9.659332
1443708027808481593	4.6852264	16.93637	10.178757
1443708027816873927	4.116989	10.081924	9.489838
1443708027825266261	4.5471497	7.874588	8.432251
1443708027833658595	5.0581512	6.0783844	7.32695
1443708027842050929	4.99234	3.7076569	5.8192596
1443708027850443263	3.7129517	1.9105377	5.6501007
1443708027858835597	2.311493	1.3876038	5.303543
1443708027867227931	1.0892487	2.0282745	4.6628723
1443708027875620265	-0.2649231	3.6182404	3.8390503
1443708027884012599	-1.41922	7.490799	2.9834137
1443708027892404932	-2.0266724	12.785431	2.3730164
1443708027900797266	-2.9039612	16.139343	1.7260284
1443708027909189600	-4.007965	17.955338	1.0769958
1443708027917581934	-5.0433197	19.341354	0.71302795
1443708027925974268	-4.7843475	18.136932	0.9860382
1443708027934366602	-4.0945435	13.875168	3.4179688
1443708027942758936	-3.6151123	11.47583	3.6821442
1443708027951151270	-3.043457	9.120682	3.404358
1443708027959543604	-1.4546661	6.017395	-0.40322876
1443708027967935938	-0.7331238	3.2412567	-0.035812378
1443708027976328272	-1.8407745	1.9790192	0.22705078
1443708027984720606	-3.548172	2.7572174	-0.08718872
1443708027993112940	-4.3571167	4.5951385	-0.70425415
1443708028001505274	-4.7228394	7.5346527	-2.1697388
1443708028009897608	-6.073181	8.978683	-5.0666046
1443708028018289942	-6.323654	8.791138	-6.4565277
1443708028026682276	-5.8474884	8.197372	-6.58313
1443708028035074610	-3.8186188	7.7046204	-4.5969543
1443708028043466944	-1.7598572	8.895828	-1.2060242
1443708028051859278	-0.10290527	10.834091	0.28625488
1443708028060251612	0.89282227	11.447372	-0.78648376
1443708028068643946	2.017685	12.040894	-1.9153137
1443708028077036280	3.6428833	12.511642	-2.6855316
1443708028085428614	2.94664	12.391098	-1.5657959
1443708028093820948	2.096634	12.012085	-1.5590668
1443708028102213282	2.6775513	11.482574	-2.463852
1443708028110605616	3.0637512	10.703476	-2.229187
1443708028118997950	2.1332397	9.955231	-0.76786804
1443708028127390284	1.3109283	9.686188	-0.32250977
1443708028135782618	1.1669769	9.553162	-0.4992218
1443708028144174952	2.396881	9.282669	-1.5789185
1443708028152567286	2.8470306	9.103409	-2.123169
1443708028160959620	1.397934	8.801163	-0.18811035
1443708028169351954	0.12988281	8.2352295	1.2827454
1443708028177744288	-0.31993103	8.055939	1.3392944
1443708028186136622	-0.8227997	7.8964996	1.2212677
1443708028194528956	-1.4767151	7.862732	0.411026
1443708028202921290	-1.6989594	7.9555206	0.36688232
1443708028211313624	-1.9148712	8.175934	0.34887695
1443708028219705958	-2.0416107	8.247452	0.03477478
1443708028228098292	-2.161026	8.209137	-0.9853058
1443708028236490626	-2.3157806	8.156296	-1.6551361
1443708028244882960	-2.3395996	8.136322	-1.4147186
1443708028253275294	-2.3196716	8.173599	-0.94369507
1443708028261667628	-2.1636047	8.591675	-0.24607849
1443708028270059962	-1.8787689	9.249451	0.23480225
1443708028278452296	-1.3427277	9.836029	0.7600403
1443708028286844630	-0.88475037	9.871582	0.85739136
1443708028295236964	-0.40193176	9.873978	0.86961365
1443708028303629298	0.22155762	9.658905	0.4184265
1443708028312021632	0.75975037	9.380569	0.26455688
1443708028320413966	1.2937317	9.371262	-0.012680054
1443708028328806300	1.4530945	9.540268	-0.20481873
1443708028337198634	2.0529327	9.839584	-0.62812805
1443708028345590968	3.2290192	10.238998	-1.4952087
1443708028353983302	3.6753235	10.526337	-2.3672028
1443708028362375636	3.3816528	10.5451355	-2.506836
1443708028370767970	2.9800262	10.459671	-2.347458
1443708028379160304	2.038437	10.324265	-1.3731537
1443708028387552638	1.3600006	9.717041	0.22241211
1443708028395944972	0.7944641	9.561188	0.20257568
1443708028404337306	0.47831726	9.749466	-0.39953613
1443708028412729640	0.101379395	9.9639435	-1.0002899
1443708028421121974	-0.5036621	10.430679	-1.5300598
1443708028429514307	-0.7643738	11.180069	-1.6098328
1443708028437906641	-0.801239	11.504349	-1.1604767
1443708028446298975	-0.74147034	11.530701	-0.7511444
1443708028454691309	-0.822052	12.014725	-0.86686707
1443708028463083643	-0.80836487	12.177673	-0.6432648
1443708028471475977	-0.7594147	11.662949	-0.16877747
1443708028479868311	-0.55744934	11.472855	-0.27720642
1443708028488260645	-0.26634216	11.4375	-0.5374603
1443708028496652979	0.6238556	10.863464	0.029846191
1443708028505045313	1.2183838	10.857727	0.36878967
1443708028513437647	1.6591034	11.671829	1.1210785
1443708028521829981	1.8711548	12.25531	1.4096069
1443708028530222315	2.0318146	12.869904	1.652008
1443708028538614649	1.8695831	13.496506	1.6175079
1443708028547006983	1.3637085	13.612228	1.2461243
1443708028555399317	0.9440613	13.240036	0.58203125
1443708028563791651	0.72172546	12.743301	-0.2630005
1443708028572183985	0.5035858	12.1284485	-1.2745209
1443708028580576319	-0.22836304	11.325897	-1.2661133
1443708028588968653	-1.2268219	10.165146	-0.74887085
1443708028597360987	-1.6368561	9.424637	-0.72377014
1443708028605753321	-1.8624115	8.868149	-0.82724
1443708028614145655	-2.0599213	8.951706	-0.39083862
1443708028622537989	-2.214981	10.645615	0.9390869
1443708028630930323	-2.291153	14.103485	1.9566498
1443708028639322657	-2.2641602	15.926559	1.8262024
1443708028647714991	-2.544281	17.698135	1.5306549
1443708028656107325	-4.1675873	18.671707	0.7307434
1443708028664499659	-5.7705994	17.581802	0.07775879
1443708028672891993	-5.6920624	15.874695	-0.19302368
1443708028681284327	-5.21846	14.707077	-0.15382385
1443708028689676661	-4.6435394	13.171204	0.33815002
1443708028698068995	-4.1764984	11.636658	0.9372101
1443708028706461329	-4.1394806	11.392212	0.52249146
