linearaccelerometer_timestamp	linearaccelerometer_x_data	linearaccelerometer_y_data	linearaccelerometer_z_data
77331657534137	0.83939093	-0.18032646	0.30582428
77331665834918	0.82202655	-0.17001247	0.29567957
77331674135699	0.81056195	-0.13920593	0.44494677
77331682436480	0.5396255	-0.13801336	0.7090373
77331690737262	0.5296508	-0.13096571	0.6941309
77331699038043	0.3560977	-0.14041281	0.6175728
77331707338824	0.23964709	-0.11926746	0.42391253
77331715639605	0.36599988	0.0038056374	0.4302435
77331723940387	0.38896722	0.045387268	0.21523571
77331732241168	0.33178955	0.012993813	-0.25383377
77331740541949	0.4294054	-0.14451408	-0.67158747
77331748842730	0.73233753	-0.30432224	-0.7298045
77331757143512	0.88506687	-0.07928276	-0.35176945
77331765444293	0.10049307	-0.1301117	-0.4149456
77331773745074	0.07383299	-0.1696639	-0.3756919
77331782045855	1.9907951E-4	-0.7624898	-0.8607974
77331790346637	0.48213208	-1.2609582	-1.2687893
77331798647418	1.0418239	-1.1573367	-1.2652364
77331806948199	0.009599805	0.24981451	-0.19648695
77331815248980	-0.025188327	-0.27544165	-0.31567335
77331823549762	0.024441838	-0.34711647	-0.25694084
77331831850543	0.5026331	-0.6714654	-0.250453
77331840151324	0.9540133	-0.6264472	-0.093913555
77331848452105	0.9884652	-0.39072418	-0.0390296
77331856752887	0.6229403	-0.21084738	-0.15746498
77331865053668	0.051665366	-0.20060968	-0.3674035
77331873354449	-0.2689367	-0.32261086	-0.93748426
77331881655230	-0.48968625	-0.48498487	-1.384974
77331889956012	-0.641034	-0.5541363	-1.378973
77331898256793	-0.7105659	-0.44081116	-0.827415
77331906557574	-0.6979631	-0.16490173	-0.02075386
77331914858355	-0.38361597	0.055453777	0.83711576
77331923159137	0.25130808	-0.07134819	1.271318
77331931459918	0.7431245	-0.3223009	1.5506177
77331939760699	1.0201169	-0.4132223	1.9431162
77331948061480	1.2036674	-0.23171806	2.4685922
77331956362262	1.3395516	0.07164669	2.1588287
77331964663043	1.3476251	0.08674812	2.1224399
77331972963824	1.0006009	0.21738338	1.2599483
77331981264605	0.46347776	0.35037184	0.6438036
77331989565387	-0.15152918	0.348711	0.20744514
77331997866168	-0.7217531	0.17303419	-0.098326206
77332006166949	-1.2281692	0.24713087	0.8375864
77332014467730	-1.1543106	0.24362373	0.8318062
77332022768512	-0.851367	0.36381912	1.3430519
77332031069293	-0.46800113	0.30480337	1.8871999
77332039370074	0.05147156	0.14763927	2.4314618
77332047670855	0.69410187	0.023116589	2.821124
77332055971637	0.7443589	0.018708706	2.8015528
77332064272418	1.3676035	0.2459526	2.3941813
77332072573199	1.6116667	0.26530552	1.6145043
77332080873980	1.6407355	0.23262072	0.8256397
77332089174762	1.6693418	0.16973639	0.06380224
77332097475543	1.7677464	0.10275221	-0.6106243
77332105776324	1.7806458	0.028751373	-0.5383525
77332114077105	1.086018	0.3238907	-1.0166464
77332122377887	1.0952055	0.2325902	-1.6815071
77332130678668	0.734347	-0.043633938	-2.3762307
77332138979449	-0.09986985	-0.09045696	-2.732864
77332147280230	-1.1774621	0.28286457	-2.663578
77332155581012	-2.141314	0.52209663	-2.534885
77332163881793	-2.9634252	0.29108667	-2.4418044
77332172182574	-3.3947432	0.094145775	-2.196568
77332180483355	-3.333807	-0.040676117	-1.683773
77332188784137	-2.8299937	-0.11072779	-1.0835543
77332197084918	-2.051466	-0.18211126	-0.614748
77332205385699	-1.2592646	-0.43190145	-0.2975254
77332213686480	-0.64535904	-0.45737362	0.09574461
77332221987262	-0.20056498	-0.4870224	0.51191044
77332230288043	-0.10504091	-0.5196223	0.86937857
77332238588824	-0.25986266	-0.49100542	1.2423582
77332246889605	-0.44316828	-0.384974	1.689518
77332255190387	-0.35271406	-0.35014725	2.1067328
77332263491168	-0.10019374	-0.35933828	2.3010936
77332271791949	-0.08119154	-0.32659912	2.2602305
77332280092730	0.10210109	-0.19543648	2.154408
77332288393512	0.5159638	0.05436659	1.4827142
77332296694293	0.51162624	0.052814484	1.4724965
77332304995074	0.7822459	0.05939865	1.0845466
77332313295855	0.8056929	0.008574963	-0.060013294
77332321596637	0.7824575	-0.018539906	-0.03911972
77332329897418	0.43843067	-0.046329975	-0.67976093
77332338198199	0.5055455	-0.09900093	-0.60421896
77332346498980	0.4806224	-0.1290083	-0.57620525
77332354799762	0.6320642	-0.1404438	-0.15875149
77332363100543	0.6116073	-0.13341999	0.23356009
77332371401324	0.54076695	-0.12347269	0.4604602
77332379702105	0.43498826	-0.09658861	0.5482135
77332388002887	0.4323504	-0.1099391	0.5584316
77332396303668	0.36658013	-0.07658768	0.4837985
77332404604449	0.22456384	-0.1288724	-0.108958244
77332412905230	0.0031456947	-0.030473232	-0.22701406
77332421206012	-0.019361615	-0.036328793	-0.2851138
77332429506793	-0.011554241	-0.05741644	-0.2592821
77332437807574	0.026777983	-0.099056244	-0.2462883
77332446108355	0.23110843	-0.19325733	-0.3201561
77332454409137	0.5639595	-0.3098607	-0.484941
77332462709918	0.3646226	-0.1985035	-0.18834066
77332471010699	0.11905229	0.13226032	1.364181
77332479311480	0.12692404	0.12310076	1.3666224
77332487612262	0.050162673	-0.04014492	1.1769061
77332495913043	-0.17108214	-0.18898296	0.1861229
77332504213824	-0.606195	-0.1315012	-1.3618665
77332512514605	-1.1143005	0.19260502	-2.5664268
77332520815387	-0.40265846	-0.18971968	-1.1075411
77332529116168	-0.03220725	-0.19677973	0.107336044
77332537416949	0.17177677	-0.16610765	0.545351
77332545717730	0.3024652	-0.18946886	0.3657875
77332554018512	0.300395	-0.18455124	0.3594079
77332562319293	0.018240452	0.03437853	-0.4207301
77332570620074	0.036851645	0.0771904	-0.99047136
77332578920855	0.105167866	0.033916473	-1.4581289
77332587221637	0.16146374	0.0026011467	-1.686573
77332595522418	0.23978662	-0.036790848	-1.5568957
77332603823199	0.22338247	-0.021314621	-1.5687952
77332612123980	0.5390936	-0.43441343	0.13460588
77332620424762	0.64535487	-0.572032	1.695518
77332628725543	0.7615129	-0.6809082	3.1260858
77332637026324	0.8370918	-0.65987206	3.9105196
77332645327105	0.80987823	-0.6234269	3.8486624
77332653627887	0.6157403	-0.30653572	3.0706816
77332661928668	0.362368	-0.1802249	2.0303106
77332670229449	0.11376202	-0.06798029	1.208034
77332678530230	-0.11031675	0.011986256	0.347867
77332686831012	-0.26114988	0.06630087	-0.49327278
77332695131793	-0.2530378	0.02172947	-0.44354963
77332703432574	-0.23059225	0.07408428	-1.2295413
77332711733355	0.24570954	0.3749528	-3.983953
77332720034137	0.28717935	0.10044432	-2.7526917
77332728334918	0.40129519	-0.08233833	-0.900321
77332736635699	0.5527296	-0.20799065	0.27748966
77332744936480	0.54157186	-0.20958042	0.27661848
77332753237262	0.5590186	-0.25091076	0.61135435
77332761538043	0.18067181	-0.08658934	0.5458722
77332769838824	0.22019768	0.076013565	0.30262804
77332778139605	0.30560517	0.13991451	-0.08163071
77332786440387	0.29864633	0.14374828	-0.087626934
77332794741168	0.39508355	0.11351633	-0.46699476
77332803041949	0.3717811	0.030893326	-0.71293354
77332811342730	-0.020166755	-0.0030937195	-0.61109877
77332819643512	-0.091130376	-0.06650019	-0.4932933
77332827944293	-0.11552012	-0.15655899	-0.3748703
77332836245074	-0.121766925	-0.13356829	-0.39838934
77332844545855	-0.11399782	-0.22492266	-0.3297124
77332852846637	-0.015822053	-0.38648558	-0.2645192
77332861147418	0.009719849	-0.36691618	-0.35504055
77332869448199	0.04232955	-0.31441593	-0.15274143
77332877748980	0.23010802	-0.3045416	0.39421463
77332886049762	0.50519276	-0.38008642	0.9491663
77332894350543	0.7323314	-0.43490076	1.3373771
77332902651324	0.6972723	-0.40045357	1.2917318
77332910952105	0.66926384	-0.169415	1.3957648
77332919252887	0.45875227	-0.19834995	1.0537214
77332927553668	0.15324211	-0.21355724	0.6321316
77332935854449	-0.16967475	-0.19118738	0.27166128
77332944155230	-0.18762302	-0.17828417	0.25517845
77332952456012	-0.43262148	-0.124424934	-0.017333508
77332960756793	-0.46479023	-0.03630781	-0.45274878
77332969057574	-0.30371118	-0.09100628	-0.74418116
77332977358355	-0.175071	-0.1280675	-0.97871304
77332985659137	-0.19674766	-0.11747694	-0.9878526
77332993959918	-0.19740212	-0.13196087	-1.194026
77333002260699	-0.24896014	-0.11874485	-1.3647218
77333010561480	0.284894	-0.023704529	-1.3321338
77333018862262	0.880088	-0.08479214	-0.98646307
77333027163043	0.81452847	-0.054955482	-1.0187707
77333035463824	1.2302575	-0.20633602	-0.5002985
77333043764605	1.4199489	-0.38130188	0.5918484
77333052065387	1.3721211	-0.26361752	0.932086
77333060366168	1.3279762	-0.20276928	1.1382847
77333068666949	1.1948631	-0.22205496	1.3190036
77333076967730	1.1421098	-0.16464138	1.2616544
77333085268512	0.8354089	-0.15539074	1.5879922
77333093569293	0.59325325	-0.030006409	1.5734768
77333101870074	0.56702185	0.014500141	1.5295978
77333110170855	0.15234172	-0.04709196	0.9129281
77333118471637	-0.046562433	-0.0016050339	0.6490097
77333126772418	-0.17406702	-0.0028362274	0.50763035
77333135073199	-0.18393052	-0.005681038	0.3685789
77333143373980	-0.19745535	0.0057296753	0.3573022
77333151674762	-0.1242162	0.01600933	0.21614122
77333159975543	0.10845429	0.016991615	0.13613844
77333168276324	0.24411243	0.05441475	0.12821102
77333176577105	0.22695062	0.06135893	0.121228695
77333184877887	0.29785064	0.09103823	0.16073036
77333193178668	0.33727944	0.11156225	0.23906374
77333201479449	0.3851264	0.106365204	0.33274364
77333209780230	0.45258042	0.060495853	0.42355347
77333218081012	0.44839168	0.02440691	0.5474415
77333226381793	0.4175213	0.072143555	0.6001687
77333234682574	0.41058892	0.12152052	0.55771875
77333242983355	0.39408678	0.1298027	0.42287064
77333251284137	0.35919014	0.10501099	0.22669601
77333259584918	0.35548845	0.1018343	0.2276926
77333267885699	0.17105076	0.11432648	-0.08313656
77333276186480	0.027500987	0.15500307	-0.16905594
77333284487262	-0.011980176	0.18744469	-0.20522785
77333292788043	0.011448145	0.1734047	-0.22228575
77333301088824	0.05463323	0.11786413	-0.22787094
77333309389605	0.058023185	0.1167984	-0.22633648
77333317690387	0.09597525	0.0023264885	-0.12525606
77333325991168	0.052791238	-0.009338379	-0.10174847
77333334291949	0.0366292	0.012823582	-0.12770462
77333342592730	0.055381507	0.008114815	-0.21669245
77333350893512	0.0993973	-0.032586575	-0.34325743
77333359194293	0.0959678	-0.02888918	-0.34473562
77333367495074	0.24531308	-0.09422779	-0.5392351
77333375795855	0.2984841	-0.111498356	-0.58602905
77333384114721	0.33625096	-0.119012356	-0.62268066
77333392415502	0.33793682	-0.11476946	-0.6261668
77333400716283	0.33211267	-0.1016345	-0.6333327
77333409017064	0.27464747	-0.1434226	-0.62709284
77333417317846	0.20400807	-0.18713808	-0.7274256
77333425618627	0.1452772	-0.21362829	-0.8541403
77333433919408	0.16695541	-0.22114038	-1.0420732
77333442220189	0.2897304	-0.2119236	-1.348609
77333450520971	0.4815827	-0.21395826	-1.7534704
77333458821752	0.46817026	-0.17825222	-1.7720509
77333467122533	0.88741136	-0.34313917	-2.3945427
77333475423314	1.0236338	-0.40114832	-2.3128562
77333483724096	0.9678962	-0.48874044	-2.0195513
77333492024877	0.8973665	-0.5749984	-1.666132
77333500325658	0.8923993	-0.48706865	-1.7163258
77333508626439	0.8859447	-0.5341964	-1.4831495
77333516927221	0.43981713	-0.73733807	-1.6884098
77333525228002	-0.13806573	-0.6908593	-1.8018284
77333533528783	-0.27003682	-0.5439267	-1.7264099
77333541829564	-0.21950668	-0.4104495	-1.7921515
77333550130346	-0.10100633	-0.3300662	-1.3842058
77333558431127	0.041420996	-0.7568569	0.097332
77333566731908	0.19242567	-0.9207821	0.6940775
77333575032689	0.43904757	-0.8740344	1.2475452
77333583333471	0.75696135	-0.8094127	1.9346952
77333591634252	0.773843	-0.641196	1.8589382
77333599935033	0.8454981	-0.6600063	2.3347158
77333608235814	0.41073197	-0.6937139	2.884531
77333616536596	0.16484821	-0.46100736	3.0910177
77333624837377	-0.052963853	-0.35814095	3.2469215
77333633138158	-0.2024275	-0.2529602	2.8825808
77333641438939	-0.15223211	-0.08543062	2.0667295
77333649739721	0.06264675	0.13436627	1.2448797
77333658040502	0.08006978	0.20189548	1.2218533
77333666341283	-0.043292224	0.33487678	1.2328072
77333674642064	-0.25299323	0.25086665	1.1889496
77333682942846	-0.38363558	0.26979756	1.0995741
77333691243627	-0.45595396	0.35990453	1.0595093
77333699544408	-0.42505014	0.40081477	1.0472212
77333707845189	-0.44207776	0.47056794	1.0509415
77333716145971	-0.35291624	0.315382	0.9582777
77333724446752	-0.3149212	0.2695539	0.8664942
77333732747533	-0.31042212	0.29553938	0.8572626
77333741048314	-0.28177488	0.27994013	0.7535801
77333749349096	-0.21739036	0.2952032	0.6598263
77333757649877	-0.124628425	0.31931758	0.6015854
77333765950658	0.07248926	0.20873666	0.404953
77333774251439	0.07872057	0.17717242	0.2032032
77333782552221	0.075919986	0.19288564	0.198493
77333790853002	0.009135485	0.23434615	0.17007828
77333799153783	-0.059228957	0.2819109	0.35778046
77333807454564	-0.10533875	0.2933855	0.6412554
77333815755346	-0.11525369	0.25293922	0.7603607
77333824056127	0.0020567775	0.3462882	0.64617157
77333832356908	0.004586935	0.3568132	0.64172935
77333840657689	0.16112745	0.3486538	0.42118168
77333848958471	0.15514928	0.3492217	0.41901112
77333857259252	0.17481214	0.22990441	0.38982487
77333865560033	0.20851475	0.23702884	0.18053246
77333873860814	0.1985861	0.19712973	0.095565796
77333882161596	0.22700173	0.12641692	-0.07997322
77333890462377	0.2155618	0.120595455	-0.07936764
77333898763158	0.24142921	0.06941652	-0.29030132
77333907063939	0.24724334	0.058446407	-0.4274149
77333915364721	0.19781637	0.02654028	-0.2752123
77333923665502	0.08347821	0.023443937	-0.08284664
77333931966283	0.08562058	0.029721975	-0.083848
77333940267064	-0.03494203	0.056382895	0.0575037
77333948567846	-0.09251368	0.06087041	0.0897274
77333956868627	-0.051748753	0.04504609	0.033172607
77333965169408	0.057427466	0.071383	-0.023264885
77333973470189	0.1688062	0.06302881	-0.102975845
77333981770971	0.28520358	0.07160568	-0.081962585
77333990071752	0.37914008	0.06514859	0.10398102
77333998372533	0.41203254	0.05172324	0.33357525
77334006673314	0.38720542	0.051646233	0.4718113
77334014974096	0.38217348	0.06495762	0.46721554
77334023274877	0.27178603	0.14113069	0.20996952
77334031575658	0.19854826	0.13554835	0.049933434
77334039876439	0.18908358	0.11919761	-0.058314323
77334048177221	0.20499319	0.13017213	-0.12137222
77334056478002	0.19505036	0.15940309	-0.1336565
77334064778783	0.1927666	0.1690607	-0.13550186
77334073079564	0.12261236	0.18784845	-0.032964706
77334081380346	0.18565106	0.29707563	-0.038188934
77334089681127	0.31735575	0.33227932	0.07706356
77334097981908	0.4624592	0.26024878	0.3608284
77334106282689	0.54838693	0.14015329	0.6923418
77334114583471	0.5203332	0.13320673	0.75021076
77334122884252	0.42456526	0.2228955	0.4775839
77334131185033	0.31817442	0.29310167	0.18732357
77334139485814	0.2308088	0.28951395	-0.016759872
77334147786596	0.18455678	0.28278017	-0.12216568
77334156087377	0.18096608	0.28438818	-0.121619225
77334164388158	-0.12052238	0.2360853	0.50611115
77334172688939	-0.30563712	0.12611175	0.99628067
77334180989721	-0.3217035	0.15884292	1.0905952
77334189290502	-0.28268117	0.12634361	0.88193035
77334197591283	-0.283256	0.056235313	0.56222916
77334205892064	-0.3432821	0.007664919	0.26506233
77334214192846	-0.35178417	-0.001199007	0.26216698
77334222493627	-0.32778025	-0.024787664	-0.039068222
77334230794408	-0.19488019	-0.0012226105	-0.038381577
77334239095189	-0.03762579	0.04575467	-0.034985542
77334247395971	0.10459435	0.09221113	-0.15192318
77334255696752	0.108971	0.08406496	-0.14806938
77334263997533	0.19456744	0.12088585	-0.44000816
77334272298314	0.28626895	0.19679332	-0.94908524
77334280599096	0.40639967	0.17398572	-1.0597105
77334288899877	0.5902943	0.16849089	-1.1275568
77334297200658	0.5861386	0.17607045	-1.1136074
77334305501439	0.7793554	0.2295103	-1.1555471
77334313802221	0.912485	0.3209163	-0.9042597
77334322103002	0.9086029	0.29350853	-0.56698036
77334330403783	1.2189751	0.12576938	-0.030073166
77334338704564	1.3853035	-0.029989481	0.51015186
77334347005346	1.3610067	0.01749134	0.49412727
77334355306127	1.2830956	-0.042261362	0.8157959
77334363606908	1.0368364	-0.003872037	0.8970194
77334371907689	0.38676357	0.080881834	0.7997217
77334380208471	0.056036025	0.054547787	0.4803028
77334388509252	-0.1351254	0.04802978	0.24069977
77334396810033	-0.19032016	0.019815207	0.031378746
77334405110814	-0.193795	0.039124846	0.02812767
77334413411596	-0.17128617	-0.04594612	-0.18480206
77334421712377	-0.055980384	-0.0851804	-0.25052547
77334430013158	-0.08336234	0.05683291	-0.37047482
77334438313939	-0.15773806	0.150877	-0.64294434
77334446614721	-0.17175207	0.1679455	-0.6444731
77334454915502	-0.18410978	0.17865491	-0.9629278
77334463216283	-0.10390225	0.11574042	-1.2286482
77334471517064	-0.046705753	-0.18139446	-1.0274963
77334479817846	0.10796261	-0.40565622	-0.3303814
77334488118627	0.051805735	-0.3545333	-0.33760548
77334496419408	0.49072006	-0.46675956	0.3584242
77334504720189	0.9527826	-0.44193435	0.8324127
77334513020971	1.2249546	-0.29690444	1.319932
77334521321752	0.8775131	-0.14995337	1.4103441
77334529622533	0.37509018	0.10185146	1.1096611
77334537923314	0.33458596	0.17085755	1.1012087
77334546224096	0.29420912	0.34853303	0.7312803
77334554524877	0.4147698	0.37981397	0.8491068
77334562825658	0.37984604	0.42124665	0.84468937
77334571126439	0.4401247	0.43090314	0.7971897
77334579427221	0.1596784	0.49866563	0.93574333
77334587728002	-0.10455775	0.5490113	0.80728245
77334596028783	-0.22729892	0.58813447	0.4736824
77334604329564	-0.24886906	0.5976276	0.47259235
77334612630346	-0.19293532	0.64442843	0.11911583
77334620931127	0.04206428	0.6469695	-0.34451962
77334629231908	0.3934352	0.38391572	-0.50492096
77334637532689	0.50659555	0.32388097	-0.27666378
77334645833471	0.47241214	0.33625847	-0.27523327
77334654134252	0.33846945	0.428341	0.20289707
77334662435033	0.19454873	0.52147645	0.5835428
77334670735814	0.14928532	0.7398952	0.62357426
77334679036596	0.11572999	0.7785034	0.6223898
77334687337377	-0.057761908	0.5484259	0.5440397
77334695638158	-0.048719943	0.66157156	0.35778713
77334703938939	0.0986532	0.82216036	0.188303
77334712239721	0.19622427	0.7597232	0.1847372
77334720540502	0.050514758	0.9431612	0.34276867
77334728841283	0.017044544	0.97022974	0.34405327
77334737142064	-0.3513469	0.6796037	0.47486877
77334745442846	-0.31949192	0.9231235	0.49869728
77334753743627	-0.045844376	1.249835	0.44067097
77334762044408	0.101385236	1.0789725	0.40795612
77334770345189	0.04332471	1.115875	0.41264343
77334778645971	-0.09663308	0.3222379	0.8679428
77334786946752	0.8730415	0.9587651	0.48161697
77334795247533	1.2728158	0.8522141	0.5728884
77334803548314	1.0599927	0.4177754	0.7634449
77334811849096	0.7005842	0.397577	0.44516087
77334820149877	0.650576	0.4209095	0.45164394
77334828450658	1.0953586	0.8830754	-0.40050983
77334836751439	0.94738925	0.7912446	-0.538537
77334845052221	0.47483277	0.7014847	-0.43586254
77334853353002	0.2208736	0.7337729	-0.27613258
77334861653783	0.32001555	0.77868867	-0.11265278
77334869954564	0.23086143	0.8634671	0.22940636
77334878255346	0.34720957	0.8858057	0.29408932
77334886556127	0.34242034	0.82987833	0.35700512
77334894856908	0.36134553	0.8155996	0.2786293
77334903157689	0.46599293	0.85931075	0.046730995
77334911458471	0.35175848	0.90865433	0.07570076
77334919759252	0.3937366	1.0522783	-0.11481476
77334928060033	-0.94850755	1.5529286	0.5915756
77334936360814	-1.1311584	1.4634423	0.32911682
77334944661596	-1.067184	1.430644	-0.006829262
77334952962377	-1.2180111	1.4541749	3.0899048E-4
77334961263158	-1.2872362	1.4665138	0.02192974
77334969563939	-1.2989802	1.1669745	-0.00623703
77334977864721	-1.5509608	1.2506251	0.20305157
77334986165502	-1.4989328	1.036489	0.2963562
77334994466283	-1.4215903	0.805516	0.3598547
77335002767064	-1.3941612	0.64697015	0.38394642
77335011067846	-1.4631789	0.6894441	0.41202545
77335019368627	-1.4922793	0.39784998	0.055851936
77335027669408	-1.5550017	0.2969302	-0.10313797
77335035970189	-1.3583155	0.19201148	-0.2896347
77335044270971	-1.0720074	0.07430148	-0.35288048
77335052571752	-0.7991841	-0.061638474	-0.2945652
77335060872533	-0.88174057	-0.015357494	-0.25521183
77335069173314	-0.13159394	-0.3661487	-0.37989807
77335077474096	-0.1669848	-0.4538312	-0.178998
77335085774877	-0.19836473	-0.552554	-0.16540813
77335094075658	-0.27443314	-0.75353575	-0.26747894
77335102376439	-0.32833004	-0.9811435	-0.3541937
77335110677221	-0.3043642	-1.1332725	-0.37668133
77335118978002	-0.31839943	-1.2470249	-0.49246502
77335127278783	-0.51233387	-1.3017155	-0.5553713
77335135579564	-0.54078007	-1.2195145	-0.48578072
77335143880346	-0.51939344	-1.1005147	-0.45238113
77335152181127	-0.5041475	-0.93026984	-0.47431374
77335160481908	-0.5882616	-0.93061304	-0.4241972
77335168782689	-0.30532408	-0.450024	-0.7389021
77335177083471	-0.27521086	-0.33359706	-1.002614
77335185384252	-0.12018871	-0.28946698	-1.1994371
77335193685033	0.14241314	-0.1594255	-1.2350292
77335201985814	0.016878128	-0.2039392	-1.1570492
77335210286596	0.18719196	0.016397476	-1.0513368
77335218587377	0.026229858	0.399745	-0.8162279
77335226888158	-0.06194687	0.46451783	-0.96887255
77335235188939	-0.07396555	0.27180862	-1.0389924
77335243489721	-0.18431616	0.23338139	-0.95549583
77335251790502	-0.27069235	-0.06143129	-0.91841507
77335260091283	-0.44825745	-0.3112017	-0.7053795
77335268392064	-0.5371556	-0.12285519	0.14245892
77335276692846	-0.33503008	-0.11196375	0.45240355
77335284993627	-0.15474987	0.11502612	0.64065695
77335293294408	-0.26582527	0.06527549	0.7356677
77335301595189	0.22774172	0.4348712	0.28994846
77335309895971	0.09967613	0.36432827	0.4070158
77335318196752	0.0061154366	0.88839406	0.055488586
77335326497533	-0.27486324	1.0211601	0.0736866
77335334798314	-0.3496189	0.98732585	0.052357674
77335343099096	-0.26937056	0.76581407	-0.068460464
77335351399877	-0.3616948	0.6961212	0.03534937
77335359700658	-0.28647995	0.37475666	-0.117213726
77335368001439	-0.34698582	0.1798934	-0.04625988
77335376302221	-0.4596367	0.3242152	0.0061364174
77335384603002	-0.3096571	0.4368428	0.06692648
77335392903783	-0.3860674	0.39983898	0.16931295
77335401204564	-0.61020136	1.088058	0.42445278
77335409505346	-0.63469076	1.7412088	0.552917
77335417806127	-0.04009819	3.428715	-0.35814095
77335426106908	-0.084999084	4.1707735	0.31961918
77335434407689	-0.29147243	3.9992702	0.27796555
77335442708471	-0.34589577	3.9401834	0.36574364
77335451009252	-0.1299715	2.0887148	-0.24805832
77335459310033	0.55290604	-0.36804774	-1.1302977
77335467610814	0.030658722	-0.39984822	-1.6394639
77335475911596	0.02482605	-0.4301916	-1.6248693
77335484212377	-0.7360239	0.53951657	-1.2298775
77335492513158	-0.6219349	0.48456374	-1.1450958
77335500813939	-0.10953331	0.4349588	-0.8799548
77335509114721	0.27582073	0.65432394	-0.28141308
77335517415502	0.3090458	0.87310374	0.47201872
77335525716283	0.56990623	0.9261954	0.9828849
77335534017064	1.098547	0.74108577	1.4646058
77335542317846	1.3957767	0.43767682	1.456089
77335550618627	1.7387238	0.13211218	1.5483494
77335558919408	1.9262915	-0.010970771	1.8240442
77335567220189	1.6225653	0.09766352	2.0053363
77335575520971	1.3665028	0.0737569	1.74861
77335583821752	1.2283726	-0.06337848	1.544955
77335592122533	0.8163662	-0.03525716	0.9927592
77335600423314	0.42909336	0.040734768	0.5466776
77335608724096	-0.24195671	0.41729346	0.0054888725
77335617024877	-0.6372175	0.5575199	-0.93664885
77335625325658	-0.6228161	0.5691645	-0.9657595
77335633626439	-0.91897106	0.93332803	-1.0059619
77335641927221	-0.7693062	1.1253413	-1.4509664
77335650228002	-0.21449184	1.0336522	-1.423871
77335658528783	0.44726276	0.9106242	-0.76306057
77335666829564	0.86277103	1.0566005	0.020223618
77335675130346	0.76025105	1.185212	0.5710919
77335683431127	1.0882368	0.8223789	0.94334173
77335691731908	1.6220818	0.059332803	1.4626601
77335700032689	2.1874971	-0.68604195	1.7558036
77335708333471	2.4339447	-1.0932525	1.7481861
77335716634252	2.400401	-1.0601256	1.8203876
77335724935033	1.7099714	-0.014052233	1.6908336
77335733235814	0.88896084	1.1480991	1.2151644
77335741536596	0.8708811	1.0779473	0.97034407
77335749837377	1.5818243	0.18015884	0.9127171
77335758138158	2.6837559	-0.77565837	0.90447545
77335766438939	2.6805506	-0.80302507	0.89609456
77335774739721	2.8841133	-0.91591537	-0.6408167
77335783040502	1.6237202	0.861304	-2.495104
77335791341283	-0.026763916	1.4529717	-1.99558
77335799642064	-0.83717537	1.3557339	-0.6486919
77335807942846	-0.4239397	0.77781737	0.28302908
77335816243627	-0.41419792	0.6878082	0.26864886
77335824544408	1.7646074	-0.020110369	1.5011086
77335832845189	1.8358574	0.012818456	2.2700257
77335841145971	1.76754	0.03467685	3.0732832
77335849446752	1.3006	0.2179867	3.8149073
77335857747533	0.19905567	0.60537535	4.0432825
77335866048314	0.24244213	0.5552227	3.935623
77335874349096	-0.77976227	1.0853913	2.909502
77335882649877	0.35465527	1.0869324	2.1861935
77335890950658	1.1806068	1.1296387	1.3630416
77335899251439	1.6576462	1.2422839	0.6234162
77335907552221	1.6323643	1.1830952	0.69113636
77335915853002	1.9548941	1.2759534	0.09510636
77335924153783	2.8269567	1.0378467	-1.0003002
77335932454564	2.866825	0.66906273	-1.4904988
77335940755346	2.5940208	0.4273976	-1.800484
77335949056127	1.9498634	0.3154391	-1.7806814
77335957356908	1.9309111	0.2528386	-1.7067723
77335965657689	1.0289736	0.3061614	-1.368181
77335973958471	-0.4651413	0.5699637	-0.3426702
77335982259252	-0.74363136	0.5380373	0.02774024
77335990560033	-0.93497086	0.47145104	0.27900934
77335998860814	-0.90843487	0.40858793	0.24070215
77336007161596	-0.9165201	0.35568297	0.41639304
77336015462377	-1.0395794	0.24367845	0.42193174
77336023763158	-1.4422455	0.030659318	0.26887655
77336032063939	-1.2560377	0.04798174	-0.02260375
77336040364721	-1.1635199	0.17098737	-0.050973654
77336048665502	-1.1612244	0.14592218	-0.03533435
77336056966283	-1.1454449	-0.14048934	0.20502901
77336065267064	-1.1526766	-0.14894009	0.23750901
77336073567846	-0.14491177	0.060587645	0.78621364
77336081868627	0.31383705	0.13596106	1.0495095
77336090169408	0.6903467	0.10348034	1.1443098
77336098470189	1.0130644	0.057043433	1.08163
77336106770971	1.004817	0.08254361	1.0812366
77336115071752	1.1842003	0.069120884	0.84501696
77336123372533	0.47043705	0.2860452	0.0021431446
77336131673314	-0.4908905	0.3834343	-0.39586353
77336139974096	-0.64594555	0.5531492	-0.7490735
77336148274877	-0.64620304	0.5377476	-0.7337878
77336156575658	-0.39307308	0.37362802	-1.0643098
77336164876439	-0.24895096	-0.14605474	-1.3902965
77336173177221	-0.83116055	-0.29527915	-1.5111036
77336181478002	-1.1967344	-0.18961501	-0.7961843
77336189778783	-0.83766174	0.33279204	-0.18922591
77336198079564	-0.82932186	0.31120706	-0.19467783
77336206380346	-1.6621838	0.2430315	1.3940845
77336214681127	-1.6407738	0.22623849	1.3487182
77336222981908	-1.0790539	0.6390586	2.2444398
77336231282689	-1.0515051	0.6210871	2.1785316
77336239583471	-0.30863285	0.622211	2.320966
77336247884252	0.170578	0.5554502	1.84005
77336256185033	0.5257673	0.48017454	1.1308584
77336264485814	0.70954037	0.3779292	0.5301304
77336272786596	0.58811283	0.23367333	0.24874449
77336281087377	0.40904808	0.12999058	0.52337
77336289388158	0.15079212	-9.775162E-4	1.1353335
77336297688939	-0.4537382	-0.3900025	1.8194678
77336305989721	-0.5003042	-0.37326908	2.4008105
77336314290502	0.14955139	0.0016901493	3.0902643
77336322591283	0.6952667	-0.074416876	4.317533
77336330892064	0.63795376	-0.6968415	5.410783
77336339192846	0.72086906	-0.66625	5.725017
77336347493627	0.95962906	-0.742645	5.676646
77336355794408	1.0016203	-1.0045834	5.2747297
77336364095189	0.7717314	-1.3022983	4.6130567
77336372395971	0.6028261	-1.5525193	3.1626804
77336380696752	0.59936523	-1.5736017	3.1768074
77336388997533	0.8845358	-1.8537354	2.7982113
77336397298314	1.0360823	-2.129203	2.5291395
77336405599096	0.9904833	-2.3885446	2.2764497
77336413899877	0.66071224	-2.6153257	1.9480517
77336422200658	0.015668869	-2.7776487	1.4909124
77336430501439	-0.67846775	-2.853341	1.0552559
77336438802221	-1.2672968	-2.8550866	0.61484075
77336447103002	-1.792388	-2.9408882	0.34215927
77336455403783	-2.2516127	-3.0455325	0.25498152
77336463704564	-2.6188288	-3.1117673	0.25939775
77336472005346	-2.5990458	-3.1174653	0.23343682
77336480306127	-2.8153229	-3.0212605	0.36229825
77336488606908	-2.4098272	-2.9566212	0.8441951
77336496907689	-2.054966	-2.945028	1.3494446
77336505208471	-1.9208708	-2.8706484	1.6740785
77336513509252	-1.9448147	-2.6712463	1.6659534
77336521810033	-1.9602242	-2.612852	1.6743855
77336530110814	-1.6833115	-2.2476666	0.7266214
77336538411596	-2.0228357	-1.9069464	-0.031636477
77336546712377	-2.1800985	-1.5954084	-0.7655506
77336555013158	-1.8965893	-1.3632054	-1.3164635
77336563313939	-1.195755	-1.172547	-1.5157735
77336571614721	-0.34408188	-0.9072535	-1.2972591
77336579915502	0.70953655	-0.4158913	-0.89906
77336588216283	1.8247805	-1.784563E-4	-0.9370079
77336596517064	2.306531	0.5111995	-1.0324538
77336604817846	2.1375666	1.1075106	-0.88641024
77336613118627	2.0086164	1.4936912	-0.7800939
77336621419408	1.970026	1.5939364	-0.7179749
77336629720189	1.6103249	2.0338018	-1.8183489
77336638020971	-0.08226681	2.4604795	-1.1734767
77336646321752	-1.1837759	2.5837424	-0.29311895
77336654622533	-1.7387466	2.4860654	0.61616325
77336662923314	-1.74434	2.5452778	0.6247413
77336671224096	-1.8691797	2.340384	1.6472926
77336679524877	-0.5326452	2.1458228	3.9879324
77336687825658	0.94754505	2.1454706	3.5828521
77336696126439	2.4360495	2.0610504	2.4292467
77336704427221	3.5619402	2.0964456	1.0448663
77336712728002	3.524705	2.183748	1.132138
77336721028783	3.9499445	2.357825	0.1702025
77336729329564	4.9960623	1.0477487	-1.5799174
77336737630346	4.7855854	1.0202143	-5.26029
77336745931127	3.6273012	1.3371041	-7.1601186
77336754231908	3.605073	1.3650488	-7.083007
77336762532689	2.2227554	0.87312305	-5.4605117
77336770833471	1.9234142	0.26362115	-4.049634
77336779134252	1.9424667	-0.3000393	-2.2926416
77336787435033	1.5216999	-0.5690294	-0.6309415
77336795735814	0.86733055	-0.6727611	0.83525705
77336804036596	0.20257092	-0.67847234	1.8193313
77336812337377	-0.4122591	-0.6214723	2.2946
77336820638158	-0.4193859	-0.6226785	2.3354526
77336828938939	-1.6482906	-0.13683313	2.6301386
77336837239721	-2.0384884	0.26348364	2.2847452
77336845540502	-2.2455854	0.6180117	1.4733751
77336853841283	-2.2499704	0.6219828	1.5276353
77336862142064	-2.373681	0.90081805	0.25719416
77336870442846	-2.4633493	1.1227739	-1.179518
77336878743627	-2.2389708	1.4023579	-3.0550294
77336887044408	-1.566555	1.0600877	-4.072466
77336895345189	-1.5775061	1.0819224	-3.9262831
77336903645971	-0.87400913	0.6158012	-4.54893
77336911946752	-0.21582222	0.6558974	-3.0253837
77336920247533	0.4919815	1.122224	0.41404593
77336928548314	1.777297	0.5534132	3.1944926
77336936849096	1.5454359	0.46854937	2.1683218
77336945149877	0.8519945	0.55485415	1.4178622
77336953450658	0.84998703	0.5789591	1.438792
77336961751439	0.2959404	0.805585	0.45288604
77336970052221	0.29488468	0.81416345	0.47609732
77336978353002	1.0719843	0.39374426	-0.9422339
77336986653783	1.6129217	-0.019043028	-1.3382196
77336994954564	1.6088381	-0.011898726	-1.286713
77337003255346	1.8125076	0.06990123	-1.9557741
77337011556127	1.4355259	0.13460752	-2.3756683
77337019856908	0.5741291	-0.115196854	-2.0796204
77337028157689	-0.56607914	-0.8224343	-0.25237572
77337036458471	-4.8735857	-6.7876816	11.615733
77337044759252	-3.4275446	1.4882832	0.7412867
77337053060033	-0.33875942	1.2753841	-4.7369046
77337061360814	1.6876974	-1.0309777	-3.7025115
77337069661596	1.4016752	0.33003858	-1.1379721
77337077962377	0.5713234	0.38947305	-2.3717656
77337086263158	0.57278156	0.42395517	-2.3239105
77337094563939	0.3340292	0.57230973	-0.57274055
77337102864721	-0.045060158	0.8769052	0.92290854
77337111165502	0.34949684	1.3713863	1.8049054
77337119466283	1.4263897	1.5321561	2.2254486
77337127767064	2.3792524	-0.54153496	2.0249119
77337136067846	2.3758116	-0.5003232	1.9895041
77337144368627	1.7306957	0.079690516	1.8664865
77337152669408	0.9607477	0.52703756	2.2051206
77337160970189	0.3642416	0.9516134	2.5917432
77337169270971	-0.1122551	1.3906443	2.5711327
77337177571752	-0.7909527	1.2778003	1.9586564
77337185872533	-1.9255209	0.6781254	1.4638491
77337194173314	-2.3358393	0.62597746	1.0685489
77337202474096	-2.2814722	0.55216306	0.9670781
77337210774877	-1.3293247	0.1481337	0.46671143
77337219075658	0.5119505	-0.6351535	-0.5476514
77337227376439	0.5206022	-0.5891677	-0.43253207
77337235677221	2.321024	-0.93094915	-2.505323
77337243978002	1.9747038	-0.29213244	-3.0880997
77337252278783	1.2913294	-0.1901232	-1.9430747
77337260579564	0.87201977	-0.20749557	-0.45001292
77337268880346	0.8396797	-0.005962491	0.55708516
77337277181127	0.8408327	0.012292504	0.563869
77337285481908	-0.85944843	-0.16063857	3.4753397
77337293782689	-1.9797735	-0.035539865	4.6532254
77337302083471	-1.9582338	-0.3167318	4.200185
77337310384252	-1.5096931	-1.011646	2.3246412
77337318685033	-1.1811047	-1.5483898	0.014118612
77337326985814	-0.3274908	-1.073528	-1.6505015
77337335286596	0.7452955	-0.796265	-1.0610663
77337343587377	1.4583111	-0.7429607	0.007065654
77337351888158	1.6917505	-0.09826207	0.46971953
77337360188939	1.6221294	0.18751228	0.0401659
77337368489721	1.1674223	-0.5837543	-0.8204037
77337376790502	1.1744442	-0.5343704	-0.80127466
77337385091283	-0.17379093	-1.4700814	-0.053396106
77337393392064	-0.45810413	-1.3977746	-0.4309162
77337401692846	-0.8079462	-1.3653541	-0.26179028
77337409993627	-1.1698446	-0.7152741	1.4309347
77337418294408	-1.171608	-0.68534374	1.3351077
77337426595189	-1.6689262	0.42198718	3.6828883
77337434895971	-2.032177	-0.13286328	1.8541393
77337443196752	-3.2776127	-0.403574	1.474965
77337451497533	-2.375473	-0.17743826	-0.73366547
77337459798314	-0.14717579	0.046519995	-1.9090095
77337468099096	-0.12509537	0.15738177	-1.9415435
77337476399877	1.3965521	-0.018426895	0.47021085
77337484700658	1.7247629	-0.5412116	0.460838
77337493001439	2.55439	-0.90620065	0.20382202
77337501302221	2.822442	-1.2511797	0.41688502
77337509603002	2.848319	-1.1342652	0.4033778
77337517903783	1.983387	-1.3865154	0.8546558
77337526204564	2.00175	-1.3080776	0.8374377
77337534505346	1.6609402	-1.6556346	0.5932789
77337542806127	1.4666605	-1.4825861	0.25952637
77337551106908	1.2919044	-1.1798289	-0.08893074
77337559407689	1.0126743	-0.74009633	-0.06097935
77337567708471	1.0074329	-0.7483077	-0.061198622
77337576009252	0.75416374	-0.2154727	0.17094511
77337584310033	2.062005	0.011501074	-4.5072937
77337592610814	1.4894295	-0.51433516	-1.8305092
77337600911596	-0.33960247	-0.7660837	3.299546
77337609212377	-0.34956646	-0.79981875	3.2993915
77337617513158	-1.1285172	-0.7257278	4.797628
77337625813939	0.06523514	-0.17144346	0.8722199
77337634114721	0.82728386	0.33582115	-0.42694116
77337642415502	0.67831993	-0.31617522	0.0973821
77337650716283	0.80703354	-0.9540825	-0.2899692
77337659017064	0.80299187	-0.9607611	-0.3177645
77337667317846	1.3466587	-0.63009024	1.217178
77337675618627	-0.18717766	-0.61345744	1.9542532
77337683919408	-0.78331375	-1.6668653	1.3393795
77337692220189	0.7823181	-1.1683333	0.5153077
77337700520971	1.3267803	0.45956635	-0.17333362
77337708821752	0.523963	2.0573964	-0.14657821
77337717122533	-0.8184757	2.7324948	0.3952633
77337725423314	-0.8070507	2.7599351	0.39777768
77337733724096	0.2745819	2.0781076	-0.030803796
77337742024877	0.9008074	1.2490208	1.0596136
77337750325658	0.13053799	0.4637444	0.5385174
77337758626439	0.1407795	0.49429154	0.61520815
77337766927221	-0.2102499	0.15822053	-0.20304716
77337775228002	0.709178	0.3049662	0.10698596
77337783528783	0.56225014	-0.017863035	0.57223576
77337791829564	-0.007088661	0.18854904	0.57612586
77337800130346	-0.005712509	0.19395232	0.56109554
77337808431127	0.34945583	0.22273922	0.29850838
77337816731908	0.63495827	0.16847348	0.06381497
77337825032689	0.5830574	0.11261225	-0.019727528
77337833333471	0.2661085	-0.057739735	0.20406812
77337841634252	0.26616192	-0.056073427	0.20789328
77337849935033	0.26197052	-0.10960531	0.27410683
77337858235814	0.18928242	-0.20576882	0.03279099
77337866536596	0.24109173	-0.3807702	0.07232383
77337874837377	0.13907433	-0.48029542	0.15437064
77337883138158	0.13542843	-0.4847877	0.3018879
77337891438939	0.13496304	-0.48485827	0.30679634
77337899739721	0.15880871	-0.4901018	0.32735595
77337908040502	0.12397957	-0.5201223	0.28759885
77337916341283	0.052275658	-0.4969883	0.22969583
77337924642064	-0.01061821	-0.3436451	0.17038313
77337932942846	-0.061903954	-0.07073593	0.105465025
77337941243627	-0.2372303	0.81043077	-0.10386562
77337949544408	-0.103158	0.913887	-0.21807426
77337957845189	0.5685005	0.7472608	-0.10805738
77337966145971	0.9716282	0.7253139	0.010808945
77337974446752	0.48490334	0.9865937	0.16207671
77337982747533	0.48363876	0.98392534	0.15956181
77337991048314	-0.086559296	2.3828678	2.4348924
77337999349096	0.8482933	1.6622407	2.1242096
77338007649877	1.5355167	0.9163828	1.3813611
77338015950658	1.3873892	0.7763891	0.93384504
77338024251439	0.5807724	0.8890755	0.85982937
77338032552221	0.0364151	0.3030107	0.376782
77338040853002	0.06967926	-0.38364387	-0.07697201
77338049153783	0.051630974	-0.67864037	-0.21092558
77338057454564	0.057099342	-0.5188122	-0.2852183
77338065755346	0.08786869	-0.07617402	-0.15400973
77338074056127	0.080563545	-0.10186553	-0.14604503
77338082356908	0.23642445	0.7846217	0.74799454
77338090657689	0.18172646	0.92722535	0.45724192
77338098958471	0.34360123	0.9966862	0.65631604
77338107259252	0.38052273	1.2572937	0.8284297
77338115560033	0.2514038	1.4144242	0.75024205
77338123860814	0.25065804	1.4118321	0.740224
77338132161596	0.060836792	1.1147375	0.4802648
77338140462377	-0.08197212	-0.06667948	0.53332496
77338148763158	-0.054585457	-0.1456151	0.64089096
77338157063939	0.08831501	0.036863327	0.660817
77338165364721	0.19932365	0.17932558	0.6755694
77338173665502	0.2057743	0.20391178	0.6668372
77338181966283	-0.007334709	0.03738904	1.0820494
77338190267064	0.11759949	0.210953	0.9936166
77338198567846	0.16208935	-0.5822005	0.11744927
77338206868627	0.2745428	-1.9749188	-1.0099809
77338215169408	0.44890308	-3.3504713	-1.8686383
77338223470189	0.30846596	-3.4590418	-1.7719616
77338231770971	-1.0617647	-0.44065714	0.049160436
77338240071752	-0.20649242	-0.29764676	0.78138554
77338248372533	-0.13770103	-0.370677	0.34822378
77338256673314	-0.21235847	-0.26605606	0.08402245
77338264974096	-0.12249184	-0.08297348	0.106982514
77338273274877	-0.12548447	-0.09342694	0.11270943
77338281575658	0.44796944	-0.016047	0.03367886
77338289876439	0.19024181	0.060394526	0.2865116
77338298177221	0.11331558	0.3360684	0.26675504
77338306478002	0.2025013	0.4983921	0.111444585
77338314778783	0.10410786	0.51517034	0.14631942
77338323079564	0.09356117	0.48028708	0.12020311
77338331380346	0.3029518	0.855212	0.497835
77338339681127	0.62734413	0.8194237	0.3890034
77338347981908	0.6806097	0.6153407	0.30876344
77338356282689	0.4899521	0.40665007	0.45528227
77338364583471	0.47293568	0.3464303	0.4569166
77338372884252	0.2507887	0.2679708	0.69207835
77338381185033	0.2962618	0.1401279	1.6172869
77338389485814	-0.28362465	-0.80265737	4.1090264
77338397786596	-0.5178757	-1.0148668	-0.7196325
77338406087377	0.31007957	0.18492055	-3.6928024
77338414388158	0.28324986	0.06121087	-3.7131126
77338422688939	1.0398932	1.2663962	-2.8197403
77338430989721	0.18605518	-0.54823315	0.5064385
77338439290502	0.26640415	-0.66790545	0.8607718
77338447591283	0.4693737	-0.4505247	0.69598335
77338455892064	0.6599493	-0.03347099	0.3870926
77338464192846	0.9269304	0.04464984	0.24245475
77338472493627	0.9219475	0.019616246	0.21303469
77338480794408	0.090984344	-0.6904311	0.47319946
77338489095189	0.18824482	-0.5419426	0.6702292
77338497395971	0.39148617	-0.46102476	0.9044498
77338505696752	0.5334101	-0.32593346	0.66734636
77338513997533	0.53584576	-0.30338442	0.6630602
77338522298314	0.6232481	0.3916235	-0.19835353
77338530599096	0.554409	1.5871602	-1.1817315
77338538899877	-0.25564957	0.9642017	-0.47334936
77338547200658	-0.10894394	0.69796777	-0.12952405
77338555501439	-0.10728741	0.7087376	-0.10713509
77338563802221	-0.20984554	0.7113596	0.05030866
77338572103002	-0.15928459	0.60109556	0.25239676
77338580403783	-0.004893303	0.107608914	0.39039183
77338588704564	-0.22796059	0.114491224	0.3223446
77338597005346	-0.7391205	1.3989162	0.06838088
77338605306127	-0.9954004	2.1004534	-0.05392547
77338613606908	-0.6873007	2.011909	0.008088127
77338621907689	-0.14780235	1.5066055	0.136385
77338630208471	-0.14482498	1.5193797	0.14257799
77338638509252	0.1194191	0.546584	0.3772234
77338646810033	0.41842365	-0.069765925	0.40512562
77338655110814	1.1157656	-0.5544269	0.17293164
77338663411596	1.9996643	-0.23078227	-0.9554695
77338671712377	2.0231428	0.011349082	-1.2576088
77338680013158	0.56512356	-0.8962511	0.6013486
77338688313939	0.38385582	-1.5233561	-0.3606225
77338696614721	0.1087904	-0.47262287	0.50211924
77338704915502	-0.071489334	-0.1649127	0.52435493
77338713216283	-0.05417347	-0.07591748	0.08040646
77338721517064	-0.17417812	0.35553145	-0.17804962
77338729817846	-0.6395445	1.2086608	0.13838471
77338738118627	-0.38420868	1.0140387	0.09775062
77338746419408	-0.027395248	0.8985491	0.05985138
77338754720189	0.07170582	0.48542798	-0.2708123
77338763020971	-0.20710659	0.45624185	-0.21774147
77338771321752	-0.3510933	0.7369859	0.11417706
77338779622533	-0.35180473	0.72776186	0.1192465
77338787923314	-0.041096687	0.98476815	-0.05702886
77338796224096	0.022886276	0.84702706	-0.37722278
77338804524877	-0.4068489	0.18393147	-0.25407588
77338812825658	-0.55345535	-0.1492542	0.033729658
77338821126439	-0.3828516	-0.2795769	0.4462846
77338829427221	-0.38626766	-0.30320382	0.46034747
77338837728002	-2.1444902	0.37520456	1.000894
77338846028783	-2.00875	0.4705515	0.8645294
77338854329564	-1.188282	0.42112255	0.62034154
77338862630346	-0.14795017	0.32734942	0.26242077
77338870931127	0.7583122	0.28072703	-0.13163157
77338879231908	0.7553425	0.2712617	-0.11395234
77338887532689	1.3920288	0.24644852	-0.4123015
77338895833471	0.91482925	0.1485542	-0.17512417
77338904134252	0.47614574	0.06271863	0.04583611
77338912435033	0.1534481	-0.019931793	0.12929787
77338920735814	-0.074344635	-0.0905993	0.0734211
77338929036596	-0.07355213	-0.086212754	0.06783746
77338937337377	0.45327187	-0.39271963	-0.14506671
77338945638158	0.507926	-0.22305405	-0.058645267
77338953938939	0.6094589	-0.24883449	0.083017915
77338962239721	0.8634863	-0.51498103	0.22449696
77338970540502	0.750679	-0.5777894	0.355734
77338978841283	0.7489128	-0.5784998	0.33960944
77338987142064	-0.8513346	0.44343972	0.2663961
77338995442846	0.47982025	-0.28116488	0.17413941
77339003743627	0.6229286	-0.16391945	0.21625227
77339012044408	0.45084953	0.05646193	0.25293076
77339020345189	0.3677435	0.072292924	0.28833836
77339028645971	0.3652506	0.059436202	0.27871937
77339036946752	1.646882	-1.1030555	0.4926732
77339045247533	-1.1608839	1.2603722	0.15764523
77339053548314	-0.3426466	0.7547159	-0.16929084
77339061849096	0.3037424	0.2216543	-0.2112319
77339070149877	0.29941654	0.19184113	-0.22441803
77339078450658	-0.0154800415	0.32831883	-0.08580369
77339086751439	0.03909397	0.27361333	0.28608525
77339095052221	0.35689735	0.2977116	0.39319304
77339103353002	0.6637192	0.2851565	0.24776423
77339111653783	1.1727924	0.027244568	0.33061588
77339119954564	1.168354	0.004212618	0.3076702
77339128255346	-0.5992079	0.60690856	-0.20010337
77339136556127	-0.047816277	0.7274976	-0.18016902
77339144856908	1.5916252	-0.18322158	-0.29850414
77339153157689	0.9105463	0.020390153	0.007987887
77339161458471	0.4075842	0.086750746	0.3163399
77339169759252	0.4087658	0.10381091	0.3137025
77339178060033	0.66145515	-0.031025171	0.30788422
77339186360814	1.5912361	-0.075984	0.14494044
77339194661596	1.303935	0.015811801	0.09762114
77339202962377	0.8057184	-0.074900985	0.26156324
77339211263158	0.48256207	-0.17722487	0.31897673
77339219563939	0.3466425	-0.21583855	0.22582483
77339227864721	0.34711456	-0.20480716	0.22875765
77339236165502	0.3202362	0.1555152	0.10606834
77339244466283	0.41549587	0.25714147	-0.0057556033
77339252767064	0.4144268	0.28019547	-0.06707975
77339261067846	0.16084576	0.43530202	-0.16330498
77339269368627	0.16137981	0.4453652	-0.14623547
77339277669408	-0.13017559	0.68012893	-0.2515662
77339285970189	-0.09875202	0.77159846	-0.28461158
77339294270971	0.013884544	0.5552565	-0.2888598
77339302571752	-0.78625584	0.25548208	-0.06814879
77339310872533	-0.78390026	0.26294684	-0.052757174
77339319173314	-1.0664272	0.11663103	0.3116589
77339327474096	-1.1299868	0.08111596	0.4801163
77339335774877	-1.1272736	0.083872795	0.48101658
77339344075658	-0.45270634	0.43233228	-0.017602116
77339352376439	-0.28280067	0.56823075	-0.07325651
77339360677221	-0.5765295	0.68034434	0.07011594
77339368978002	-1.1676092	0.555352	0.14893557
77339377278783	-1.530263	0.33257318	0.08252174
77339385579564	-1.5254164	0.34354448	0.081177264
77339393880346	-1.013814	0.19850421	-0.13463879
77339402181127	-1.3111868	0.12654996	-0.30081177
77339410481908	-1.7973309	0.1069324	-0.42822218
77339418782689	-1.6549053	-0.0122282505	-0.46822518
77339427083471	-0.9840269	-0.13632321	-0.4040385
77339435384252	-0.47609234	-0.06144929	-0.26369333
77339443685033	-0.02917862	-0.16579652	-0.29852557
77339451985814	0.98974895	-0.14193809	-0.18342963
77339460286596	1.5307493	0.011554599	-0.1118992
77339468587377	1.4115391	-0.012608886	-0.056766033
77339476888158	0.7734995	-0.22856712	0.0034368336
77339485188939	0.12684822	-0.3904996	0.076084256
77339493489721	0.2711277	-0.5381563	0.21393585
77339501790502	0.69980145	-0.47514296	0.14837167
77339510091283	0.8707571	-0.37655282	0.047626793
77339518392064	0.8917904	-0.3415656	-0.0239999
77339526692846	0.9736147	-0.3886509	-0.051312715
77339534993627	0.98674107	-0.32853532	-0.052069843
77339543294408	1.8366909	-0.34508204	0.07676095
77339551595189	2.1013145	-0.24544168	-0.07859969
77339559895971	2.154027	-0.20098305	-0.06705737
77339568196752	2.020791	-0.19591832	-0.09522015
77339576497533	1.6012077	-0.22962618	-0.20410839
77339584798314	0.822978	-0.33103108	-0.24550879
77339593099096	0.74302197	-0.58007574	-0.14670473
77339601399877	0.79139805	-0.59597826	-0.10801223
77339609700658	0.9238634	-0.70983005	-0.1239661
77339618001439	1.036396	-0.7430632	-0.11656436
77339626302221	1.1258392	-0.7005656	-0.10145721
77339634603002	1.1214952	-0.7058871	-0.0997217
77339642903783	1.4073	-0.7810819	-0.011698633
77339651204564	1.6140938	-0.8519356	0.49635255
77339659505346	1.0134182	-0.3181708	0.4534282
77339667806127	0.4480877	0.21484375	-0.20844059
77339676106908	0.08632755	0.5209849	-0.82473826
77339684407689	-0.7450218	0.8866844	-0.40071607
77339692708471	-2.0730362	1.2717891	-0.37891072
77339701009252	-2.5453281	1.4257636	-0.08045053
77339709310033	-2.005847	1.5259881	0.04599576
77339717610814	-1.0322905	1.5526986	-0.004141244
77339725911596	-0.12373829	1.4477193	-0.09795265
77339734212377	-0.12659931	1.4325247	-0.085165665
77339742513158	0.4603653	0.9427564	0.06106869
77339750813939	0.41849232	0.6271012	0.11682814
77339759114721	0.43315887	0.40199876	0.071638644
77339767415502	0.46002865	0.31818247	0.05636579
77339775716283	0.46279144	0.33008313	0.06494823
77339784017064	0.45955563	0.32053065	0.05839151
77339792317846	0.28579235	0.3563826	-0.065486476
77339800618627	0.051016808	0.5813918	-0.14146462
77339808919408	-0.23250103	0.798609	-0.25913873
77339817220189	-0.25139904	0.64363194	-0.2227336
77339825520971	-0.2524824	0.63583064	-0.22374347
77339833821752	-0.042346	0.22835708	-0.05367308
77339842122533	0.0071258545	0.37769914	-0.054394502
77339850423314	2.89917E-4	0.3152752	-0.087685764
77339858724096	-0.0018920898	0.21783304	-0.00854575
77339867024877	0.05589199	-0.00903964	0.095241845
77339875325658	0.055336952	-0.010811806	0.088370174
77339883626439	0.23527241	-0.47928047	0.16139396
77339891927221	0.2499609	-1.4963069	0.42994547
77339900228002	0.40255737	-1.1177726	0.10637753
77339908528783	-0.40059566	0.2388134	-0.19940904
77339916829564	-1.0271931	1.564018	-0.5080534
77339925130346	-0.88812923	2.1372721	-0.737213
77339933431127	-0.8899994	2.117408	-0.73175013
77339941731908	-0.3524065	1.5345066	-0.45873785
77339950032689	-0.17453957	1.0889423	-0.1771361
77339958333471	0.21006012	0.3128438	0.12416203
77339966634252	0.83574677	-0.65380883	0.30050302
77339974935033	1.0648699	-1.229672	0.37362102
77339983235814	1.0632496	-1.2247276	0.36678684
77339991536596	0.21263504	-0.6385114	0.37915784
77339999837377	0.5001745	-0.5993359	0.2814235
77340008138158	0.53704166	-0.39508247	0.22220147
77340016438939	0.53102016	-0.41551685	0.21430236
77340024739721	0.54390335	-0.21835995	0.15820982
77340033040502	0.5565386	-0.11556172	0.052934147
77340041341283	0.30365753	0.012552738	-0.12400529
77340049642064	-0.05181694	0.20159149	-0.09913622
77340057942846	0.0052433014	0.3777423	-0.14785244
77340066243627	0.19878864	0.34426737	-0.16383317
77340074544408	0.3879261	0.15860939	-0.12541544
77340082845189	0.44981956	-0.06370783	-0.037483558
77340091145971	0.4505148	-0.056387186	-0.03008996
77340099446752	-0.27939415	0.29101038	0.17009321
77340107747533	-0.27350712	0.5214946	0.22929128
77340116048314	-0.10138512	0.40599775	0.108612746
77340124349096	-0.1702919	0.51167893	0.021952108
77340132649877	-0.45930004	0.8372407	0.03614063
77340140950658	-0.45524025	0.60513806	-0.036445998
77340149251439	-0.1200304	0.44867444	-0.05525452
77340157552221	0.4580698	0.29405284	-0.1563404
77340165853002	0.72543335	0.16112113	-0.25214404
77340174153783	0.4914627	0.25513577	-0.24027687
77340182454564	-0.22428131	0.77337074	-0.15331466
77340190755346	-1.1363506	1.7396262	-0.17813
77340199056127	0.84913254	-0.42817807	0.032790203
77340207356908	0.85017776	-0.41591	0.032052077
77340215657689	0.6919918	-0.24103379	-0.1099921
77340223958471	0.9520407	-0.72799325	-0.30974746
77340232259252	0.55614567	-1.1383574	-0.16545944
77340240560033	0.5530577	-1.143584	-0.17031139
77340248860814	0.5700407	-0.07488799	-0.086340375
77340257161596	0.50064754	0.3656695	-0.13299409
77340265462377	0.24659157	0.31332397	-0.15969126
77340273763158	0.1622734	0.29025888	-0.25989127
77340282063939	0.18493652	0.60460305	-0.34589475
77340290364721	0.17983437	0.5836394	-0.35448128
77340298665502	0.33770657	0.559181	0.04232044
77340306966283	0.045078278	0.6567311	-0.30428436
77340315267064	0.11230755	0.6992326	-0.26796708
77340323567846	0.15951252	0.68651175	-0.1821968
77340331868627	-0.04169655	0.6398895	-0.2511459
77340340169408	-0.1403923	0.5843184	-0.12600592
77340348470189	-0.07801342	0.57168436	-0.11319025
77340356770971	-0.044463158	0.51025987	-0.103315435
77340365071752	0.198946	0.43458033	-0.112715945
77340373372533	0.09377575	0.35443377	0.03624498
77340381673314	-0.23390007	0.31660557	0.2278606
77340389974096	-0.23655224	0.30164504	0.21521845
77340398274877	0.41231441	0.27230287	-0.20864941
77340406575658	0.28818607	0.21138096	-0.16944946
77340414876439	0.29086685	0.11525631	-0.15576446
77340423177221	0.34988117	0.02129364	-0.2132209
77340431478002	0.45332146	-0.04420829	-0.2717687
77340439778783	0.45029068	-0.05484748	-0.28416067
77340448079564	0.5586662	-0.2540567	-0.1305662
77340456380346	0.49539566	-0.28584552	-0.1615177
77340464681127	0.5707674	-0.33045244	-0.1997006
77340472981908	0.69632435	-0.3744173	-0.22048952
77340481282689	0.7930784	-0.39921474	-0.21184155
77340489583471	0.7913456	-0.39934134	-0.21725738
77340497884252	0.8494959	-0.4661076	-0.077999026
77340506185033	0.78128624	-0.49101448	-0.01771991
77340514485814	0.66938305	-0.48118377	0.0646507
77340522786596	0.53932	-0.40079784	0.15184683
77340531087377	0.3656397	-0.23540354	0.17267036
77340539388158	0.359231	-0.23906446	0.16486445
77340547688939	-0.6274061	0.7535374	0.12480709
77340555989721	-1.6718521	1.6672485	-0.30507672
77340564290502	-1.7810745	1.8065305	-0.47102943
77340572591283	-1.25249	1.5087757	-0.38057464
77340580892064	-1.2518721	1.4968174	-0.37276703
77340589192846	-0.043807983	0.96358657	-0.1579327
77340597493627	0.21646595	0.68438935	-0.20534414
77340605794408	0.17677498	0.56594086	-0.0049375594
77340614095189	0.3295622	0.4216137	0.049146995
77340622395971	0.44642735	0.2624234	0.011890903
77340630696752	0.35639	0.124620795	-0.004404962
77340638997533	0.35532475	0.121319294	-0.01549688
77340647298314	0.0058317184	0.21179616	-0.108605534
77340655599096	0.093912125	0.4173931	-0.13337588
77340663899877	0.07074356	0.57318497	-0.24091813
77340672200658	0.059191704	0.6091548	-0.29115433
77340680501439	0.15510559	0.51725733	-0.21074557
77340688802221	0.15459442	0.5146643	-0.21395236
77340697103002	0.33456898	0.2623428	-0.10111141
77340705403783	0.23213673	0.18991506	-0.1102539
77340713704564	0.060958862	0.2535361	-0.096407026
77340722005346	-0.045228958	0.42422235	-0.06368384
77340730306127	-0.045419693	0.42249846	-0.059732795
77340738606908	-0.043747902	0.5568074	-0.049174756
77340746907689	0.088747025	0.1606785	-0.07177073
77340755208471	0.044070244	0.22926223	0.0061199665
77340763509252	0.033065796	0.28543603	0.041760594
77340771810033	0.04820156	0.29240143	0.051496476
77340780110814	0.048095703	0.29159617	0.050219238
77340788411596	0.061421394	0.3006556	0.059986204
77340796712377	0.12888813	0.35783923	0.07344425
77340805013158	0.20100021	0.48293614	0.09627223
77340813313939	0.25946808	0.62472725	0.1358023
77340821614721	0.24866676	0.6822498	0.16911557
77340829915502	0.1719656	0.70610917	0.17037937
77340838216283	0.044664383	0.62674725	0.14952022
77340846517064	0.045194626	0.62803626	0.14592645
77340854817846	0.05894661	0.43828034	0.20537347
77340863118627	0.012056351	0.37554276	0.25065506
77340871419408	0.050679207	0.18308604	0.22351974
77340879720189	0.11174393	-0.048902035	0.21551067
77340888020971	0.13530159	-0.17074573	0.2721351
77340896321752	0.1873951	-0.12061703	0.2772967
77340904622533	0.16612911	0.16365814	0.17757708
77340912923314	0.18285942	0.36698937	0.10255599
77340921224096	0.20539284	0.5502523	0.04088992
77340929524877	0.20895958	0.773901	-0.0334872
77340937825658	0.1749773	1.0148356	-0.12970355
77340946126439	0.09046936	1.0920177	-0.21355385
77340954427221	0.23506737	0.68155265	-0.11531827
77340962728002	0.15089607	0.5324402	-0.037170827
77340971028783	0.63294315	-0.81937003	0.014661163
77340979329564	0.6826811	-1.8696916	0.11490741
77340987630346	-0.14000988	0.7298744	0.055607498
77340995931127	-0.14073563	0.7257345	0.07082453
77341004231908	-0.0020551682	1.1941288	-0.2534053
77341012532689	0.094602585	1.0930121	-0.3995097
77341020833471	0.0880661	0.9697405	-0.35316345
77341029134252	0.09667587	0.92017066	-0.20825505
77341037435033	0.29112434	0.908105	0.056907415
77341045735814	0.2892704	0.90277565	0.080332294
77341054036596	0.23171139	0.8580798	-0.044694453
77341062337377	0.2842703	0.7565241	0.010851711
77341070638158	0.36592388	0.64214015	0.05727808
77341078938939	0.35926533	0.6272887	0.09070618
77341087239721	0.40660095	0.4583161	0.3495389
77341095540502	0.651536	0.26338315	0.40098062
77341103841283	0.87935925	0.073539734	0.34214208
77341112142064	1.1818819	-0.18291545	0.22456685
77341120442846	1.4986763	-0.42158246	0.11256111
77341128743627	1.8145599	-0.6408454	0.00869596
77341137044408	2.102046	-0.8402703	-0.05933094
77341145345189	2.1820202	-0.91659534	0.032479376
77341153645971	2.084136	-0.91760397	0.08531159
77341161946752	1.764224	-0.7739705	0.1291768
77341170247533	1.3153753	-0.5226953	0.14455196
77341178548314	0.8251896	-0.25875306	0.04944119
77341186849096	0.3091135	-0.05389607	-0.17749289
77341195149877	0.3039646	-0.09895766	-0.12437302
77341203450658	-0.91663074	0.24753511	-0.6330801
77341211751439	-1.2308083	0.31443894	-0.8660321
77341220052221	-1.3932734	0.33804083	-1.0436933
77341228353002	-1.3921385	0.2828424	-0.9670797
77341236653783	-1.2800846	0.32310367	-1.0478663
77341244954564	-1.2771692	0.27578783	-0.9783107
77341253255346	-0.9999342	0.6153766	-0.7021016
77341261556127	-1.2035856	0.95105934	-0.40110278
77341269856908	-1.1997061	0.92258716	-0.35949838
77341278157689	-1.4897442	1.2885364	0.036750197
77341286458471	-2.1257372	1.8225414	0.7382262
77341294759252	-2.122754	1.8108876	0.731807
77341303060033	-2.9161577	2.1609826	0.8597363
77341311360814	-3.224102	2.2856498	0.9005958
77341319661596	-3.2219257	2.2858007	0.8512312
77341327962377	-3.3440323	2.1308908	1.5358114
77341336263158	-3.3431034	2.1322622	1.4621203
77341344563939	-3.360116	1.7590821	1.8440692
77341352864721	-3.2127905	0.7753358	3.7795126
77341361165502	-3.0718899	0.13663328	4.4482965
77341369466283	-2.728528	-0.5480187	4.708086
77341377767064	-2.7277155	-0.5429287	4.5624585
77341386067846	-2.1865673	-1.289057	4.38703
77341394368627	-0.49975967	-3.0069742	3.6199508
77341402669408	0.4721012	-4.1121974	2.7518356
77341410970189	1.0694332	-5.05307	2.049811
77341419270971	1.4224567	-5.870506	0.84919894
77341427571752	1.4292841	-5.8134084	0.7493798
77341435872533	2.0076666	-6.290408	-0.6953073
77341444173314	5.2331486	-5.9014635	-2.7823038
77341452474096	7.091918	-5.186204	-3.14127
77341460774877	7.951742	-3.6630895	-2.1056173
77341469075658	7.9468155	-3.6042614	-2.1458082
77341477376439	7.311138	-1.4052646	-0.66543865
77341485677221	5.6219225	0.7780775	0.1825031
77341493978002	2.934536	3.1080208	-1.2267094
77341502278783	1.4848967	3.7811456	-1.6063725
77341510579564	-1.0482502	4.3369884	-1.2969882
77341518880346	-1.0488176	4.3347607	-1.2419368
77341527181127	-5.7234745	4.654105	-0.76044774
77341535481908	-5.71978	4.616856	-0.70588446
77341543782689	-5.6801357	4.398967	-1.0065411
77341552083471	-3.9117527	3.8625922	-1.0491644
77341560384252	-3.9096384	3.8236637	-1.0278697
77341568685033	-2.0009031	3.183992	-1.0455673
77341576985814	-0.0043582916	2.3775969	-0.91338646
77341585286596	1.8824272	1.4087638	-0.6851991
77341593587377	3.3774862	0.34198797	-0.5153699
77341601888158	4.1661005	-0.70164835	-0.5829521
77341610188939	3.5859022	-1.2911617	-0.7528149
77341618489721	2.3636913	-1.3859857	-0.7072612
77341626790502	1.1487379	-1.2168487	-0.74845904
77341635091283	0.13962936	-0.8733541	-0.8199671
77341643392064	-0.6974392	-0.39025867	-0.81248325
77341651692846	-1.3207798	0.1107806	-1.00984
77341659993627	-1.6049643	0.37849176	-1.4570637
77341668294408	-1.5808153	0.37652504	-1.897316
77341676595189	-1.1818562	0.16858053	-2.2824926
77341684895971	-0.5810261	-0.09628236	-2.4977233
77341693196752	-0.051034927	-0.294564	-2.452059
77341701497533	0.17584038	-0.43106878	-2.2553835
77341709798314	0.021569252	-0.3776331	-1.9221407
77341718099096	-0.30270863	-0.2884004	-1.6732521
77341726399877	-0.6311636	-0.13218391	-1.4824951
77341734700658	-0.7419529	0.09585595	-1.2921332
77341743001439	-0.4838276	0.40685654	-1.0726565
77341751302221	0.07657528	0.87528014	-0.88214016
77341759603002	0.36030102	1.5609813	-0.90148866
77341767903783	0.35321426	2.2908168	-0.8421458
77341776204564	0.16209984	3.0514858	-0.75438344
77341784505346	0.16518402	3.055386	-0.7673887
77341792806127	-0.3578272	4.188811	-0.6434916
77341801106908	-0.36166	4.3567233	-0.38338673
77341809407689	-0.2331953	4.072422	-0.2669524
77341817708471	-0.15735054	3.493885	-0.13976848
77341826009252	-0.28610897	2.7932167	-0.06832039
77341834310033	-0.28269196	2.7948084	-0.08085835
77341842610814	-0.69921017	1.3208233	-0.12766254
77341850911596	-0.7730522	0.5965916	-0.2653185
77341859212377	-0.75767803	-0.04325819	-0.44883752
77341867513158	-0.61564255	-0.4753077	-0.63463306
77341875813939	-0.43297768	-0.6566601	-0.83391786
77341884114721	-0.2734356	-0.60989416	-1.022616
77341892415502	-0.2683239	-0.6081854	-1.0517296
77341900716283	0.053754807	-0.09474683	-1.2517488
77341909017064	0.16529942	0.30891943	-1.0483423
77341917317846	0.26381302	0.73719454	-0.8369007
77341925618627	0.36590767	1.1853236	-0.75368905
77341933919408	0.37056732	1.1975023	-0.7711785
77341942220189	0.5193577	1.7504549	-0.6452348
77341950520971	0.74094296	1.8669469	-0.34924567
77341958821752	1.2788467	2.0011315	0.18913269
77341967122533	2.130434	2.2029905	0.2723137
77341975423314	2.1278772	2.2130857	0.2758938
77341983724096	3.0877295	2.5393498	0.30087495
77341992024877	4.31553	3.0454066	0.23451316
77342000325658	3.9958868	2.7089121	-0.37431908
77342008626439	3.6601744	2.3367033	-0.6989404
77342016927221	3.750699	2.060447	-0.9853848
77342025228002	3.742426	2.0630531	-0.9724835
77342033528783	3.866994	1.9549309	-1.0928665
77342041829564	3.4062557	1.9174823	-0.79487336
77342050130346	2.8515387	1.7943554	-0.6602355
77342058431127	2.143241	1.6335887	-0.4295795
77342066731908	1.6229649	1.3629119	-0.04178059
77342075032689	1.6035337	1.3347945	0.054479122
77342083333471	1.2921333	0.4075607	-0.09350848
77342091634252	1.2704105	0.37338972	0.04498583
77342099935033	2.07547	-1.0365098	-0.8833883
77342108235814	2.3372793	-1.8047974	0.74654216
77342116536596	2.2775269	-2.3760319	1.7193253
77342124837377	1.9966908	-2.51402	1.817344
77342133138158	1.9859543	-2.5416117	2.0227623
77342141438939	1.4975243	-2.1123376	1.387145
77342149739721	1.3544216	-0.37859464	-0.7127209
77342158040502	2.0785646	0.09318507	-0.5141605
77342166341283	2.0660982	0.3396865	0.4433515
77342174642064	2.0774012	0.3414197	0.6173662
77342182942846	1.7871389	0.45813644	1.292306
77342191243627	1.4583302	0.50802135	1.3867189
77342199544408	0.24988079	0.47154343	1.3891224
77342207845189	-0.57811356	0.20628726	1.5626664
77342216145971	-0.5583086	0.15941381	1.7052095
77342224446752	-1.1817102	-0.2824874	1.8849045
77342232747533	-1.8089457	-1.0909028	2.003154
77342241048314	-1.7840767	-1.1463807	2.1305208
77342249349096	-1.9919901	-1.7112164	2.204583
77342257649877	-2.1489296	-1.8030645	2.042335
77342265950658	-2.3747349	-1.8133249	1.7129803
77342274251439	-2.75101	-1.7771142	1.3446493
77342282552221	-3.1606274	-1.7024412	1.0118988
77342290853002	-3.1207123	-1.7221819	1.1318009
77342299153783	-3.6072798	-1.4288011	0.41020775
77342307454564	-3.805356	-1.1594203	0.21571875
77342315755346	-3.8749228	-0.8370303	0.021140337
77342324056127	-3.830122	-0.82395345	0.125139
77342332356908	-3.8771515	-0.51248264	-0.02152729
77342340657689	-3.9337292	-0.26167524	-0.09031415
77342348958471	-3.9323006	-0.081172526	-0.10879469
77342357259252	-3.7183952	0.05932671	-0.15207767
77342365560033	-3.5340948	0.14662808	-0.098430395
77342373860814	-3.2348814	0.13032836	0.058254242
77342382161596	-2.8659544	0.057342827	0.23830032
77342390462377	-2.6001692	-0.047524273	0.3977723
77342398763158	-2.5968027	-0.18956178	0.5484328
77342407063939	-2.6837893	-0.3005966	0.68553495
77342415364721	-3.0339622	-0.32593906	0.90263224
77342423665502	-3.258318	-0.28256464	0.7980561
77342431966283	-3.427575	-0.23214436	0.7773814
77342440267064	-3.6142673	-0.25770366	0.69097185
77342448567846	-3.5998278	-0.22706318	0.69669676
77342456868627	-3.854333	-0.055457234	0.059739113
77342465169408	-3.7516441	0.15455174	-0.086509705
77342473470189	-3.5271177	0.32325053	-0.3003559
77342481770971	-3.2722454	0.46347094	-0.5243254
77342490071752	-3.0693684	0.56538415	-0.76770496
77342498372533	-2.955717	0.61387753	-1.0726686
77342506673314	-2.842598	0.6571934	-1.3320901
77342514974096	-2.8360395	0.7111368	-1.5668592
77342523274877	-2.8356285	0.7301481	-1.6357532
77342531575658	-2.7980967	0.71871984	-1.6935811
77342539876439	-2.823676	0.70860994	-1.7638028
77342548177221	-2.1887836	0.42595637	-2.0108554
77342556478002	-1.4401226	0.13085604	-2.1060414
77342564778783	-0.8561678	-0.11462259	-1.9036939
77342573079564	-0.23735523	-0.36074805	-1.6702468
77342581380346	0.4732666	-0.60947394	-1.4605577
77342589681127	0.4346056	-0.6530068	-1.5494056
77342597981908	1.9680166	-1.0122862	-1.1779397
77342606282689	2.2068472	-1.0273459	-1.2796714
77342614583471	1.6739426	-0.7611753	-1.5287488
77342622884252	0.6837244	-0.33795416	-1.8696024
77342631185033	-0.575078	0.19327772	-2.2701468
77342639485814	-1.8363466	0.7405976	-2.640258
77342647786596	-2.9023876	1.1983275	-2.8252385
77342656087377	-3.9756231	1.4982784	-2.4488916
77342664388158	-4.6136236	1.0789701	-1.2344804
77342672688939	-2.94631	-0.4144767	-0.96594286
77342680989721	0.02278614	-1.6591797	-0.5840349
77342689290502	0.025466919	-1.683656	-0.56417775
77342697591283	5.3979664	-1.984745	2.7504716
77342705892064	7.0338182	-2.6904244	2.6792798
77342714192846	7.781541	-3.4061213	4.6715565
77342722493627	6.7394514	-5.017881	7.7363024
77342730794408	6.765274	-5.0609975	7.8482704
77342739095189	6.1797714	-6.8063793	8.818167
77342747395971	9.647366	-6.4714413	3.1078043
77342755696752	13.316378	-6.15057	2.7788093
77342763997533	12.347481	-4.3432064	4.087696
77342772298314	7.998501	-1.4473548	5.374832
77342780599096	7.9714975	-1.4451418	5.330838
77342788899877	2.5983706	3.3972702	4.4733825
77342797200658	2.5709229	3.3783684	4.393738
77342805501439	-0.575531	2.910443	3.8313966
77342813802221	-1.3949289	1.7486434	2.5857074
77342822103002	-1.4126177	0.24392354	0.8426547
77342830403783	-0.8630638	-1.430927	-0.24322891
77342838704564	0.11272049	-2.7585375	0.02489841
77342847005346	0.07759857	-2.7379103	-0.16924262
77342855306127	3.201974	-3.0227475	2.6299584
77342863606908	4.332793	-3.031591	3.4270294
77342871907689	4.4273596	-3.2057202	3.9828887
77342880208471	3.6757984	-3.346755	4.0437245
77342888509252	3.652357	-3.3369532	3.7282095
77342896810033	2.231678	-3.1618843	3.0387716
77342905110814	-2.2982569	-1.3719665	0.7072127
77342913411596	-3.8686886	-0.5239901	-0.010548413
77342921712377	-4.8724613	0.22284794	-0.37603915
77342930013158	-4.843218	0.25296122	-0.5732912
77342938313939	-5.5538645	0.7916188	-0.68060017
77342946614721	-6.0386705	0.95076764	-0.53611565
77342954915502	-6.13957	0.14644474	1.0924022
77342963216283	-5.688058	0.06630659	0.894243
77342971517064	-5.6499786	0.12828875	0.7714025
77342979817846	-5.2891273	0.34861815	-8.1062317E-4
77342988118627	-4.649909	1.7433476	-1.804121
77342996419408	-4.603977	1.815331	-1.931062
77343004720189	-1.0185986	2.2046187	-3.6648462
77343013020971	0.74051094	1.73277	-3.7071419
77343021321752	1.9227772	1.4453422	-3.0563107
77343029622533	1.574192	1.5151759	-1.7022698
77343037923314	1.6172752	1.5980663	-1.8152273
77343046224096	-0.34277725	1.8647295	0.15451717
77343054524877	-0.9793558	2.8335452	-1.588896
77343062825658	3.3577766	2.2098732	-4.212365
77343071126439	6.2437515	2.359356	-3.8352258
77343079427221	6.253228	2.389907	-3.8756404
77343087728002	6.3088474	2.1482973	-1.660948
77343096028783	4.03732	0.993598	0.17625976
77343104329564	2.2684755	0.59437966	-0.66398907
77343112630346	1.875061	1.9681506	-2.5569324
77343120931127	1.9720182	3.142986	-3.2816103
77343129231908	2.0425043	3.6390197	-4.184263
77343137532689	1.7636452	3.5956588	-4.3897185
77343145833471	1.5010767	3.5341792	-2.76352
77343154134252	2.258029	3.9755197	0.84013224
77343162435033	3.7888374	4.3566594	0.7917836
77343170735814	5.8624153	4.5330143	0.8689461
77343179036596	7.9910183	4.240636	1.196862
77343187337377	9.417381	3.2823715	1.9444504
77343195638158	9.487697	1.9191364	3.78123
77343203938939	8.174278	0.8425329	7.335056
77343212239721	5.834859	-1.9596949	4.8963456
77343220540502	5.7440825	-4.599242	2.3548765
77343228841283	6.790864	-6.1898785	1.0858762
77343237142064	8.026281	-6.947746	0.80044687
77343245442846	8.684883	-7.1531796	0.9892456
77343253743627	8.331492	-6.823578	1.3804696
77343262044408	7.5576305	-6.208862	1.2034159
77343270345189	7.214279	-6.337801	1.2764431
77343278645971	5.9149523	-6.398134	1.7178161
77343286946752	3.7012968	-6.0031896	2.2143223
77343295247533	3.701748	-6.0619245	2.448833
77343303548314	-0.5447254	-3.7114966	2.2383525
77343311849096	-2.9812899	-1.9641645	2.374309
77343320149877	-3.665821	-0.65455014	2.286124
77343328450658	-3.3176641	0.15373527	1.9540669
77343336751439	-3.451167	0.480197	2.0478892
77343345052221	-4.9880333	0.48903796	2.9371555
77343353353002	-7.274313	0.3653805	4.136469
77343361653783	-8.524842	0.1609428	4.543166
77343369954564	-9.166607	-0.017145008	4.18546
77343378244103	-9.612766	-0.26514888	3.4043915
77343386544884	-9.906685	-0.60562664	2.5144935
77343394845665	-9.912257	-1.05331	1.8155363
77343403146446	-9.386531	-1.6582088	1.5078866
77343411447228	-8.816306	-2.2043917	1.375987
77343419748009	-8.477706	-2.4673765	0.9538584
77343428048790	-8.40163	-2.4918158	0.29209113
77343436349571	-8.370046	-2.3712409	-0.41753125
77343444650353	-8.320779	-2.2690024	-0.3458898
77343452951134	-7.310687	-1.8242882	-1.5717261
77343461251915	-6.810589	-1.5393053	-1.2476733
77343469552696	-6.112173	-1.517736	-1.0169704
77343477853478	-5.199435	-1.4866097	-0.92372084
77343486154259	-5.2066107	-1.4327987	-0.97207665
77343494455040	-4.256587	-1.4209294	-0.8709831
77343502755821	-2.6440392	-1.4048998	-0.23045683
77343511056603	-0.48100758	-0.94655764	-0.5850334
77343519357384	3.0617704	-0.24320275	-2.0440292
77343527658165	6.4402037	0.8284582	-3.9045136
77343535958946	6.41049	0.79994905	-3.9334013
77343544259728	12.436785	2.2072856	-3.3063216
77343552560509	12.415695	2.1788242	-3.282723
77343560861290	9.928673	-0.076991916	-2.1984653
77343569162071	5.0134554	-1.5036807	-2.9498167
77343577462853	1.0560503	-2.6698003	-3.1621542
77343585763634	-2.1171007	-3.1354876	-3.0745628
77343594064415	-2.1111784	-3.1435027	-3.0622554
77343602365196	-4.4991217	-2.7482605	-3.0131893
77343610665978	-3.8325224	-2.222063	-3.308261
77343618966759	-0.98913	-1.3504112	-3.787589
77343627267540	2.2762022	-0.57959056	-3.3679287
77343635568321	2.2772236	-0.5245068	-3.3559163
77343643869103	6.934147	-0.1036244	-2.052673
77343652169884	12.352033	-0.54443026	0.77965856
77343660470665	15.132618	-7.4555755	12.01907
77343668771446	11.878054	-8.508059	10.395918
77343677072228	11.85432	-8.410273	10.356549
77343685373009	5.5411816	-7.3437605	6.4455914
77343693673790	-5.6381836	-3.0029576	2.5262017
77343701974571	-6.605115	-1.9159839	1.2000895
77343710275353	-6.6195927	-1.0280784	0.2912526
77343718576134	-6.805359	-0.022245765	0.560091
77343726876915	-6.962286	1.2737097	1.8200059
77343735177696	-6.9689255	1.2567273	1.7666855
77343743478478	-5.88603	2.4498286	5.7301188
77343751779259	-2.7943983	1.4721675	5.7819633
77343760080040	-1.0684376	1.5550847	4.299246
77343768380821	-1.2086239	2.506609	3.2421286
77343776681603	-1.9260759	3.3803184	2.401159
77343784982384	-3.0674286	3.336323	1.2119825
77343793283165	-3.1195498	3.3066845	0.9998765
77343801583946	1.2575216	-0.14472628	-2.3277812
77343809884728	3.6811056	-1.8104355	3.8800004
77343818185509	1.4890175	-2.1509333	6.4790154
77343826486290	0.1511383	-1.2653776	5.1608467
77343834787071	0.10961628	-1.2325191	4.8296843
77343843087853	-0.7433481	-0.015798092	1.6430278
77343851388634	-3.066637	0.58741856	-0.635795
77343859689415	-4.83733	0.74296105	-2.0421672
77343867990196	-5.1729784	0.93860316	-0.5938566
77343876290978	-5.1603584	0.95339215	-0.77531064
77343884591759	-4.8050795	0.71996784	0.030924171
77343892892540	-4.0997286	0.19705057	0.56047726
77343901193321	-3.1721191	-0.47394812	0.49462008
77343909494103	-2.1395102	-1.3319923	0.33303088
77343917794884	-1.1297903	-1.6986473	0.22699988
77343926095665	-0.42266083	-1.2114673	0.038221
77343934396446	0.36951637	-0.38946497	-0.6337172
77343942697228	1.3044214	0.418669	-1.5723174
77343950998009	3.196434	1.3423125	-1.6537005
77343959298790	3.2314272	1.4057615	-1.8096421
77343967599571	2.947482	1.1462101	-1.4425044
77343975900353	2.0295572	0.86632085	-0.7805526
77343984201134	1.5023289	0.9854444	-0.22634816
77343992501915	1.6522923	1.4636508	0.010767937
77344000802696	2.2842293	2.0129924	-0.11087823
77344009103478	2.806406	2.2312818	-0.39732337
77344017404259	3.0621643	2.1812468	-0.07032323
77344025705040	3.2331686	2.6783824	0.61464834
77344034005821	3.4128857	3.4691772	0.6172309
77344042306603	3.7596369	4.0405784	-0.35468578
77344050607384	3.7570305	4.0523033	-0.35588312
77344058908165	4.4559336	3.1535487	-2.6806545
77344067208946	4.1758566	2.403726	-1.821893
77344075509728	4.422433	1.9873929	0.64341474
77344083810509	4.6568785	1.8392916	2.5162797
77344092111290	4.613139	1.8889198	3.0818532
77344100412071	4.349848	2.0384157	2.784228
77344108712853	4.078658	2.0400143	1.6942289
77344117013634	4.4348984	1.908337	1.2829273
77344125314415	4.1701355	1.9113619	0.54423344
77344133615196	3.7070026	1.4463474	0.18210149
77344141915978	3.2727327	0.14430106	0.81370604
77344150216759	3.2077398	-0.002777338	1.068464
77344158517540	3.863924	-3.4884582	3.5085049
77344166818321	5.2498646	-4.4690337	1.9303215
77344175119103	6.4592743	-5.327353	0.7886456
77344183419884	6.686453	-6.395703	0.08215313
77344191720665	6.662813	-6.479381	0.32047954
77344200021446	6.3938856	-7.820096	0.50060415
77344208322228	9.138697	-11.37306	1.2970786
77344216623009	6.8624773	-9.342362	1.2722148
77344224923790	3.9658165	-6.4230113	0.47700322
77344233224571	1.4884481	-3.3261633	0.46535158
77344241525353	1.5209732	-3.3186572	0.7219255
77344249826134	-1.3462343	1.5614815	2.243517
77344258126915	-2.0476198	2.6345503	2.7105527
77344266427696	-3.1314735	2.428231	4.313921
77344274728478	-4.78395	2.051381	4.8967614
77344283029259	-7.459648	2.0706587	5.105298
77344291330040	-7.404195	1.9667814	5.260111
77344299630821	-10.000916	2.2859974	4.9088073
77344307931603	-9.845844	1.6693467	3.837213
77344316232384	-9.797397	1.0184155	3.22747
77344324533165	-9.595091	0.23137157	2.769941
77344332833946	-9.436947	-0.49558377	2.4738066
77344341134728	-9.325497	-1.0804278	2.2246761
77344349435509	-9.251725	-1.0372623	2.357172
77344357736290	-8.688297	-1.8205229	1.1930966
77344366037071	-8.376501	-1.8801818	0.5317273
77344374337853	-7.982461	-1.8695538	-0.093850136
77344382638634	-7.5187225	-1.8370152	-0.6550231
77344390939415	-7.496132	-1.7656407	-0.6463027
77344399240196	-6.9000177	-1.7090628	-1.0244265
77344407540978	-4.551241	-1.3820255	-1.2306285
77344415841759	-3.171198	-1.0250595	-1.2621593
77344424142540	-1.876277	-0.7620661	-1.8086419
77344432443321	-1.9124508	-0.7628733	-1.9026024
77344440744103	-0.9993324	-0.5640612	-2.6264617
77344449044884	0.83030415	0.49289125	-3.2115426
77344457345665	3.7619839	0.87207484	-2.6165729
77344465646446	10.607083	-0.036563218	-1.7495394
77344473947228	20.21492	-2.030335	0.31192422
77344482248009	22.208075	-3.7930765	2.3063967
77344490548790	14.681923	-4.5651855	2.647025
77344498849571	4.734788	-4.3364573	0.34330988
77344507150353	-1.7689056	-3.0943537	-2.5918655
77344515451134	-5.913644	-2.841213	-3.8045573
77344523751915	-8.4188385	-2.2777798	-4.271637
77344532052696	-8.836056	-1.3706573	-4.982888
77344540353478	-6.160137	-0.22584772	-6.1513515
77344548654259	-6.100198	-0.19036871	-6.0049257
77344556955040	4.9264183	2.818599	-5.751067
77344565255821	12.090883	4.2048526	-2.4910357
77344573556603	18.005096	3.3410978	3.9435196
77344581857384	18.019695	3.3561835	4.0626144
77344590158165	19.993683	-1.3109266	11.0160265
77344598458946	16.187492	-7.903604	14.907832
77344606759728	7.302972	-11.68434	12.974646
77344615060509	-7.135872	-7.535105	1.0054314
77344623361290	-10.041338	-4.495993	-0.4522009
77344631662071	-10.04493	-4.476961	-0.51483536
77344639962853	-11.582269	-1.5647053	-0.22478938
77344648263634	-12.117427	1.2240102	0.5282142
77344656564415	-9.57781	4.76664	4.540619
77344664865196	-9.585281	4.709702	4.469592
77344673165978	-7.1506424	3.9553025	6.0650883
77344681466759	-2.9228249	2.628498	6.0330963
77344689767540	1.6073866	1.2613289	5.221756
77344698068321	4.717186	-0.31603855	4.3068275
77344706369103	5.2261276	-2.7588274	3.4621482
77344714669884	2.8772259	-5.504549	3.1860342
77344722970665	0.28967953	-6.72915	2.739853
77344731271446	-1.9037304	-6.402565	2.6183872
77344739572228	-3.307889	-4.9846916	2.7417526
77344747873009	-3.6724806	-3.1758134	2.7883878
77344756173790	-3.0236492	-1.522085	2.3878436
77344764474571	-2.436492	0.050025523	1.7327511
77344772775353	-2.0056448	0.752195	1.0717621
77344781076134	-2.459096	1.263059	0.6519563
77344789376915	-3.4425669	1.6122026	0.569643
77344797677696	-4.292042	1.7819785	0.743392
77344805978478	-4.538163	1.8236098	0.97488236
77344814279259	-4.21846	1.8200133	1.3576277
77344822580040	-2.679679	1.4960644	1.8367298
77344830880821	-1.7388735	0.9820045	1.9635508
77344839181603	-1.5106668	0.43699038	1.579242
77344847482384	-1.4783564	0.06828809	0.8416636
77344855783165	-0.93906116	0.0864656	0.13378108
77344864083946	-0.03700924	0.3687384	-1.0665917
77344872384728	1.1563463	0.54016626	-1.9906638
77344880685509	2.2169542	0.7459483	-2.565404
77344888986290	3.191533	0.9351959	-2.6468985
77344897287071	3.860919	1.0067575	-2.197934
77344905587853	3.8960323	1.0816082	-2.322463
77344913888634	3.2975445	0.9032626	-0.5208278
77344922189415	3.918827	1.6189628	-0.27640033
77344930490196	4.5603895	2.4906425	-0.5604379
77344938790978	4.451685	3.2120395	-0.87375593
77344947091759	3.4987717	3.6159885	-0.72792315
77344955392540	3.5112963	3.6424227	-0.7707062
77344963693321	2.1832056	3.5710459	0.35915446
77344971994103	2.6450434	3.227881	-0.4189887
77344980294884	3.481247	2.65038	-1.5466444
77344988595665	4.076168	1.9655578	-2.3616679
77344996896446	4.0585127	1.9473975	-2.3351405
77345005197228	4.10678	1.0793848	-1.3059418
77345013498009	4.709154	0.90110624	0.3289454
77345021798790	5.0742607	0.5085015	1.8438897
77345030099571	4.7179985	0.47411275	3.1108947
77345038400353	4.0790777	0.68091273	3.112836
77345046701134	3.649559	0.89903545	1.7526109
77345055001915	3.6875706	0.9516072	0.579679
77345063302696	3.2910042	0.96259654	0.37049007
77345071603478	3.1922474	0.32926893	-0.50196683
77345079904259	2.969472	-0.80928624	0.37435734
77345088205040	2.753213	-2.3381329	1.9486332
77345096505821	2.6958494	-2.471497	2.2043068
77345104806603	2.8326159	-4.0198426	2.8176007
77345113107384	4.397195	-5.0870123	0.36911327
77345121408165	5.6246595	-5.719699	-0.62488055
77345129708946	6.4290657	-6.2993593	-0.9433384
77345138009728	6.406801	-6.3826537	-0.7399086
77345146310509	7.001398	-6.6825423	1.149877
77345154611290	6.972105	-6.615736	4.163245
77345162912071	2.4940147	-4.656376	2.5399652
77345171212853	-0.06854248	-2.7834575	1.4214373
77345179513634	-1.9921789	-1.0724872	0.8340368
77345187814415	-2.8950834	0.5003215	0.72902024
77345196115196	-2.8519516	0.46449777	0.99832594
77345204415978	-4.4591618	2.370094	1.9992644
77345212716759	-6.7507668	2.1162755	3.068067
77345221017540	-7.789694	1.7204081	3.551545
77345229318321	-7.739725	1.2332392	3.4905348
77345237619103	-7.4565372	0.7450271	3.1895978
77345245919884	-7.414033	0.3124825	2.8672361
77345254220665	-7.350319	0.2919692	3.0212486
77345262521446	-7.675932	-0.47851905	2.376682
77345270822228	-7.7531233	-0.84889776	2.1485825
77345279123009	-7.7279253	-1.2065561	1.9283137
77345287423790	-7.654153	-1.5316169	1.5955236
77345295724571	-7.5941925	-1.4803163	1.7051902
77345304025353	-7.5224104	-1.7446588	1.1578355
77345312326134	-7.613797	-2.201557	-0.32436538
77345320626915	-7.4833155	-2.2225862	-0.8096616
77345328927696	-7.2245893	-2.1331673	-1.2425117
77345337228478	-7.2054596	-2.0785687	-1.2353137
77345345529259	-6.803252	-1.8725007	-1.3333843
77345353830040	-5.06896	-1.2772467	-0.595783
77345362130821	-5.0886507	-1.2515652	-0.6702733
77345370431603	-2.7594423	-0.7007863	-1.1212299
77345378732384	-2.3615398	-0.37904143	-1.7686102
77345387033165	-2.3980331	-0.40028006	-1.870254
77345395333946	-1.797513	0.089757204	-2.50597
77345403634728	0.11083794	0.75604284	-3.1267455
77345411935509	10.734418	1.0857127	-2.290809
77345420236290	10.68646	1.0199702	-2.3544726
77345428537071	20.44693	-1.3583679	-0.036866426
77345436837853	22.543022	-3.5957692	2.074787
77345445138634	16.267895	-4.565204	2.4361923
77345453439415	6.1938963	-4.165454	0.33424926
77345461740196	-1.1764889	-3.3115654	-3.3230512
77345470040978	-5.500573	-3.3754194	-4.5685225
77345478341759	-7.7368135	-3.7320876	-5.015027
77345486642540	-7.180893	-3.6791692	-6.195386
77345494943321	-3.9955606	-2.5338612	-6.893426
77345503244103	2.119691	-0.06309754	-6.146224
77345511544884	12.07678	2.8551908	-4.8631268
77345519845665	21.598263	3.905934	-0.714875
77345528146446	22.74547	1.2668065	7.397495
77345536447228	17.982998	-2.8666744	11.547152
77345544748009	9.227111	-5.6167026	10.455814
77345553048790	-0.80467796	-5.4066963	6.5355654
77345561349571	-8.625055	-4.136676	4.3845363
77345569650353	-13.309189	-3.9449425	2.3675394
77345577951134	-15.259603	-2.981281	0.23405647
77345586251915	-14.950892	-1.6185904	-1.1054323
77345594552696	-13.214961	-0.14850938	-1.0091128
77345602853478	-10.678092	1.2631468	0.70542
77345611154259	-7.936659	2.5121553	3.26254
77345619455040	-7.311104	2.840808	5.2430334
77345627755821	-6.1444626	2.2622294	5.448845
77345636056603	-2.6803083	1.4584482	4.4619207
77345644357384	3.0441828	0.6054297	3.2189531
77345652658165	9.153295	-0.5552774	2.5180154
77345660958946	9.072958	-0.49615866	2.2269075
77345669259728	9.403497	-4.891304	3.815052
77345677560509	5.3734636	-5.7157273	3.9278078
77345685861290	1.140254	-4.9625998	2.790031
77345694162071	-2.4251156	-3.040601	1.1867187
77345702462853	-4.831352	-0.77577037	0.100807846
77345710763634	-4.8367214	-0.79462105	-0.09173012
77345719064415	-5.9770145	1.6562688	-0.31429312
77345727365196	-5.723769	1.9388282	-0.42591903
77345735665978	-5.4446383	2.0150213	-0.32963365
77345743966759	-5.344737	1.9203148	-0.06939178
77345752267540	-5.3299637	1.9508377	-0.21298523
77345760568321	-4.785264	1.0109584	1.0913745
77345768869103	-3.3888493	0.08233291	1.6958672
77345777169884	-1.9127703	-0.80424404	1.9263557
77345785470665	-0.70289135	-1.3368249	1.9162638
77345793771446	-0.18811321	-1.47893	1.4371967
77345802072228	-0.42045593	-1.2934222	0.4454906
77345810373009	-0.6154499	-0.7638221	-0.3743646
77345818673790	-0.5473318	0.08903265	-1.8002963
77345826974571	0.1959095	0.68948984	-2.9976444
77345835275353	1.3041544	1.0044421	-3.2220528
77345843576134	2.0336132	1.025541	-2.48144
77345851876915	2.0780048	1.108824	-2.6362333
77345860177696	2.003458	0.88800037	-1.412251
77345868478478	2.718277	0.6787884	0.46593475
77345876779259	3.489231	1.0256425	0.3218274
77345885080040	3.6319351	1.6273333	-0.24313855
77345893380821	3.651698	1.6913714	-0.29371595
77345901681603	3.1180058	2.5306106	-0.7077539
77345909982384	1.6834717	3.7292628	-0.16555738
77345918283165	1.7471352	3.3480651	-0.52130246
77345926583946	2.4572897	2.548693	-1.4127378
77345934884728	3.0652342	1.6705947	-2.3046978
77345943185509	3.1372652	0.88879967	-3.007283
77345951486290	2.6600142	0.3093047	-3.375213
77345959787071	2.1791344	0.07453728	-2.9693992
77345968087853	2.5295496	0.17356086	-0.8004334
77345976388634	3.065524	0.40206575	1.2811129
77345984689415	3.3412418	0.76328015	2.1684885
77345992990196	3.3956938	1.1965138	2.2261295
77346001290978	3.3358011	1.5813884	1.9413388
77346009591759	3.0006895	1.6862501	0.942379
77346017892540	2.8333788	1.7955334	-0.34954143
77346026193321	3.4915133	1.7278616	0.40555835
77346034494103	4.0959654	0.95763135	1.9100583
77346042794884	4.8360643	-0.6244904	2.5674167
77346051095665	4.768137	-0.7565855	2.821949
77346059396446	6.0752735	-2.8018103	1.8369867
77346067697228	7.9448595	-5.3617887	0.92077065
77346075998009	7.7717714	-6.558436	-0.5669859
77346084298790	7.948496	-7.403248	-1.149987
77346092599571	7.9177847	-7.545007	-0.9481593
77346100900353	8.436626	-7.8035684	0.28835833
77346109201134	7.523281	-6.4661117	4.1441894
77346117501915	3.8035822	-5.213432	1.0955112
77346125802696	3.8034077	-5.26354	1.2970031
77346134103478	-0.1496048	-3.2648234	0.46360672
77346142404259	-2.856863	-1.1906532	0.46710795
77346150705040	-3.7951803	0.6675793	0.5628706
77346159005821	-1.9226799	3.5255036	0.78952944
77346167306603	-1.8802528	3.4914453	1.0279843
77346175607384	-4.926695	3.309607	3.1568804
77346183908165	-7.516674	2.3977127	4.012731
77346192208946	-8.663636	1.474592	4.1905174
77346200509728	-8.6756735	0.81353474	3.9421442
77346208810509	-8.430435	0.4078601	3.4127986
77346217111290	-8.323422	0.08421123	2.901818
77346225412071	-8.326493	-0.33496723	2.3258133
77346233712853	-8.096965	-0.6996286	2.137628
77346242013634	-7.7325	-1.1549681	1.9437823
77346250314415	-7.3313494	-1.6545364	1.6529558
77346258615196	-6.948352	-2.0782816	1.3251839
77346266915978	-6.4784737	-2.4225588	0.98177266
77346275216759	-6.068801	-2.6134124	0.8011186
77346283517540	-5.8796196	-2.6106935	0.58511615
77346291818321	-5.863413	-2.457597	0.4094727
77346300119103	-5.864149	-2.1752484	0.15700078
77346308419884	-5.3980284	-1.4726973	-0.74748564
77346316720665	-4.928895	-1.2033011	-1.5505648
77346325021446	-4.950383	-1.1394978	-1.6355047
77346333322228	-4.24555	-0.8718242	-2.0587444
77346341623009	-2.8230534	-0.48802173	-2.3952608
77346349923790	-0.8206339	-0.060183287	-3.0614228
77346358224571	1.5591116	1.1156929	-4.0952864
77346366525353	1.5229645	1.1214985	-4.1863823
77346374826134	2.1944046	1.5158925	-4.5195136
77346383126915	6.833124	0.7363615	-4.3005905
77346391427696	16.253134	-1.0893664	-2.1551301
77346399728478	21.987213	-3.4910078	0.85772943
77346408029259	15.113466	-5.596947	2.3143418
77346416330040	4.75237	-6.098182	0.6005287
77346424630821	-2.39017	-4.904102	-2.1011822
77346432931603	-6.621648	-3.9606042	-3.7065346
77346441232384	-9.116193	-2.7731338	-4.4670744
77346449533165	-9.873006	-1.5039594	-5.0615416
77346457833946	-8.339599	-0.6191609	-6.1377487
77346466134728	-4.148987	-0.083298445	-7.250664
77346474435509	1.2686205	0.3098842	-5.260169
77346482736290	10.383128	0.2881137	-4.0961967
77346491037071	18.713295	-0.36426598	-1.1750143
77346499337853	23.295906	-3.137983	5.187194
77346507638634	22.725521	-9.004318	13.679873
77346515939415	16.204142	-13.627653	14.685617
77346524240196	5.7037	-10.871689	8.394676
77346532540978	-3.9802074	-5.774898	2.6948175
77346540841759	-10.387512	-1.3716055	-0.32334685
77346549142540	-13.211518	1.4154456	-1.0979586
77346557443321	-13.647504	3.184723	-1.2081232
77346565744103	-12.806649	4.5552096	-0.43831158
77346574044884	-10.166127	5.6848316	1.2149043
77346582345665	-8.541005	6.408553	3.3858066
77346590646446	-7.330637	6.193916	5.0804434
77346598947228	-5.595256	5.06714	5.698823
77346607248009	-5.6334515	5.0434494	5.513214
77346615548790	1.1732855	1.6106014	4.040678
77346623849571	3.296547	-0.69660413	3.4849176
77346632150353	4.187044	-3.3403258	3.408416
77346640451134	4.0431204	-5.334358	3.6366987
77346648751915	4.001896	-5.2758512	3.3508039
77346657052696	2.8650026	-6.0319448	3.4887114
77346665353478	-1.1131678	-3.8493698	1.9096115
77346673654259	-2.5260048	-2.028224	0.24185678
77346681955040	-3.4543295	-0.45662653	-0.9026547
77346690255821	-3.861271	0.5923315	-1.2314808
77346698556603	-4.0443983	1.0314728	-1.0773476
77346706857384	-4.359627	0.92120385	-0.91845226
77346715158165	-4.8877	0.7390425	-0.725163
77346723458946	-4.846525	0.5902543	-0.106377244
77346731759728	-4.4800205	0.33469617	0.6930743
77346740060509	-3.411912	-0.1392473	1.403646
77346748361290	-1.8369932	-0.7277293	1.9047142
77346756662071	-1.8077078	-0.6547438	1.7748442
77346764962853	0.57630444	-0.7743032	2.1764073
77346773263634	1.5281382	0.4001019	1.0095445
77346781564415	2.1077738	1.8627832	-1.099699
77346789865196	2.220642	2.9581404	-3.2322574
77346798165978	2.2703924	3.0275505	-3.421753
77346806466759	2.2508974	3.2838159	-4.5990577
77346814767540	2.2075615	1.4564135	-2.5537002
77346823068321	1.6741323	0.8785794	-0.3966999
77346831369103	1.8511591	1.4578834	0.7555485
77346839669884	2.7011662	2.583683	0.57002306
77346847970665	3.6326036	3.712585	-0.46595192
77346856271446	3.6573248	3.7736483	-0.51210713
77346864572228	3.2454662	5.1865263	0.1551907
77346872873009	2.6570692	5.6265197	0.6973369
77346881173790	2.6604595	5.6706696	0.02328229
77346889474571	2.6641932	5.6806736	0.013306856
77346897775353	3.3048162	5.2892323	-1.4153736
77346906076134	3.9886532	4.5051494	-2.8421152
77346914376915	3.18793	2.6215315	-2.3133523
77346922677696	3.1699371	2.5987735	-2.2873468
77346930978478	3.241005	2.0343716	-0.4455397
77346939279259	3.7204666	1.5210536	1.2060876
77346947580040	3.9806366	1.121175	2.5099063
77346955880821	3.9302673	0.9110391	3.051058
77346964181603	3.889658	0.8752825	2.3379078
77346972482384	4.1033697	0.6578474	0.47530055
77346980783165	4.172393	0.6109216	1.163336
77346989083946	3.8689222	0.35968518	1.2766917
77346997384728	3.746889	-0.38796794	1.0454826
77347005685509	4.195798	-1.7221097	1.1252375
77347013986290	6.001074	-4.544613	1.6313863
77347022287071	5.7291527	-5.640185	0.33371878
77347030587853	5.6663685	-5.8163104	0.56621265
77347038888634	6.2151203	-6.864853	-0.2708363
77347047189415	7.0724783	-7.721823	-1.1377733
77347055490196	7.907693	-8.188483	-0.87769943
77347063790978	7.535637	-7.564036	3.2933846
77347072091759	4.676694	-6.2732663	3.0089474
77347080392540	4.663416	-6.3224177	3.2069395
77347088693321	1.213151	-4.363313	2.076231
77347096994103	-1.7374935	-2.1551225	1.2051327
77347105294884	-3.3567753	-0.14073762	0.7797028
77347113595665	-2.1795797	2.9791934	-0.40318978
77347121896446	-2.1464157	2.936225	-0.13789976
77347130197228	-4.069888	3.3412797	2.28165
77347138498009	-6.700984	2.6646233	3.4846091
77347146798790	-8.279822	1.6948029	3.6574326
77347155099571	-8.483476	0.91950715	3.340755
77347163400353	-8.214499	0.46285605	2.9346113
77347171701134	-8.179179	0.11285037	2.5121138
77347180001915	-8.17749	-0.2337884	2.1262007
77347188302696	-8.245565	-0.6422296	2.0293148
77347196603478	-8.268803	-1.0890212	1.9477658
77347204904259	-8.235834	-1.515112	1.693533
77347213205040	-8.21679	-1.8351519	1.2213783
77347221505821	-8.06859	-1.975284	0.53252864
77347229806603	-7.8956804	-2.0161963	-0.048918486
77347238107384	-7.750805	-2.0368009	-0.5455427
77347246408165	-7.560897	-1.9695841	-0.9971819
77347254708946	-7.1526423	-1.7616931	-1.2802329
77347263009728	-6.291997	-1.4179922	-1.2119226
77347271310509	-4.7758265	-1.0903552	-1.3945785
77347279611290	-3.0565577	-0.85834605	-1.4859588
77347287912071	-1.6208506	-0.7309081	-2.2727222
77347296212853	-0.9201889	-0.47228932	-3.1092696
77347304513634	-0.87920856	0.08870751	-3.4531553
77347312814415	-0.9050436	0.070674	-3.5347373
77347321115196	2.694296	1.3985074	-1.8179615
77347329415978	12.561898	0.50035673	-1.0557101
77347337716759	21.97121	-1.3874059	0.09394002
77347346017540	22.171745	-3.3875482	1.1441216
77347354318321	12.876857	-4.849033	1.1495986
77347362619103	12.833315	-4.83475	1.0804892
77347370919884	-3.7046309	-3.7858362	-4.0800724
77347379220665	-7.7147923	-2.7875984	-5.0801897
77347387521446	-9.300721	-2.1240945	-4.4122686
77347395822228	-8.070183	-1.7577548	-4.3086967
77347404123009	-3.9831629	-1.3341098	-5.674855
77347412423790	2.1258335	-0.2654329	-7.0990124
77347420724571	6.323412	1.0272837	-6.2494874
77347429025353	14.634511	2.416575	-2.3587787
77347437326134	20.63882	0.10365969	4.0569367
77347445626915	20.756012	-5.3195724	9.8092785
77347453927696	14.127312	-10.451577	12.02885
77347462228478	1.8745356	-10.9876175	9.139889
77347470529259	-7.458727	-7.0891013	3.5849066
77347478830040	-11.366588	-3.8897252	0.28626418
77347487130821	-11.533008	-1.6517569	-0.7515459
77347495431603	-10.409991	0.3688386	-0.464684
77347503732384	-9.405203	2.5276628	0.62254643
77347512033165	-9.388763	2.4733655	0.6251366
77347520333946	-6.9547567	5.511837	4.4679646
77347528634728	-4.639426	5.345546	5.6123962
77347536935509	-1.5333862	4.698277	5.6463995
77347545236290	2.0526743	3.507598	5.133139
77347553537071	1.979578	3.5073824	4.8851385
77347561837853	5.123	1.5460643	4.2360697
77347570138634	5.7465954	-4.6761703	3.0976632
77347578439415	3.4260979	-6.6448574	2.5353084
77347586740196	0.11155319	-6.729442	2.1454058
77347595040978	-3.1053476	-5.265449	1.7332937
77347603341759	-5.1879663	-3.1697307	1.2073282
77347611642540	-5.5126247	-1.3228693	0.6298097
77347619943321	-5.143257	-0.12252253	0.23232168
77347628244103	-4.5168934	0.3879701	0.39833927
77347636544884	-3.9663467	0.2968974	0.7557096
77347644845665	-3.9526453	0.3293934	0.5740479
77347653146446	-3.8371172	0.07488626	0.875911
77347661447228	-4.1446304	-0.027151465	1.0566714
77347669748009	-4.3527946	0.054609895	1.6837573
77347678048790	-4.3260365	0.11471331	1.5418408
77347686349571	-3.4058332	0.014368892	1.7720208
77347694650353	-2.337966	-0.034948826	1.7559828
77347702951134	-1.3232489	0.12267923	1.33071
77347711251915	-0.44760513	0.5354676	0.42518914
77347719552696	0.20010471	1.1095144	-0.8644749
77347727853478	1.1950903	2.1405134	-2.6390772
77347736154259	1.2456484	2.2179818	-2.8290017
77347744455040	2.1010466	2.2577477	-3.323673
77347752755821	3.046279	2.0895877	-3.5312567
77347761056603	3.557582	1.8706629	-3.1903226
77347769357384	1.5766754	1.6598698	-0.19619465
77347777658165	1.9943314	2.8477297	0.3512199
77347785958946	2.0281687	2.90255	0.26620865
77347794259728	3.3320007	4.086087	-0.35920095
77347802560509	4.3734665	4.4896584	-1.5659738
77347810861290	4.4443464	4.018829	-2.2698267
77347819162071	2.5785227	2.9972625	-0.16044593
77347827462853	2.5915594	3.0206099	-0.19420195
77347835763634	2.571638	3.3614922	-0.5145595
77347844064415	3.2343016	3.5910425	-1.6375706
77347852365196	3.8673325	3.3562493	-2.855213
77347860665978	4.0092506	2.6654954	-3.5774999
77347868966759	3.6132507	1.8483899	-3.2709036
77347877267540	3.5569286	1.513845	-1.2681365
77347885568321	3.8807888	1.2137995	0.74522686
77347893869103	4.0364065	1.0714972	1.8336854
77347902169884	3.8456516	1.1246066	2.1408226
77347910470665	3.3775291	1.2618454	1.7978265
77347918771446	2.9699736	1.174923	0.67344856
77347927072228	3.1180124	1.0591161	-0.28678465
77347935373009	4.003044	0.77185845	0.033542395
77347943673790	4.7078104	-0.03329122	1.2403305
77347951974571	5.167984	-1.4915354	2.1435628
77347960275353	5.632435	-3.3490052	1.9434676
77347968576134	6.7661304	-5.797646	0.28412402
77347976876915	6.704686	-5.9565268	0.5430723
77347985177696	7.4085207	-7.1076174	-0.60593385
77347993478478	7.931059	-7.925362	-0.8503857
77348001779259	8.333729	-8.15804	0.72665775
77348010080040	8.345721	-7.733212	3.5182283
77348018380821	6.825015	-6.797324	4.782464
77348026681603	3.0728273	-5.096382	2.6514938
77348034982384	-0.5537014	-2.8775916	1.1828609
77348043283165	-3.086565	-0.77357435	0.17798603
77348051583946	-3.9288034	1.0019137	-0.46599686
77348059884728	-3.4164076	2.3809347	-0.51810455
77348068185509	-3.3734846	2.3426793	-0.24262154
77348076486290	-6.553035	2.9335082	2.4344044
77348084787071	-8.1222515	2.2389314	3.235734
77348093087853	-8.634493	1.5504392	3.2082179
77348101388634	-8.677633	1.0164583	3.0005946
77348109689415	-8.6686325	0.62008923	2.898104
77348117990196	-8.613493	0.59999377	3.0357432
77348126290978	-8.663452	-0.441194	2.0771673
77348134591759	-8.595194	-0.9853946	2.0206037
77348142892540	-8.502088	-1.4996104	1.8370099
77348151193321	-8.38236	-1.92946	1.4214892
77348159494103	-8.190388	-2.2273629	0.81442904
77348167794884	-7.8522024	-2.3839438	0.2277739
77348176095665	-7.6993294	-2.4216056	-0.17163253
77348184396446	-7.544178	-2.3023665	-0.65574527
77348192697228	-7.1459637	-2.0426035	-0.95721865
77348200998009	-6.20862	-1.6986256	-1.2456949
77348209298790	-4.5730295	-1.3588984	-1.7034907
77348217599571	-2.3914547	-1.132328	-2.1678636
77348225900353	-0.6487932	-0.86211914	-2.6080978
77348234201134	0.25587273	-0.5338238	-3.676534
77348242501915	0.050070763	0.02348429	-4.343156
77348250802696	-0.28403473	0.8054267	-3.9908767
77348259103478	1.2701759	1.3807776	-2.792405
77348267404259	7.5154753	0.6535418	-2.058973
77348275705040	19.986803	-2.8588693	-0.8814161
77348284005821	22.275055	-4.9071198	1.5762687
77348292306603	16.636131	-5.685254	2.42413
77348300607384	7.754719	-5.31977	0.74157786
77348308908165	-0.26413727	-4.084132	-2.567264
77348317208946	-6.57137	-2.656177	-4.7827578
77348325509728	-9.485091	-2.8288422	-4.204654
77348333810509	-8.740972	-2.7292323	-5.1137104
77348342111290	-5.3798637	-1.468113	-6.2660146
77348350412071	-0.19558048	0.7491375	-6.0296082
77348358712853	6.444293	3.0135403	-3.8208003
77348367013634	15.303339	4.243725	-0.71541977
77348375314415	15.309188	4.2749076	-0.5817661
77348383615196	16.848282	-2.8607469	10.379937
77348391915978	11.745562	-6.386005	10.483309
77348400216759	3.7715855	-7.442692	7.663776
77348408517540	3.762249	-7.3467903	7.6211414
77348416818321	-4.3207674	-6.3080425	3.4213245
77348425119103	-9.222542	-4.3383946	0.042188644
77348433419884	-11.676316	-1.8067119	-0.9833536
77348441720665	-12.746846	0.66551363	-0.5428102
77348450021446	-12.212483	2.816433	0.43049145
77348458322228	-10.534857	4.361561	1.6762242
77348466623009	-8.4314	5.098808	3.0772967
77348474923790	-6.7005596	5.1560907	4.162386
77348483224571	-3.9804745	4.6115117	4.059311
77348491525353	0.026244164	3.7353187	3.309754
77348499826134	3.9609652	2.3356435	2.5705147
77348508126915	6.4696827	0.22322786	2.4715195
77348516427696	6.76702	-2.4890375	3.1827164
77348524728478	5.0993023	-4.9768767	3.9032147
77348533029259	2.0349302	-5.7071204	2.9732542
77348541330040	-0.71780777	-5.112619	1.7451186
77348549630821	-3.1285973	-3.8778684	0.3120646
77348557931603	-4.877393	-2.430169	-0.9795864
77348566232384	-4.8638687	-2.4250934	-1.1863012
77348574533165	-5.814399	-0.18514204	-1.5406977
77348582833946	-5.2849417	0.22112632	-0.90491724
77348591134728	-4.5959463	0.35633278	-0.39999288
77348599435509	-4.124545	0.400625	-0.024874091
77348607736290	-4.0962143	0.45812178	-0.15547836
77348616037071	-3.7304306	0.3704598	0.2582469
77348624337853	-2.082775	-0.43031144	1.7153981
77348632638634	-1.1761007	-0.68428624	1.4748921
77348640939415	-0.23723316	-0.62502205	0.8339677
77348649240196	0.92080975	-0.16117156	-0.64942384
77348657540978	0.96847725	-0.073182344	-0.8331375
77348665841759	2.5414524	1.9225358	-3.8996704
77348674142540	2.8954115	2.4740024	-3.838718
77348682443321	2.8412266	2.3637738	-2.7541468
77348690744103	2.8044567	2.264248	-1.5242021
77348699044884	2.9897118	2.5905616	-0.57514167
77348707345665	3.4005728	3.2171364	-0.5539472
77348715646446	3.4283438	3.2784703	-0.6152363
77348723947228	3.8479366	3.648855	-2.6395526
77348732248009	3.1814842	3.4102824	-1.7829578
77348740548790	2.6821995	3.3429525	-1.1795168
77348748849571	2.7559958	3.5112116	-1.3481531
77348757150353	2.7541065	3.508089	-1.3540652
77348765451134	3.3349981	3.716197	-2.1855521
77348773751915	4.1665726	3.348485	-3.1031802
77348782052696	3.9491186	2.8297193	-1.4057705
77348790353478	4.0027714	2.4535158	1.3087828
77348798654259	3.9648438	2.4122689	1.3762474
77348806955040	4.3993254	2.1068683	2.3127575
77348815255821	4.488909	1.3772194	1.2242086
77348823556603	3.6757889	0.85456705	1.1782339
77348831857384	3.8806639	0.385288	0.44105458
77348840158165	5.47663	-0.39135218	0.1509757
77348848458946	5.3966208	-0.53440404	0.3603164
77348856759728	7.080181	-1.7883383	0.9081249
77348865060509	8.709033	-4.4257255	4.0606184
77348873361290	8.816412	-5.1505957	3.0777564
77348881662071	10.396371	-5.894467	0.11346346
77348889962853	12.727111	-6.984729	-1.3485113
77348898263634	14.207752	-7.850315	-0.2469721
77348906564415	13.725516	-8.049958	2.5986419
77348914865196	13.698403	-8.144022	2.8590388
77348923165978	6.1220665	-5.7302876	5.3088303
77348931466759	1.643425	-3.5869198	3.1925385
77348939767540	-0.006649971	-1.0851777	0.7477987
77348948068321	-1.4025383	0.6073611	0.5186055
77348956369103	-1.3428345	0.51703066	0.86351323
77348964669884	-3.4298935	0.9511784	2.4515204
77348972970665	-7.79504	0.8013591	3.731393
77348981271446	-9.486042	1.2513214	4.3910666
77348989572228	-10.31657	1.3571097	4.026166
77348997873009	-10.190145	1.313246	4.3164825
77349006173790	-10.827077	0.95450073	3.4824803
77349014474571	-10.997541	0.08831766	2.6475053
77349022775353	-8.059631	-2.8016562	1.6947556
77349031076134	-7.918294	-2.6558416	1.9516292
77349039376915	-6.66286	-3.3104494	1.933701
77349047677696	-5.917039	-3.621873	1.5991988
77349055978478	-5.4743214	-3.893731	1.1159849
77349064279259	-5.04107	-4.190815	0.5761852
77349072580040	-3.406227	-4.0620685	-0.21145248
77349080880821	-2.481432	-2.8811445	-0.2500801
77349089181603	-2.396429	-2.7018569	-0.16853762
77349097482384	-2.6366978	-0.67084086	0.2908702
77349105783165	-2.5606508	-0.5383817	0.35547972
77349114083946	-3.2257442	-0.07878399	0.43818235
77349122384728	-2.9381418	0.12962782	-0.7803364
77349130685509	-2.1034422	0.33545732	-1.7960482
77349138986290	-1.2698307	0.5706625	-2.70113
77349147287071	-1.252604	0.54276574	-2.668363
77349155587853	-0.46916533	0.7951269	-3.47713
77349163888634	0.26591444	1.1791162	-3.9713078
77349172189415	0.9776492	1.7180055	-3.9292698
77349180490196	1.7726588	2.0619915	-3.6589985
77349188790978	2.7822218	2.2340574	-3.017892
77349197091759	3.7509098	2.1998122	-2.6652431
77349205392540	4.5108924	2.2177186	-2.6968412
77349213693321	4.6350374	2.2116828	-2.7486224
77349221994103	3.6532478	1.8040458	-2.144372
77349230294884	1.4232073	0.3813485	-0.030717373
77349238595665	-2.5361557	-2.594098	0.77610445
77349246896446	-2.268478	-4.8758764	0.37137747
77349255197228	0.64856577	-5.9574003	-0.020718575
77349263498009	3.7795563	-6.453311	0.3818798
77349271798790	3.7626615	-6.409919	0.36523962
77349280099571	3.1979752	-6.700407	2.4351034
77349288400353	0.96188545	-5.0187263	2.9590654
77349296701134	-0.64289	-3.5325694	2.6526232
77349305001915	-1.7422848	-2.21076	2.06216
77349313302696	-2.3035765	-1.0034018	1.8865976
77349321603478	-2.3633146	-1.0325971	1.7995386
77349329904259	-1.685009	0.7588217	2.5857916
77349338205040	-1.312418	1.7240275	3.0232944
77349346505821	-1.0945587	2.6861768	3.4087734
77349354806603	-0.34748554	3.4444854	3.5767002
77349363107384	-0.44349957	3.3341892	3.4309554
77349371408165	3.0577707	3.1449547	3.558734
77349379708946	4.734005	1.5185518	3.1913657
77349388009728	5.702589	-0.63391435	3.0005794
77349396310509	5.280575	-2.4245052	2.3335528
77349404611290	3.9641771	-3.5812566	1.863605
77349412912071	3.8472347	-3.5528271	1.6126308
77349421212853	-0.29187393	-3.706473	1.6896539
77349429513634	-2.1434107	-3.0211108	1.5969491
77349437814415	-3.1497622	-2.271294	1.3753715
77349446115196	-3.6638508	-1.5919236	1.2523553
77349454415978	-3.9296227	-1.0590258	1.1819196
77349462716759	-4.2523346	-0.69079465	1.2080557
77349471017540	-4.306162	-0.70566213	0.9125072
77349479318321	-5.133774	-0.4154008	1.5751545
77349487619103	-5.182991	-0.6304912	1.0473237
77349495919884	-5.151536	-0.90530825	0.62068903
77349504220665	-5.026306	-1.2143023	0.65003836
77349512521446	-5.0321455	-1.1906649	0.39896727
77349520822228	-4.8168535	-1.4710239	0.67678094
77349529123009	-4.213414	-1.6780756	0.9063194
77349537423790	-4.357255	-1.5314567	0.6634426
77349545724571	-3.9892044	-1.2510732	0.6538422
77349554025353	-3.9671392	-1.1977425	0.44700986
77349562326134	-3.2537766	-0.66235316	0.36025524
77349570626915	-1.6682234	0.57472074	0.076408565
77349578927696	-1.1713953	0.8934506	-0.2557912
77349587228478	-1.3666086	0.92795527	-0.60219646
77349595529259	-1.9710131	0.7045853	-0.46413767
77349603830040	-1.9381695	0.7774335	-0.59336615
77349612130821	-2.7422485	0.3785889	-0.30486584
77349620431603	-3.4512205	-0.114058256	0.031828642
77349628732384	-3.027421	-1.1689163	0.61851573
77349637033165	-1.8071527	-1.2333177	-0.24287748
77349645333946	-0.11382866	-0.8603519	-1.2751629
77349653634728	1.6154966	-0.06426084	-1.7731161
77349661935509	1.6675701	0.047495723	-1.9044847
77349670236290	3.0099735	1.065213	-2.001206
77349678537071	3.8542433	2.5246634	-2.8461819
77349686837853	3.7660723	3.0962107	-2.2857862
77349695138634	3.7098646	3.7038128	-1.5218079
77349703439415	3.7477493	3.7769232	-1.5984735
77349711740196	3.6146374	4.300044	-1.0347128
77349720040978	3.4258204	4.60973	-0.83071685
77349728341759	3.5698814	4.209345	-0.9016795
77349736642540	3.807168	3.6605222	-1.4088726
77349744943321	3.81493	3.6694517	-1.4382248
77349753244103	4.090967	3.1517699	-1.9578545
77349761544884	4.350998	2.722692	-2.4580271
77349769845665	4.6432867	2.49443	-2.4411182
77349778146446	7.185524	3.2629604	1.4937983
77349786447228	9.823383	3.3499231	0.7077179
77349794748009	9.799987	3.337305	0.71020484
77349803048790	9.727878	2.7068748	0.3072889
77349811349571	7.655755	2.582678	1.5882893
77349819650353	7.619362	2.53556	1.6126611
77349827951134	3.76546	1.9711447	0.7642369
77349836251915	1.8287096	1.7326932	-0.23468924
77349844552696	1.7712193	1.6405134	-0.13117027
77349852853478	0.2070694	0.73574376	-1.1611452
77349861154259	0.13414478	0.6145444	-0.99228764
77349869455040	0.70285225	-0.26053	-1.2728307
77349877755821	4.247858	-1.8373848	-1.0827374
77349886056603	5.3331947	-2.6197977	-0.14242959
77349894357384	5.4441843	-3.5141902	0.7107425
77349902658165	5.3697386	-3.6508923	0.97524285
77349910958946	5.159423	-4.70351	1.2598408
77349919259728	5.1864424	-5.9227953	0.84414214
77349927560509	5.5105715	-7.191876	0.49123478
77349935861290	5.6391907	-8.141357	1.6747448
77349944162071	4.467122	-8.086701	2.3901632
77349952462853	1.8499517	-6.7435546	3.112334
77349960763634	-1.0601158	-4.630741	3.101276
77349969064415	-3.138256	-2.3312385	2.1126297
77349977365196	-3.856803	-0.19320142	0.9052086
77349985665978	-2.9961548	1.5291438	-0.42003888
77349993966759	-4.259205	2.330279	0.7747092
77350002267540	-5.91965	2.3267994	2.1332378
77350010568321	-7.131955	1.9359337	2.6074958
77350018869103	-7.733533	1.4613973	2.2885578
77350027169884	-7.65732	1.3948191	2.5542119
77350035470665	-7.7163486	0.306565	1.7845526
77350043771446	-7.5358877	-0.3424219	1.2983797
77350052072228	-7.477977	-0.95393676	1.1132536
77350060373009	-7.307604	-1.5241156	0.9903767
77350068673790	-6.875968	-1.9953136	0.8217232
77350076974571	-6.8101254	-1.957679	0.9559183
77350085275353	-5.835129	-2.2081752	0.7004814
77350093576134	-5.9784575	-2.026927	0.6354954
77350101876915	-6.219489	-1.8544148	0.6091132
77350110177696	-6.3586884	-1.6999048	0.5742152
77350118478478	-6.330353	-1.4585043	0.45456672
77350126779259	-6.186554	-0.9529182	0.15932941
77350135080040	-5.8052006	-0.2895283	-0.0048213005
77350143380821	-4.961255	0.16772062	-0.5445142
77350151681603	-3.5384388	0.25097448	-1.5832963
77350159982384	-1.7359314	0.21127898	-2.7439284
77350168283165	-1.7596016	0.25154793	-2.8171844
77350176583946	0.1068964	0.33658034	-3.7865684
77350184884728	2.379302	1.0509828	-4.7827454
77350193185509	2.250063	1.9663066	-3.9663002
77350201486290	2.6816158	2.3396463	-3.6792245
77350209787071	3.507146	1.7098708	-3.7079878
77350218087853	3.4739094	1.6060244	-3.7529693
77350226388634	5.0612726	-0.010888159	-3.226494
77350234689415	10.916808	-3.8517756	0.1413889
77350242990196	7.8914165	-4.684979	-0.10810447
77350251290978	3.6861305	-5.1465793	-0.96226525
77350259591759	-0.025728226	-5.469042	-1.7944055
77350267892540	-0.048319817	-5.4302125	-1.8707707
77350276193321	-1.8588171	-5.7628775	-2.902371
77350284494103	2.0940294	-4.190184	-3.5151563
77350292794884	6.758092	-2.0328517	-2.2637126
77350301095665	12.177664	-1.1574616	-0.2514305
77350309396446	12.175117	-1.1138167	-0.1844492
77350317697228	15.439113	-1.9470706	3.2194128
77350325998009	8.516912	-3.0662947	6.505637
77350334298790	0.08485222	-1.5222208	4.5000343
77350342599571	-6.3690596	-1.2229593	3.453232
77350350900353	-10.477108	-1.5412507	1.9351676
77350359201134	-12.388322	-1.552071	0.15388846
77350367501915	-12.45479	-0.7894052	-1.0252709
77350375802696	-12.4480505	-0.84515107	-1.071255
77350384103478	-9.531408	1.9020227	1.2581449
77350392404259	-8.102769	3.01688	3.128505
77350400705040	-6.7494	3.665693	4.0457997
77350409005821	-4.6619625	3.9223847	3.905111
77350417306603	-4.685397	3.917648	3.7571664
77350425607384	-0.94979	3.8397546	2.8236632
77350433908165	8.278971	1.3413506	2.0866256
77350442208946	8.700113	-1.0342063	2.6531484
77350450509728	6.851392	-2.9676304	3.3362303
77350458810509	6.8119555	-2.9123461	3.0581586
77350467111290	3.342081	-3.7925687	3.1421545
77350475412071	-0.8250141	-3.308918	2.1289768
77350483712853	-5.61504	-0.2318126	-0.33706704
77350492013634	-6.4929743	1.0698272	-0.85600257
77350500314415	-6.4774	1.0593561	-1.0610756
77350508615196	-6.555237	1.6970308	-1.4808999
77350516915978	-5.9633207	1.6975328	-1.7293799
77350525216759	-4.1087284	0.7019522	-0.75418305
77350533517540	-3.3838367	0.13498056	-0.08716875
77350541818321	-3.4207115	-0.40717578	0.6900705
77350550119103	-3.3860579	-0.33995247	0.5291076
77350558419884	-2.5920506	-2.7675164	1.6235026
77350566720665	-1.1834869	-4.123188	1.662968
77350575021446	-1.1451235	-4.0459743	1.5085318
77350583322228	1.1678791	-3.577343	-0.3336643
77350591623009	2.4059973	-1.4351405	-3.057886
77350599923790	3.511898	0.7399039	-4.8349047
77350608224571	4.025552	2.3366327	-4.7683473
77350616525353	4.0823183	2.4129877	-4.9438286
77350624826134	3.1227417	2.5077157	-1.7081661
77350633126915	2.4540606	2.0653415	-0.106469154
77350641427696	2.461316	2.8275158	1.0445607
77350649728478	2.4934826	2.8930871	0.9776933
77350658029259	2.8821344	4.267639	0.8588724
77350666330040	3.1923819	5.4811974	-0.243536
77350674630821	2.5772724	5.3351507	-0.7432108
77350682931603	2.439886	4.516117	-0.4633758
77350691232384	2.4519272	4.5239925	-0.4987197
77350699533165	2.7301683	3.9069643	-0.5468278
77350707833946	3.316556	3.410138	-1.0419724
77350716134728	3.8230486	2.881682	-1.9486382
77350724435509	3.9407597	1.7536521	-3.0336614
77350732736290	3.9196405	1.7137389	-3.0153189
77350741037071	4.313819	1.5290534	-1.2777317
77350749337853	5.2047815	1.2329645	0.55766535
77350757638634	5.52106	0.8682227	1.4180677
77350765939415	5.086192	0.6954124	1.3946161
77350774240196	4.1878834	0.941846	-1.118669
77350782540978	4.12201	0.83100307	-1.0011516
77350790841759	4.383768	0.74370575	-0.7170024
77350799142540	4.5228996	0.22131026	-1.2414396
77350807443321	4.7906704	-0.92627215	-1.2970536
77350815744103	4.8022776	-2.6251607	-0.025569439
77350824044884	4.1638355	-4.5071645	2.3380728
77350832345665	3.7493696	-6.002459	3.4124782
77350840646446	5.0238285	-6.965779	1.6259512
77350848947228	6.942748	-7.843952	-0.7713169
77350857248009	8.865105	-8.542396	-1.3574076
77350865548790	10.154469	-8.8935995	0.51319945
77350873849571	10.224837	-8.740466	3.16961
77350882150353	8.440055	-7.9335847	2.725155
77350890451134	5.604414	-6.5328016	2.070402
77350898751915	2.8383675	-4.8753943	1.9255657
77350907052696	0.12653542	-2.9516306	1.4199474
77350915353478	-1.9365702	-1.0122051	0.6548861
77350923654259	-2.825266	0.5903846	0.24551558
77350931955040	-3.1204796	1.6081948	0.045687318
77350940255821	-4.7758837	2.009876	1.1409154
77350948556603	-6.934474	1.8837818	2.870873
77350956857384	-8.585246	1.5213208	3.76948
77350965158165	-9.320819	1.1603566	3.7013564
77350973458946	-9.24986	1.1016382	3.898659
77350981759728	-9.665522	0.34939405	2.7190502
77350990060509	-9.698294	-0.004770905	2.4378264
77350998361290	-9.76517	-0.46792218	2.2274866
77351006662071	-9.767279	-0.95115304	2.1268485
77351014962853	-9.697631	-1.3627048	2.0175338
77351023263634	-9.628564	-1.291562	2.149885
77351031564415	-9.38701	-1.6987633	1.2571602
77351039865196	-9.212668	-1.5504568	0.5336001
77351048165978	-8.924697	-1.4153286	-0.19988322
77351056466759	-8.555304	-1.3083078	-0.88506436
77351064767540	-8.535926	-1.2056327	-0.88636947
77351073068321	-7.9789877	-1.109877	-1.4635966
77351081369103	-5.8412666	-0.7471466	-1.8565261
77351089669884	-4.2485075	-0.18434721	-1.2606831
77351097970665	-2.3125353	0.53695315	-0.79863906
77351106271446	-0.32018661	0.93565035	-1.3205683
77351114572228	1.4105892	0.86675435	-2.6656408
77351122873009	2.7039661	0.5720922	-4.079383
77351131173790	3.671195	0.77846414	-5.095643
77351139474571	5.169511	0.67273337	-4.754722
77351147775353	11.8990345	-1.5206444	-2.941846
77351156076134	18.792637	-4.3615584	-0.9359672
77351164376915	19.9166	-6.7661824	0.27536082
77351172677696	19.863297	-6.8098164	0.24632263
77351180978478	1.5408144	-7.1258	-2.0807154
77351189279259	-4.8195915	-6.0185766	-3.5766973
77351197580040	-8.746914	-4.8261147	-4.225815
77351205880821	-8.73168	-4.805141	-4.228715
77351214181603	-10.314164	-3.5190866	-4.5740967
77351222482384	-8.6935005	-2.319254	-5.3001356
77351230783165	0.9804745	0.9092803	-5.5435824
77351239083946	6.42896	1.7624061	-4.9871798
77351247384728	14.615919	2.2728968	-2.3238153
77351255685509	14.614853	2.3067768	-2.2412136
77351263986290	20.43294	0.60360926	3.412064
77351272287071	21.003988	-3.6355245	9.59016
77351280587853	6.014433	-9.068285	9.670826
77351288888634	-3.3337688	-6.024277	5.3143272
77351297189415	-9.121078	-3.1303258	1.5668924
77351305490196	-9.127346	-3.0686646	1.468374
77351313790978	-10.683721	0.38469517	-2.1039789
77351322091759	-10.666902	0.3570491	-2.1072574
77351330392540	-7.4867277	2.8405867	-0.16082358
77351338693321	-5.901822	3.6037889	1.9950407
77351346994103	-4.993967	3.751093	3.541378
77351355294884	-3.7901945	3.259187	4.223011
77351363595665	-3.8184214	3.2683935	4.085742
77351371896446	-1.7661562	2.3079019	4.0329776
77351380197228	2.791668	-0.36797988	3.4774177
77351388498009	2.8087082	-2.1454074	3.146182
77351396798790	2.2493572	-3.7893987	2.723712
77351405099571	2.1993475	-3.7632322	2.4135025
77351413400353	1.5331879	-4.9067063	2.234073
77351421701134	0.5824528	-5.0901837	2.397328
77351430001915	-2.8009682	-2.6038508	2.0953467
77351438302696	-3.9904747	-1.1059835	0.63748074
77351446603478	-4.739975	-0.019062161	-0.39951697
77351454904259	-4.73215	-0.03507495	-0.6087073
77351463205040	-5.3259115	0.5791577	-1.2600274
77351471505821	-5.8360367	0.83493304	-1.3579252
77351479806603	-5.2655325	0.5793395	-0.2733217
77351488107384	-5.242543	0.61280704	-0.4024769
77351496408165	-4.3056097	0.16301334	0.2108506
77351504708946	-3.663683	-0.29219866	1.2182126
77351513009728	-3.112422	-0.6622634	2.0453997
77351521310509	-2.6353931	-0.8603332	2.313734
77351529611290	-2.3945313	-0.79124403	1.8917842
77351537912071	-1.8536348	-0.47177708	0.9478284
77351546212853	-0.95612526	0.12191117	-0.4171431
77351554513634	0.1833229	0.92193425	-1.7146118
77351562814415	1.2984886	1.7413895	-2.4929175
77351571115196	2.1940107	2.3768003	-2.858987
77351579415978	2.817833	2.6267972	-3.439965
77351587716759	3.3960238	2.4337265	-3.5342696
77351596017540	3.4036398	2.0465739	-2.2634096
77351604318321	3.0785456	1.911932	-0.6043408
77351612619103	3.00871	2.2572846	0.047032356
77351620919884	3.4376984	3.0700443	-0.60203767
77351629220665	3.9629812	4.428872	-2.5960565
77351637521446	3.9865122	4.4705048	-2.6451023
77351645822228	3.494853	4.2968907	-2.067805
77351654123009	2.912449	4.4421816	-0.84447455
77351662423790	2.608244	4.919503	-0.1309421
77351670724571	2.7662325	5.4077024	-0.5178549
77351679025353	3.2167616	5.4647903	-1.535667
77351687326134	3.638116	4.6207657	-2.6268208
77351695626915	3.7555113	3.5111666	-3.2667966
77351703927696	3.883173	2.5558548	-2.8464105
77351712228478	4.407384	1.8365662	-1.2428563
77351720529259	5.35732	1.2638662	0.926903
77351728830040	5.328455	1.226476	0.9508889
77351737130821	5.765004	0.8123491	3.5462797
77351745431603	4.4653854	1.1853013	3.0175147
77351753732384	3.1338577	1.4572484	2.4492795
77351762033165	2.162921	1.5721796	1.807658
77351770333946	2.1982508	1.340417	0.6057458
77351778634728	2.117691	1.1956754	0.7877946
77351786935509	6.0147505	-1.0943922	-0.8850267
77351795236290	6.3924074	-3.3059773	0.73251164
77351803537071	6.437664	-5.2999706	2.1299272
77351811837853	6.7008476	-6.7733502	1.5259397
77351820138634	6.635396	-6.945223	1.7605113
77351828439415	7.5742903	-7.9910445	-0.7760978
77351836740196	10.475274	-9.685427	-0.23288596
77351845040978	9.748297	-9.683647	1.5572861
77351853341759	7.707926	-8.771255	2.2562983
77351861642540	4.815551	-7.0779705	2.858109
77351869943321	1.8144302	-4.8966737	3.1397252
77351878244103	1.8107634	-4.9104257	3.3744454
77351886544884	-2.2534847	-0.013696402	0.73219633
77351894845665	-2.5641556	2.025666	0.5775813
77351903146446	-3.786518	3.147931	1.3024681
77351911447228	-5.628647	3.2782521	2.402533
77351919748009	-5.5795374	3.206894	2.6762552
77351928048790	-7.3189783	2.59077	3.392545
77351936349571	-9.201863	1.3306797	2.946342
77351944650353	-9.603753	0.9455905	2.4304502
77351952951134	-9.709443	0.7109536	2.0224068
77351961251915	-9.634194	0.6973939	2.226326
77351969552696	-9.400494	0.3447829	1.9024267
77351977853478	-8.799975	-0.34693223	1.6640427
77351986154259	-7.2693663	-1.8752662	1.3745313
77351994455040	-6.9219675	-2.099108	1.0624199
77352002755821	-6.8600597	-2.1432955	0.6311791
77352011056603	-6.8055305	-2.051109	0.72918653
77352019357384	-7.1390963	-1.9705197	-0.3464105
77352027658165	-7.3129244	-1.8474501	-0.68432474
77352035958946	-7.2951546	-1.6692758	-1.2079167
77352044259728	-6.80663	-1.3876026	-1.7650743
77352052560509	-5.9724665	-1.0206449	-1.9154346
77352060861290	-5.012271	-0.6874849	-1.761049
77352069162071	-4.018223	-0.52090824	-1.5517519
77352077462853	-4.0480347	-0.47936487	-1.6641853
77352085763634	-1.5702009	-0.7891576	-2.418198
77352094064415	-0.83490944	-0.04625684	-3.1570466
77352102365196	-0.2134695	1.1085739	-3.1014795
77352110665978	0.88550663	2.1508667	-3.2997522
77352118966759	0.8577223	2.0685024	-3.3529856
77352127267540	3.2317781	2.2330754	-4.1125383
77352135568321	16.687614	-1.8016881	-0.23700333
77352143869103	16.528963	-3.9283109	1.4540486
77352152169884	10.177845	-4.901031	1.095082
77352160470665	10.131069	-4.9349494	1.0063186
77352168771446	2.1230326	-4.9328384	-0.6874137
77352177072228	-3.5132418	-4.51318	-2.5934107
77352185373009	-6.9375772	-3.9142127	-5.095501
77352193673790	-4.6687984	-4.4047375	-7.008054
77352201974571	-0.32818794	-3.4331303	-6.8834543
77352210275353	-0.30534267	-3.375809	-6.7944536
77352218576134	7.9575005	-1.1607597	-5.10645
77352226876915	19.823818	0.5617153	-2.1912076
77352235177696	26.539478	-5.0174193	11.519062
77352243478478	26.500658	-4.927376	11.529193
77352251779259	17.220512	-7.1810822	10.80846
77352260080040	5.067115	-6.3589215	6.1713142
77352268380821	-6.780121	-4.537794	2.292194
77352276681603	-15.7443285	-3.4298363	0.97546077
77352284982384	-19.343826	-2.5239577	-1.1244926
77352293283165	-17.546059	-0.43882704	-3.3795257
77352301583946	-14.985504	1.3508327	-2.5393384
77352309884728	-11.870072	2.8360262	-0.50994945
77352318185509	-9.128692	4.1789503	2.247872
77352326486290	-7.632107	5.1662807	5.0935855
77352334787071	-2.5490131	4.2845273	5.3259125
77352343087853	-2.5740328	4.2737093	5.194373
77352351388634	5.3757057	3.302311	4.1975694
77352359689415	11.840731	1.1046073	4.0937896
77352367990196	14.067189	-2.1324108	4.435982
77352376290978	11.391353	-5.2966504	4.157816
77352384591759	1.338067	-6.0020304	0.8675839
77352392892540	1.3162394	-5.9555726	0.61940694
77352401193321	-2.9902582	-4.0789137	-0.2643739
77352409494103	-5.993081	-1.7913252	-0.47841045
77352417794884	-7.512659	0.3757211	-0.61238384
77352426095665	-7.4992876	0.35668826	-0.814294
77352434396446	-6.6596327	3.0064528	-1.2152714
77352442697228	-5.59006	3.0214586	-1.021559
77352450998009	-4.365988	2.4760199	-0.5316758
77352459298790	-3.2187834	1.7790003	0.16895157
77352467599571	-2.2825089	1.008083	1.01295
77352475900353	-1.5673246	0.111644864	1.8942152
77352484201134	-1.5400324	0.17611516	1.746804
77352492501915	-0.6534128	-1.518901	2.372489
77352500802696	-0.86586857	-1.6918625	1.6834761
77352509103478	-0.82202053	-1.4589096	0.79683816
77352517404259	-0.388999	-0.7925055	-0.49063337
77352525705040	0.31301403	0.25008976	-2.35322
77352534005821	0.3634472	0.3193642	-2.5317419
77352542306603	2.490427	2.0032864	-4.731051
77352550607384	3.1016178	2.2276309	-4.028824
77352558908165	2.9208956	1.9628729	-2.9170575
77352567208946	2.2136335	1.2053229	-1.775089
77352575509728	2.2530432	1.2762232	-1.8681521
77352583810509	0.9775772	-0.29722166	-0.36839247
77352592111290	1.1061296	0.741776	-0.046142817
77352600412071	1.4865627	2.0159054	-0.9681971
77352608712853	1.6548033	2.873971	-2.0831769
77352617013634	1.3504152	3.0705984	-2.867782
77352625314415	1.362093	3.103814	-2.876005
77352633615196	-0.4519291	2.349237	-1.9162145
77352641915978	-0.7250862	2.456903	-0.9228518
77352650216759	-0.060333252	2.6782615	-0.82578754
77352658517540	0.88675594	2.8616483	-1.3096349
77352666818321	1.7940187	2.8555536	-1.8169389
77352675119103	1.778058	2.8336213	-1.7876875
77352683419884	3.1619205	2.5496116	0.5229461
77352691720665	4.2103043	2.3380172	3.0373566
77352700021446	4.9804335	2.0274248	3.2507436
77352708322228	4.776189	1.6621704	2.478858
77352716623009	4.7290773	1.6060436	2.558896
77352724923790	3.6452417	1.0894535	1.7133102
77352733224571	1.9831219	-0.06490481	-0.23096347
77352741525353	3.2808409	-1.0392773	-1.2744684
77352749826134	4.9179945	-2.447683	-0.98703194
77352758126915	6.042185	-4.2916517	-0.4853866
77352766427696	5.9625463	-4.4332714	-0.25377905
77352774728478	6.623578	-6.129583	0.34868014
77352783029259	8.076551	-6.4001226	0.25171876
77352791330040	8.818298	-6.5209584	-1.8607767
77352799630821	9.718684	-6.741297	-1.8668959
77352807931603	10.097426	-6.933241	-1.4871765
77352816232384	9.746981	-6.829755	-0.30136427
77352824533165	9.716233	-6.896496	-0.10171445
77352832833946	5.6831827	-5.2024326	3.435256
