accelerometer_timestamp	accelerometer_x_data	accelerometer_y_data	accelerometer_z_data
1442674847103164203	-0.84454346	8.392334	-0.82658386
1442674847111556537	-0.94929504	8.362762	-1.0585632
1442674847119948871	-0.44172668	8.169708	-1.7204437
1442674847128341205	0.05659485	8.303009	-2.068512
1442674847136733539	0.53448486	8.7556	-1.7508545
1442674847145125873	0.6655731	9.194504	-1.3158112
1442674847153518207	0.8535919	9.67691	-0.7930908
1442674847161910541	1.2254181	10.2105255	-0.050598145
1442674847170302875	1.5182648	10.285004	0.3514557
1442674847178695209	1.6872253	10.03154	0.5329895
1442674847187087543	1.6943054	9.768707	0.56832886
1442674847195479877	1.7131653	9.420441	0.41383362
1442674847203872211	1.6120148	9.05307	0.10874939
1442674847212264545	1.7788239	8.773972	-0.192276
1442674847220656879	1.9263	8.733261	-0.38131714
1442674847229049213	2.0207672	8.758316	-0.5361786
1442674847237441547	2.038147	8.882477	-0.46794128
1442674847245833881	1.8408203	8.758606	-0.2913971
1442674847254226215	1.7873688	8.828857	-0.19572449
1442674847262618549	1.8220673	8.937454	-0.12696838
1442674847271010883	1.8195801	9.070679	-0.04534912
1442674847279403217	1.7323761	9.250427	-0.0501709
1442674847287795551	1.6714935	9.319138	-0.32202148
1442674847296187885	1.5638885	9.253647	-0.48280334
1442674847304580219	1.4674988	9.121918	-0.51878357
1442674847312972553	1.3459778	8.9387665	-0.421463
1442674847321364887	1.339859	8.92952	-0.22232056
1442674847329757221	1.3996735	9.080734	-0.106277466
1442674847338149555	1.458786	9.251663	-0.022735596
1442674847346541889	1.6385498	9.453873	-0.039718628
1442674847354934223	1.7496643	9.582199	-0.14308167
1442674847363326557	1.6977539	9.516296	-0.2620697
1442674847371718891	1.6861877	9.492508	-0.37452698
1442674847380111225	1.6624908	9.554901	-0.45541382
1442674847388503559	1.613327	9.872604	-0.5435486
1442674847396895893	1.5861969	10.020721	-0.9215698
1442674847405288227	1.5333405	10.042877	-1.1932983
1442674847413680561	1.5102081	9.936844	-1.3706512
1442674847422072895	1.5014648	9.8376465	-1.4098206
1442674847430465229	1.4927216	9.798813	-1.1552887
1442674847438857563	1.5912476	9.848923	-0.81759644
1442674847447249896	1.7420044	10.006287	-0.52960205
1442674847455642230	1.769516	10.153854	-0.35862732
1442674847464034564	1.7727203	10.294586	-0.20825195
1442674847472426898	1.6680603	10.722351	-0.006088257
1442674847480819232	1.5570221	11.222855	0.035003662
1442674847489211566	1.5531616	11.444565	0.015090942
1442674847497603900	1.5934753	11.626434	-0.069488525
1442674847505996234	1.8138275	11.567261	-0.42852783
1442674847514388568	2.1654053	11.246033	-0.83058167
1442674847522780902	2.411499	11.08252	-0.87835693
1442674847531173236	2.4789734	11.110153	-0.7485504
1442674847539565570	2.5705872	11.110565	-0.7597656
1442674847547957904	2.5562592	11.062637	-1.1187439
1442674847556350238	2.1849365	11.031769	-1.334549
1442674847564742572	1.6422882	11.122482	-1.1656494
1442674847573134906	1.0838623	11.240082	-0.9266052
1442674847581527240	-0.08277893	11.15239	-0.064086914
1442674847589919574	-0.9365845	10.628738	1.0147095
1442674847598311908	-1.4972992	10.468658	1.4234467
1442674847606704242	-1.7080688	10.649231	1.3482513
1442674847615096576	-1.9546661	11.012009	1.1096954
1442674847623488910	-2.1788177	11.803482	0.43650818
1442674847631881244	-1.9520569	12.514481	-0.2114563
1442674847640273578	-1.4091492	12.857895	-0.4967041
1442674847648665912	-0.8879852	12.878464	-0.51919556
1442674847657058246	0.23451233	12.463959	-0.3501892
1442674847665450580	1.7493744	11.691406	0.4296875
1442674847673842914	2.925949	11.450653	0.7184143
1442674847682235248	3.2883148	11.52916	0.7586975
1442674847690627582	3.5157928	11.6358185	0.7914734
1442674847699019916	3.8245087	11.312729	0.445755
1442674847707412250	3.85083	10.903244	0.57144165
1442674847715804584	3.2149353	10.48407	0.6037445
1442674847724196918	2.9077759	10.17691	0.61979675
1442674847732589252	2.550705	9.788635	0.5803375
1442674847740981586	1.9888763	9.350479	0.419281
1442674847749373920	1.3304901	9.118668	0.2810974
1442674847757766254	0.92684937	8.9240265	0.118499756
1442674847766158588	0.6878052	8.740234	-0.09806824
1442674847774550922	0.36619568	8.461014	-0.26174927
1442674847782943256	0.23240662	8.115585	-0.27592468
1442674847791335590	0.069732666	7.8039093	-0.19656372
1442674847799727924	0.07904053	7.6314087	-0.10418701
1442674847808120258	0.118118286	7.475754	-0.009475708
1442674847816512592	0.28274536	7.2342834	0.24279785
1442674847824904926	0.5025177	7.1086273	0.59710693
1442674847833297260	0.7380829	6.986252	0.91918945
1442674847841689594	0.80363464	6.844879	1.1357422
1442674847850081928	0.7984009	6.6077423	1.4284058
1442674847858474262	0.62483215	6.142975	1.7753143
1442674847866866596	0.43063354	5.648636	1.8177948
1442674847875258930	0.2568817	5.406616	1.7111359
1442674847883651264	0.07116699	5.3211517	1.6417389
1442674847892043598	-0.3153534	5.4084015	1.6312714
1442674847900435932	0.18681335	4.8838806	1.7200623
1442674847908828266	0.8018341	4.508362	1.8154144
1442674847917220600	1.1043854	4.4941254	1.9759827
1442674847925612934	1.3997803	4.509384	2.1580505
1442674847934005268	2.0655823	4.5464325	2.6109467
1442674847942397602	2.694458	4.620575	2.993637
1442674847950789936	3.0049438	4.839203	3.2997894
1442674847959182270	3.092331	5.1136017	3.484848
1442674847967574604	3.1430511	5.684723	3.7290192
1442674847975966938	3.1271515	6.803467	4.0141144
1442674847984359271	3.1833801	8.083633	4.235321
1442674847992751605	3.3484802	8.992859	4.473999
1442674848001143939	3.5367584	9.629028	4.728485
1442674848009536273	3.7931976	10.8467865	5.359543
1442674848017928607	4.0025024	12.666092	6.02684
1442674848026320941	4.375122	14.645203	6.0895386
1442674848034713275	4.8771515	15.419128	5.600174
1442674848043105609	5.382004	16.062927	5.0561066
1442674848051497943	5.760071	15.810913	4.3600464
1442674848059890277	5.6383514	14.145294	4.541733
1442674848068282611	5.6756897	11.905624	5.0038147
1442674848076674945	5.8793793	10.331879	5.7845764
1442674848085067279	6.2385406	8.335205	6.9371185
1442674848093459613	5.9385223	6.443207	7.225891
1442674848101851947	4.2755585	6.150589	5.4072876
1442674848110244281	2.8477478	6.788727	3.9222565
1442674848118636615	1.7662354	7.5508423	2.9487152
1442674848127028949	0.123168945	9.52713	1.8636475
1442674848135421283	-1.5656433	12.466919	1.1235809
1442674848143813617	-3.1502228	15.261261	1.1721649
1442674848152205951	-3.340332	16.668762	1.4841309
1442674848160598285	-3.3472748	18.033035	1.8395233
1442674848168990619	-1.9947815	18.058594	2.4791565
1442674848177382953	-0.14317322	12.750366	3.2439575
1442674848185775287	0.44248962	7.6572723	3.8704987
1442674848194167621	0.54403687	5.35289	3.4328918
1442674848202559955	0.1716919	3.2763977	2.011078
1442674848210952289	-0.86421204	2.4559174	-0.95002747
1442674848219344623	-2.2793732	3.5369568	-4.2308655
1442674848227736957	-3.0164185	4.9861145	-5.423584
1442674848236129291	-3.3454437	6.288025	-5.6311493
1442674848244521625	-2.9761963	8.545731	-5.0006866
1442674848252913959	-2.4388885	10.142044	-4.4792633
1442674848261306293	-1.3021698	10.952881	-3.1552277
1442674848269698627	-0.434021	10.965088	-2.1894073
1442674848278090961	0.48832703	10.936676	-1.1295013
1442674848286483295	1.5920868	10.660324	0.25061035
1442674848294875629	2.1061096	10.280838	0.8235016
1442674848303267963	1.997757	9.974426	0.76872253
1442674848311660297	1.802414	9.737946	0.5354614
1442674848320052631	1.2361298	9.582672	0.117385864
1442674848328444965	0.36305237	9.618347	-0.6816406
1442674848336837299	-0.10948181	9.5728	-1.5568695
1442674848345229633	-0.22567749	9.462677	-1.8321228
1442674848353621967	-0.2783661	9.363068	-1.8815918
1442674848362014301	-0.13639832	9.108719	-1.7183838
1442674848370406635	0.5847626	9.03064	-1.3074036
1442674848378798969	1.0204468	9.167267	-0.38485718
1442674848387191303	1.2498627	9.162125	-0.13424683
1442674848395583637	1.5164948	9.166321	0.09013367
1442674848403975971	1.8218689	9.163696	0.22277832
1442674848412368305	1.668396	9.048508	0.27845764
1442674848420760639	1.3359985	8.975403	0.059906006
1442674848429152973	1.1637878	8.929138	-0.2099762
1442674848437545307	0.85647583	8.98941	-0.4415741
1442674848445937641	0.40586853	8.988251	-0.51908875
1442674848454329975	0.30207825	8.673843	-0.85206604
1442674848462722309	0.40774536	8.551544	-1.0721588
1442674848471114643	0.5259857	8.527771	-1.2019653
1442674848479506977	0.91903687	8.395096	-0.8197632
1442674848487899311	1.3955536	8.469528	-0.6086426
1442674848496291645	1.8988342	8.716187	-0.46084595
1442674848504683979	1.9663086	8.826721	-0.31303406
1442674848513076313	1.97052	8.947128	-0.13623047
1442674848521468646	1.7541351	9.112869	0.1424408
1442674848529860980	1.4303436	9.368286	0.39256287
1442674848538253314	1.0755768	9.58815	0.45484924
1442674848546645648	0.85324097	9.633133	0.3706665
1442674848555037982	0.55584717	9.538422	0.15383911
1442674848563430316	0.3808899	9.350937	-0.124816895
1442674848571822650	0.47833252	9.30838	-0.2693329
1442674848580214984	0.6923523	9.304565	-0.18760681
1442674848588607318	0.91918945	9.296204	-0.056518555
1442674848596999652	1.3626709	9.35968	0.036605835
1442674848605391986	1.5105743	9.5421295	0.12705994
1442674848613784320	1.754425	9.778336	-0.18585205
1442674848622176654	1.842453	9.901718	-0.5283661
1442674848630568988	2.049286	9.950394	-1.1093292
1442674848638961322	2.4349365	9.94046	-1.9715881
1442674848647353656	2.4223022	10.267883	-1.8310242
1442674848655745990	2.230011	10.547348	-1.2867737
1442674848664138324	2.026947	10.686142	-0.75598145
1442674848672530658	1.5055847	11.038193	0.032287598
1442674848680922992	0.78019714	11.527527	0.7158356
1442674848689315326	0.27624512	11.85788	0.7837677
1442674848697707660	0.22065735	11.980743	0.6112671
1442674848706099994	0.24635315	12.070068	0.4216919
1442674848714492328	0.90267944	12.142441	0.18989563
1442674848722884662	2.0565338	11.712891	-0.3759613
1442674848731276996	2.8191223	11.358475	-0.96224976
1442674848739669330	2.8801575	11.274277	-0.9866638
1442674848748061664	2.8558197	11.1753845	-0.9620056
1442674848756453998	2.607483	10.850937	-1.029892
1442674848764846332	2.2391815	10.311249	-1.2897644
1442674848773238666	1.7862396	10.226395	-1.1590729
1442674848781631000	1.3364105	10.44809	-0.8345642
1442674848790023334	0.53440857	10.865967	-0.014389038
1442674848798415668	-0.27604675	11.17067	1.0706787
1442674848806808002	-0.7982788	11.438095	1.7852325
1442674848815200336	-1.05159	11.620117	1.7010345
1442674848823592670	-1.2700653	11.785904	1.5011902
1442674848831985004	-1.9403992	12.394913	0.4716797
1442674848840377338	-2.1691132	12.895798	-0.47364807
1442674848848769672	-1.5482178	13.058472	-0.833374
1442674848857162006	-0.8715668	12.877258	-0.8256531
1442674848865554340	0.092178345	12.428513	-0.58335876
1442674848873946674	1.4312897	11.493652	0.24108887
1442674848882339008	2.2525787	10.853989	1.1927185
1442674848890731342	2.3989716	10.711624	1.6225739
1442674848899123676	2.2254639	10.752121	1.6772003
1442674848907516010	2.066101	10.877838	1.3135834
1442674848915908344	2.2057648	10.576721	0.7771454
1442674848924300678	1.7490234	10.072556	0.5593262
1442674848932693012	1.395752	9.708374	0.38180542
1442674848941085346	1.0681	9.35257	0.1982727
1442674848949477680	0.66937256	8.736908	-0.044006348
1442674848957870014	0.6501465	8.346298	0.017181396
1442674848966262348	0.6855316	8.251495	0.25956726
1442674848974654682	0.59684753	8.243149	0.33346558
1442674848983047016	0.49212646	8.156784	0.4814911
1442674848991439350	0.39265442	7.981827	0.67492676
1442674848999831684	0.33888245	7.717163	0.75730896
1442674849008224018	0.28605652	7.4523926	0.89260864
1442674849016616352	0.2295227	7.279541	1.0763855
1442674849025008686	0.4454651	7.1127167	1.1401978
1442674849033401020	0.8917999	6.879959	1.582016
1442674849041793354	1.403305	6.596115	1.865509
1442674849050185688	1.5239563	6.460083	1.94133
1442674849058578021	1.6033936	6.321213	2.0038452
1442674849066970355	1.4789581	6.006897	2.0293732
1442674849075362689	1.1611786	5.7483063	1.8746796
1442674849083755023	1.2020111	5.375778	1.6300049
1442674849092147357	1.322815	5.145096	1.5792389
1442674849100539691	1.3743591	4.9604797	1.6235657
1442674849108932025	1.4182281	4.8795013	1.8208618
1442674849117324359	1.9234467	4.548401	2.0700226
1442674849125716693	2.2941742	4.3056793	2.3778229
1442674849134109027	2.4034119	4.2600555	2.7055511
1442674849142501361	2.6484375	4.3497314	3.1455994
1442674849150893695	3.0631256	4.657913	3.285492
1442674849159286029	3.1437836	5.1974335	3.5951233
1442674849167678363	2.97229	5.6795044	3.6397095
1442674849176070697	2.7786102	6.2364197	3.6704865
1442674849184463031	2.4936523	7.4583435	3.6656647
1442674849192855365	2.4708862	8.589401	3.713028
1442674849201247699	2.7285614	9.329666	3.9552917
1442674849209640033	3.2671814	10.355545	4.341568
1442674849218032367	4.201538	11.74762	5.0676727
1442674849226424701	4.8647614	12.951706	5.4116974
1442674849234817035	5.456192	13.838287	4.727463
1442674849243209369	5.868622	14.076569	4.090393
1442674849251601703	6.147522	14.069504	3.679123
1442674849259994037	6.363983	13.710861	3.582077
1442674849268386371	6.674591	12.886368	4.4874573
1442674849276778705	7.242874	11.169006	5.9093018
1442674849285171039	6.9357147	10.470505	6.256302
1442674849293563373	6.4887543	9.769531	6.4201355
1442674849301955707	5.150299	9.115463	5.316391
1442674849310348041	3.8694305	9.028381	3.874115
1442674849318740375	3.1747742	9.804642	3.0920563
1442674849327132709	2.1756592	11.2070465	2.1200256
1442674849335525043	0.6339569	13.519409	1.0464783
1442674849343917377	-1.229599	15.500793	0.6941376
1442674849352309711	-2.1422577	16.176086	1.4040222
1442674849360702045	-1.7297058	15.117142	2.2700958
1442674849369094379	-1.0260468	13.561401	3.0405731
1442674849377486713	-0.45991516	8.674576	4.049179
1442674849385879047	-0.8544464	3.1035614	3.3253632
1442674849394271381	-1.2132721	0.3190918	1.140213
1442674849402663715	-2.106491	0.8023224	0.26948547
1442674849411056049	-3.2571106	1.5170746	-0.63708496
1442674849419448383	-4.9980774	3.5564423	-1.9428558
1442674849427840717	-4.290802	6.8279877	-3.9130554
1442674849436233051	-2.7369843	10.194946	-5.0331726
1442674849444625385	-2.0089111	12.161957	-4.961838
1442674849453017719	-0.9184418	14.526367	-4.197006
1442674849461410053	0.40800476	15.702835	-2.0981445
1442674849469802387	1.1550598	14.755676	-0.5538635
1442674849478194721	1.6389465	13.26741	0.4601593
1442674849486587055	1.5629883	10.263626	1.2120209
1442674849494979389	0.7506256	7.8616486	0.48757935
1442674849503371723	-0.4558258	7.3979034	0.33007813
1442674849511764057	-0.41792297	7.540573	-0.20391846
1442674849520156391	-0.41394043	7.7774506	-0.7812042
1442674849528548725	-0.45846558	8.575562	-1.5807495
1442674849536941059	0.15673828	9.175217	-2.221283
1442674849545333393	0.8465576	9.093857	-2.6371613
1442674849553725727	1.1749268	8.81369	-2.8350677
1442674849562118061	1.485321	8.560013	-2.886612
1442674849570510395	1.4697418	8.499359	-2.5294342
1442674849578902729	1.1536713	8.670624	-2.1725006
1442674849587295063	0.9158783	8.874588	-1.8584747
1442674849595687396	0.7269592	9.066727	-1.5114594
1442674849604079730	0.7186127	9.279831	-0.6646271
1442674849612472064	0.6397095	9.611069	-0.04232788
1442674849620864398	0.9437103	9.635651	0.4513092
1442674849629256732	1.0812225	9.669708	0.7552643
1442674849637649066	1.1893005	9.647339	1.0410919
1442674849646041400	1.1261902	9.398422	1.0432587
1442674849654433734	1.0117035	9.240799	0.519104
1442674849662826068	1.0207977	9.163788	0.20324707
1442674849671218402	1.0098724	9.181793	-0.043518066
1442674849679610736	1.1375275	9.240448	-0.40885925
1442674849688003070	1.6224365	9.304886	-0.8092499
1442674849696395404	2.0811615	9.211746	-0.9715271
1442674849704787738	2.2695007	9.098419	-0.94395447
1442674849713180072	2.393509	9.00267	-0.8822632
1442674849721572406	2.4822083	8.878342	-0.3965912
1442674849729964740	2.3770905	9.025467	0.23194885
1442674849738357074	2.4826202	9.271759	0.61654663
1442674849746749408	2.4421387	9.527527	0.7090759
1442674849755141742	2.345169	9.825623	0.7808533
1442674849763534076	2.014328	10.125549	0.6741791
1442674849771926410	1.6509705	9.926254	0.16993713
1442674849780318744	1.4818878	9.613724	-0.41351318
1442674849788711078	1.4645233	9.458862	-0.76438904
1442674849797103412	1.7191772	9.450699	-1.1174164
1442674849805495746	2.0071564	9.595932	-1.259903
1442674849813888080	2.2246857	9.6948395	-1.3053284
1442674849822280414	2.2950287	9.835571	-1.3658447
1442674849830672748	2.3175201	9.997513	-1.427536
1442674849839065082	2.418869	10.331192	-1.5382996
1442674849847457416	2.2042236	10.370865	-1.1165161
1442674849855849750	1.8874359	10.331451	-0.51123047
1442674849864242084	1.7415619	10.422058	-0.23812866
1442674849872634418	1.5513611	10.597229	0.0060272217
1442674849881026752	1.2450867	10.963501	0.14627075
1442674849889419086	0.9356842	11.258484	0.24449158
1442674849897811420	0.7260742	11.576477	0.33425903
1442674849906203754	0.690094	11.836746	0.4178009
1442674849914596088	0.94636536	12.021042	0.39567566
1442674849922988422	1.6322327	11.903595	-0.023620605
1442674849931380756	2.4256592	11.482681	-0.7382965
1442674849939773090	2.7579956	11.178162	-1.0444489
1442674849948165424	2.9809723	10.916611	-1.2417145
1442674849956557758	2.8751068	10.648239	-1.3063202
1442674849964950092	2.3945007	10.470306	-1.2265472
1442674849973342426	1.7743225	10.515457	-1.154602
1442674849981734760	1.3142242	10.5829315	-0.9759674
1442674849990127094	0.64997864	10.665543	-0.5931854
1442674849998519428	-0.5322113	10.856323	0.35102844
1442674850006911762	-1.5129089	11.088837	1.1589508
1442674850015304096	-1.9923096	11.289673	1.2756042
1442674850023696430	-2.2853394	11.572418	1.0307617
1442674850032088764	-2.7615662	12.23465	0.59169006
1442674850040481098	-3.052353	12.9296875	0.18215942
1442674850048873432	-2.526184	13.254211	-0.04727173
1442674850057265766	-2.015396	13.107269	-0.07055664
1442674850065658100	-1.5450134	12.888794	-0.062194824
1442674850074050434	-0.443161	11.798752	0.588089
1442674850082442768	0.4541626	11.178711	1.2977753
1442674850090835102	1.5825806	11.010056	1.3963013
1442674850099227436	1.9559326	11.0164795	1.2504272
1442674850107619770	2.280716	11.022903	1.0555573
1442674850116012104	2.4883118	11.105743	0.7350006
1442674850124404438	2.6414032	10.938858	0.7568817
1442674850132796771	2.6447449	10.472427	0.91137695
1442674850141189105	2.5457764	10.111267	0.8008423
1442674850149581439	2.1571808	9.565109	0.65919495
1442674850157973773	1.5628357	8.878403	0.12962341
1442674850166366107	1.2596436	8.302292	-0.113861084
1442674850174758441	1.006958	8.090851	0.029159546
1442674850183150775	0.74620056	7.9233093	0.20887756
1442674850191543109	0.24020386	7.6674194	0.23573303
1442674850199935443	0.00390625	7.4876556	0.24691772
1442674850208327777	-0.1322937	7.3764343	0.35603333
1442674850216720111	-0.1181488	7.3070374	0.57066345
1442674850225112445	-0.018951416	7.1525726	0.8946533
1442674850233504779	0.019424438	6.8231354	1.4567413
1442674850241897113	-0.0029296875	6.4291077	1.7982178
1442674850250289447	0.12307739	6.0952454	1.7718506
1442674850258681781	0.20083618	5.8292084	1.6793213
1442674850267074115	0.22801208	5.4392242	1.6906891
1442674850275466449	0.2944336	5.0834045	1.752655
1442674850283858783	0.111190796	4.9608917	1.7668304
1442674850292251117	0.2420044	4.7247314	1.7666779
1442674850300643451	0.40016174	4.481247	1.780777
1442674850309035785	0.53030396	4.3325195	2.0266876
1442674850317428119	1.151535	4.104355	2.1220856
1442674850325820453	1.660141	4.0889435	2.3160858
1442674850334212787	1.9975128	4.135208	2.5570679
1442674850342605121	2.325882	4.2226105	2.941208
1442674850350997455	2.6817474	4.3542023	3.5274658
1442674850359389789	3.0238495	4.5711517	4.1014557
1442674850367782123	3.3033752	4.9302216	4.48172
1442674850376174457	3.5758362	5.3228607	4.73555
1442674850384566791	4.1280518	6.491043	4.946747
1442674850392959125	4.8752594	8.469452	4.95076
1442674850401351459	5.4134216	11.139893	4.8382416
1442674850409743793	5.3125305	12.7885895	4.884506
1442674850418136127	5.1681213	14.520584	4.974472
1442674850426528461	4.885788	17.415848	5.4474792
1442674850434920795	4.6039276	18.592041	5.9543457
1442674850443313129	4.447159	17.64853	5.9594727
1442674850451705463	4.384186	16.447495	5.746765
1442674850460097797	4.2017517	14.498627	5.61174
1442674850468490131	4.047577	11.494766	5.482849
1442674850476882465	4.4101715	8.561127	5.50029
1442674850485274799	4.630295	6.938034	5.746063
1442674850493667133	4.6328735	5.976059	6.020447
1442674850502059467	3.6085358	5.3320923	5.467392
1442674850510451801	2.330429	6.375717	4.7556
1442674850518844135	1.4908295	8.84877	4.1238403
1442674850527236469	0.9983978	10.544632	3.4858704
1442674850535628803	0.333786	12.530151	2.753296
1442674850544021137	-1.5909424	16.384308	1.4567719
1442674850552413471	-3.0540924	18.51593	0.69181824
1442674850560805805	-2.4615173	17.212143	0.83114624
1442674850569198139	-1.582428	14.411682	1.7307892
1442674850577590473	-1.0095673	9.708954	3.1164703
1442674850585982807	-1.2635803	3.9770813	3.4614868
1442674850594375141	-1.8628693	0.8956604	1.6726685
1442674850602767475	-2.5526123	0.3370819	0.5518646
1442674850611159809	-3.3044586	0.4482422	-0.016204834
1442674850619552143	-4.0962524	2.350708	-1.648407
1442674850627944477	-3.1089172	6.3172455	-3.7246552
1442674850636336811	-1.2719269	10.968735	-4.332779
1442674850644729145	-0.1383667	13.059113	-4.07959
1442674850653121479	1.1186371	15.166443	-3.6533203
1442674850661513813	2.776291	16.5569	-2.3256683
1442674850669906146	3.3476563	14.489136	-0.97846985
1442674850678298480	3.0536652	11.397919	0.05569458
1442674850686690814	2.574936	9.74707	0.6989441
1442674850695083148	1.8675079	8.061218	1.2182007
1442674850703475482	1.0139008	7.225128	0.88150024
1442674850711867816	0.44992065	7.6184387	-0.051498413
1442674850720260150	0.4474182	7.928116	-0.5236664
1442674850728652484	0.6164093	8.078491	-0.80062866
1442674850737044818	0.9638977	8.499039	-1.2483673
1442674850745437152	1.2479706	8.730515	-1.5245819
1442674850753829486	1.3439789	8.867493	-1.5286102
1442674850762221820	1.3549042	8.890625	-1.5440369
1442674850770614154	1.3153076	8.891403	-1.5265503
1442674850779006488	1.099289	8.786819	-1.367096
1442674850787398822	0.9053955	8.652924	-1.1277313
1442674850795791156	0.7402191	8.589706	-0.85546875
1442674850804183490	0.75180054	8.589706	-0.6826019
1442674850812575824	0.85098267	8.696945	-0.4441986
1442674850820968158	1.0927124	8.972565	0.06602478
1442674850829360492	1.346405	9.188782	0.5938721
1442674850837752826	1.4867706	9.148514	0.7011566
1442674850846145160	1.5947266	9.040543	0.68829346
1442674850854537494	1.6877899	8.783737	0.5460663
1442674850862929828	1.4625397	8.972733	0.43411255
1442674850871322162	1.4468689	9.318817	0.31777954
1442674850879714496	1.4173126	9.38501	0.372406
1442674850888106830	1.3634491	9.450439	0.2518921
1442674850896499164	1.1768951	9.444321	-0.38964844
1442674850904891498	0.98799133	9.3663025	-0.8124542
1442674850913283832	1.0709686	9.413757	-0.8614807
1442674850921676166	1.2419128	9.440094	-0.6866913
1442674850930068500	1.424057	9.538605	-0.138031
1442674850938460834	1.4712219	9.714905	0.4283905
1442674850946853168	1.4758911	9.828308	0.559494
1442674850955245502	1.4746094	9.760742	0.48236084
1442674850963637836	1.4681854	9.652786	0.3808136
1442674850972030170	1.5726013	9.221863	0.14343262
1442674850980422504	1.7956543	9.03212	-0.123809814
1442674850988814838	1.9434509	9.138153	-0.15336609
1442674850997207172	2.0917664	9.283585	-0.20831299
1442674851005599506	2.2105865	9.544128	-0.44351196
1442674851013991840	2.3217163	9.672791	-1.0035706
1442674851022384174	2.491333	9.723587	-1.5275726
1442674851030776508	2.5337372	9.740295	-1.6991425
1442674851039168842	2.588852	9.899536	-1.6381989
1442674851047561176	2.3961945	10.198898	-1.0788269
1442674851055953510	2.0122528	10.566376	-0.39048767
1442674851064345844	1.6872253	10.80867	-0.10609436
1442674851072738178	1.3858337	11.002731	0.057128906
1442674851081130512	0.85510254	11.442841	0.15940857
1442674851089522846	0.5328827	11.874603	-0.0635376
1442674851097915180	0.7520447	12.0625	-0.337265
1442674851106307514	1.0906982	12.093979	-0.6900482
1442674851114699848	1.5624542	12.057144	-1.0473175
1442674851123092182	2.2542725	11.848846	-1.224884
1442674851131484516	2.3505707	11.639786	-0.8383789
1442674851139876850	2.2524567	11.318253	-0.49673462
1442674851148269184	2.2093964	11.063141	-0.47616577
1442674851156661518	1.8981018	10.840759	-0.60458374
1442674851165053852	0.93588257	10.853546	-0.61557007
1442674851173446186	0.082839966	10.914963	7.6293945E-4
1442674851181838520	-0.48735046	10.955292	0.5198364
1442674851190230854	-1.0187836	10.996414	0.9626007
1442674851198623188	-1.7518158	11.343842	0.9405365
1442674851207015521	-2.197586	11.961899	0.28103638
1442674851215407855	-2.6705933	12.582413	-0.38833618
1442674851223800189	-2.5748444	12.688446	-0.45516968
1442674851232192523	-2.3105621	12.853973	-0.50779724
1442674851240584857	-1.4251709	12.83696	-0.29234314
1442674851248977191	-0.25769043	12.138977	0.57258606
1442674851257369525	0.5519867	11.642502	1.2322693
1442674851265761859	1.0679932	11.421448	1.3530731
1442674851274154193	1.726654	11.237961	1.4203491
1442674851282546527	2.2367706	10.968979	1.4212952
1442674851290938861	2.429657	10.772644	0.9793396
1442674851299331195	2.4319916	10.603912	0.8865814
1442674851307723529	2.4088593	10.432968	0.89364624
1442674851316115863	2.1714935	9.751312	1.0116425
1442674851324508197	1.6949005	8.948578	0.7180481
1442674851332900531	1.3118439	8.403168	0.619751
1442674851341292865	1.0014648	8.177612	0.59147644
1442674851349685199	0.68566895	7.9474335	0.56199646
1442674851358077533	0.3289795	7.8351746	0.778656
1442674851366469867	-0.12788391	7.919281	1.2346954
1442674851374862201	-0.42144775	7.9572144	1.3062897
1442674851383254535	-0.5043335	7.9649353	1.2066956
1442674851391646869	-0.47091675	7.841522	1.0491333
1442674851400039203	-0.26867676	7.7070465	0.85401917
1442674851408431537	0.10215759	7.527405	1.1136017
1442674851416823871	0.36167908	7.3602448	1.3127594
1442674851425216205	0.5989227	7.1973724	1.484787
1442674851433608539	0.8577728	6.93573	1.7692719
1442674851442000873	0.98495483	6.4487762	1.923172
1442674851450393207	1.1292877	5.9109344	2.0029144
1442674851458785541	1.1357117	5.615982	1.9290161
1442674851467177875	1.1313782	5.2499084	1.8248291
1442674851475570209	1.0591431	4.828644	1.8006897
1442674851483962543	1.0105133	4.5507507	2.0347443
1442674851492354877	1.0943146	4.4094543	2.2240753
1442674851500747211	1.2080536	4.347107	2.320465
1442674851509139545	1.4311523	4.2486267	2.4347076
1442674851517531879	1.8230438	4.199997	2.732483
1442674851525924213	2.0114899	4.6201477	3.0129242
1442674851534316547	2.292984	4.823242	3.1294403
1442674851542708881	2.6065216	4.9988556	3.2402344
1442674851551101215	3.3080292	5.3370667	3.6022644
1442674851559493549	3.904663	5.910248	3.990631
1442674851567885883	4.395218	6.765503	4.477707
1442674851576278217	4.685028	7.415161	4.7026215
1442674851584670551	4.9973907	8.425735	4.9503174
1442674851593062885	5.2265015	9.953842	5.26532
1442674851601455219	5.165909	11.183075	5.8637695
1442674851609847553	4.988983	11.852341	6.4036865
1442674851618239887	4.8238373	12.280319	6.749405
1442674851626632221	4.5839996	13.125381	6.746628
1442674851635024555	4.2734985	13.839172	5.8546906
1442674851643416889	3.9019318	14.380142	4.9289246
1442674851651809223	3.6952057	13.956253	4.8213043
1442674851660201557	3.498291	13.317047	4.7814484
1442674851668593891	3.3386536	10.73819	4.965149
1442674851676986225	3.5059967	7.676346	5.5036316
1442674851685378559	3.6223145	5.383667	6.371475
1442674851693770893	3.642868	4.503296	6.811661
1442674851702163227	3.5664063	4.2913666	7.02388
1442674851710555561	3.1537628	5.7533875	6.386093
1442674851718947895	1.818634	8.357483	4.8734436
1442674851727340229	0.32606506	10.801239	3.4214935
1442674851735732563	-0.9295807	12.985458	2.1523438
1442674851744124896	-3.1772614	17.726135	-0.2374878
1442674851752517230	-4.643387	21.313889	-0.96043396
1442674851760909564	-4.7736206	19.912598	1.7185822
1442674851769301898	-4.7633057	17.623337	2.668396
1442674851777694232	-4.6497345	15.031326	3.4810028
1442674851786086566	-3.6632843	10.182571	3.4837036
1442674851794478900	-2.4609222	5.924835	2.323639
1442674851802871234	-1.7365875	3.585205	0.22077942
1442674851811263568	-1.5431671	2.792862	-0.7983856
1442674851819655902	-1.2134094	2.7887268	-2.2721558
1442674851828048236	-0.41278076	4.996063	-4.4061584
1442674851836440570	0.2999115	8.860916	-5.5985565
1442674851844832904	0.44914246	11.378723	-5.6601563
1442674851853225238	0.43951416	13.045624	-5.511078
1442674851861617572	1.1492462	14.106262	-3.976944
1442674851870009906	2.7996979	13.441742	-1.9888763
1442674851878402240	3.8727264	11.537369	-0.53160095
1442674851886794574	3.5636292	10.523331	-0.14346313
1442674851895186908	3.1287384	9.465225	0.18910217
1442674851903579242	1.9358215	8.380768	0.0315094
1442674851911971576	0.7051697	8.131226	-0.55773926
1442674851920363910	-0.07229614	8.071976	-0.55641174
1442674851928756244	-0.50605774	8.230713	-0.33213806
1442674851937148578	-0.90327454	8.350967	-0.014129639
1442674851945540912	-1.1023102	8.473953	0.113586426
1442674851953933246	-0.71333313	8.269226	-0.13311768
1442674851962325580	-0.24787903	8.107941	-0.4433136
1442674851970717914	0.13575745	8.053955	-0.74276733
1442674851979110248	0.46487427	8.336807	-1.0810852
1442674851987502582	0.85136414	8.646423	-1.3847351
1442674851995894916	1.4394531	8.807129	-1.3825836
1442674852004287250	1.6258087	8.82576	-1.2495728
1442674852012679584	1.8097687	8.815201	-1.06781
1442674852021071918	1.9580841	8.686203	-0.62158203
1442674852029464252	1.9935303	8.6026	-0.1006012
1442674852037856586	1.9578552	8.568146	0.18597412
1442674852046248920	1.9385834	8.555939	0.3453369
1442674852054641254	1.827179	8.647781	0.57362366
1442674852063033588	1.6251526	9.119202	0.69854736
1442674852071425922	1.5958099	9.631027	0.7913513
1442674852079818256	1.6316833	9.691345	0.8313751
1442674852088210590	1.6593323	9.618088	0.8390808
1442674852096602924	1.354126	9.258743	0.3219452
1442674852104995258	0.7757263	8.70433	-0.42352295
1442674852113387592	0.5843048	8.556915	-1.3350067
1442674852121779926	0.44999695	8.765762	-1.3060913
1442674852130172260	0.35888672	9.013519	-1.0700684
1442674852138564594	0.50790405	9.324509	-0.053970337
1442674852146956928	0.8770752	9.380554	0.9170685
1442674852155349262	1.1430664	9.325134	1.2738953
1442674852163741596	1.2619476	9.302002	1.2282715
1442674852172133930	1.4008789	9.1017	0.91033936
1442674852180526264	1.4937592	8.90448	0.28082275
1442674852188918598	1.4174042	8.953964	-0.33187866
1442674852197310932	1.2631378	9.126755	-0.5295563
1442674852205703266	1.102478	9.315048	-0.6156616
1442674852214095600	0.8691101	9.892181	-0.5457611
1442674852222487934	0.6578369	10.387436	-0.55630493
1442674852230880268	0.69374084	10.415924	-1.1420288
1442674852239272602	1.1531982	10.719238	-1.1786499
1442674852247664936	1.6038666	10.935944	-1.2608948
1442674852256057270	1.9228668	10.835251	-1.2387085
1442674852264449604	1.9879608	10.575806	-0.69055176
1442674852272841938	1.9827881	10.455795	-0.3139038
1442674852281234271	1.9583588	10.52713	-0.20721436
1442674852289626605	2.0852203	10.84787	-4.7302246E-4
1442674852298018939	2.395279	11.369568	0.38783264
1442674852306411273	2.833847	11.932236	0.64375305
1442674852314803607	3.0267792	12.126129	0.4311676
1442674852323195941	3.155304	12.232162	0.12463379
1442674852331588275	3.3050232	12.097626	-0.9983673
1442674852339980609	3.3802185	11.985825	-1.6530609
1442674852348372943	3.0967712	12.013626	-1.8467712
1442674852356765277	2.8718567	11.851685	-1.9900665
1442674852365157611	2.4894714	11.577698	-2.1021423
1442674852373549945	1.763092	11.120407	-1.8524628
1442674852381942279	0.8812256	11.226273	-1.1022797
1442674852390334613	0.29016113	11.714722	-0.43556213
1442674852398726947	0.26574707	12.043732	0.15049744
1442674852407119281	-0.1444397	12.570145	0.6797943
1442674852415511615	-0.94569397	12.659912	0.5146332
1442674852423903949	-2.2133942	12.39595	0.2836914
1442674852432296283	-2.6741028	12.369064	0.0831604
1442674852440688617	-2.9690552	12.391556	-0.12246704
1442674852449080951	-2.454544	12.785873	-0.58595276
1442674852457473285	-1.4330139	12.637543	-0.4460907
1442674852465865619	-0.35725403	12.0585785	0.2855835
1442674852474257953	0.3419037	11.676224	0.7174072
1442674852482650287	1.1580048	11.304718	1.1075592
1442674852491042621	2.068695	11.061569	1.1373749
1442674852499434955	2.876892	10.936432	0.83387756
1442674852507827289	3.4177856	10.706802	0.6782074
1442674852516219623	3.622116	10.4279175	0.57089233
1442674852524611957	3.3640137	10.19075	-0.0062713623
1442674852533004291	2.6614075	9.706238	-0.3148346
1442674852541396625	1.9464417	8.929474	-0.45387268
1442674852549788959	1.8473358	8.540756	-0.43424988
1442674852558181293	1.8165131	8.209671	-0.3952484
1442674852566573627	1.3318787	7.8970337	-0.40177917
1442674852574965961	1.166748	7.5747986	-0.24786377
1442674852583358295	0.88449097	7.4420013	-0.28804016
1442674852591750629	0.67308044	7.372589	-0.20384216
1442674852600142963	0.5100403	7.188965	-0.12840271
1442674852608535297	0.513916	6.837143	-0.16557312
1442674852616927631	0.39967346	6.7093506	0.020690918
1442674852625319965	0.25732422	6.7709045	0.35324097
1442674852633712299	0.2579651	6.837082	0.5408783
1442674852642104633	0.24533081	7.0649567	1.0051575
1442674852650496967	-0.056015015	7.3428955	1.6090546
1442674852658889301	-0.23631287	7.3033295	1.779541
1442674852667281635	-0.38154602	7.2088776	1.8727264
1442674852675673969	-0.68678284	6.6185303	2.113556
1442674852684066303	-1.1239929	6.1521606	2.3527832
1442674852692458637	-1.2570648	5.838196	2.4446716
1442674852700850971	-1.0404968	5.638336	2.39711
1442674852709243305	-0.5911102	5.286499	2.256256
1442674852717635639	0.12528992	4.9165955	2.0195618
1442674852726027973	0.6485748	4.893814	2.046692
1442674852734420307	1.1243286	4.7924957	2.1832886
1442674852742812641	1.4687653	4.6935425	2.2886658
1442674852751204975	2.0080872	4.6811066	2.252472
1442674852759597309	2.411911	4.767151	2.486618
1442674852767989643	2.5703583	5.2815857	2.8273163
1442674852776381977	2.6267395	5.779724	3.0223541
1442674852784774311	2.6768646	6.277405	3.208313
1442674852793166645	2.8168488	7.303833	3.7809143
1442674852801558979	3.197876	8.743118	4.6035614
1442674852809951313	4.008896	10.895477	5.070099
1442674852818343646	4.6463623	12.5212555	5.443451
1442674852826735980	5.3667755	14.86496	5.918106
1442674852835128314	6.036728	18.261139	5.9176483
1442674852843520648	6.649231	20.152328	4.722183
1442674852851912982	6.907013	19.514603	4.1878815
1442674852860305316	6.7752686	17.942795	4.3973694
1442674852868697650	6.6173096	13.834518	5.424423
1442674852877089984	6.0421295	9.447784	7.0467224
1442674852885482318	5.466751	5.787552	7.797577
1442674852893874652	4.894226	4.270279	7.2574005
1442674852902266986	4.212845	3.0018463	6.527359
1442674852910659320	1.9028473	3.2316742	4.4045105
1442674852919051654	-0.19128418	5.609833	2.9123688
1442674852927443988	-1.3339386	8.285599	2.1796265
1442674852935836322	-1.9951782	9.921036	1.7779999
1442674852944228656	-3.2434387	12.220947	1.5383759
1442674852952620990	-5.0613556	16.00467	1.6636963
1442674852961013324	-5.274353	20.260345	1.6008301
1442674852969405658	-3.9798584	21.147964	1.7386932
1442674852977797992	-2.4151154	19.973297	2.1750183
1442674852986190326	-0.46388245	13.514603	3.0597382
1442674852994582660	-0.6681671	6.809372	2.1018677
1442674853002974994	-0.9356537	2.6059723	0.29692078
1442674853011367328	-1.4599609	1.7452393	-0.26527405
1442674853019759662	-2.1323242	1.1799927	-0.9038696
1442674853028151996	-3.8217773	2.3552094	-2.6408997
1442674853036544330	-3.7971497	4.771744	-3.7891846
1442674853044936664	-2.1144867	7.5125427	-4.350189
1442674853053328998	-1.0535431	9.316986	-4.307785
1442674853061721332	0.3161316	11.530228	-3.944931
1442674853070113666	2.034134	13.506256	-2.7110596
1442674853078506000	3.3211212	13.569458	-0.99690247
1442674853086898334	3.5857697	12.783859	0.03427124
1442674853095290668	3.4540253	12.005676	0.6858673
1442674853103683002	2.6656342	10.915619	1.3344116
1442674853112075336	1.8406982	9.620911	0.8273926
1442674853120467670	-0.19947815	8.272766	0.8493347
1442674853128860004	-0.6573639	8.207031	0.14724731
1442674853137252338	-1.0149536	8.170975	-0.60032654
1442674853145644672	-0.6308136	8.230743	-1.519989
1442674853154037006	0.26589966	8.065063	-1.9584808
1442674853162429340	0.88360596	8.0456085	-2.1066437
1442674853170821674	1.0648193	8.161911	-2.116928
1442674853179214008	1.1146393	8.424118	-1.9711304
1442674853187606342	0.9635315	8.780167	-1.8453827
1442674853195998676	0.89064026	8.889618	-1.9480286
1442674853204391010	0.9059448	8.911575	-1.8670654
1442674853212783344	0.9258728	8.948212	-1.6819916
1442674853221175678	1.1383362	9.108429	-1.1850281
1442674853229568012	1.0523682	9.415497	-0.57725525
1442674853237960346	1.1987	9.258774	-0.09945679
1442674853246352680	0.9480896	9.084625	0.18328857
1442674853254745014	0.7991638	9.004166	0.40628052
1442674853263137348	1.0319366	9.330963	0.35517883
1442674853271529682	0.96873474	9.493225	0.3705902
1442674853279922016	1.0466766	9.543259	0.369812
1442674853288314350	1.144989	9.464218	0.28112793
1442674853296706684	1.1706543	9.238846	-0.17918396
1442674853305099018	1.4374847	9.066772	-0.9258728
1442674853313491352	1.7213898	9.052216	-1.0568542
1442674853321883686	1.9210815	8.973846	-0.6682892
1442674853330276020	2.1292877	8.866531	-0.19662476
1442674853338668354	2.5003052	8.758667	0.6217346
1442674853347060688	2.702423	8.819412	0.98121643
1442674853355453021	2.5477142	8.726471	0.7724457
1442674853363845355	2.3690643	8.628159	0.5732422
1442674853372237689	2.1661682	8.565933	0.3154297
1442674853380630023	1.9000549	8.767838	-0.14344788
1442674853389022357	1.7422028	9.355423	-0.514328
1442674853397414691	1.7426147	9.840088	-0.7683258
1442674853405807025	1.8833313	10.030945	-0.9309082
1442674853414199359	2.0038147	10.148285	-1.1677246
1442674853422591693	2.123108	10.1349945	-1.2272644
1442674853430984027	2.0278625	10.22496	-1.1148987
1442674853439376361	1.8271484	10.415146	-1.0415192
1442674853447768695	1.6247253	10.616272	-0.9843292
1442674853456161029	1.1896973	10.971512	-1.0166016
1442674853464553363	0.61720276	11.581207	-1.0874329
1442674853472945697	0.3060608	12.38089	-1.1813202
1442674853481338031	0.39730835	12.594223	-1.2211609
1442674853489730365	0.6241455	12.774689	-1.3596344
1442674853498122699	1.3570862	12.792007	-1.9429779
1442674853506515033	2.2051697	12.6441345	-2.6009064
1442674853514907367	2.6869812	12.57312	-2.4249268
1442674853523299701	2.864975	12.656662	-1.6872253
1442674853531692035	2.7533875	12.716736	-0.6428833
1442674853540084369	2.2190094	12.20636	-0.14935303
1442674853548476703	1.1904907	11.430679	-0.19317627
1442674853556869037	0.44714355	11.145828	0.42141724
1442674853565261371	-0.18687439	10.984329	1.217804
1442674853573653705	-0.82063293	10.823761	2.0124664
1442674853582046039	-1.3426361	10.951248	2.19812
1442674853590438373	-1.4382935	11.415344	0.84924316
1442674853598830707	-1.2185211	11.615829	-0.013763428
1442674853607223041	-0.8508606	11.725647	-0.99427795
1442674853615615375	-0.12709045	11.603149	-1.8955536
1442674853624007709	0.61598206	11.383453	-1.5192871
1442674853632400043	1.1766968	11.17804	-0.48234558
1442674853640792377	1.4510956	11.1324005	0.42053223
1442674853649184711	2.120575	11.287338	1.0335999
1442674853657577045	2.2598572	11.901581	1.1803589
1442674853665969379	1.5093994	12.247879	1.1904907
1442674853674361713	0.96676636	12.226425	1.2559967
1442674853682754047	0.50024414	12.157028	1.3330994
1442674853691146381	0.07946777	11.698975	1.233139
1442674853699538715	-0.2657013	10.661636	1.0360413
1442674853707931049	-0.6132965	9.406754	1.0174408
1442674853716323383	-0.75016785	8.848984	0.8715668
1442674853724715717	-0.73924255	8.237534	0.7071991
1442674853733108051	-0.3400879	7.69339	0.6960449
1442674853741500385	0.0011901855	7.627838	1.075882
1442674853749908634	0.177948	7.732086	1.279007
1442674853758300968	0.38807678	7.787369	1.2308197
1442674853766693302	0.62501526	7.7873383	1.0410004
1442674853775085636	1.009964	7.647278	0.6660919
1442674853783477970	1.1821747	7.226486	0.6517029
1442674853791870304	1.2536621	6.9937897	0.67692566
1442674853800262638	1.3184052	6.797058	0.69303894
1442674853808654972	1.1753082	6.3917694	0.7372589
1442674853817047306	0.90948486	5.7557373	1.0390472
1442674853825439640	0.66400146	5.220688	1.2370758
1442674853833831974	0.6819916	4.8865356	1.3366852
1442674853842224308	0.7290039	4.512039	1.4446869
1442674853850616642	0.80430603	4.113922	1.5588379
1442674853859008976	0.8391266	3.805725	1.7436523
1442674853867401310	0.88179016	3.6259918	1.9612122
1442674853875793644	0.93577576	3.530243	2.1366425
1442674853884185978	1.1557617	3.423294	2.557495
1442674853892578311	1.3212738	3.829193	3.0824432
1442674853900970645	1.4861298	4.111557	3.421936
1442674853909362979	1.6583557	4.339035	3.7252502
1442674853917755313	2.0912933	4.6795654	4.3107605
1442674853926147647	2.8150787	4.992401	4.8571625
1442674853934539981	3.5024414	5.4144135	5.1488953
1442674853942932315	3.8359528	5.7170715	5.290268
1442674853951324649	4.260147	6.245743	5.3502197
1442674853959716983	4.7540283	7.3676453	5.1206055
1442674853968109317	4.742676	8.665222	4.8470154
1442674853976501651	4.301605	9.580887	4.8184204
1442674853984893985	3.8061523	10.156021	4.8621063
1442674853993286319	2.83049	11.129257	5.0973816
1442674854001678653	2.193039	12.716141	4.989044
1442674854010070987	2.2825165	14.235565	5.331085
1442674854018463321	2.384018	14.590439	5.719406
1442674854026855655	2.468689	14.767639	6.093704
1442674854035247989	2.5382538	13.412262	6.500046
1442674854043640323	2.6135864	10.619461	6.3326263
1442674854052032657	2.6997528	7.950226	6.4904175
1442674854060424991	2.4407806	6.8288727	6.9003906
1442674854068817325	1.9791412	5.9266815	7.134964
1442674854077209659	1.0497742	6.272217	6.6502686
1442674854085601993	-0.011871338	8.752106	5.9195557
1442674854093994327	-0.93792725	11.501617	5.6015167
1442674854102386661	-1.763031	13.68132	5.3676147
1442674854110778995	-2.5845184	17.681229	4.394989
1442674854119171329	-2.6187897	21.567749	3.0510254
1442674854127563663	-1.5991058	21.908844	1.8508453
1442674854135955997	-0.80636597	19.000061	1.4571075
1442674854144348331	-0.0854187	15.68985	1.1231995
1442674854152740665	-0.27246094	9.780273	0.5111847
1442674854161132999	-1.9462891	5.556488	0.56892395
1442674854169525333	-2.109375	2.614975	0.7869568
1442674854177917667	-1.5117493	1.435791	0.61602783
1442674854186310001	-0.6097717	0.71162415	0.3461609
1442674854194702335	0.9082489	1.8199615	-0.6381531
1442674854203094669	2.2975464	5.1711426	-2.5442657
1442674854211487003	2.6835022	8.146027	-3.4953156
1442674854219879337	2.5761871	10.323807	-3.6521149
1442674854228271671	2.3099518	13.316055	-2.632492
1442674854236664005	2.5507355	15.443481	-1.4353027
1442674854245056339	3.3799133	15.732147	-0.79989624
1442674854253448673	3.7196503	14.804474	-0.26304626
1442674854261841007	4.0234375	13.658295	0.29164124
1442674854270233341	4.085388	10.830521	0.983551
1442674854278625675	2.9986267	8.604721	1.1395569
1442674854287018009	1.8024902	7.2843018	0.9144745
1442674854295410343	0.78590393	6.9713593	0.7673187
1442674854303802677	-0.69670105	7.0557404	0.49801636
1442674854312195011	-2.1583862	7.7789	0.23521423
1442674854320587345	-2.092331	8.28273	0.1157074
1442674854328979679	-1.451889	8.416046	0.12161255
1442674854337372013	-0.8677521	8.481598	0.2109375
1442674854345764347	0.25639343	8.571045	0.63124084
1442674854354156681	0.94573975	8.849579	0.8974304
1442674854362549015	1.4702454	9.262772	0.54826355
1442674854370941349	1.583786	9.419342	0.10496521
1442674854379333683	1.6902161	9.535065	-0.3302002
1442674854387726017	1.7787933	9.315811	-0.60313416
1442674854396118351	1.7369843	8.819702	-0.46084595
1442674854404510685	1.6026001	8.493408	-0.3020935
1442674854412903019	1.5248413	8.341751	-0.09967041
1442674854421295353	1.2996216	8.264877	0.039642334
1442674854429687686	1.0582733	8.420197	-0.0027618408
1442674854438080020	1.0356598	8.597427	-0.1053772
1442674854446472354	1.102356	8.630173	-0.14053345
1442674854454864688	1.1852417	8.626312	-0.15402222
1442674854463257022	1.0946198	8.425491	-0.28788757
1442674854471649356	0.9838867	8.131226	-0.3468933
1442674854480041690	0.54052734	8.012787	-0.36209106
1442674854488434024	0.34454346	8.065475	-0.2817688
1442674854496826358	0.12432861	8.142288	-0.20355225
1442674854505218692	-0.11470032	8.357605	-0.08166504
1442674854513611026	0.09829712	8.646088	0.18544006
1442674854522003360	0.43151855	8.963303	0.2662964
1442674854530395694	0.6911316	9.145157	0.20524597
1442674854538788028	1.0584412	9.398926	0.058746338
1442674854547180362	1.5282898	9.625763	-0.021438599
1442674854555572696	1.6707306	9.911957	0.15098572
1442674854563965030	1.6040039	10.226624	0.29634094
1442674854572357364	1.5262604	10.522217	0.3985138
1442674854580749698	1.2584839	11.047577	0.08526611
1442674854589142032	1.4652405	11.236298	-0.7845459
1442674854597534366	1.940445	11.140289	-1.4933014
1442674854605926700	2.2720337	11.203262	-1.4116821
1442674854614319034	2.6511688	11.274902	-1.2761993
1442674854622711368	3.1272125	11.3381195	-0.8655853
1442674854631103702	3.2281036	11.2951355	-0.37464905
1442674854639496036	3.0936737	11.33548	-0.21398926
1442674854647888370	2.8694	11.440216	-0.36950684
1442674854656280704	2.5832214	11.826828	-0.6211548
1442674854664673038	2.3859863	12.505249	-1.241745
1442674854673065372	2.5552826	12.704834	-2.134491
1442674854681457706	2.6275177	12.599487	-2.3996277
1442674854689850040	2.6217346	12.473541	-2.4362488
1442674854698242374	2.0759583	12.413467	-1.7693481
1442674854706634708	1.3309784	12.3259735	-0.573822
1442674854715027042	0.75245667	12.159653	-0.15672302
1442674854723419376	0.5834503	12.026642	-0.092453
1442674854731811710	0.36218262	11.892593	0.09516907
1442674854740204044	-0.00390625	11.756989	0.6891327
1442674854748596378	-0.2884369	11.732574	1.0650177
1442674854756988712	-0.50253296	11.98616	0.9950104
1442674854765381046	-0.6445465	12.361435	0.7881012
1442674854773773380	-0.97817993	12.783981	0.14181519
1442674854782165714	-1.3941345	13.012375	-0.5502014
1442674854790558048	-1.3585052	12.90506	-0.53964233
1442674854798950382	-1.0943756	12.582428	-0.22441101
1442674854807342716	-0.8135681	12.223221	0.11424255
1442674854815735050	-0.0592041	11.595001	0.62138367
1442674854824127384	0.7046356	11.500259	0.54730225
1442674854832519718	1.1208191	11.409592	0.50231934
1442674854840912052	1.2621765	11.296509	0.2459259
1442674854849304386	1.4318695	11.123703	0.01802063
1442674854857696720	1.8475952	10.710449	0.033599854
1442674854866089054	2.188095	10.07283	0.2086792
1442674854874481388	1.9732208	9.496155	0.073150635
1442674854882873722	1.8125763	9.110596	-0.13183594
1442674854891266056	1.9565735	8.563293	-0.62615967
1442674854899658390	1.9633484	8.335968	-0.64230347
1442674854908050724	1.6583099	8.276886	-0.28123474
1442674854916443058	1.5265656	8.35733	-0.052825928
1442674854924835392	1.4449615	8.471069	0.14125061
1442674854933227726	1.0255737	8.598694	0.26911926
1442674854941620060	0.7493286	8.4270935	0.058395386
1442674854950012394	0.75904846	8.185593	-0.20088196
1442674854958404728	0.65431213	7.9973145	-0.01838684
1442674854966797061	0.55674744	7.737854	0.18234253
1442674854975189395	0.49674988	7.279419	0.5243988
1442674854983581729	0.546402	6.7310944	0.91474915
1442674854991974063	0.59547424	6.3031006	1.0445557
1442674855000366397	0.55307007	6.029999	1.0702515
1442674855008758731	0.28355408	5.7622986	1.1949615
1442674855017151065	-0.36198425	5.715744	1.4804077
1442674855025543399	-0.408844	5.368454	1.4664154
1442674855033935733	-0.26490784	4.9154205	1.3591156
1442674855042328067	-0.2610321	4.427368	1.5313416
1442674855050720401	-0.2459259	4.2021027	1.8855896
1442674855059112735	0.31907654	4.0028076	2.0413055
1442674855067505069	0.69306946	3.930832	2.215454
1442674855075897403	1.1645966	3.8768463	2.489029
1442674855084289737	1.908844	3.8943024	2.953125
1442674855092682071	2.6359406	3.946045	3.321762
1442674855101074405	3.0191956	4.078827	3.7697601
1442674855109466739	3.0763855	4.3165894	4.2086487
1442674855117859073	3.1726837	4.9152985	4.751419
1442674855126251407	3.1432343	5.8458405	5.242462
1442674855134643741	3.1603699	6.91127	5.3524475
1442674855143036075	3.2636871	7.654846	5.3740234
1442674855151428409	3.3774261	8.32251	5.3997345
1442674855159820743	4.0299835	10.016983	5.520035
1442674855168213077	4.610138	12.080872	5.515625
1442674855176605411	4.9549713	14.370041	5.541916
1442674855184997745	5.103409	15.495895	5.3343506
1442674855193390079	5.3038635	16.442322	4.953079
1442674855201782413	5.6466675	16.21112	4.5845337
1442674855210174747	5.9008026	14.278915	5.167679
1442674855218567081	5.9534607	12.479813	5.9085693
1442674855226959415	5.9682465	11.302567	6.4766235
1442674855235351749	5.8186493	9.53302	7.2697296
1442674855243744083	5.039551	7.567993	7.38678
1442674855252136417	3.6686249	6.06221	6.592621
1442674855260528751	2.7615967	6.1482697	6.174286
1442674855268921085	1.9480438	6.4792175	5.844635
1442674855277313419	1.3700256	8.867355	4.9229584
1442674855285705753	0.53611755	12.840591	3.565033
1442674855294098087	-1.7434998	17.51883	2.053299
1442674855302490421	-2.7954407	19.764725	1.2841034
1442674855310882755	-3.189087	20.908188	0.94125366
1442674855319275089	-1.4849701	17.334824	2.162918
1442674855327667423	0.7276459	10.435516	3.3889008
1442674855336059757	1.4004669	6.310135	2.7657318
1442674855344452091	1.4152374	4.1130676	1.5685577
1442674855352844425	1.0056	1.5410461	-0.35069275
1442674855361236759	-1.2973328	0.26333618	-1.5613098
1442674855369629093	-4.820526	0.9692688	-1.8171997
1442674855378021427	-5.589905	2.3202362	-2.0993652
1442674855386413761	-5.917099	3.7795258	-2.4202118
1442674855394806095	-3.216507	7.294342	-3.240158
1442674855403198429	-0.18424988	10.72995	-3.135437
1442674855411590763	1.9305878	13.772293	-2.6481323
1442674855419983097	2.7126465	15.012527	-2.2619324
1442674855428375431	3.3253021	15.76622	-1.5187225
1442674855436767765	3.1242828	14.562225	-0.4472046
1442674855445160099	2.0940094	11.577148	0.07435608
1442674855453552433	1.1908875	9.61676	0.21469116
1442674855461944767	0.48916626	8.614304	0.23782349
1442674855470337101	-0.35856628	7.6834564	0.16238403
1442674855478729435	-0.9961548	7.338257	0.011581421
1442674855487121769	-1.0536041	7.5721283	-0.39938354
1442674855495514103	-0.85809326	7.7073517	-0.36235046
1442674855503906436	-0.64590454	7.8535614	-0.31404114
1442674855512298770	-0.32196045	8.327789	-0.6482849
1442674855520691104	0.2503662	8.881714	-1.1719818
1442674855529083438	0.35958862	9.354202	-1.265091
1442674855537475772	0.3846588	9.536072	-1.2284698
1442674855545868106	0.38974	9.681427	-1.1867676
1442674855554260440	0.52944946	9.6584015	-0.95581055
1442674855562652774	0.67611694	9.475082	-0.5545654
1442674855571045108	0.6780853	9.31456	-0.2719574
1442674855579437442	0.67422485	9.185394	-0.049621582
1442674855587829776	0.73776245	9.000076	0.20300293
1442674855596222110	0.7831726	8.799133	0.10076904
1442674855604614444	0.825058	8.577866	-0.08004761
1442674855613006778	0.91407776	8.499695	-0.13943481
1442674855621399112	1.0406799	8.422913	-0.19416809
1442674855629791446	1.4267426	8.343384	-0.24763489
1442674855638183780	1.5434723	8.420395	-0.35806274
1442674855646576114	1.5061646	8.545532	-0.5379486
1442674855654968448	1.491394	8.584076	-0.5906372
1442674855663360782	1.4745789	8.692169	-0.6120453
1442674855671753116	1.3864594	8.863571	-0.3687744
1442674855680145450	1.2522278	9.046265	0.0949707
1442674855688537784	1.2210693	9.141907	0.46723938
1442674855696930118	1.2371368	9.181107	0.78790283
1442674855705322452	1.0746002	9.377411	0.9483948
1442674855713714786	1.1911926	9.7473755	0.82766724
1442674855722107120	1.2043152	9.927292	0.5035095
1442674855730499454	1.1529236	9.927292	0.41098022
1442674855738891788	1.0971375	9.938217	0.30567932
1442674855747284122	0.97232056	9.95813	0.13076782
1442674855755676456	0.71995544	9.977112	0.1508789
1442674855764068790	0.6021881	10.361053	0.32595825
1442674855772461124	0.5835571	10.404114	-0.008850098
1442674855780853458	0.93659973	10.575867	-0.8393097
1442674855789245792	1.8058624	10.891602	-1.8252411
1442674855797638126	2.2998505	10.850052	-2.0482025
1442674855806030460	2.323227	10.713181	-1.8123474
1442674855814422794	2.2647552	10.63028	-1.4987488
1442674855822815128	2.1383057	10.643173	-0.7142639
1442674855831207462	1.9866333	10.792374	-0.19563293
1442674855839599796	1.9545898	10.85231	0.13018799
1442674855847992130	1.8928986	10.917221	0.18029785
1442674855856384464	1.8236542	11.074066	0.20591736
1442674855864776798	1.7935944	11.560593	-0.11123657
1442674855873169132	2.0043945	11.600815	-1.1034393
1442674855881561466	2.186905	11.380737	-1.5780029
1442674855889953800	2.2710876	11.29335	-1.3113251
1442674855898346134	2.4908752	11.176346	-1.0887299
1442674855906738468	2.6184387	10.987442	-0.9557495
1442674855915130802	2.2185364	11.124069	-0.5378113
1442674855923523136	1.622879	11.461578	-0.15792847
1442674855931915470	1.0265503	11.806015	0.14794922
1442674855940307804	0.050445557	11.954987	0.9151459
1442674855948700138	-0.78022766	11.761063	1.4426575
1442674855957092472	-1.3970337	12.047852	1.2045135
1442674855965484806	-1.686203	12.3524475	0.6974945
1442674855973877140	-2.0790558	12.682129	0.0042266846
1442674855982269474	-2.6484222	13.038055	-1.1854095
1442674855990661808	-2.3368683	13.204254	-1.6665955
1442674855999054142	-1.4213867	13.128479	-1.4887085
1442674856007446476	-0.6040039	12.781464	-1.0106049
1442674856015838810	0.5099182	11.9292145	0.22103882
1442674856024231144	1.3110657	11.191788	1.3170929
1442674856032623478	1.9259491	11.063873	1.1576843
1442674856041015811	2.344986	11.016754	0.8634033
1442674856049408145	2.6868439	10.953781	0.63656616
1442674856057800479	2.9251404	10.931534	0.56855774
1442674856066192813	2.8852234	10.584946	0.62739563
1442674856074585147	2.5719757	10.138321	0.73043823
1442674856082977481	2.2108307	9.908905	0.7240143
1442674856091369815	1.8503265	9.580002	0.6298828
1442674856099762149	1.6291199	9.0121	0.38121033
1442674856108154483	1.4812927	8.742447	0.262146
1442674856116546817	1.1213531	8.791153	0.21569824
1442674856124939151	0.9163666	8.891403	0.43803406
1442674856133331485	0.6527405	8.909637	0.6795349
1442674856141723819	0.26989746	8.834747	0.72532654
1442674856150116153	-0.023605347	8.648407	0.6898041
1442674856158508487	-0.019897461	8.475113	0.8631897
1442674856166900821	0.04499817	8.313171	1.0855408
1442674856175293155	0.5038147	7.905411	1.3672638
1442674856183685489	0.9744415	7.2253876	1.7515259
1442674856192077823	1.3507233	6.3128204	1.9246826
1442674856200470157	1.4246216	5.854645	2.073761
1442674856208862491	1.4156342	5.276657	2.2331848
1442674856217254825	1.1680298	4.499893	2.376114
1442674856225647159	0.7936096	4.0267487	2.4030304
1442674856234039493	0.42147827	3.8610382	2.356659
1442674856242431827	0.14451599	3.8359833	2.2904816
1442674856250824161	0.43475342	3.2664948	2.0921326
1442674856259216495	0.80888367	2.8942108	2.159851
1442674856267608829	1.1273193	2.9876862	2.3930206
1442674856276001163	1.4369812	3.0111694	2.538681
1442674856284393497	1.742218	3.0073242	2.666565
1442674856292785831	2.3782043	3.0547638	3.2382355
1442674856301178165	2.6280975	3.4657745	3.8696594
1442674856309570499	2.8384552	4.130905	4.3515472
1442674856317962833	2.98497	4.6353455	4.6355743
1442674856326355167	3.2100983	5.4170227	4.819351
1442674856334747501	3.6656342	7.003662	4.7971954
1442674856343139835	4.258438	9.227646	4.8190613
1442674856351532169	4.7463684	11.265793	4.9756165
1442674856359924503	5.1055756	12.842743	5.2114563
1442674856368316837	5.300995	15.345825	5.79599
1442674856376709171	5.3935547	17.557465	6.1516724
1442674856385101505	5.4519196	17.816269	5.9728394
1442674856393493839	5.5039673	17.672333	5.700363
1442674856401886173	5.370331	15.488983	5.6321716
1442674856410278507	5.041977	12.410324	5.8494415
1442674856418670841	4.7789	10.373459	6.2519073
1442674856427063175	4.4466705	9.542572	6.584137
1442674856435455509	4.062668	8.417633	6.832794
1442674856443847843	3.4127197	6.7151947	6.5141144
1442674856452240177	2.7205963	5.982773	5.55719
1442674856460632511	2.5093994	6.459961	4.757263
1442674856469024845	2.5061798	7.187393	4.10437
1442674856477417179	2.1598816	8.911789	2.8659058
1442674856485809513	0.47966003	11.968369	1.5965424
1442674856494201847	-1.8299255	15.185059	1.5330505
1442674856502594181	-2.5596771	16.696228	1.8227081
1442674856510986515	-2.9882965	17.89981	2.1195984
1442674856519378849	-1.8244171	18.174942	2.8683472
1442674856527771183	0.32569885	13.370529	3.665741
1442674856536163517	1.0824738	8.362213	3.9671936
1442674856544555851	0.91796875	6.248047	3.1748657
1442674856552948185	0.41740417	3.975296	2.1808472
1442674856561340519	-1.5141602	2.2059326	0.71266174
1442674856569732853	-4.316925	2.018402	-0.7739258
1442674856578125186	-5.603134	2.4704742	-1.4649506
1442674856586517520	-5.824829	3.1606293	-1.5356293
1442674856594909854	-3.9555054	5.3180084	-2.1890564
1442674856603302188	-0.5722046	9.094879	-3.298523
1442674856611694522	2.2815247	12.930603	-3.8229523
1442674856620086856	3.3660278	14.201981	-3.5223236
1442674856628479190	4.2181244	15.106369	-3.1154327
1442674856636871524	4.164734	14.475815	-1.9094543
1442674856645263858	2.4077148	12.066055	-0.42248535
1442674856653656192	1.5956421	9.51828	0.6454315
1442674856662048526	1.3405304	8.425858	0.6312866
1442674856670440860	0.7907562	7.401657	0.29701233
1442674856678833194	0.05455017	6.9390106	-0.6264038
1442674856687225528	0.17562866	7.1036835	-1.46521
1442674856695617862	0.6891937	7.3062134	-1.7388
1442674856704010196	1.1801453	7.5015564	-1.6790466
1442674856712402530	1.4523621	8.113388	-1.7527924
1442674856720794864	1.6938782	9.019089	-1.8763123
1442674856729187198	1.5166321	9.701782	-1.8938751
1442674856737579532	1.1837463	9.651947	-1.7241669
1442674856745971866	0.8434906	9.510376	-1.5263977
1442674856754364200	0.5109558	8.887268	-1.1252441
1442674856762756534	0.27288818	8.542435	-0.8114929
1442674856771148868	0.07499695	8.6927185	-0.44525146
1442674856779541202	-0.021392822	8.9079895	-0.2820282
1442674856787933536	-0.21495056	9.096268	-0.09977722
1442674856796325870	-0.28234863	9.202469	-0.014404297
1442674856804718204	0.099090576	9.253983	-0.040527344
1442674856813110538	0.427948	9.305603	-0.061203003
1442674856821502872	0.64450073	9.361511	-0.09526062
1442674856829895206	0.8423767	9.277054	-0.33769226
1442674856838287540	0.967926	9.1844635	-0.81669617
1442674856846679874	1.4759216	9.204269	-1.3401642
1442674856855072208	1.6567078	9.309921	-1.4261627
1442674856863464542	1.8152466	9.411102	-1.4515228
1442674856871856876	1.9288025	9.4014435	-1.0524445
1442674856880249210	1.9979095	9.311096	-0.48062134
1442674856888641544	2.0608826	9.51091	-0.04573059
1442674856897033878	1.9998474	9.775665	0.16955566
1442674856905426212	1.8661652	9.997238	0.35313416
1442674856913818546	1.66922	9.954498	0.3067627
1442674856922210880	1.6926575	9.8450775	-0.08407593
1442674856930603214	1.7587128	9.9366455	-0.4342041
1442674856938995548	1.7702789	10.08316	-0.6963806
1442674856947387882	1.7728119	10.345215	-1.0007477
1442674856955780216	1.6853333	10.473312	-1.2327118
1442674856964172550	1.7397614	10.372437	-1.4049835
1442674856972564884	1.8574524	10.394028	-1.3890228
1442674856980957218	1.9977722	10.435974	-1.3477936
1442674856989349552	2.226181	10.547104	-1.0670624
1442674856997741886	2.1110687	10.442093	-0.4895935
1442674857006134220	1.7909393	10.444336	-0.12010193
1442674857014526554	1.526825	10.502167	0.010345459
1442674857022918888	1.1074829	10.713715	0.05178833
1442674857031311222	0.52474976	11.211609	0.14854431
1442674857039703556	0.22819519	11.6936035	0.44432068
1442674857048095890	0.3822174	11.799881	0.58566284
1442674857056488224	0.66496277	11.76326	0.63386536
1442674857064880558	1.6690674	11.265533	0.11476135
1442674857073272892	2.9383698	10.609467	-0.6341858
1442674857081665226	3.7613983	10.317352	-0.99295044
1442674857090057560	3.814743	10.318634	-0.94924927
1442674857098449894	3.8036194	10.297409	-0.9139557
1442674857106842228	3.363144	10.150711	-0.9408264
1442674857115234561	2.5397644	10.104492	-1.030777
1442674857123626895	1.7472687	10.374329	-1.0187378
1442674857132019229	1.2171173	10.650665	-0.83366394
1442674857140411563	0.41314697	10.985214	-0.32341003
1442674857148803897	-0.53596497	11.284515	0.6036835
1442674857157196231	-1.1920319	11.654404	1.3382874
1442674857165588565	-1.6537323	12.114273	1.4205322
1442674857173980899	-2.0830078	12.580154	1.3023071
1442674857182373233	-2.5485077	13.136642	0.82603455
1442674857190765567	-2.6130219	13.64328	0.31137085
1442674857199157901	-1.9001312	13.503937	0.17385864
1442674857207550235	-1.3963318	13.068253	0.4096985
1442674857215942569	-0.8159332	12.433365	0.76956177
1442674857224334903	0.062210083	11.231979	1.2779388
1442674857232727237	0.8699341	10.887863	0.7057648
1442674857241119571	1.4659271	10.9926605	0.18295288
1442674857249511905	1.8874817	11.090973	0.12060547
1442674857257904239	2.462555	11.157394	0.39302063
1442674857266296573	2.6687622	11.111923	0.9072418
1442674857274688907	2.4684906	10.577179	0.79196167
1442674857283081241	2.455017	10.022614	0.41207886
1442674857291473575	2.5173492	9.527817	0.03744507
1442674857299865909	2.6157532	8.712418	0.38128662
1442674857308258243	2.5072632	8.080032	0.0868988
1442674857316650577	2.586502	8.003586	0.0809021
1442674857325042911	2.3076172	7.980438	0.20878601
1442674857333435245	2.0098877	7.9023285	0.26512146
1442674857341827579	1.5916443	7.646179	0.13313293
1442674857350219913	1.205719	7.3645782	0.22888184
1442674857358612247	1.1818695	7.123825	0.36543274
1442674857367004581	1.2602692	6.9856567	0.27996826
1442674857375396915	1.3551025	6.717758	0.4618225
1442674857383789249	1.4015503	6.3750153	1.025711
1442674857392181583	1.2898407	5.9653473	1.7747345
1442674857400573917	0.99786377	5.7570343	2.250885
1442674857408966251	0.6707611	5.6105194	2.6454468
1442674857417358585	-0.016815186	5.3472137	3.2390137
1442674857425750919	-0.08076477	4.7176666	3.8495636
1442674857434143253	-0.5771179	4.73555	4.078537
1442674857442535587	-0.47174072	4.7940216	3.9615936
1442674857450927921	-0.08137512	4.6949463	3.7209015
1442674857459320255	0.7802582	4.4705048	3.3198547
1442674857467712589	1.2181549	4.7159424	3.259552
1442674857476104923	1.7281189	4.7460785	3.2758484
1442674857484497257	2.1111145	4.6946716	3.3529663
1442674857492889591	2.7610626	4.4454346	3.5357513
1442674857501281925	3.3426971	4.1923676	3.9268951
1442674857509674259	3.653946	4.2653503	4.443405
1442674857518066593	3.8433075	4.4716187	4.736923
1442674857526458927	4.018097	4.6875305	4.979187
1442674857534851261	4.4669952	5.397827	5.15625
1442674857543243595	5.0204315	6.8921204	4.938141
1442674857551635929	5.269943	8.824982	4.5642395
1442674857560028263	5.221115	10.152603	4.3528137
1442674857568420597	5.0578613	11.944595	4.215088
1442674857576812931	4.5771637	14.569031	4.3242188
1442674857585205265	4.1858063	16.32196	4.747757
1442674857593597599	4.2559204	16.78389	5.167618
1442674857601989933	4.537384	16.654083	5.376465
1442674857610382267	4.800354	15.365906	5.635376
1442674857618774601	4.901001	12.48613	6.038803
1442674857627166935	4.748825	9.151489	6.786865
1442674857635559269	4.4887238	7.6034393	7.550125
1442674857643951603	4.2194824	6.34523	8.303253
1442674857652343936	3.1801605	5.3961487	9.1158905
1442674857660736270	2.3892822	5.649719	8.199173
1442674857669128604	2.1405945	6.0018616	7.2641907
1442674857677520938	1.7972565	6.6278687	5.9748993
1442674857685913272	1.2047424	8.269699	3.8396149
1442674857694305606	0.44718933	10.712631	2.325821
1442674857702697940	-0.51841736	12.742142	1.7570953
1442674857711090274	-1.4611053	13.975937	1.4936218
1442674857719482608	-2.6111908	15.685242	1.4107666
1442674857727874942	-2.502182	16.98668	1.3569489
1442674857736267276	-1.4716644	15.552963	2.4244385
1442674857744659610	-1.4785004	12.94693	3.2543335
1442674857753051944	-1.7188263	10.256989	3.9599152
1442674857761444278	-2.025406	5.465622	2.3569336
1442674857769836612	-2.0332184	2.640442	0.74438477
1442674857778228946	-2.439087	1.6745148	-0.34684753
1442674857786621280	-2.6614227	2.4494934	-1.7727814
1442674857795013614	-2.8805542	4.1589355	-3.3946533
1442674857803405948	-2.4723358	7.8606873	-5.077606
1442674857811798282	-0.7649231	10.971115	-5.457062
1442674857820190616	0.88900757	12.455887	-4.8644104
1442674857828582950	2.1620026	12.993103	-4.1671753
1442674857836975284	3.5817566	13.069305	-2.4062347
1442674857845367618	4.1290283	12.263947	-0.17137146
1442674857853759952	3.5385742	10.774612	0.9880371
1442674857862152286	3.0479279	9.7881775	0.9823456
1442674857870544620	2.6007843	8.896561	0.83784485
1442674857878936954	1.3549042	7.810257	0.87023926
1442674857887329288	0.8318939	7.693329	0.5708313
1442674857895721622	0.63282776	7.955261	-0.015060425
1442674857904113956	0.71315	8.0047455	-0.3935547
1442674857912506290	0.692749	8.087204	-0.6246643
1442674857920898624	0.6119232	8.125809	-0.5605469
1442674857929290958	0.84358215	8.127441	-0.5268707
1442674857937683292	1.0173645	8.284073	-0.55836487
1442674857946075626	1.0314941	8.472351	-0.59243774
1442674857954467960	1.1125793	8.511124	-0.45643616
1442674857962860294	1.2447052	8.418381	-0.17597961
1442674857971252628	1.240097	8.281738	-0.33950806
1442674857979644962	1.1904602	8.180939	-0.4481964
1442674857988037296	1.1525726	8.090973	-0.5526581
1442674857996429630	1.4433746	8.185364	-0.92022705
1442674858004821964	1.7312012	8.543579	-1.08284
1442674858013214298	1.8392487	8.926086	-1.1159058
1442674858021606632	1.9240723	9.134918	-0.9796753
1442674858029998966	1.9890747	9.415848	-0.6755066
1442674858038391300	1.961731	9.798264	-0.07437134
1442674858046783634	1.7989044	10.157822	0.4931488
1442674858055175968	1.6168365	10.312424	0.723999
1442674858063568302	1.4606781	10.330414	0.76641846
1442674858071960636	1.1556396	10.014938	0.4697113
1442674858080352970	1.135086	9.45433	-0.06288147
1442674858088745304	1.3311462	8.884354	-0.41101074
1442674858097137638	1.4650726	8.765518	-0.46913147
1442674858105529972	1.589859	8.701172	-0.50730896
1442674858113922306	1.6459808	8.948288	-0.50035095
1442674858122314640	1.5165863	9.310135	-0.4004364
1442674858130706974	1.2369843	9.7977295	-0.21061707
1442674858139099308	1.0139923	10.049637	-0.13542175
1442674858147491642	0.841156	10.315079	-0.14888
1442674858155883976	0.73957825	10.472305	-0.3835144
1442674858164276310	0.6751709	10.549835	-0.88778687
1442674858172668644	0.69125366	10.5807495	-1.3916931
1442674858181060978	0.73880005	10.560181	-1.8183899
1442674858189453311	1.0545807	10.654007	-2.376236
1442674858197845645	1.4420319	10.716965	-2.3815765
1442674858206237979	1.8031616	10.731003	-1.5332642
1442674858214630313	1.9663544	10.810181	-0.9961853
1442674858223022647	2.1500702	10.90593	-0.46214294
1442674858231414981	2.5187988	11.123596	0.006713867
1442674858239807315	2.6738129	11.348434	-0.051696777
1442674858248199649	2.4319916	11.455002	-0.017608643
1442674858256591983	2.2225037	11.424805	0.10255432
1442674858264984317	2.1119385	11.423157	0.07991028
1442674858273376651	2.3392792	11.575912	-0.4382019
1442674858281768985	2.7286682	11.760162	-0.94718933
1442674858290161319	2.852478	11.87886	-0.91397095
1442674858298553653	2.8550415	11.990677	-0.710907
1442674858306945987	2.7078552	12.239853	-0.71543884
1442674858315338321	1.7568817	12.1502075	-0.60357666
1442674858323730655	0.891449	11.586899	-0.23414612
1442674858332122989	0.26940918	11.385132	0.111572266
1442674858340515323	-0.44595337	11.162659	0.5529022
1442674858348907657	-1.6198578	10.937866	1.4443207
1442674858357299991	-2.398178	11.28833	1.7771149
1442674858365692325	-2.748703	11.935547	1.510849
1442674858374084659	-2.9106445	12.400803	1.1304321
1442674858382476993	-2.8685608	13.030029	0.55996704
1442674858390869327	-2.22966	13.726883	0.06112671
1442674858399261661	-0.91937256	13.6201935	-0.061950684
1442674858407653995	-0.004928589	12.869629	0.28930664
1442674858416046329	0.6498871	12.024597	0.80018616
1442674858424438663	1.0644989	11.126144	1.8416443
1442674858432830997	1.5583649	11.061066	1.8800964
1442674858441223331	2.3069763	11.074905	1.1641998
1442674858449615665	2.3191986	11.0299225	0.73236084
1442674858458007999	2.4597626	10.873627	0.39039612
1442674858466400333	3.0076752	10.283096	0.4280243
1442674858474792667	3.0394135	9.869186	0.41993713
1442674858483185001	2.846222	9.554657	0.3710327
1442674858491577335	2.4934387	9.340027	0.26435852
1442674858499969669	2.0379486	8.663467	-0.10501099
1442674858508362003	1.8410645	7.8224335	-0.3548584
1442674858516754337	1.8813477	7.489517	-0.45025635
1442674858525146671	1.7387543	7.403961	-0.40589905
1442674858533539005	1.5305481	7.3454742	-0.29792786
1442674858541931339	1.210846	7.3371277	-0.4647827
1442674858550323673	0.80781555	7.36882	-0.39912415
1442674858558716007	0.31391907	7.164795	0.16178894
1442674858567108341	0.33706665	6.9218903	0.32051086
1442674858575500675	0.36019897	6.633087	0.5267029
1442674858583893009	0.28686523	6.2053223	1.0347595
1442674858592285343	0.04133606	5.8341064	1.7588959
1442674858600677677	-0.034957886	5.53566	2.0634003
1442674858609070011	-0.034957886	5.3274536	2.078827
1442674858617462345	-0.16619873	5.0893555	2.2247467
1442674858625854679	-0.44252014	4.846451	2.3843536
1442674858634247013	-0.3465271	4.2693024	2.4187164
1442674858642639347	-0.3690338	4.0300903	2.466095
1442674858651031681	-0.47442627	3.931137	2.5264893
1442674858659424015	-0.45780945	3.7570953	2.5892334
1442674858667816349	0.5766144	3.2118378	2.5410614
1442674858676208683	1.3830109	3.0643005	2.6242676
1442674858684601017	1.6940308	3.2108154	2.667328
1442674858692993351	1.9907837	3.422699	2.922577
1442674858701385685	2.2654724	3.8783417	3.6255798
1442674858709778019	2.4226685	4.524872	4.0950623
1442674858718170353	2.389267	5.2050476	4.582123
1442674858726562686	2.4104767	5.791107	4.915619
1442674858734955020	2.7423859	7.2538147	5.152542
1442674858743347354	3.5506592	9.871429	5.3226013
1442674858751739688	4.6935577	13.134094	5.8284607
1442674858760132022	5.216339	15.24025	6.2397003
1442674858768524356	5.5781097	17.047256	6.601471
1442674858776916690	5.576126	20.114563	6.657593
1442674858785309024	5.223419	21.22548	5.162628
1442674858793701358	4.704956	19.534485	4.4302673
1442674858802093692	4.412567	17.491638	4.926361
1442674858810486026	3.9625244	14.833099	5.8653564
1442674858818878360	3.0287628	11.20134	7.8356934
1442674858827270694	2.0422668	8.517761	9.172791
1442674858835663028	1.3106232	6.853882	9.095886
1442674858844055362	0.6590271	6.1103973	8.372314
1442674858852447696	0.4754486	6.876663	6.6584015
1442674858860840030	1.1976318	9.929337	3.893509
1442674858869232364	0.20513916	14.52272	1.6900635
1442674858877624698	-1.1857452	16.391068	0.930542
1442674858886017032	-2.5467834	17.71933	0.39204407
1442674858894409366	-3.1853027	14.842087	-1.1158142
1442674858902801700	-1.3479004	7.740753	0.19360352
1442674858911194034	-1.9863739	3.02919	2.8769073
1442674858919586368	-2.5268097	1.6282959	2.5446777
1442674858927978702	-3.2983856	0.33544922	1.9838715
1442674858936371036	-4.367676	-0.02029419	1.2415314
1442674858944763370	-4.513916	2.3285522	0.022537231
1442674858953155704	-3.7291412	5.7993317	-1.8939209
1442674858961548038	-2.7947845	8.653137	-3.5370636
1442674858969940372	-0.73387146	12.774765	-5.4379272
1442674858978332706	1.4962921	16.356247	-5.509598
1442674858986725040	2.7229156	17.466019	-3.35997
1442674858995117374	3.262024	16.504333	-1.9000549
1442674859003509708	3.7331085	15.270203	-0.5871277
1442674859011902042	4.0003204	11.321793	0.20654297
1442674859020294376	3.8793488	8.226913	0.090408325
1442674859028686710	3.4142456	6.499069	-0.018508911
1442674859037079044	2.7247314	6.058243	-0.026855469
1442674859045471378	1.8560791	5.8940277	-0.26956177
1442674859053863712	0.8594208	6.3930817	-0.85658264
1442674859062256046	0.53970337	6.954071	-1.2310333
1442674859070648380	0.65408325	7.33963	-1.4726563
1442674859079040714	0.99760437	7.6408234	-1.3379059
1442674859087433048	1.582489	8.002472	-1.0689545
1442674859095825382	1.7261963	8.539932	-1.0660248
1442674859104217716	1.8722534	8.79837	-0.99121094
1442674859112610050	2.0425415	9.001434	-0.89224243
1442674859121002384	2.0310822	9.232681	-0.55422974
1442674859129394718	1.5562744	9.228882	-0.2024231
1442674859137787052	0.9119415	8.998657	0.046676636
1442674859146179386	0.7075958	8.778244	0.17391968
1442674859154571720	0.44735718	8.554184	0.3475952
1442674859162964054	0.09667969	8.371094	0.5176544
1442674859171356388	-0.004623413	8.239212	0.623703
1442674859179748722	0.12445068	8.185974	0.8248291
1442674859188141056	0.24205017	8.218109	1.0330353
1442674859196533390	0.3408661	8.437256	0.80688477
1442674859204925724	0.34033203	8.6828	0.3927002
1442674859213318058	0.47457886	9.059143	0.17539978
1442674859221710392	0.58677673	9.271835	-0.1328125
1442674859230102726	0.7016907	9.459152	-0.46705627
1442674859238495060	1.1890717	9.597839	-1.1067352
1442674859246887394	1.4958191	9.389038	-1.221756
1442674859255279728	1.649292	9.228424	-0.80996704
1442674859263672061	1.6942596	9.258621	-0.59983826
1442674859272064395	1.7068329	9.4006195	-0.3751526
1442674859280456729	1.6728973	9.791016	-0.07606506
1442674859288849063	1.6013489	10.302704	0.2929077
1442674859297241397	1.4459534	10.657837	0.349411
1442674859305633731	1.2634583	10.866028	0.17332458
1442674859314026065	1.1444855	11.014404	-0.66563416
1442674859322418399	1.442337	10.941193	-1.8265991
1442674859330810733	2.1404114	10.887543	-2.526123
1442674859339203067	2.4622498	10.8220825	-2.4670868
1442674859347595401	2.7270813	10.762756	-2.2926636
1442674859355987735	2.632431	10.85495	-1.2378082
1442674859364380069	2.323471	11.125366	-0.47850037
1442674859372772403	1.9715271	11.348129	-0.3742218
1442674859381164737	1.7318268	11.519714	-0.34274292
1442674859389557071	1.5714417	11.759064	-0.2801056
1442674859397949405	1.6690979	11.91095	-0.27867126
1442674859406341739	2.1331787	11.723663	-0.43148804
1442674859414734073	2.6510925	11.468048	-0.6512146
1442674859423126407	3.0932007	11.239914	-0.8934784
1442674859431518741	3.7133026	10.737534	-1.2794037
1442674859439911075	3.816269	10.501007	-1.2963562
1442674859448303409	2.8532257	10.817963	-0.75479126
1442674859456695743	2.278946	11.063065	-0.46618652
1442674859465088077	1.6681976	11.336395	-0.17758179
1442674859473480411	0.50735474	11.946106	0.31323242
1442674859481872745	-0.7348633	12.769974	1.2159729
1442674859490265079	-1.6102142	13.623871	1.8014984
1442674859498657413	-1.8634033	13.979233	1.6903229
1442674859507049747	-2.4341736	14.314346	1.1689148
1442674859515442081	-3.105362	14.369064	0.12184143
1442674859523834415	-2.9580994	14.227783	-0.74894714
1442674859532226749	-2.3344269	13.971344	-0.9391022
1442674859540619083	-1.6616211	13.635254	-0.83628845
1442674859549011417	-0.57048035	12.463013	0.39831543
1442674859557403751	0.33468628	11.098145	1.9552765
1442674859565796085	1.5541077	10.709671	1.9102478
1442674859574188419	1.9997864	10.729019	1.5261078
1442674859582580753	2.4109802	10.723816	1.1205292
1442674859590973087	2.46138	10.617538	0.61709595
1442674859599365421	2.170105	10.681686	0.3026886
1442674859607757755	2.423935	10.446869	0.26083374
1442674859616150089	2.3127747	10.059387	0.47738647
1442674859624542423	1.9551544	9.450729	0.4308319
1442674859632934757	1.3305359	8.720352	-0.36509705
1442674859641327091	0.6463318	8.263916	-0.77963257
1442674859649719425	0.21284485	8.070602	-0.64668274
1442674859658111759	-0.08981323	7.94722	-0.47895813
1442674859666504093	-0.2657013	7.6509247	-0.27146912
1442674859674896427	-0.3607483	7.3283997	-0.4142456
1442674859683288761	-0.7240448	6.9723663	-0.58314514
1442674859691681095	-0.7587433	6.759674	-0.38394165
1442674859700073429	-0.7839966	6.5286255	-0.14541626
1442674859708465763	-0.7760773	6.2372894	0.31315613
1442674859716858097	-0.7351227	6.0514984	0.87046814
1442674859725250431	-0.5997925	5.947891	1.3244324
1442674859733642765	-0.5779419	5.9254	1.5866241
1442674859742035099	-0.7007599	5.9642944	1.8766785
1442674859750427433	-0.59942627	5.784546	1.885086
1442674859758819767	-0.39653015	5.595169	1.5914764
1442674859767212101	-0.30047607	5.443466	1.4450531
1442674859775604435	-0.21435547	5.2686768	1.3717957
1442674859783996769	0.16082764	4.705124	1.4657898
1442674859792389103	0.35984802	4.428589	1.7660522
1442674859800781436	0.8362427	4.2014923	2.1660461
1442674859809173770	1.09906	4.222046	2.36203
1442674859817566104	1.4981384	4.214905	2.5962524
1442674859825958438	2.2311707	4.1870575	2.9926605
1442674859834350772	2.5056	4.388626	3.5072784
1442674859842743106	2.7475739	4.608368	4.008362
1442674859851135440	2.8593903	4.8371277	4.285965
1442674859859527774	2.9974823	5.444519	4.4939575
1442674859867920108	3.234375	6.6883545	4.6400146
1442674859876312442	3.7084198	8.525406	4.841278
1442674859884704776	4.081421	9.95639	5.0809784
1442674859893097110	4.3956604	11.20369	5.3245087
1442674859901489444	4.835129	14.097656	5.951889
1442674859909881778	5.0285187	17.373947	6.3397217
1442674859918274112	4.940048	19.634521	6.528656
1442674859926666446	4.8751373	19.81189	6.1398773
1442674859935058780	4.7220917	19.42218	5.7847595
1442674859943451114	4.2286835	16.636581	5.8685455
1442674859951843448	3.761383	12.572296	6.813339
1442674859960235782	3.707901	9.842056	7.6119995
1442674859968628116	3.8177795	8.50415	7.98407
1442674859977020450	3.7342377	6.7014008	7.5502014
1442674859985412784	2.8339539	5.5809937	5.9967194
1442674859993805118	2.07872	6.839691	4.592102
1442674860002197452	1.9307861	8.339539	3.8472443
1442674860010589786	1.8903046	9.723068	3.2290497
1442674860018982120	0.51057434	13.458832	1.8890686
1442674860027374454	-1.7108154	16.721039	1.4984131
1442674860035766788	-2.5446777	16.0766	1.2916565
1442674860044159122	-1.6816711	13.679047	1.9959564
1442674860052551456	-0.85913086	10.307907	2.9481964
1442674860060943790	-0.55570984	4.880081	3.4177094
1442674860069336124	-1.1959229	1.3920593	1.3726807
1442674860077728458	-1.8601379	0.3683319	-0.007675171
1442674860086120792	-2.3009644	0.31758118	-0.06552124
1442674860094513126	-3.0802002	1.9488525	0.14030457
1442674860102905460	-2.6624603	5.9191895	-1.5695648
1442674860111297794	-0.90486145	10.247559	-3.640808
1442674860119690128	0.3834076	12.656067	-3.641983
1442674860128082462	1.5323944	14.693146	-3.261551
1442674860136474796	2.6522217	16.626205	-2.8200684
1442674860144867130	2.9363556	15.781601	-0.8821106
1442674860153259464	2.2162018	12.875107	0.9255371
1442674860161651798	1.9919281	11.0681	0.97566223
1442674860170044132	1.5796204	9.139526	0.8647766
1442674860178436466	0.8243408	7.4500732	0.36038208
1442674860186828800	0.21690369	6.957367	-0.23712158
1442674860195221134	-0.11741638	7.1153107	-0.6061249
1442674860203613468	-0.25428772	7.4321136	-0.7449188
1442674860212005802	-0.21211243	8.055542	-0.8692627
1442674860220398136	0.18737793	8.436432	-1.2163544
1442674860228790470	0.45239258	8.731003	-1.2143097
1442674860237182804	0.52471924	8.917313	-1.1629791
1442674860245575138	0.5786438	9.085602	-1.1234894
1442674860253967472	0.87776184	9.317261	-1.4326172
1442674860262359806	1.0465393	9.345337	-1.0827789
1442674860270752140	1.1243591	9.254547	-0.5548401
1442674860279144474	1.2471008	9.174866	-0.3479309
1442674860287536808	1.3439941	9.0863495	-0.1849823
1442674860295929142	1.3934784	8.981598	-0.10273743
1442674860304321476	1.4205627	8.885376	0.062179565
1442674860312713810	1.420105	8.825684	0.25917053
1442674860321106144	1.4162445	8.7877655	0.41403198
1442674860329498478	1.530838	8.661484	0.6537018
1442674860337890811	1.5585632	8.503876	0.5148773
1442674860346283145	1.5175629	8.453171	0.32536316
1442674860354675479	1.4712982	8.422974	0.15057373
1442674860363067813	1.1549683	8.695892	-0.11325073
1442674860371460147	1.1064148	8.916534	-0.16392517
1442674860379852481	1.003479	8.950058	-0.40333557
1442674860388244815	1.0099182	8.839523	-0.47080994
1442674860396637149	1.0784454	8.692398	-0.5327301
1442674860405029483	1.2744293	8.559006	-0.5573425
1442674860413421817	1.40271	8.6870575	-0.41119385
1442674860421814151	1.4277344	8.913712	-0.19517517
1442674860430206485	1.42453	9.103928	-0.05508423
1442674860438598819	1.3618774	9.367691	0.065338135
1442674860446991153	1.2976685	9.507935	-0.010116577
1442674860455383487	1.3655701	9.663513	0.040374756
1442674860463775821	1.4750214	9.898148	0.07019043
1442674860472168155	1.5861816	10.14389	0.087142944
1442674860480560489	1.7029419	10.590317	-0.21411133
1442674860488952823	1.8979034	11.004547	-1.1168213
1442674860497345157	2.1702118	11.045349	-2.0124664
1442674860505737491	2.2807312	10.817871	-2.1891785
1442674860514129825	2.361496	10.57756	-2.0867462
1442674860522522159	2.3327026	10.470474	-1.2324371
1442674860530914493	2.0983124	10.680725	-0.25463867
1442674860539306827	1.8480988	10.935333	0.14492798
1442674860547699161	1.6887207	11.140335	0.2638092
1442674860556091495	1.4788513	11.524368	0.45259094
1442674860564483829	1.271286	11.994385	0.3768158
1442674860572876163	1.2640381	12.142395	0.19631958
1442674860581268497	1.3420868	11.8849945	0.14222717
1442674860589660831	1.4504089	11.568771	0.09660339
1442674860598053165	2.0683136	10.809494	-0.019577026
1442674860606445499	2.609848	10.478439	0.055007935
1442674860614837833	2.8112793	10.411804	0.28268433
1442674860623230167	2.7219543	10.533905	0.4619751
1442674860631622501	2.674286	10.811951	0.4360962
1442674860640014835	2.7746887	11.62973	0.17425537
1442674860648407169	2.5427399	12.856827	0.49435425
1442674860656799503	1.976471	13.741425	0.9989319
1442674860665191837	1.4405365	14.3615265	1.339508
1442674860673584171	0.26802063	15.039993	1.4381561
1442674860681976505	-0.7702637	15.028458	0.83265686
1442674860690368839	-0.9781189	15.544418	-0.06237793
1442674860698761173	-0.650177	15.926666	-0.68704224
1442674860707153507	-0.25756836	16.170517	-1.2499084
1442674860715545841	0.5015106	14.894318	-1.0910339
1442674860723938175	0.814209	12.95163	0.3929901
1442674860732330509	0.8616333	11.912399	1.5764313
1442674860740722843	0.7645874	11.641861	1.5250244
1442674860749115177	0.6347351	11.15155	1.3886871
1442674860757507511	0.6578064	10.483475	0.8294678
1442674860765899845	0.5435028	10.118195	0.6295624
1442674860774292179	0.31607056	9.915894	0.69937134
1442674860782684513	0.17019653	9.725037	0.63061523
1442674860791076847	-0.29371643	9.047913	0.60118103
1442674860799469181	-0.78948975	8.222733	0.042144775
1442674860807861515	-0.7789917	7.477295	-0.7262573
1442674860816253849	-0.5129547	7.087845	-0.861557
1442674860824646183	-0.22624207	6.6851196	-0.91368103
1442674860833038517	0.18566895	6.1701813	-0.55752563
1442674860841430851	0.536911	5.813156	-0.67326355
1442674860849823185	0.6248779	5.573532	-0.698822
1442674860858215519	0.57925415	5.467514	-0.6448364
1442674860866607853	0.39395142	5.433563	-0.51190186
1442674860875000186	0.15814209	5.6046753	-0.43049622
1442674860883392520	0.13053894	6.041321	-0.4915161
1442674860891784854	0.09812927	6.4466553	-0.2924347
1442674860900177188	0.027435303	6.785965	0.039154053
1442674860908569522	-0.087005615	7.30867	0.55833435
1442674860916961856	-0.056732178	7.4477844	0.9097595
1442674860925354190	-0.08319092	7.2125244	1.4228821
1442674860933746524	-0.10310364	6.878372	1.6972809
1442674860942138858	-0.1586914	6.497406	2.0171967
1442674860950531192	-0.36299133	5.8003387	2.509369
1442674860958923526	-0.427948	4.995041	2.7349396
1442674860967315860	-0.42385864	4.6036377	2.854599
1442674860975708194	-0.2529297	4.47641	2.8507385
1442674860984100528	0.26368713	4.2704926	2.8313904
1442674860992492862	1.0259094	4.035614	2.7842255
1442674861000885196	1.5831757	3.9989166	2.9768982
1442674861009277530	1.8864288	4.231064	3.2432404
1442674861017669864	2.1158295	4.5362854	3.4822998
1442674861026062198	2.3359985	5.3560486	3.8411255
1442674861034454532	2.3307037	6.574753	4.147354
1442674861042846866	2.392746	8.24231	4.483658
1442674861051239200	2.5058289	9.28717	4.691223
1442674861059631534	2.7781982	10.668411	4.824112
1442674861068023868	3.8610382	13.489563	4.7676697
1442674861076416202	5.4683685	16.191711	5.3486023
1442674861084808536	6.9093475	17.609314	5.9544525
1442674861093200870	7.735733	17.725616	5.7205505
1442674861101593204	8.209366	16.759796	4.9167023
1442674861109985538	7.8222656	14.519653	4.562683
1442674861118377872	7.3428802	11.922928	5.2200775
1442674861126770206	7.169739	10.46347	5.927185
1442674861135162540	7.0572815	9.414093	6.585205
1442674861143554874	6.123184	7.187622	7.1489716
1442674861151947208	4.183777	5.021286	6.367279
1442674861160339542	2.4762573	4.9670715	5.611511
1442674861168731876	1.6993561	5.7973175	5.0608063
1442674861177124210	0.92788696	6.9776306	4.3694916
1442674861185516544	0.06669617	9.50766	3.1951294
1442674861193908878	-1.159317	12.359192	2.0048676
1442674861202301212	-2.2352142	14.394028	1.1728058
1442674861210693546	-2.8713837	15.557785	0.78660583
1442674861219085880	-2.801651	17.217377	0.10762024
1442674861227478214	-1.523407	17.34407	0.91423035
1442674861235870548	-0.5643921	12.931503	3.5097656
1442674861244262882	-0.62612915	9.373657	3.7536163
1442674861252655216	-0.894104	6.446594	3.2459564
1442674861261047550	-1.3778381	2.9963226	1.949646
1442674861269439884	-2.2240295	1.8453064	0.8333893
1442674861277832218	-3.9143677	3.536621	-1.4805298
1442674861286224552	-4.267166	5.007553	-2.5202637
1442674861294616886	-3.968155	6.982193	-3.6807709
1442674861303009220	-1.867279	10.077698	-4.702942
1442674861311401554	0.25352478	12.069336	-4.2207794
1442674861319793888	1.7408295	12.709045	-3.0195618
1442674861328186222	2.4830322	12.764954	-1.9463959
1442674861336578556	2.8566132	12.306992	-0.16191101
1442674861344970890	2.6161194	11.221085	1.2995758
1442674861353363224	2.3800507	9.865662	1.4388885
1442674861361755558	1.90242	9.257584	1.3391724
1442674861370147892	1.3574982	8.825119	1.2575684
1442674861378540226	0.74565125	8.201569	0.6272125
1442674861386932560	0.27418518	7.8790436	-0.4665985
1442674861395324894	0.08869934	7.8135223	-1.5770416
1442674861403717228	0.2230072	7.8006744	-1.8861389
1442674861412109561	0.5343933	7.766098	-2.1736908
1442674861420501895	1.2615967	7.9196167	-2.1311646
1442674861428894229	1.7402954	8.519806	-1.6126556
1442674861437286563	1.887085	8.95903	-1.1297455
1442674861445678897	2.0316772	9.191025	-0.68185425
1442674861454071231	1.8988342	9.420914	-0.24269104
1442674861462463565	1.6737366	9.300751	-0.18025208
1442674861470855899	1.4164276	8.893021	-0.43164063
1442674861479248233	1.2307281	8.586716	-0.33699036
1442674861487640567	1.0597992	8.304611	-0.1756897
1442674861496032901	0.78930664	8.00473	-0.14549255
1442674861504425235	0.69163513	7.9897614	-0.1529541
1442674861512817569	0.60461426	8.216324	-0.4610138
1442674861521209903	0.5602875	8.305649	-0.61331177
1442674861529602237	0.46400452	8.403015	-0.69932556
1442674861537994571	0.34146118	8.603012	-0.64567566
1442674861546386905	0.44062805	9.172501	-0.2818451
1442674861554779239	0.6121521	9.678986	0.24508667
1442674861563171573	0.74131775	9.910324	0.63705444
1442674861571563907	1.0273132	10.171539	0.7865448
1442674861579956241	1.4032898	10.258896	0.46394348
1442674861588348575	1.9444885	10.13356	-0.0054016113
1442674861596740909	2.2511902	9.957733	-0.14830017
1442674861605133243	2.5267334	9.77597	-0.25068665
1442674861613525577	2.8476563	9.499344	-0.34439087
1442674861621917911	2.9897308	9.558014	-0.22096252
1442674861630310245	2.8944244	9.852844	0.19941711
1442674861638702579	2.7652588	10.028915	0.37934875
1442674861647094913	2.6084137	10.233398	0.26179504
1442674861655487247	2.628296	10.426575	-0.82463074
1442674861663879581	3.1043396	10.536865	-2.2922516
1442674861672271915	3.5160522	10.661575	-2.8502197
1442674861680664249	3.7608948	10.802948	-2.898407
1442674861689056583	3.6480713	11.147903	-2.0818634
1442674861697448917	3.2825928	11.383392	-0.8164673
1442674861705841251	2.875702	11.331314	0.086380005
1442674861714233585	2.637436	11.422409	0.3087921
1442674861722625919	2.3787842	11.55304	0.46128845
1442674861731018253	1.6841583	12.0215	0.28944397
1442674861739410587	1.4001617	12.298264	0.065597534
1442674861747802921	1.614151	12.326828	9.765625E-4
1442674861756195255	1.9360962	12.184814	-0.10569763
1442674861764587589	2.4816895	11.8598175	-0.391922
1442674861772979923	3.21344	11.27002	-0.7184143
1442674861781372257	3.494995	10.919937	-0.7253418
1442674861789764591	3.526474	10.768921	-0.66300964
1442674861798156925	3.1432495	10.463791	-0.552536
1442674861806549259	2.2835999	10.38208	-0.49694824
1442674861814941593	1.6495361	10.351425	-0.35153198
1442674861823333927	0.99824524	10.509323	-0.09509277
1442674861831726261	0.31149292	10.7022705	0.1876831
1442674861840118595	-1.0853729	11.240631	0.8510895
1442674861848510929	-2.0536041	11.767151	0.5903778
1442674861856903263	-2.7501373	12.252914	0.071517944
1442674861865295597	-3.2308044	12.596069	0.07473755
1442674861873687931	-3.5175323	13.130722	0.09422302
1442674861882080265	-3.117508	13.741684	-0.021026611
1442674861890472599	-2.0823364	13.597931	-0.024673462
1442674861898864933	-1.2268524	13.091156	0.3610382
1442674861907257267	-0.6183014	12.6323395	0.81599426
1442674861915649601	0.6854248	11.765244	1.3537445
1442674861924041935	2.049881	10.893005	1.2812347
1442674861932434269	2.5588837	10.38472	0.47712708
1442674861940826603	2.6593475	10.296982	0.06895447
1442674861949218936	2.815216	10.222992	-0.24508667
1442674861957611270	3.7793427	9.958664	0.22450256
1442674861966003604	3.3856812	9.61377	0.59381104
1442674861974395938	3.0484161	9.202759	0.51400757
1442674861982788272	2.8241425	8.970764	0.37327576
1442674861991180606	2.3449554	8.6341095	0.21629333
1442674861999572940	1.7437744	8.322998	0.027664185
1442674862007965274	0.99113464	8.293655	0.37672424
1442674862016357608	0.34461975	8.290543	0.7684326
1442674862024749942	-0.037734985	8.255844	0.9168854
1442674862033142276	-0.4215393	8.170364	0.7034302
1442674862041534610	-0.77064514	8.121048	0.26808167
1442674862049926944	-0.8839569	7.9832	0.15454102
1442674862058319278	-0.86195374	7.827286	0.3771057
1442674862066711612	-0.7943573	7.636917	0.60661316
1442674862075103946	-0.3704071	7.138748	0.8482666
1442674862083496280	-0.04824829	6.535919	1.2608032
1442674862091888614	-0.05229187	5.9387817	1.5453186
1442674862100280948	-0.042648315	5.5037537	1.6275787
1442674862108673282	-0.12081909	4.870804	1.6895447
1442674862117065616	-0.29185486	4.0489807	1.7776031
1442674862125457950	-0.42192078	3.3949127	1.9345093
1442674862133850284	-0.40979004	3.0332184	2.0314484
1442674862142242618	-0.33395386	2.7800293	2.0892792
1442674862150634952	-0.007385254	2.6813965	2.258667
1442674862159027286	0.114151	3.0783234	2.68573
1442674862167419620	0.48654175	3.4962006	3.2256775
1442674862175811954	0.782135	3.7230377	3.550827
1442674862184204288	1.1364288	3.9909668	3.962204
1442674862192596622	1.863205	4.5775604	4.8957977
1442674862200988956	2.7099457	5.5963745	5.7770844
1442674862209381290	3.5760193	6.904846	6.3833923
1442674862217773624	4.2141266	7.9355774	6.7374573
1442674862226165958	5.071106	9.789215	6.9252625
1442674862234558292	5.740097	13.048569	6.4504547
1442674862242950626	5.0104523	17.203812	5.8424225
1442674862251342960	4.1808014	19.823944	5.8507385
1442674862259735294	3.587677	21.646362	6.062805
1442674862268127628	3.4114075	21.638702	5.6380615
1442674862276519962	3.2064514	18.226791	5.4725494
1442674862284912296	2.5015717	13.956238	6.3967743
1442674862293304630	2.415451	12.057999	6.711014
1442674862301696964	2.4738464	9.927078	7.1533813
1442674862310089298	3.050293	6.8196564	8.146637
1442674862318481632	3.1127472	4.683319	8.566681
1442674862326873966	3.138626	4.719513	7.9621887
1442674862335266300	3.3204803	5.8871307	7.2790985
1442674862343658634	3.3983612	8.00061	6.0135345
1442674862352050968	2.248886	11.421753	3.8151245
1442674862360443302	-0.550766	15.339813	1.4691162
1442674862368835636	-2.3380127	16.76355	0.35491943
1442674862377227970	-3.5885162	17.233276	-0.33010864
1442674862385620304	-2.7402496	13.1341095	-0.13830566
1442674862394012638	-1.0621033	6.9231873	1.0385284
1442674862402404972	-0.8650818	2.886856	1.7454681
1442674862410797306	-1.2384338	1.608078	1.2564392
1442674862419189640	-1.6648712	0.45832825	0.5607605
1442674862427581974	-2.4361725	0.61872864	-0.56562805
1442674862435974308	-3.2667542	3.525406	-1.022171
1442674862444366642	-2.8654175	6.7291565	-1.8653107
1442674862452758976	-1.5827789	8.753998	-2.8529968
1442674862461151310	0.3461609	11.823517	-3.4466248
1442674862469543644	2.606659	14.93605	-3.1048737
1442674862477935978	3.9897614	15.810638	-2.4856873
1442674862486328311	3.7008362	14.85498	-1.6930695
1442674862494720645	3.0061798	13.577484	-0.8358307
1442674862503112979	2.1247406	10.056366	0.34025574
1442674862511505313	1.1483307	7.47789	0.7640228
1442674862519897647	0.17689514	6.4451904	0.5270386
1442674862528289981	-0.03453064	6.4085693	0.05343628
1442674862536682315	-0.20965576	6.524948	-0.419693
1442674862545074649	-0.15887451	7.226471	-0.9086304
1442674862553466983	0.234375	7.9791107	-1.2772522
1442674862561859317	0.5900421	8.270309	-1.4623566
1442674862570251651	0.7294922	8.427109	-1.7219696
1442674862578643985	0.96435547	8.631424	-1.9286957
1442674862587036319	1.0927582	8.948288	-1.7549591
1442674862595428653	1.0181122	9.242325	-1.062439
1442674862603820987	0.90631104	9.366837	-0.6457977
1442674862612213321	0.7957916	9.455521	-0.32705688
1442674862620605655	0.7601471	9.330444	-0.27157593
1442674862628997989	0.7027283	8.918625	-0.38764954
1442674862637390323	0.4976349	8.661179	-0.42401123
1442674862645782657	0.2662964	8.562866	-0.48440552
1442674862654174991	0.040863037	8.518997	-0.47946167
1442674862662567325	-0.12593079	8.609787	-0.34535217
1442674862670959659	-0.062408447	8.563049	-0.32330322
1442674862679351993	0.13435364	8.46933	-0.3000183
1442674862687744327	0.2590332	8.516235	-0.20297241
1442674862696136661	0.35360718	8.792053	-0.15107727
1442674862704528995	0.58044434	9.164673	-0.030654907
1442674862712921329	1.1156158	9.527908	-0.23660278
1442674862721313663	1.486023	9.689941	-0.3317871
1442674862729705997	1.8111877	9.813324	-0.38511658
1442674862738098331	2.1152344	9.860474	-0.4312439
1442674862746490665	2.2868195	9.771301	-0.18858337
1442674862754882999	2.360962	9.574661	-0.1237793
1442674862763275333	2.3712463	9.479538	-0.14691162
1442674862771667667	2.353241	9.521698	-0.12220764
1442674862780060001	2.264511	9.964783	0.0821991
1442674862788452335	2.1471558	10.444763	0.18023682
1442674862796844669	2.0910492	10.52887	-0.22857666
1442674862805237003	2.1000366	10.406769	-0.8486786
1442674862813629337	2.6163788	10.1875	-2.0126953
1442674862822021671	3.3153534	10.112778	-2.7123413
1442674862830414005	3.9112396	10.17067	-2.252365
1442674862838806339	3.8778381	10.34079	-1.6688538
1442674862847198673	3.7512054	10.527786	-1.094696
1442674862855591007	3.125351	10.948425	-0.31803894
1442674862863983341	2.2722015	11.562027	-0.025802612
1442674862872375675	1.3700409	12.17868	-0.25343323
1442674862880768009	0.8919525	12.420303	-0.463562
1442674862889160343	0.43003845	12.64711	-0.682724
1442674862897552677	0.40612793	12.632538	-0.9636841
1442674862905945011	1.2070618	12.283142	-1.0475159
1442674862914337345	1.8880615	11.973312	-0.84628296
1442674862922729679	2.2620544	11.731049	-0.62586975
1442674862931122013	2.5852814	11.32785	-0.3052826
1442674862939514347	2.2223358	11.074478	-0.028457642
1442674862947906681	1.622467	10.873428	0.23861694
1442674862956299015	1.2427216	10.810532	0.47273254
1442674862964691349	0.84446716	10.774231	0.7177887
1442674862973083683	-0.31599426	11.011032	1.1656647
1442674862981476017	-1.3923798	11.40947	1.071167
1442674862989868351	-1.7882233	11.642731	0.6926727
1442674862998260685	-2.326645	12.115112	0.27442932
1442674863006653019	-2.925888	13.182953	-0.09918213
1442674863015045353	-2.8315735	14.31633	-0.33244324
1442674863023437686	-2.0502777	14.753067	-0.39601135
1442674863031830020	-1.2293091	14.347794	-0.026657104
1442674863040222354	-0.5520172	13.7270355	0.49578857
1442674863048614688	0.64108276	12.447479	2.0264282
1442674863057007022	2.042862	11.691116	2.4781036
1442674863065399356	2.5557098	11.353363	1.4811859
1442674863073791690	2.5731506	11.406158	0.8609772
1442674863082184024	2.6549377	11.444717	0.31596375
1442674863090576358	3.466507	11.062149	0.3033142
1442674863098968692	3.202118	10.194199	0.45184326
1442674863107361026	2.2996063	9.193787	0.34022522
1442674863115753360	1.9596558	8.693848	0.170578
1442674863124145694	1.5371399	8.204468	-0.14645386
1442674863132538028	1.0598755	7.9011383	-0.018188477
1442674863140930362	0.63612366	7.785263	0.5039978
1442674863149322696	0.21264648	7.6818085	0.845871
1442674863157715030	-0.20854187	7.5031586	0.8104553
1442674863166107364	-0.5487976	7.2436676	0.5962372
1442674863174499698	-0.63757324	7.1387024	0.35993958
1442674863182892032	-0.4825592	6.8751373	0.44004822
1442674863191284366	-0.31053162	6.583069	0.56414795
1442674863199676700	-0.121902466	6.092636	0.91137695
1442674863208069034	0.33299255	5.5740967	1.0681915
1442674863216461368	0.59866333	5.101822	1.4116516
1442674863224853702	0.7111206	4.8126526	1.643631
1442674863233246036	0.80274963	4.4340363	1.8090363
1442674863241638370	0.7630768	3.923645	1.8571014
1442674863250030704	0.57969666	3.4450378	1.8736115
1442674863258423038	0.5157623	3.145111	1.8531189
1442674863266815372	0.54597473	2.9446106	1.8152008
1442674863275207706	0.67341614	2.7115479	2.1073303
1442674863283600040	1.0581055	2.5532074	2.2462769
1442674863291992374	1.8844452	2.3053741	2.4711761
1442674863300384708	2.1187897	2.4472656	2.7404633
1442674863308777042	2.3605347	2.63945	3.0681763
1442674863317169376	3.0075684	3.1866913	4.0050507
1442674863325561710	3.7206268	4.1408386	5.089615
1442674863333954044	4.353302	5.4054565	5.858673
1442674863342346378	4.778061	6.358444	6.262863
1442674863350738712	5.3247986	8.034042	6.5187225
1442674863359131046	5.7439117	11.156204	6.03862
1442674863367523380	5.2430573	15.242737	5.418701
1442674863375915714	4.370987	18.147842	5.813919
1442674863384308048	3.5561676	20.20932	6.610092
1442674863392700382	2.829773	21.33934	6.9767303
1442674863401092716	2.8848267	19.433884	6.1124115
1442674863409485050	2.8915558	15.586594	6.1648407
1442674863417877384	2.9531097	13.52713	6.3526917
1442674863426269718	3.0796356	11.399811	6.5960083
1442674863434662052	3.6418762	8.923279	7.2818756
1442674863443054386	3.9381714	7.574051	7.9169464
1442674863451446720	3.6072235	6.908905	7.663727
1442674863459839054	3.39003	7.2777557	7.389969
1442674863468231388	3.2834015	8.599258	6.66481
1442674863476623722	3.0988617	11.524384	4.8226624
1442674863485016056	1.2555084	15.091553	2.6768646
1442674863493408390	-0.68518066	16.585709	1.1155548
1442674863501800724	-2.2255096	17.049026	-0.23519897
1442674863510193058	-2.6254272	13.702118	-0.6974182
1442674863518585392	-2.7172089	6.9085236	1.715332
1442674863526977726	-3.8152618	1.8233337	2.6064758
1442674863535370060	-3.7535706	0.66986084	1.8282776
1442674863543762394	-3.7402496	-0.43533325	0.9856262
1442674863552154728	-3.8063507	-0.7417145	-0.026763916
1442674863560547061	-3.0155334	1.8715668	-0.9997711
1442674863568939395	-1.7702484	6.2114716	-2.7723083
1442674863577331729	-0.9457855	9.166809	-3.9893951
1442674863585724063	0.48028564	13.323746	-5.029831
1442674863594116397	2.2494507	17.652557	-4.874466
1442674863602508731	3.3673553	18.67926	-3.2738495
1442674863610901065	3.447998	17.026917	-1.6289368
1442674863619293399	3.221161	14.870987	-0.116882324
1442674863627685733	2.926773	10.267563	1.2749023
1442674863636078067	1.9205322	7.2560577	1.1635742
1442674863644470401	0.58769226	6.2113495	0.65470886
1442674863652862735	0.18992615	6.1747284	0.19203186
1442674863661255069	-0.24549866	6.320465	-0.31973267
1442674863669647403	-0.77345276	7.2845764	-0.85427856
1442674863678039737	-0.8215332	8.171524	-0.98332214
1442674863686432071	-0.3584137	8.3658905	-1.1735992
1442674863694824405	-0.068603516	8.459717	-1.2648468
1442674863703216739	0.4641266	8.606812	-1.3273621
1442674863711609073	0.92045593	8.907303	-1.1194916
1442674863720001407	1.1465607	9.208511	-0.86776733
1442674863728393741	1.1298828	9.229294	-0.7320862
1442674863736786075	1.0418396	9.168243	-0.6177063
1442674863745178409	0.9165802	8.845551	-0.14837646
1442674863753569037	0.6630707	8.639572	0.028900146
1442674863761961371	0.66874695	8.556717	-0.3044281
1442674863770353705	0.5614319	8.586258	-0.31149292
1442674863778746039	0.46702576	8.644989	-0.24429321
1442674863787138373	0.4637909	8.750427	0.03186035
1442674863795530707	0.5966339	8.624619	0.24087524
1442674863803923041	0.6924591	8.391678	0.37168884
1442674863812315375	0.6924591	8.28244	0.39738464
1442674863820707709	0.7433014	8.284607	0.3901825
1442674863829100043	0.667572	8.591064	0.46391296
1442674863837492377	0.868927	8.841934	0.44010925
1442674863845884711	1.0193939	8.855072	0.41082764
1442674863854277045	1.1183472	8.822952	0.39605713
1442674863862669379	1.4675903	9.186462	0.06367493
1442674863871061713	1.7099457	9.418762	-0.2511444
1442674863879454047	1.9905396	9.245956	-0.045791626
1442674863887846381	2.2572327	9.259445	0.07501221
1442674863896238715	2.5314484	9.368805	0.20317078
1442674863904631049	2.7251587	9.786514	0.31758118
1442674863913023383	2.558792	10.352737	0.34869385
1442674863921415717	2.250183	10.764877	0.2202301
1442674863929808051	2.0458527	10.937103	-0.051589966
1442674863938200385	1.8653412	11.11409	-0.9871979
1442674863946592719	2.0828857	10.994583	-2.1420288
1442674863954985053	2.6585999	10.708694	-2.282669
1442674863963377387	2.9067993	10.711197	-1.9049835
1442674863971769721	3.0732422	10.776733	-1.4808655
1442674863980162055	3.3386688	11.255005	-0.7735138
1442674863988554389	3.404068	11.649582	-0.17340088
1442674863996946723	2.8158264	12.018372	0.37419128
1442674864005339057	2.1982727	12.206009	0.5605469
1442674864013731391	1.6135101	12.3888855	0.49424744
1442674864022123725	1.3814697	12.500839	-0.3487091
1442674864030516059	1.6739044	12.479202	-1.1262207
1442674864038908393	2.0154266	12.440491	-1.2207031
1442674864047300727	2.3277283	12.425705	-1.1545105
1442674864055693061	2.5071259	12.27002	-1.0879059
1442674864064085395	2.1560059	11.744217	-0.6174469
1442674864072477729	1.0595398	11.306183	-0.10592651
1442674864080870063	0.57899475	10.948868	0.28686523
1442674864089262397	0.22106934	10.596085	0.6653595
1442674864097654730	-0.8745117	10.361908	1.4584198
1442674864106047064	-1.697876	10.483978	1.6654816
1442674864114439398	-2.4161224	11.001709	0.81370544
1442674864122831732	-2.804245	11.469528	0.4152832
1442674864131224066	-3.0667267	12.102066	0.07058716
1442674864139616400	-2.721939	13.005127	0.0040283203
1442674864148008734	-1.7164764	13.370285	0.08956909
1442674864156401068	-0.75309753	12.9904175	0.30421448
1442674864164793402	0.05593872	12.421707	0.70713806
1442674864173185736	1.3946533	11.816147	1.3022919
1442674864181578070	2.3744965	11.556488	1.4403687
1442674864189970404	2.75914	11.176834	0.9104004
1442674864198362738	2.7372284	11.044952	0.5505066
1442674864206755072	2.7073364	10.933395	0.23651123
1442674864215147406	3.3443604	10.4639435	0.35717773
1442674864223539740	3.150406	9.897308	0.7293701
1442674864231932074	2.7073517	9.233994	0.71585083
1442674864240324408	2.432953	8.853577	0.43696594
1442674864248716742	2.1347656	8.427521	0.1257019
1442674864257109076	1.64505	7.9484406	0.11779785
1442674864265501410	0.87413025	7.5495605	0.28657532
1442674864273893744	0.3021698	7.32959	0.33618164
1442674864282286078	-0.069885254	7.1991425	0.46792603
1442674864290678412	-0.5330963	7.1925507	0.504776
1442674864299070746	-0.8237152	7.2538757	0.491745
1442674864307463080	-0.8757324	7.2595367	0.38827515
1442674864315855414	-0.9018707	7.222061	0.4797058
1442674864324247748	-0.9092865	7.16539	0.5824127
1442674864332640082	-0.6434784	6.8650513	0.6667023
1442674864341032416	-0.22857666	6.3787384	0.94317627
1442674864349424750	-0.027618408	5.9505157	1.3292236
1442674864357817084	0.045639038	5.7628784	1.5380707
1442674864366209418	-0.036956787	5.433899	1.7907257
1442674864374601752	-0.29571533	4.8161774	2.0523224
1442674864382994086	-0.34573364	4.0987396	2.2749786
1442674864391386420	-0.29925537	3.7733002	2.4607391
1442674864399778754	-0.27420044	3.6839905	2.6168976
1442674864408171088	0.22833252	3.5137024	2.770584
1442674864416563422	0.7973175	3.6940002	3.148285
1442674864424955756	1.4090576	4.112015	3.2546997
1442674864433348090	1.7864075	4.3174744	3.4171295
1442674864441740424	2.1977692	4.5563507	3.6273499
1442674864450132758	2.9350128	5.194931	4.201126
1442674864458525092	3.596527	6.214142	4.722931
1442674864466917426	4.089081	7.250412	5.0838165
1442674864475309760	4.3878937	7.959854	5.2997284
1442674864483702094	4.771698	9.212006	5.5039673
1442674864492094428	5.205017	11.579758	5.8866577
1442674864500486762	5.1990204	13.66301	6.2208557
1442674864508879096	4.923996	15.260513	6.401428
1442674864517271430	4.2365723	17.458282	6.8868256
1442674864525663764	3.8250427	18.644287	6.791458
1442674864534056098	3.3931122	17.769562	6.016861
1442674864542448432	3.08609	16.166046	5.8479156
1442674864550840766	2.8198242	14.370117	5.7805634
1442674864559233100	2.9776306	10.685165	6.477829
1442674864567625434	3.4706879	7.6324463	7.6702576
1442674864576017768	4.017334	5.918106	8.570663
1442674864584410102	4.0976563	5.424591	8.4505005
1442674864592802436	3.7976837	5.368561	7.8242645
1442674864601194770	3.1764374	6.6270447	6.2646027
1442674864609587104	2.7957	8.901749	4.233917
1442674864617979438	2.0714874	10.823288	2.9158478
1442674864626371772	1.1294403	12.409241	2.1209412
1442674864634764105	-1.8301849	15.663666	0.7368469
1442674864643156439	-4.224762	18.824387	-1.8213196
1442674864651548773	-3.9359894	17.826248	-1.9780273
1442674864659941107	-2.8455963	13.973129	0.3156891
1442674864668333441	-1.893158	9.78981	2.642868
1442674864676725775	-2.1351166	4.1040497	3.9445496
1442674864685118109	-2.3561554	1.4346008	1.8617096
1442674864693510443	-2.6648254	0.36531067	1.135315
1442674864701902777	-3.192398	0.585083	0.7606659
1442674864710295111	-3.391693	2.2039795	-0.73721313
1442674864718687445	-2.3780518	6.064926	-3.3783875
1442674864727079779	-0.15058899	10.3936	-5.040497
1442674864735472113	1.46875	12.905991	-5.3867493
1442674864743864447	2.6209412	14.525345	-5.3481903
1442674864752256781	3.416275	15.71402	-4.3046722
1442674864760649115	2.841278	15.110519	-1.998291
1442674864769041449	2.3496857	12.424408	0.033493042
1442674864777433783	2.1485443	10.908508	0.5675049
1442674864785826117	1.920105	9.307053	1.0500488
1442674864794218451	1.5565796	7.5237885	1.0735474
1442674864802610785	1.1998444	7.115677	0.46653748
1442674864811003119	0.8820343	7.3618164	-0.09466553
1442674864819395453	0.93730164	7.548813	-0.4044037
1442674864827787787	0.9347229	7.6566772	-0.7465515
1442674864836180121	0.6912079	7.876358	-1.278305
1442674864844572455	0.5842285	8.252533	-1.7319489
1442674864852964789	0.5818329	8.565308	-1.675354
1442674864861357123	0.5554962	8.849335	-1.4510803
1442674864869749457	0.38285828	9.267242	-0.9736481
1442674864878141791	0.4908142	9.31221	-0.39543152
1442674864886534125	0.49682617	9.086197	-0.041168213
1442674864894926459	0.53474426	8.933899	-0.10542297
1442674864903318793	0.56230164	8.793625	-0.1882782
1442674864911711127	0.5773468	8.765442	-0.29226685
1442674864920103461	0.7457123	8.920654	-0.23190308
1442674864928495795	0.95988464	9.016724	-0.18132019
1442674864936888129	1.0620575	8.989105	-0.10420227
1442674864945280463	1.0697327	8.548325	-0.057113647
1442674864953672797	0.7525482	7.8689575	-0.10827637
1442674864962065131	0.35873413	7.623886	-0.00944519
1442674864970457465	0.22763062	7.6875916	0.080459595
1442674864978849799	0.17492676	7.799408	0.13250732
1442674864987242133	0.25627136	8.567841	0.07136536
1442674864995634467	0.50331116	8.959442	-0.10090637
1442674865004026801	0.87312317	9.122528	-0.6757965
1442674865012419135	0.8589783	9.227921	-0.8043213
1442674865020811469	0.87135315	9.34642	-0.7845917
1442674865029203803	1.0601196	9.522156	-0.22087097
1442674865037596137	1.524292	9.832092	0.36784363
1442674865045988471	1.9237518	10.194992	0.69551086
1442674865054380805	2.0664063	10.375565	0.7546387
1442674865062773139	2.2666626	10.594406	0.52578735
1442674865071165473	2.2777557	10.699341	-0.42655945
1442674865079557807	2.3796082	10.627274	-1.7393188
1442674865087950141	2.6267242	10.529892	-2.2003937
1442674865096342475	2.888916	10.436707	-2.4047394
1442674865104734809	3.415039	10.550568	-1.8606873
1442674865113127143	3.899063	11.037872	-0.57292175
1442674865121519477	3.4740906	11.647034	0.24603271
1442674865129911811	3.3442688	11.850739	0.35076904
1442674865138304145	3.0893707	12.031052	0.35812378
1442674865146696479	2.416153	12.111771	-0.011917114
1442674865155088813	1.8256683	12.19519	-0.5535126
1442674865163481147	1.7548676	12.286606	-0.9791107
1442674865171873480	1.9245148	12.266052	-1.3222504
1442674865180265814	2.2578583	12.208252	-1.6506653
1442674865188658148	2.6857147	12.034332	-1.4757233
1442674865197050482	2.8097992	11.604202	-1.0767975
1442674865205442816	2.3415833	11.299454	-0.8070221
1442674865213835150	1.7593842	11.041122	-0.56604004
1442674865222227484	0.79463196	10.784988	-0.48283386
1442674865230619818	0.26193237	10.8151245	-0.108184814
1442674865239012152	-0.5441742	11.210999	0.47410583
1442674865247404486	-0.97727966	11.5168915	0.68937683
1442674865255796820	-1.6023254	11.957535	0.62734985
1442674865264189154	-2.580017	12.773743	-0.14926147
1442674865272581488	-3.1040344	13.645126	-0.5959778
1442674865280973822	-3.1749878	14.190659	-0.504776
1442674865289366156	-3.1428528	14.461197	-0.42381287
1442674865297758490	-2.678894	14.4796295	-0.5789032
1442674865306150824	-1.401535	13.527847	0.1101532
1442674865314543158	-0.023147583	12.264221	1.6840668
1442674865322935492	0.71243286	11.924347	1.824646
1442674865331327826	1.3389587	11.7495575	1.6819916
1442674865339720160	1.9717407	11.1302185	0.84254456
1442674865348112494	1.932312	10.894348	0.6077118
1442674865356504828	3.0634003	10.5190735	0.32254028
1442674865364897162	3.2850952	10.343002	0.35017395
1442674865373289496	3.2599182	9.913879	0.34144592
1442674865381681830	2.8203735	9.152527	0.11010742
1442674865390074164	2.4996185	8.7621765	-0.30265808
1442674865398466498	2.1786652	8.564255	-0.53279114
1442674865406858832	1.8657074	8.432526	-0.647171
1442674865415251166	1.2272186	8.264725	-0.3303833
1442674865423643500	0.31895447	8.108383	0.0116119385
1442674865432035834	-0.29115295	7.822647	-0.00970459
1442674865440428168	-0.45655823	7.6619263	-0.1405487
1442674865448820502	-0.57592773	7.514694	-0.27131653
1442674865457212836	-0.76986694	7.032379	-0.1377716
1442674865465605170	-0.56536865	6.388336	0.21903992
1442674865473997504	-0.10877991	5.7499847	0.6938324
1442674865482389838	0.08078003	5.4286804	1.006134
1442674865490782172	0.26869202	5.014389	1.3151398
1442674865499174506	0.36402893	4.4668274	1.5926514
1442674865507566840	0.23043823	3.9702606	1.7738342
1442674865515959174	0.072280884	3.6443024	1.8678894
1442674865524351508	-0.02218628	3.4328766	1.9430695
1442674865532743842	0.049606323	2.815216	2.115799
1442674865541136176	0.38435364	2.297058	2.185196
1442674865549528510	0.54574585	2.261383	2.324646
1442674865557920844	0.6672058	2.2973785	2.483368
1442674865566313178	1.2120514	2.6227417	2.6781006
1442674865574705512	1.8096313	3.1915588	3.1649628
1442674865583097846	2.438568	3.9817505	3.5641022
1442674865591490180	2.7643738	4.502899	3.971527
1442674865599882514	3.1996002	5.2740784	4.532425
1442674865608274848	3.881546	6.6447754	5.286087
1442674865616667182	4.568741	8.459915	5.718506
1442674865625059516	5.2779694	11.364853	5.9460754
1442674865633451850	5.59346	14.177734	6.2007446
1442674865641844184	5.623657	16.521317	6.489914
1442674865650236518	5.3905487	20.114044	7.549286
1442674865658628852	4.857895	21.962173	7.264084
1442674865667021186	4.3261566	19.79004	6.0206604
1442674865675413520	3.9676666	17.36795	5.9354095
1442674865683805854	3.6242065	14.727692	5.9730225
1442674865692198188	3.394867	10.118103	6.730194
1442674865700590522	3.4268494	7.113022	7.7343597
1442674865708982855	3.5939178	5.9036407	8.16362
1442674865717375189	3.5355225	4.6608887	8.133347
1442674865725767523	3.397232	4.5547333	7.254669
1442674865734159857	3.7872772	7.02713	6.2973633
1442674865742552191	3.868164	9.664459	5.450302
1442674865750944525	3.622696	11.676453	4.677246
1442674865759336859	1.6095123	14.959442	2.0089874
1442674865767729193	-2.0665894	17.586792	-1.9143982
1442674865776121527	-3.989334	16.204102	-3.2541504
1442674865784513861	-4.311157	13.279312	-1.0496368
1442674865792906195	-4.469208	10.102417	1.3758087
1442674865801298529	-3.7466736	4.6399384	2.781952
1442674865809690863	-3.2544403	2.0964966	1.1456146
1442674865818083197	-3.062912	1.1144562	0.78681946
1442674865826475531	-3.1156006	1.0919495	0.43789673
1442674865834867865	-3.1562653	2.7949524	-0.7702484
1442674865843260199	-2.9400177	7.5674896	-3.193344
1442674865851652533	-1.9600983	11.893158	-4.982239
1442674865860044867	-0.99154663	13.782166	-5.4549255
1442674865868437201	-0.2917633	14.697235	-5.413162
1442674865876829535	0.76065063	14.89061	-3.984604
1442674865885221869	1.6722565	13.362946	-1.5047913
1442674865893614203	1.9820404	10.971939	0.39083862
1442674865902006537	1.9818726	9.880447	0.46316528
1442674865910398871	1.9233856	8.8484955	0.44122314
1442674865918791205	1.3462677	7.99675	0.16964722
1442674865927183539	0.4718628	7.9421844	-0.38249207
1442674865935575873	-0.021743774	7.9433594	-0.8526001
1442674865943968207	-0.24087524	7.915085	-0.82818604
1442674865952360541	-0.25787354	7.718048	-0.99191284
1442674865960752875	-0.10838318	7.512985	-1.5207825
1442674865969145209	0.060150146	7.5559998	-2.0243225
1442674865977537543	0.41679382	7.7624817	-1.9676208
1442674865985929877	0.8351288	8.0355835	-1.6675262
1442674865994322211	1.4456482	8.780777	-1.3851776
1442674866002714545	1.5549469	9.401779	-1.2719116
1442674866011106879	1.5479279	9.61911	-1.0952148
1442674866019499213	1.5043488	9.443085	-1.0228424
1442674866027891547	1.4732666	9.241867	-0.927536
1442674866036283881	1.4953918	8.836121	-0.60772705
1442674866044676215	1.3505096	8.353821	-0.021087646
1442674866053068549	1.147232	8.257797	0.31440735
1442674866061460883	1.1266632	8.273865	0.2886963
1442674866069853217	1.0672455	8.332794	0.28520203
1442674866078245551	1.1414337	8.45372	0.3022461
1442674866086637885	1.2971497	8.8932495	0.4260254
1442674866095030219	1.3624268	9.266006	0.54022217
1442674866103422553	1.4042053	9.522415	0.6192627
1442674866111814887	1.4348297	9.548065	0.43467712
1442674866120207221	1.7194824	9.467453	-0.2276001
1442674866128599555	1.7301788	9.550919	-0.6269684
1442674866136991889	1.7070465	9.749481	-0.48753357
1442674866145384223	1.7842865	9.962433	-0.2682495
1442674866153776557	2.36792	10.204468	0.27174377
1442674866162168891	2.8875732	10.301285	0.5967865
1442674866170561225	3.0544434	10.373596	0.8069763
1442674866178953559	3.1026459	10.4655	0.8429718
1442674866187345893	3.0715332	10.575638	0.7581787
1442674866195738227	3.0993195	10.608063	0.12384033
1442674866204130561	3.456131	10.523727	-1.3511505
1442674866212522895	3.7935638	10.515045	-2.2115936
1442674866220915229	4.076309	10.545242	-2.7301788
1442674866229307563	4.239441	10.735504	-2.1328278
1442674866237699897	3.7229614	11.121307	-0.73324585
1442674866246092230	2.7377167	11.656235	0.16633606
1442674866254484564	2.1747894	12.021881	0.1643982
1442674866262876898	1.4680176	12.476624	0.12930298
1442674866271269232	0.3723297	13.111633	-0.1690216
1442674866279661566	0.08558655	13.177521	-0.96343994
1442674866288053900	0.57977295	12.918442	-1.6405029
1442674866296446234	1.1420593	12.598434	-1.7799377
1442674866304838568	1.9760437	11.925369	-1.507721
1442674866313230902	2.4673004	11.064102	-0.9263611
1442674866321623236	1.8713989	10.724762	-0.3196411
1442674866330015570	1.3778229	10.6866455	0.20584106
1442674866338407904	1.0218201	10.678284	0.69999695
1442674866346800238	0.15675354	11.0699005	1.2674713
1442674866355192572	-0.7783661	11.583435	1.7237701
1442674866363584906	-1.8207855	12.230469	1.0749664
1442674866371977240	-2.3952637	12.7079315	0.60266113
1442674866380369574	-3.0054474	13.318298	0.16871643
1442674866388761908	-3.4752502	14.254517	-0.14736938
1442674866397154242	-3.233017	14.768814	-0.59516907
1442674866405546576	-2.5863342	14.6805725	-0.9702606
1442674866413938910	-1.7625122	14.314285	-1.0023804
1442674866422331244	-0.4783783	13.35141	0.22303772
1442674866430723578	1.2427368	12.328506	1.2403412
1442674866439115912	2.2183228	11.588684	0.77053833
1442674866447508246	2.144104	11.398972	0.67292786
1442674866455900580	1.8787079	11.340485	0.7590332
1442674866464292914	2.9152222	11.005539	0.89837646
1442674866472685248	2.8170624	10.405762	0.48957825
1442674866481077582	2.0888062	9.54953	0.11369324
1442674866489469916	1.6511993	8.994965	-0.05595398
1442674866497862250	1.3980103	8.505356	-0.41056824
1442674866506254584	1.4274902	8.316467	-0.5794983
1442674866514646918	0.8718872	8.243591	0.10305786
1442674866523039252	0.3095398	8.073563	0.22497559
1442674866531431586	0.07369995	7.9964447	0.31558228
1442674866539823920	-0.11592102	7.5977936	0.11077881
1442674866548216254	-0.0957489	7.039627	-0.22363281
1442674866556608588	-0.271286	6.5057983	-0.13580322
1442674866565000922	-0.28604126	6.1098633	0.06072998
1442674866573393256	-0.25134277	5.7410126	0.2541504
1442674866581785590	0.005004883	5.1757813	1.0093994
1442674866590177924	0.15699768	4.6992493	1.2581482
1442674866598570258	0.19767761	4.383362	1.4537659
1442674866606962592	0.1000061	4.216934	1.668396
1442674866615354926	0.021026611	4.011673	1.8757019
1442674866623747260	0.04043579	3.6462097	2.012207
1442674866632139594	0.14405823	3.1965027	2.076233
1442674866640531928	0.19480896	2.93602	2.2126617
1442674866648924262	0.20637512	2.8068542	2.3983765
1442674866657316596	0.6236725	2.5598907	2.6610565
1442674866665708930	1.1750183	2.4321442	2.850357
1442674866674101264	1.5266418	2.5467834	3.014618
1442674866682493598	1.8350983	2.70549	3.1829681
1442674866690885932	2.542389	3.439865	3.6608582
1442674866699278266	3.0682068	4.540268	4.439316
1442674866707670600	3.5030823	5.904648	5.143387
1442674866716062934	3.9880066	7.597641	5.475998
1442674866724455268	4.314453	8.901489	5.614807
1442674866732847602	4.711609	10.90686	5.750885
1442674866741239936	5.065613	14.453812	6.186661
1442674866749632270	5.004654	18.091858	6.927719
1442674866758024604	4.7023163	19.692093	7.0679626
1442674866766416938	4.355301	19.90094	6.8276367
1442674866774809272	4.33403	18.186401	5.850601
1442674866783201605	4.1774445	14.841675	5.649704
1442674866791593939	4.144562	11.295502	6.015106
1442674866799986273	4.1441193	9.945068	6.623047
1442674866808378607	4.134369	8.80957	7.264984
1442674866816770941	3.8803406	7.429718	8.03891
1442674866825163275	3.232132	6.7920227	7.5470123
1442674866833555609	2.8883362	7.656967	7.131897
1442674866841947943	2.6167297	9.171295	6.3244324
1442674866850340277	2.0619354	12.367126	4.3381805
1442674866858732611	-0.06510925	15.995178	2.067505
1442674866867124945	-2.8234253	17.643158	0.56126404
1442674866875517279	-3.362259	16.251297	0.06500244
1442674866883909613	-2.652176	13.973907	-0.026901245
1442674866892301947	-2.1313782	9.055084	1.1023407
1442674866900694281	-2.8574677	3.9377136	2.332016
1442674866909086615	-2.9624023	2.0077057	1.8935547
1442674866917478949	-2.9385223	0.51885986	1.2215424
1442674866925871283	-3.2500153	-0.49635315	0.3513031
1442674866934263617	-3.4446259	0.98431396	-0.38116455
1442674866942655951	-3.073166	5.2549133	-1.9556122
1442674866951048285	-1.7825623	9.433838	-3.792389
1442674866959440619	-0.7942352	11.672684	-4.462616
1442674866967832953	0.56591797	14.458313	-4.599991
1442674866976225287	2.2864532	16.87323	-3.578598
1442674866984617621	3.0457153	16.769547	-2.2151794
1442674866993009955	3.1729584	15.593597	-0.93447876
1442674867001402289	2.8897858	12.454926	0.9537201
1442674867009794623	2.6046448	8.978714	1.3275146
1442674867018186957	1.8860168	6.827835	0.83343506
1442674867026579291	1.4787292	6.3051147	0.6056061
1442674867034971625	1.1017456	5.949829	0.3857727
1442674867043363959	0.51239014	6.242035	-0.3538208
1442674867051756293	0.06587219	7.2348633	-1.1632233
