linearaccelerometer_timestamp	linearaccelerometer_x_data	linearaccelerometer_y_data	linearaccelerometer_z_data
80714690746953	1.6150744	-0.28493834	-1.4741144
80714699047734	1.5863184	-0.22789192	-1.3817263
80714707348515	1.3388124	0.022492886	-1.4611406
80714715649296	0.96850276	0.41803408	-1.7023811
80714723950078	0.60990036	0.819736	-2.0419283
80714732250859	-0.05031389	1.1307411	-2.4049673
80714740551640	0.00538294	0.8847356	-2.6411896
80714748852421	0.55537003	0.45104456	-2.8822966
80714757153203	1.1905161	0.12277746	-2.9988213
80714765453984	1.6286956	-0.081300735	-2.793437
80714773754765	1.7415409	-0.30266714	-2.115879
80714782055546	1.5663486	-0.38966608	-1.1668663
80714790356328	1.0097529	-0.14403677	-0.30747318
80714798657109	0.19793308	0.21744871	0.27710247
80714806957890	-0.474457	0.44121027	0.4428215
80714815258671	-0.5999963	0.34480572	0.18407536
80714823559453	-0.029217333	-0.06681967	-0.3469305
80714831860234	0.66998315	-0.448359	-1.0739794
80714840161015	1.3265474	-0.5558381	-1.8286333
80714848461796	1.9852021	-0.49414778	-2.45498
80714856762578	2.552598	-0.30810785	-2.8125486
80714865063359	2.6644206	-0.02788496	-2.976736
80714873364140	2.0188262	0.29976082	-3.1758423
80714881664921	1.1925912	0.47954082	-3.420146
80714889965703	1.0702517	0.33713722	-2.6756067
80714898266484	0.90766466	0.058677197	-1.1534319
80714906567265	0.66306674	-0.2872839	0.5466051
80714914868046	0.4364295	-0.6549082	1.8795843
80714923168828	0.4442494	-0.64065456	1.851141
80714931469609	0.38529527	-1.0576472	2.306754
80714939770390	0.39909673	-0.64977217	1.5460262
80714948071171	0.22717488	-0.11598587	0.4411974
80714956371953	-1.72019E-4	0.39444876	-0.8498173
80714964672734	-0.03240943	0.71517944	-2.0982199
80714972973515	-0.06780839	0.6484356	-2.0322018
80714981274296	1.1435909	0.45661306	-3.0612688
80714989575078	1.6497743	0.08958578	-2.5006046
80714997875859	1.5978655	-0.20592785	-1.6707792
80715006176640	1.2360377	-0.37925482	-0.90398884
80715014477421	1.1826282	-0.39278173	-0.87529564
80715022778203	0.8313372	-0.48355913	-0.43034935
80715031078984	0.5465292	-0.6228318	-0.49632645
80715039379765	0.42659986	-0.5665169	-0.6417618
80715047680546	0.32504165	-0.48031378	-0.77481556
80715055981328	0.19889796	-0.4030938	-0.87489414
80715064282109	0.108627796	-0.37036848	-0.8696985
80715072582890	0.1172744	-0.3985443	-0.8397465
80715080883671	0.38747418	-0.36048365	-0.44885826
80715089184453	0.54330695	-0.30018568	-0.9665289
80715097485234	0.85560584	-0.26658344	-1.8487148
80715105786015	0.9317719	-0.25554276	-2.1844912
80715114086796	0.90523684	-0.27367353	-2.144949
80715122387578	0.6522219	-0.24773121	-1.6910982
80715130688359	0.32523227	-0.06623173	-1.0425148
80715138989140	0.13928187	-0.13129377	-1.1189947
80715147289921	-0.03655386	-0.1474576	-1.0881453
80715155590703	-0.04572606	-0.14544153	-1.0768108
80715163891484	-0.11169779	-0.11849737	-0.94416904
80715172192265	-0.06153536	-0.07384539	-0.72027016
80715180493046	0.0024080276	0.026599884	0.14351463
80715188793828	-0.047647238	0.05513096	0.13570118
80715197094609	-0.07926178	0.028400421	-0.2750721
80715205395390	-0.06550169	0.019628048	-0.2687931
80715213696171	-0.067417026	-0.14002228	-0.97338104
80715221996953	0.32955718	-0.19978905	-1.5777464
80715230297734	0.29588163	-0.023815155	-0.40764332
80715238598515	0.23512316	0.051666737	0.57381916
80715246899296	0.20032632	-0.07040501	0.6915951
80715255200078	0.19066381	-0.058146954	0.6785059
80715263500859	0.21401942	-0.18965006	-0.36821556
80715271801640	0.21046054	-0.18709946	-0.3656597
80715280102421	0.43550515	-0.09433842	-0.9884348
80715288403203	0.43360043	-0.153018	-0.98757935
80715296703984	0.31625736	-0.17771673	-0.87961817
80715305004765	0.13430536	-0.18615246	-0.9142175
80715313305546	0.13757277	-0.20054197	-0.8955493
80715321606328	-0.04185903	-0.21838951	-1.7291503
80715329907109	0.51847315	0.003353119	-2.4404488
80715338207890	0.15257359	0.22593069	-0.64683867
80715346508671	-0.007480502	0.25200415	0.14740944
80715354809453	-0.012897015	0.26966476	0.1318574
80715363110234	-0.0046020746	0.18496513	0.07866144
80715371411015	-0.00815773	0.054448605	-0.29180574
80715379711796	0.14805126	-0.102953434	-0.33619118
80715388012578	0.29534495	0.022107601	-0.33676338
80715396313359	0.37362933	0.07982302	-0.32165098
80715404614140	0.38321948	0.07951641	-0.32202864
80715412914921	0.3438257	0.073013306	-0.36401796
80715421215703	0.23662424	0.041481495	-0.5688882
80715429516484	0.16325235	0.0063228607	-1.4280047
80715437817265	0.17787707	-0.0019311905	-1.414731
80715446118046	0.31497586	0.058455467	-1.6577306
80715454418828	0.5665649	0.072598934	-1.7084727
80715462719609	0.7699101	0.034926414	-1.6357398
80715471020390	0.83193207	-0.019569397	-1.546462
80715479321171	0.80678403	-0.054361343	-1.5508251
80715487621953	0.7072176	-0.054646015	-1.6546226
80715495922734	0.72540784	-0.019096375	-1.8201542
80715504223515	0.75284743	0.17514086	-1.9564071
80715512524296	0.69932616	0.3730278	-1.8322601
80715520825078	0.5579139	0.44063568	-1.2971468
80715529125859	0.48312998	0.46674347	-0.48081827
80715537426640	0.41614318	0.4262066	0.028202534
80715545727421	0.50005376	0.41251326	-0.09174681
80715554028203	0.5709331	0.53068733	-0.65665245
80715562328984	0.4671563	0.77759933	-1.379622
80715570629765	0.089949846	1.1093321	-1.995636
80715578930546	-0.3877269	1.5816541	-2.6740131
80715587231328	-0.36853886	1.5807505	-2.6667218
80715595532109	0.1376245	0.9732766	-2.8910136
80715603832890	0.66984093	0.17480946	-3.0578437
80715612133671	1.0747015	-0.39657068	-2.9471445
80715620434453	1.0421743	-0.3211155	-2.9795513
80715628735234	1.9804956	-0.6760559	-1.2407246
80715637036015	2.068849	-0.8255272	-0.71752644
80715645336796	1.6427294	-0.83707285	-0.9291754
80715653637578	1.0991954	-0.5985956	-1.0450497
80715661938359	0.5469543	-0.31473637	-0.9487343
80715670239140	0.1074847	-0.2581997	-0.80619335
80715678539921	0.17679131	-0.13113165	-0.88722706
80715686840703	0.9473299	-0.53749704	-0.35412502
80715695141484	1.1735524	-0.3838129	0.4925251
80715703442265	0.7441599	-0.29132986	1.14254
80715711743046	-0.01784122	-0.31605434	1.2055712
80715720043828	-0.42848462	-0.4864335	0.6446667
80715728344609	0.43991357	-0.8975253	0.054279327
80715736645390	0.556479	-0.8007436	0.59450054
80715744946171	-0.19614843	-0.4203415	1.3152761
80715753246953	-0.78728026	0.08162761	1.3540487
80715761547734	-1.1353941	0.596771	0.67856216
80715769848515	-1.0317236	0.68614125	0.6346359
80715778149296	-0.9147778	0.61779	-0.05411625
80715786450078	-0.26567137	0.32611775	0.7017851
80715794750859	-0.21770872	0.15496683	0.72395325
80715803051640	-0.08621111	-0.08296418	0.46389866
80715811352421	0.1623955	-0.48433137	0.08460522
80715819653203	0.17408118	-0.40096498	0.05616951
80715827953984	0.9641056	-1.2321858	-1.1150236
80715836254765	1.2778537	-1.4373028	-1.9757519
80715844555546	0.8245298	-1.0929449	-2.4185781
80715852856328	0.37368906	-0.6265476	-2.574994
80715861157109	0.38691178	-0.30300856	-2.3063183
80715869457890	0.44800138	-0.30188036	-2.2924833
80715877758671	0.6886122	0.22897863	-0.3316841
80715886059453	-0.48452824	0.71783876	-0.1321106
80715894360234	-1.1887842	1.0614629	-1.3537788
80715902661015	-1.3965762	1.1523108	-2.9777622
80715910961796	-1.2361813	1.1129367	-2.9372053
80715919262578	-1.1319522	0.9008527	-4.0713453
80715927563359	-1.0070964	-0.11863899	-3.6899815
80715935864140	-0.8436192	-0.5306175	-2.789897
80715944164921	-1.3797169	-0.27512884	-1.6664095
80715952465703	-2.1926508	0.5195799	-0.25624275
80715960766484	-2.0350072	0.57908535	-0.24967384
80715969067265	-2.4897547	1.212173	0.9752054
80715977368046	-2.2625673	0.896786	3.123332
80715985668828	-1.798981	0.8449216	4.6764555
80715993969609	-1.3532095	0.72198796	4.233039
80716002270390	-0.8072338	0.48624754	2.5285807
80716010571171	-0.27720714	0.33936334	-0.0554657
80716018871953	-0.09090996	0.29437494	0.025782585
80716027172734	0.47193193	0.89379406	-6.272933
80716035473515	-0.015441179	1.3147743	-8.127902
80716043774296	-0.52223015	1.8060005	-8.528118
80716052075078	-1.0560815	2.0290067	-7.6861057
80716060375859	-1.6091106	1.7657154	-5.8503075
80716068676640	-1.4782975	1.8654082	-5.8081293
80716076977421	-2.673551	-0.006770611	-1.899683
80716085278203	-3.7802086	-0.6815431	-1.2009954
80716093578984	-4.4328356	-1.117738	-0.048274994
80716101879765	-4.1078672	-0.8899751	0.061576843
80716110180546	-3.6865106	-1.2489301	1.1179409
80716118481328	-2.1931224	-1.4843978	1.547885
80716126782109	1.4743176	-0.1587404	1.6446605
80716135082890	2.8592896	1.7430708	4.9474683
80716143383671	3.6464038	3.1097875	5.3503275
80716151684453	3.517901	3.859941	4.4105296
80716159985234	3.813548	3.8500986	4.7340107
80716168286015	2.8856692	3.874379	3.599896
80716176586796	1.5624452	3.1118917	2.4448657
80716184887578	-0.66371775	1.9409196	0.6837511
80716193188359	-1.9465618	0.9457793	-0.31276703
80716201489140	-2.4301767	0.17407227	-0.56358147
80716209789921	-2.4164476	-0.2554791	-0.56187296
80716218090703	-1.9080601	-0.5231154	-0.6584282
80716226391484	-0.58885574	-0.9824314	-0.99161196
80716234692265	2.008463	-1.6462803	-1.4651809
80716242993046	4.7111588	-1.835418	-1.4736221
80716251293828	7.766877	-1.9378824	-0.9238093
80716259594609	9.574351	-1.6335926	-0.013832331
80716267895390	9.133709	-0.90987253	1.5051129
80716276196171	6.200922	-0.11146927	4.0849857
80716284496953	-0.37678623	-0.9147072	2.9571457
80716292797734	-0.43427038	-1.1091533	3.2364998
80716301098515	-1.4114065	-1.7906237	2.1132925
80716309399296	-2.0738454	-2.228581	1.6390383
80716317700078	-2.5475602	-2.6076903	0.86048305
80716326000859	-2.6259851	-2.7452135	1.0328965
80716334301640	-2.1265783	-3.4094596	0.93513083
80716342602421	-1.175971	-3.3786163	0.18427527
80716350903203	0.4533615	-3.3130364	-0.40197915
80716359203984	1.8018627	-3.3118348	-1.285985
80716367504765	2.2303991	-3.1115546	-2.4189215
80716375805546	2.0890393	-3.2427168	-2.2953038
80716384106328	1.3426404	-1.1333656	-0.05599606
80716392407109	-0.3393178	-0.706923	1.9142445
80716400707890	-2.2168489	-0.36073112	3.7139602
80716409008671	-3.3291464	-0.33478928	5.0709743
80716417309453	-3.5899062	-0.6337576	5.773882
80716425610234	-3.6040697	-0.9434271	5.8258405
80716433911015	-2.4732065	-1.160368	5.7855
80716442211796	-0.45073986	-1.8769989	6.2212377
80716450512578	-0.11075497	-2.398336	4.8734426
80716458813359	-1.1090941	-2.47793	2.8526723
80716467114140	-2.2722535	-2.0661764	1.4074321
80716475414921	-2.2034707	-1.2852201	1.1103649
80716483715703	-1.9653683	0.026153088	0.7075845
80716492016484	-2.3669405	1.2919531	0.15221417
80716500317265	-2.195006	2.055234	-0.40095913
80716508618046	-1.7661204	2.5322618	-0.5994406
80716516918828	-1.3940549	2.8952045	-0.23367798
80716525219609	-1.5265427	2.8194456	-0.34415448
80716533520390	-0.86396074	2.8258076	1.5753847
80716541821171	-1.1923203	2.4358215	1.6870037
80716550121953	-1.0499101	1.9141483	1.5203345
80716558422734	-0.5617924	1.653264	1.2908797
80716566723515	-0.008593082	1.8355627	1.1913438
80716575024296	-0.19626808	1.7808275	1.0352695
80716583325078	0.66236305	2.1841946	1.6171663
80716591625859	0.6287644	1.8266859	1.8425934
80716599926640	0.83457303	1.262742	2.3440075
80716608227421	0.6274121	0.7963562	2.4193962
80716616528203	-0.101396084	0.5885	1.8683736
80716624828984	-0.20532727	0.58353806	1.7651033
80716633129765	-0.27769423	1.0057364	1.0840917
80716641430546	-0.052752733	1.1134014	0.607795
80716649731328	-0.07129884	0.86826515	0.078778505
80716658032109	-0.43045425	0.42392254	-0.37261152
80716666332890	-1.140091	-0.06882858	-0.55939937
80716674633671	-2.0321681	-0.5330944	-0.28870463
80716682934453	-2.3521092	-0.9943991	0.70052934
80716691235234	-1.9897144	-1.3636713	1.3222783
80716699536015	-1.1212995	-1.334755	1.0973895
80716707836796	-0.22731781	-0.9650326	0.55531716
80716716137578	0.46535683	-0.3652792	0.10766935
80716724438359	0.3426249	-0.38458538	0.08236647
80716732739140	1.4887898	0.81178665	-1.3425953
80716741039921	1.3515878	0.7890234	-1.7092545
80716749340703	1.0973446	0.51196	-1.9451194
80716757641484	0.8213837	0.024600029	-2.0446446
80716765942265	0.44360697	-0.5668268	-1.9942362
80716774243046	0.38034344	-0.58482456	-1.9645996
80716782543828	-1.1899065	-1.3773756	-1.2736747
80716790844609	-2.261506	-1.5454826	-0.7368071
80716799145390	-3.0010552	-1.5919304	0.39290094
80716807446171	-3.1122239	-1.4358492	1.8230574
80716815746953	-3.105461	-1.4064837	1.7547908
80716824047734	-2.4779167	-1.1032133	2.7563713
80716832348515	-0.605605	-1.1012602	1.4539471
80716840649296	0.06855643	-0.8847647	0.6938751
80716848950078	0.6434715	-0.5701933	-0.20262885
80716857250859	0.7986443	-0.12108326	-0.9623642
80716865551640	0.6837797	-0.1588459	-0.9029856
80716873852421	0.33504987	0.38029003	-1.2108483
80716882153203	-0.35305136	0.27513123	-1.0941474
80716890453984	-1.4065475	-0.43352795	-0.2520821
80716898754765	-2.4146361	-1.0500145	0.9142046
80716907055546	-2.963263	-1.7869854	1.5338266
80716915356328	-2.9930696	-2.649599	1.189491
80716923657109	-2.9525685	-2.650013	1.2175825
80716931957890	-2.785711	-2.9489393	0.5327935
80716940258671	-1.5597457	-2.671404	0.6729927
80716948559453	0.16028923	-2.0360718	-0.20930123
80716956860234	1.2710664	-1.4629583	-1.1257172
80716965161015	1.5564713	-0.8339033	-1.6633847
80716973461796	2.6853728	0.74352455	-1.4095588
80716981762578	2.6483924	0.6964245	-1.2595608
80716990063359	3.8208542	1.3852425	-1.1888559
80716998364140	4.37658	1.1184549	-1.2715776
80717006664921	4.063268	0.7617607	-1.0921054
80717014965703	3.4988317	0.44755173	-0.7229898
80717023266484	3.1686313	0.14840698	-0.31599164
80717031567265	2.6110344	0.24845314	0.22580647
80717039868046	1.2925647	1.134963	0.68157244
80717048168828	-0.3421863	1.8626814	1.7481583
80717056469609	-1.0384678	1.8796625	1.8744509
80717064770390	-0.726754	1.3652163	1.1828437
80717073071171	0.07129893	0.78942776	0.47911465
80717081371953	0.02446118	0.76968	0.57975817
80717089672734	0.7242952	0.14975643	0.08332527
80717097973515	0.8837181	-0.6288128	-0.25523806
80717106274296	1.4215004	-1.6710215	-0.67925763
80717114575078	1.7524234	-2.754321	-0.95455366
80717122875859	1.4377553	-3.3881464	-0.7960659
80717131176640	1.2430924	-2.6873322	-0.1447261
80717139477421	1.6452998	-0.833869	1.8812431
80717147778203	0.5664151	1.0977602	2.865913
80717156078984	0.36046097	2.8856678	2.7354426
80717164379765	0.37691507	2.8733425	2.8813348
80717172680546	3.6464646	2.9888687	1.6426659
80717180981328	5.2887855	0.24588585	1.219084
80717189282109	2.8178146	-0.4236393	0.3986186
80717197582890	-0.11547063	-1.6517239	0.31101298
80717205883671	-1.4458687	-4.155693	0.4855811
80717214184453	-0.6757152	-6.8869905	0.30066448
80717222485234	1.2342204	-8.479184	-0.44608986
80717230786015	1.9370854	-8.8666315	-0.93912137
80717239086796	1.5807741	-8.834695	-1.6821088
80717247387578	1.1141224	-8.6380005	-3.0822732
80717255688359	0.5906695	-8.436072	-4.392615
80717263989140	0.049221396	-8.303193	-5.1949396
80717272289921	-0.40633416	-8.259853	-5.2786465
80717280590703	-0.4717902	-8.347992	-4.2784243
80717288891484	0.82862496	-8.704744	-1.4320072
80717297192265	-0.5639355	-2.348939	0.5500804
80717305493046	-5.15861	9.84396	1.6263787
80717313793828	-5.0850935	9.814018	1.4905478
80717322094609	-11.113929	27.931591	1.8679122
80717330395390	-5.5275607	24.91008	0.89044064
80717338696171	-1.3933964	19.238565	0.19712538
80717346996953	1.6598253	11.639612	-0.1656847
80717355297734	1.4721718	11.576353	-0.07800484
80717363598515	2.6137376	4.58778	0.22601986
80717371899296	1.3060701	-4.4295616	2.6108494
80717380200078	-0.3032192	-6.2588234	3.4887547
80717388500859	-2.476074	-5.7452602	3.7949896
80717396801640	-3.6502576	-4.402835	3.722868
80717405102421	-3.5769176	-4.3871546	3.6171432
80717413403203	-2.3423898	-1.3676233	2.347948
80717421703984	-2.2877383	-1.3587008	2.271366
80717430004765	0.86448133	-0.57132816	0.43533173
80717438305546	1.2329544	-0.14775658	-0.030674934
80717446606328	0.97394145	0.15300274	-0.30742282
80717454907109	0.45778394	0.066690445	-0.51127326
80717463207890	0.42593503	0.0657053	-0.43059558
80717471508671	-0.020114899	-0.30932808	-0.53110594
80717479809453	-0.22012615	-0.4945488	-0.0075463653
80717488110234	-0.08403528	0.11734676	0.52412754
80717496411015	0.13807142	0.5358095	0.93388546
80717504711796	0.1092211	0.5340023	0.9767692
80717513012578	0.31262195	0.803771	1.2564617
80717521313359	0.44415116	1.06738	1.5003335
80717529614140	0.43011987	1.6319885	1.973303
80717537914921	0.54108953	1.4479942	2.2028155
80717546215703	0.50673556	1.4441624	2.241519
80717554516484	0.7190577	1.0343943	2.542818
80717562817265	0.8283087	0.49401474	2.7822294
80717571118046	0.8313767	-0.0961895	2.9290473
80717579418828	0.7046101	-1.2712383	2.241303
80717587719609	0.5735011	-1.6410341	0.63984215
80717596020390	0.8734033	-2.0941916	2.149444
80717604321171	0.86111045	-2.0442972	2.3638604
80717612621953	1.1699481	-2.5585947	0.9022882
80717620922734	1.1783748	-2.4964275	1.1107097
80717629223515	0.99929273	-3.0322704	-4.792101
80717637524296	1.8723899	-3.19551	-8.149422
80717645825078	1.5837226	-2.8783607	-6.524848
80717654125859	1.1946689	-2.412817	-3.4970047
80717662426640	1.2604191	-2.390542	-3.4753356
80717670727421	0.966349	-2.0656662	-0.6488254
80717679028203	0.7059978	-0.8210201	0.8939457
80717687328984	1.4900419	0.04591942	-0.0014240742
80717695629765	1.4194798	0.025295258	-0.030411243
80717703930546	1.4366369	0.47765255	0.36427784
80717712231328	1.3981156	0.45685673	0.31881332
80717720532109	1.15291	0.501812	0.48225546
80717728832890	1.8852547	0.6745386	0.48821306
80717737133671	2.8555775	0.70845413	0.022113562
80717745434453	1.8162105	0.4422016	4.3036604
80717753735234	0.79752696	0.66268444	4.370199
80717762036015	0.48916793	0.7829151	1.7522619
80717770336796	0.44195068	0.60162926	-0.49133563
80717778637578	-0.18609011	0.4248371	-0.5918515
80717786938359	0.15923393	0.22483826	-0.6560073
80717795239140	0.3623551	0.33558083	-0.33866942
80717803539921	0.62963057	0.57003117	0.092360854
80717811840703	0.5648968	0.44236565	0.28692317
80717820141484	0.051739335	0.11798191	0.41350603
80717828442265	-0.5518738	0.19612408	0.9046035
80717836743046	-0.1203922	0.045819283	0.82100177
80717845043828	0.6455339	-0.5764828	0.17922199
80717853344609	0.95116365	-0.83905697	-0.22246599
80717861645390	1.1449736	-0.93152237	-0.5005325
80717869946171	1.4468666	-1.0616484	-0.7187685
80717878246953	1.750369	-1.2608204	-0.766541
80717886547734	1.8787884	-1.3721924	-0.61119425
80717894848515	1.8094016	-1.2279406	-0.47931457
80717903149296	1.847493	-1.0476484	-0.283998
80717911450078	2.0132067	-0.91438293	-0.05032301
80717919750859	2.0137787	-0.92050076	-0.09903824
80717928051640	2.4538555	-0.7173281	0.9252472
80717936352421	2.7679477	-0.48317432	1.4842081
80717944653203	2.8459907	-0.25136662	1.2137295
80717952953984	2.8851066	-0.027154922	1.2868023
80717961254765	2.801529	0.16562748	1.8108404
80717969555546	2.3540082	0.34105587	2.5088954
80717977856328	2.4042478	0.33346558	2.3621764
80717986157109	0.3137411	0.69824123	2.576359
80717994457890	0.15583694	0.53986835	2.0369573
80718002758671	0.082763076	0.27888775	1.5583816
80718011059453	-0.19496608	0.046964645	1.2607043
80718019360234	-0.13236856	0.054808617	1.1585227
80718027661015	-1.0003248	-0.48822594	1.730015
80718035961796	-1.1561337	-0.9428215	2.279643
80718044262578	-1.405997	-1.1255255	2.5677009
80718052563359	-1.793958	-1.1391592	2.525052
80718060864140	-1.7267756	-1.1226425	2.5253186
80718069164921	-2.1098137	-1.0617886	2.276398
80718077465703	-2.531891	-0.41438103	1.4021635
80718085766484	-2.3748252	0.3954029	0.8236538
80718094067265	-2.008288	1.0446243	-0.0068734884
80718102368046	-1.3446317	1.3519115	-0.7800081
80718110668828	-1.2882674	1.3724365	-0.63487995
80718118969609	-0.42047548	1.2333174	-1.181808
80718127270390	1.209559	0.009202957	-1.7010894
80718135571171	1.8587966	-0.6399174	-1.3479205
80718143871953	2.3293102	-1.084238	-0.7054579
80718152172734	2.3457193	-1.3941021	-0.06929684
80718160473515	2.3405414	-1.3849344	-0.022050142
80718168774296	1.5735416	-1.8041935	0.7706431
80718177075078	1.159245	-2.0087452	0.87657845
80718185375859	0.8329389	-1.9701309	0.83843243
80718193676640	0.4655261	-1.9843159	0.66444993
80718201977421	0.21213341	-2.0199118	0.51880765
80718210278203	0.12959886	-2.0656672	0.37748444
80718218578984	0.07887268	-2.0785332	0.34965837
80718226879765	0.12571049	-2.0876722	0.2046355
80718235180546	0.23938608	-1.5235434	0.34837067
80718243481328	0.298074	-1.0036459	0.3350432
80718251782109	0.3492608	-0.4311161	0.2775554
80718260082890	0.25194764	-0.46255016	0.1692673
80718268383671	0.18086398	0.056048393	-0.040859878
80718276684453	-0.080492616	0.49645615	-0.4993804
80718284985234	-1.2963778	1.7261887	-2.0072381
80718293286015	-2.1624331	2.2874155	-2.4437811
80718301586796	-2.2496462	2.2640963	-2.5054572
80718309887578	-3.1186562	2.502205	-2.3297782
80718318188359	-3.4661322	1.5813246	-0.6210666
80718326489140	-3.5077434	1.5693111	-0.6691855
80718334789921	-2.4329348	-0.054338455	0.4647837
80718343090703	-1.7576094	-0.47545624	0.54107076
80718351391484	-1.109377	-0.6180506	0.6647646
80718359692265	-0.486907	-0.642251	0.74392396
80718367993046	0.019326448	-0.63241386	0.61773294
80718376293828	-0.0042102337	-0.6342249	0.6058591
80718384594609	0.33648193	-0.4535122	-0.12213841
80718392895390	0.37908435	-0.5192127	-0.53641605
80718401196171	0.66945386	-0.4105854	-0.49851686
80718409496953	0.72924113	-0.12863064	-0.4154243
80718417797734	0.7142601	-0.13002777	-0.4446447
80718426098515	0.31333876	0.1825676	-0.6378314
80718434399296	0.09627962	0.26691246	-0.63175845
80718442700078	-0.008230209	0.034196854	-0.6139032
80718451000859	-0.32629383	-0.13719273	-0.71059704
80718459301640	-0.33240533	-0.1374197	-0.7293762
80718467602421	-0.63251245	-0.23760414	-0.87844193
80718475903203	-0.6095203	-0.34305096	-0.9626622
80718484203984	-0.24257576	-0.5229168	-0.89007163
80718492504765	0.118089795	-0.8012419	-0.7864361
80718500805546	0.109111905	-0.8002987	-0.7981175
80718509106328	-0.002854824	-0.84010124	-0.56530726
80718517407109	0.34348345	-0.57628727	-0.397734
80718525707890	1.0310384	-0.103694916	-0.34788662
80718534008671	0.4011289	0.14105129	0.20493251
80718542309453	-0.12333298	0.30621052	0.15858918
80718550610234	-0.15903014	0.43707848	-0.03985721
80718558911015	-0.22139794	0.54296017	-0.2124894
80718567211796	-0.4576804	0.62253094	-0.29779357
80718575512578	-0.75919807	0.6438818	-0.29929775
80718583813359	-0.8179911	0.5087633	-0.25170603
80718592114140	-0.65217644	0.010094643	-0.5936878
80718600414921	-0.6836334	-0.5586443	-0.6733128
80718608715703	-0.5895368	-0.97866917	-0.45352688
80718617016484	-0.2194938	-1.265584	-0.5936273
80718625317265	0.33489823	-1.3924646	-1.3363166
80718633618046	0.54753417	-1.0003119	-1.133882
80718641918828	0.7231196	-0.69943714	-0.73881555
80718650219609	0.7511274	-0.5175724	-0.2674575
80718658520390	0.8453208	-0.40075016	0.19589269
80718666821171	1.0025158	-0.24896145	0.53734785
80718675121953	0.9819715	-0.24616432	0.48373955
80718683422734	1.3845855	0.09118271	0.61413693
80718691723515	1.5430307	0.18652058	0.4841197
80718700024296	1.637987	0.24566078	0.23784453
80718708325078	1.6593553	0.2688732	-0.033697546
80718716625859	1.516355	0.27841473	-0.28418326
80718724926640	1.1795557	0.26609612	-0.4817918
80718733227421	0.9079901	0.12596893	-0.56544876
80718741528203	0.87657666	-0.12683296	-0.48410624
80718749828984	0.8807065	-0.40312195	-0.2985301
80718758129765	0.79439485	-0.6278801	-0.1716938
80718766430546	0.64406246	-0.7670851	-0.1404742
80718774731328	0.6246786	-0.7646847	-0.15481889
80718783032109	0.5076872	-0.76838875	-0.22662473
80718791332890	0.4299729	-0.69950294	-0.24440658
80718799633671	0.25995427	-0.62406445	-0.28875458
80718807934453	0.053245723	-0.5818548	-0.32164443
80718816235234	0.034131795	-0.5801077	-0.33123004
80718824536015	-0.17591614	-0.54361725	-0.32581556
80718832836796	-0.5347199	-0.32469273	-0.21986234
80718841137578	-0.7206937	-0.29108524	-0.10376048
80718849438359	-0.87258637	-0.2771263	0.044932008
80718857739140	-0.9621555	-0.2544346	0.21272576
80718866039921	-0.9774443	-0.25131702	0.18824899
80718874340703	-1.138766	-0.21007252	0.3775308
80718882641484	-1.0438482	-0.24688053	0.31955993
80718890942265	-0.98364216	-0.30921173	0.23219907
80718899243046	-0.891567	-0.4119091	0.18907511
80718907543828	-0.7906414	-0.50048923	0.17279327
80718915844609	-0.72661203	-0.53596115	0.1546942
80718924145390	-0.72776884	-0.5029526	0.12130749
80718932446171	-0.7282182	-0.40450382	0.121809125
80718940746953	-0.6041176	-0.3031044	0.1410855
80718949047734	-0.4316014	-0.23803616	0.23129177
80718957348515	-0.31744686	-0.2374878	0.34812784
80718965649296	-0.2609858	-0.30020523	0.44928885
80718973950078	-0.2794558	-0.29442883	0.41894138
80718982250859	-0.1620891	-0.5160217	0.46076405
80718990551640	-0.11067578	-0.5865116	0.41061878
80718998852421	-0.030412115	-0.57405376	0.3991822
80719007153203	0.09399986	-0.52432823	0.3890462
80719015453984	0.07942191	-0.5214882	0.3794514
80719023754765	0.23999916	-0.5084038	0.37223434
80719032055546	0.50328594	-0.84139156	0.29251993
80719040347035	0.5854826	-0.9648466	0.23627782
80719048647816	0.7581956	-0.93162346	0.28510535
80719056948597	0.7354692	-0.92801666	0.27772844
80719065249378	0.9092608	-0.71701145	0.4000442
80719073550160	1.0529113	0.06695652	0.70758307
80719081850941	1.0540085	0.371768	0.86667097
80719090151722	1.135304	0.58037853	1.13124
80719098452503	1.3166394	0.7153673	1.3648965
80719106753285	1.3860052	0.8078747	1.4551293
80719115054066	1.2135172	0.7813225	1.29725
80719123354847	1.2013286	0.78891087	1.252708
80719131655628	0.27696374	0.24031639	0.2991302
80719139956410	-0.055615902	0.08025551	-0.2048409
80719148257191	-0.40914536	-0.010808945	-0.7152777
80719156557972	-0.7624404	-0.080099106	-1.1564217
80719164858753	-0.7796085	-0.07484913	-1.1728208
80719173159535	-1.0744519	-0.14949131	-1.4638705
80719181460316	-1.3499064	-0.2414341	-1.5524397
80719189761097	-1.3776207	-0.23191738	-1.408536
80719198061878	-1.4165602	-0.25802326	-1.1804707
80719206362660	-1.4307013	-0.25818253	-1.1714456
80719214663441	-1.4842942	-0.33555984	-0.96081185
80719222964222	-1.5501208	-0.45747662	-0.82522917
80719231265003	-1.6347644	-0.58568954	-0.7525208
80719239565785	-1.7622521	-0.61354446	-0.41156673
80719247866566	-1.5835959	-0.61662006	-0.17123747
80719256167347	-1.5995755	-0.61391735	-0.17230058
80719264468128	-1.4721458	-0.62415886	-0.023988962
80719272768910	-1.4411116	-0.63424206	0.052841425
80719281069691	-1.3726298	-0.69253254	0.19463205
80719289370472	-1.3906357	-0.68695545	0.1821599
80719297671253	-1.310213	-0.7038002	0.309973
80719305972035	-1.2093017	-0.7017174	0.44390512
80719314272816	-1.1027185	-0.6503134	0.5309005
80719322573597	-0.98580635	-0.5811205	0.5369868
80719330874378	-0.84998554	-0.55381966	0.43889523
80719339175160	-0.7464507	-0.5141926	0.20243621
80719347475941	-0.7279426	-0.37364674	-0.018198252
80719355776722	-0.64154506	-0.1575489	-0.21589327
80719364077503	-0.47571206	0.063165665	-0.41464925
80719372378285	-0.2675621	0.23715305	-0.58790994
80719380679066	-0.08879501	0.33800983	-0.66876554
80719388979847	0.021169841	0.34742546	-0.66361046
80719397280628	-0.026802003	0.25362015	-0.5739913
80719405581410	-0.12849236	0.12652779	-0.49944448
80719413882191	-0.320149	-0.0070610046	-0.46775866
80719422182972	-0.58623827	-0.14580154	-0.49721956
80719430483753	-0.85958993	-0.3000307	-0.5869405
80719438784535	-1.1724157	-0.42234802	-0.6746011
80719447085316	-1.5490305	-0.53161526	-0.6097791
80719455386097	-1.8239324	-0.6273756	-0.45391083
80719463686878	-1.9872962	-0.7160406	-0.24045086
80719471987660	-2.0523458	-0.7947321	0.0078029633
80719480288441	-2.0419579	-0.844182	0.2810669
80719488589222	-2.086297	-0.7986202	0.58301353
80719496890003	-1.9886491	-0.752614	0.8155842
80719505190785	-1.6606053	-0.6989088	0.9253094
80719513491566	-1.2695348	-0.5928898	0.87406707
80719521792347	-0.99750763	-0.37184334	0.6581869
80719530093128	-1.0068952	-0.3610506	0.62843704
80719538393910	-1.0080526	0.56936646	0.19893813
80719546694691	-1.1049714	1.1059427	0.33281565
80719554995472	-1.1240793	1.579998	0.5643606
80719563296253	-1.0699573	1.9203463	0.9188659
80719571597035	-1.0776358	1.9210196	0.9053469
80719579897816	-0.9613548	2.1107988	1.3307498
80719588198597	-0.5169674	2.2973394	1.7117577
80719596499378	-0.20497316	2.2815323	1.4622316
80719604800160	0.0030294657	2.1667566	1.0232172
80719613100941	0.05869019	1.9923067	0.5435643
80719621401722	0.07590413	1.9804735	0.5611079
80719629702503	-0.097562075	1.4556351	-0.09944677
80719638003285	-0.108358264	0.99508	0.044191837
80719646304066	0.023872256	0.35209846	0.43709755
80719654604847	0.061685324	-0.22758865	0.39715004
80719662905628	0.15170562	-0.7183008	-0.10746312
80719671206410	0.38890105	-1.1199255	-0.9184129
80719679507191	0.41476256	-1.1397734	-0.84833646
80719687807972	0.87569284	-1.690299	-2.5963113
80719696108753	0.8114464	-1.9015493	-3.039255
80719704409535	0.65039074	-1.9632998	-3.2273731
80719712710316	0.2504202	-1.7060261	-3.099317
80719721011097	0.31188428	-1.7320509	-2.9806652
80719729311878	-0.2626535	-1.1174421	-2.574656
80719737612660	-0.66832083	0.49039078	-1.9654258
80719745913441	-0.31848878	1.0250425	-1.4169277
80719754214222	-0.22979888	1.4782219	-0.76565194
80719762515003	-0.13316107	1.4597425	-0.67676044
80719770815785	-0.36785543	1.846941	-0.01705563
80719779116566	-0.76501584	2.1265144	0.62357247
80719787417347	-1.3547318	2.1991882	1.9790171
80719795718128	-1.0705004	1.9613981	2.4036984
80719804018910	-0.28359872	1.46282	2.2474499
80719812319691	0.81188995	0.8170433	1.6743319
80719820620472	0.90903157	0.81579876	1.722579
80719828921253	2.5973394	-0.4121151	0.14481974
80719837222035	3.1348941	-0.90864754	-0.56275296
80719845522816	3.4470043	-1.3975983	-1.1091639
80719853823597	3.5012665	-1.8386259	-1.4040116
80719862124378	3.2862325	-2.168396	-1.452975
80719870425160	2.8337345	-2.3325682	-1.3582046
80719878725941	2.9074059	-2.3201256	-1.3200936
80719887026722	1.6667047	-2.394291	-1.4114501
80719895327503	1.1446327	-2.2512703	-1.4612868
80719903628285	0.6323525	-1.870162	-1.3846455
80719911929066	0.36533666	-1.5703783	-1.1968613
80719920229847	0.41939032	-1.5583334	-1.1856662
80719928530628	0.45402706	-1.5412359	-0.94688684
80719936831410	0.27863228	-1.8348818	-0.57138705
80719945132191	0.0521909	-1.9517994	-0.43447703
80719953432972	-0.10649729	-1.9997721	-0.34623295
80719961733753	-0.08843517	-1.9930592	-0.3343959
80719970034535	-0.22513425	-2.022379	-0.30798525
80719978335316	-0.40920627	-2.0695562	-0.3495379
80719986636097	-0.8938383	-1.9668589	-0.5682875
80719994936878	-0.9888004	-1.7597027	-0.79758257
80720003237660	-1.0785098	-1.6993313	-1.0882161
80720011538441	-1.0755942	-1.6983194	-1.0465989
80720019839222	-1.2037221	-1.7736177	-1.3093009
80720028140003	-1.3154154	-1.8839388	-1.495671
80720036440785	-1.408131	-1.6451292	-1.619194
80720044741566	-1.4260664	-1.6482868	-1.5601165
80720053042347	-1.5194339	-1.2899437	-1.4421916
80720061343128	-1.5893803	-0.7101631	-1.2808748
80720069643910	-1.7725295	0.08779526	-0.95276105
80720077944691	-2.1619596	0.98802567	-0.4064345
80720086245472	-2.6684594	1.7962294	0.15231329
80720094546253	-3.1442595	2.3159447	0.5007477
80720102847035	-3.7100284	2.1607819	0.6300093
80720111147816	-3.9346466	1.7335081	0.20812872
80720119448597	-3.9901662	1.1585913	-0.60009027
80720127749378	-3.9624326	0.54285717	-1.475092
80720136050160	-3.1839066	0.14827442	-2.268205
80720144350941	-1.8674959	0.14772224	-2.5183907
80720152651722	-0.8684708	0.37143707	-2.4064043
80720160952503	-0.2258538	0.7523699	-1.9245315
80720169253285	0.18213916	1.1678486	-1.1563439
80720177554066	0.538424	1.4846792	-0.2682539
80720185854847	0.94064176	1.6455898	0.52779347
80720194155628	1.0425967	2.520568	1.041071
80720202456410	1.0412266	4.0097733	1.2779293
80720210757191	1.3456149	5.556856	1.2980243
80720219057972	2.4297218	6.628313	1.4143698
80720227358753	7.2474217	4.3784866	0.40117693
80720235659535	7.1517534	4.3641214	0.30999196
80720243960316	6.159839	1.1874151	-1.4700472
80720252261097	3.5543723	-0.8319807	-1.9567881
80720260561878	1.8069079	-1.9535933	-1.7546788
80720268862660	1.2007	-2.4703827	-1.3667208
80720277163441	1.2019151	-2.5768833	-1.0822643
80720285464222	1.6131499	-2.3058033	-0.8221104
80720293765003	1.7131681	-1.9274025	-0.634402
80720302065785	1.4866722	-1.6867132	-0.4623546
80720310366566	1.1467516	-1.512085	-0.2566898
80720318667347	0.8632076	-1.3519554	0.07367325
80720326968128	0.7551731	-1.1704693	0.55715287
80720335268910	0.8502965	-0.956645	1.0069096
80720343569691	1.3895282	-1.0505762	1.3756394
80720351870472	1.6551883	-0.95753	1.6501216
80720360171253	1.7027628	-0.7013674	1.7859172
80720368472035	1.7128466	-0.34990406	1.7152997
80720376772816	1.7652527	-0.044493675	1.4510309
80720385073597	1.4615811	-0.10327816	1.2701842
80720393374378	1.688013	-0.08074474	1.1718951
80720401675160	1.8521392	-0.038036346	0.79706323
80720409975941	1.6316314	-0.22481251	0.29866695
80720418276722	0.9617404	-0.51682377	-0.072527885
80720426577503	0.03186132	-0.6675577	-0.15134966
80720434878285	-0.694055	-0.81618404	-0.13483298
80720443179066	-1.0202068	-0.8328552	-0.12531364
80720451479847	-1.1783574	-0.80376816	-0.14185226
80720459780628	-1.1640376	-0.7993307	-0.08056283
80720468081410	-1.0782905	-0.87619305	0.0628525
80720476382191	-1.1059406	-0.87048626	0.040523887
80720484682972	-1.3736898	-1.0468407	0.41877353
80720492983753	-1.4638003	-1.211443	0.40796423
80720501284535	-1.5863899	-1.3327208	0.37459862
80720509585316	-1.6226509	-1.3675299	0.36553085
80720517886097	-1.6377878	-1.3589973	0.33687246
80720526186878	-1.6123046	-1.2973089	0.3729583
80720534487660	-1.5347432	-1.0491524	0.64228404
80720542788441	-1.4113476	-0.9793577	0.818974
80720551089222	-0.9981137	-0.8830309	0.72815657
80720559390003	-0.52876514	-0.70598316	0.46921396
80720567690785	-0.14867888	-0.4721508	0.18839145
80720575991566	0.11553472	-0.26339245	0.011176825
80720584292347	0.29053319	-0.17450619	-0.022364378
80720592593128	0.39204937	-0.19953156	0.08235526
80720600893910	0.38385582	-0.1676054	0.11193156
80720609194691	0.27906933	-0.17882729	0.03148818
80720617495472	0.13329417	-0.25577164	-0.09626794
80720625796253	0.1159502	-0.24245262	-0.14085579
80720634097035	-0.0012551546	-0.42373085	-0.14778376
80720642397816	0.046268344	-0.5170107	-0.19314766
80720650698597	-0.0057350993	-0.49748898	-0.30709648
80720658999378	-0.015185297	-0.4089384	-0.48884392
80720667300160	-0.023933083	-0.39936066	-0.51627684
80720675600941	0.010412514	-0.2976265	-0.7453854
80720683901722	-0.15540195	-0.084947586	-1.2734706
80720692202503	-0.17920327	0.072888374	-1.3321948
80720700503285	-0.22940323	0.0072803497	-1.1259735
80720708804066	-0.43826473	-0.025741577	-0.6042547
80720717104847	-0.84714645	0.03642845	0.122178555
80720725405628	-0.8551438	0.042793274	0.10256505
80720733706410	-1.4126258	-0.13208771	1.2193239
80720742007191	-1.6178825	-0.4397602	1.381499
80720750307972	-1.6127716	-0.43030453	1.3513651
80720758608753	-1.5182014	-0.45996857	1.4153299
80720766909535	-1.1384932	-0.31668472	1.1725309
80720775210316	-0.67668015	-0.06875801	0.59214544
80720783511097	-0.6461501	0.663434	-0.6104367
80720791811878	-0.65452474	0.6600399	-0.60145473
80720800112660	-0.8029938	0.92894936	-0.7312319
80720808413441	-1.0243884	1.1722851	-0.6648495
80720816714222	-1.2077783	1.3680553	-0.49708652
80720825015003	-1.3030894	1.50453	-0.26648116
80720833315785	-1.3564718	1.5898743	0.032997847
80720841616566	-1.4130694	1.6057653	0.37065935
80720849917347	-1.499752	1.4756088	0.69792795
80720858218128	-1.4897702	1.1397915	0.9776709
80720866518910	-1.3228443	0.5830126	1.1819508
80720874819691	-1.011924	-0.121248245	1.3083827
80720883120472	-0.6743276	-0.8107014	1.3804712
80720891421253	-0.3920421	-1.8339586	0.9576194
80720899722035	-0.3341433	-1.854166	1.026159
80720908022816	0.2157892	-2.2838345	0.9568293
80720916323597	0.4747445	-2.2109127	1.0752132
80720924624378	0.31522322	-1.4160042	0.92155576
80720932925160	-0.04157988	1.4842958	-1.9429829
80720941225941	0.087191224	1.4444847	-1.779875
80720949526722	0.3398931	3.0566235	-3.0805666
80720957827503	0.7494925	4.46716	-3.9025323
80720966128285	1.3993146	5.3652744	-4.178228
80720974429066	2.3980613	5.531891	-3.5589092
80720982729847	4.1155105	3.4802933	0.50312793
80720991030628	4.2144194	3.470971	0.5884268
80720999331410	2.6204932	1.8599005	1.706223
80721007632191	1.1838408	0.5428972	2.1053414
80721015932972	0.20561719	-0.42449093	1.9846116
80721024233753	-0.36319828	-1.0481901	1.4338607
80721032534535	-0.63569653	-1.3591003	0.531515
80721040835316	-0.5833883	-1.3267412	-0.56648487
80721049136097	0.06012988	-1.1911612	-1.272013
80721057436878	0.8159286	-1.106801	-1.4296207
80721065737660	1.4436336	-1.1762295	-1.2091874
80721074038441	1.8240837	-1.3500223	-0.7719726
80721082339222	2.2295604	-1.3997507	0.15502018
80721090640003	2.2828379	-1.3853636	0.14966625
80721098940785	2.565039	-1.4655428	0.008822918
80721107241566	2.5393865	-1.5411043	-0.396451
80721115542347	2.1578815	-1.4105244	-0.8706707
80721123843128	1.7344087	-1.2327414	-1.2551451
80721132143910	1.7600334	-1.4593754	-1.4527183
80721140444691	1.7943678	-1.7783394	-1.3358524
80721148745472	1.6578047	-2.0750618	-1.1573442
80721157046253	1.5065882	-2.2868357	-0.9291941
80721165347035	1.3767195	-2.3833666	-0.65907913
80721173647816	1.2571362	-2.3592567	-0.37861317
80721181948597	1.2482142	-2.3571444	-0.35533023
80721190249378	1.0333357	-2.1377125	-0.051098824
80721198550160	0.96077967	-2.2534304	0.0711593
80721206850941	0.67356026	-2.2846947	0.10676885
80721215151722	0.30385435	-2.1702156	0.046034425
80721223452503	-0.012685299	-1.9825058	-0.118338734
80721231753285	-0.0453099	-1.9867992	-0.07839161
80721240054066	-0.35624158	-1.7971048	-0.6753713
80721248354847	-0.49087572	-1.6059246	-0.8359134
80721256655628	-0.7540312	-1.1572199	-0.98456824
80721264956410	-1.0764661	-0.46440792	-1.1108286
80721273257191	-1.4006162	0.44679642	-1.1194056
80721281557972	-1.7658654	1.5786552	-0.8421689
80721289858753	-2.3333015	2.4633045	-0.20677224
80721298159535	-2.7050486	2.7702045	0.2038596
80721306460316	-2.6326895	2.441287	0.24022773
80721314761097	-2.7563655	1.6534243	-0.18861079
80721323061878	-3.424209	0.6695118	-1.0641811
80721331362660	-4.1561832	-0.2666788	-2.2331777
80721339663441	-4.5509024	-0.9252224	-3.1281147
80721347964222	-3.8113985	-1.3198738	-3.3776698
80721356265003	-2.5364735	-1.4655714	-3.1679068
80721364565785	-1.4348605	-1.42309	-2.52598
80721372866566	-0.87989235	-1.2276001	-1.5096471
80721381167347	-0.84119606	-1.2188253	-1.4995389
80721389468128	-0.5727129	-0.43885422	0.4687144
80721397768910	-0.3686154	0.012804985	0.8569455
80721406069691	-0.04821801	0.35925293	0.8656912
80721414370472	0.3283031	0.576005	0.64498043
80721422671253	0.32195556	0.5772991	0.5835984
80721430972035	0.56848073	0.87811184	0.24279183
80721439272816	-0.17328584	3.8569832	-0.28305262
80721447573597	0.10631919	5.9152327	-0.31506193
80721455874378	1.3434896	7.499358	-0.16957492
80721464175160	3.4224916	7.927394	0.42623508
80721472475941	5.3539386	6.658787	1.1188257
80721480776722	5.257021	6.64042	1.0372554
80721489077503	2.1919389	1.2254438	-1.1962308
80721497378285	1.3450375	-0.23564339	-2.1774714
80721505679066	1.2986476	-0.23587799	-2.210025
80721513979847	1.4542605	-1.3649521	-2.148888
80721522280628	1.9220246	-2.2837372	-1.449739
80721530581410	2.311185	-2.9363308	-0.7448883
80721538882191	2.5706005	-2.9339886	-0.52521825
80721547182972	2.5733035	-2.9267302	-0.5250119
80721555483753	2.0512035	-2.0709944	-0.68509316
80721563784535	1.4808137	-1.2549543	-0.7444843
80721572085316	1.129345	-0.69220257	-0.6282071
80721580386097	1.0999271	-0.3578186	-0.35445046
80721588686878	1.3154887	-0.029752731	-0.04591441
80721596987660	1.5925101	0.2370348	0.32441592
80721605288441	1.8428669	0.40153027	0.67882204
80721613589222	2.178125	0.35979462	0.98827505
80721621890003	2.515261	0.17879581	1.1083448
80721630190785	2.6842833	-0.0017204285	0.9517869
80721638491566	2.5350041	-0.06902599	0.67034674
80721646792347	1.8496472	-0.06341648	0.426324
80721655093128	1.4250406	-0.36520863	0.44900572
80721663393910	1.0891742	-0.6745634	0.66353536
80721671694691	0.72436786	-0.84057236	0.9444126
80721679995472	0.7067766	-0.8348379	0.9215559
80721688296253	0.8888875	-0.6721144	1.0688142
80721696597035	1.2289863	-0.3777275	0.7650702
80721704897816	0.8706442	-0.14116192	0.4339943
80721713198597	0.43980718	-0.037521362	0.10724926
80721721499378	0.41480234	-0.037599564	0.10632491
80721729800160	0.20001633	-0.104213715	-0.17820811
80721738100941	0.15494904	-0.49506092	-0.3645382
80721746401722	-0.05560181	-0.5100994	-0.07705045
80721754702503	-0.31930035	-0.50768757	0.22715425
80721763003285	-0.5220242	-0.613924	0.43841624
80721771304066	-0.5473343	-0.6113138	0.43224192
80721779604847	-0.46019545	-1.0822058	0.61070275
80721787905628	-0.35977498	-1.2911901	0.73830724
80721796206410	-0.3578855	-1.3522673	0.9419489
80721804507191	-0.28443652	-1.3112087	1.0467348
80721812807972	-0.2292266	-1.1964893	1.0464785
80721821108753	-0.26122907	-1.1908388	1.0336051
80721829409535	-0.1166223	-0.80605125	1.1121738
80721837710316	0.07178676	-0.568944	1.2173204
80721846011097	0.19989306	-0.44966507	1.2340639
80721854311878	0.26133806	-0.3556471	1.0584362
80721862612660	0.3321664	-0.25951004	0.80978227
80721870913441	0.4072471	-0.1634655	0.6440401
80721879214222	0.38759804	-0.15759468	0.6225798
80721887515003	0.30299902	0.0034046173	0.51676154
80721895815785	0.07560563	0.10342312	0.22773695
80721904116566	-0.17769831	0.19716167	-0.07434058
80721912417347	-0.405648	0.24439049	-0.30719352
80721920718128	-0.43676203	0.25747108	-0.35309196
80721929018910	-0.62153625	0.22452259	-0.49079347
80721937319691	-0.87002665	-0.11195946	-0.3111887
80721945620472	-0.952977	-0.30573082	-0.056814194
80721953921253	-0.9131974	-0.39761066	0.14636612
80721962222035	-0.936505	-0.3741989	0.074261665
80721970522816	-0.81368655	-0.38930607	0.18302941
80721978823597	-0.39867717	-0.22475624	0.17677832
80721987124378	-0.26208025	-0.026293755	-0.027481556
80721995425160	-0.15012443	0.19309425	-0.2777176
80722003725941	-0.1711244	0.20888138	-0.32113123
80722012026722	0.0020179749	0.343894	-0.62662673
80722020327503	0.24064511	0.5340519	-0.72809863
80722028628285	0.4672531	0.7377815	-0.6030977
80722036929066	0.2687025	0.7227354	-0.31680703
80722045229847	-0.2614016	0.4538536	-0.2901163
80722053530628	-0.28765768	0.45854378	-0.29783273
80722061831410	-1.0286674	-0.2656002	-0.42424536
80722070132191	-1.0512381	-0.26548767	-0.41424823
80722078432972	-1.2336029	-0.40221786	-0.5464914
80722086733753	-1.3669868	-0.25402164	-0.7922447
80722095034535	-1.3376307	-0.078728676	-0.76580906
80722103335316	-1.4058264	0.14607906	-0.5318494
80722111636097	-1.4110061	0.1350708	-0.49520993
80722119936878	-1.4004344	0.21447182	-0.16071081
80722128237660	-1.3042154	0.101940155	0.20636654
80722136538441	-1.1928924	-0.038339615	0.7583988
80722144839222	-0.83252716	0.08584118	0.8701391
80722153140003	-0.8417244	0.0723238	0.91641045
80722161440785	-0.51920974	0.20083714	1.0004935
80722169741566	-0.33123708	0.4153824	1.0534205
80722178042347	-0.21603024	0.7076187	1.0740349
80722186343128	0.2252537	1.1912575	0.9914918
80722194643910	0.5366266	1.1434269	1.028451
80722202944691	0.5391047	1.1214333	1.1002526
80722211245472	0.86366546	0.5084553	0.9890561
80722219546253	0.8996022	0.04851246	0.9104097
80722227847035	0.9053155	0.03285408	0.9706483
80722236147816	0.89226866	-0.7717037	0.57202077
80722244448597	0.88808	-1.0280161	0.41009665
80722252749378	0.8738202	-1.189475	0.27282023
80722261050160	0.88359046	-1.1958609	0.3074845
80722269350941	0.91457486	-1.2538414	0.1480676
80722277651722	1.0404304	-1.2228069	-0.01910758
80722285952503	1.2542833	-1.1296759	-0.15181005
80722294253285	1.3223766	-0.9585552	-0.29303467
80722302554066	1.2549399	-0.77455044	-0.36184907
80722310854847	1.194368	-0.60519505	-0.34019184
80722319155628	1.161058	-0.42903805	-0.2740543
80722327456410	1.1567862	-0.23746777	-0.20958292
80722335757191	1.1872817	-0.0460701	-0.1665647
80722344057972	1.2982683	0.11064911	-0.07433343
80722352358753	1.2545452	0.15754223	-0.023015976
80722360659535	1.0175282	0.25576687	-0.024165154
80722368960316	0.76716447	0.39167404	-0.07171106
80722377261097	0.62082076	0.52279186	-0.14610028
80722385561878	0.56336176	0.6119795	-0.22944164
80722393862660	0.5282911	0.61238194	-0.39113522
80722402163441	0.55322444	0.47160435	-0.54859686
80722410464222	0.522122	0.33856678	-0.49375916
80722418765003	0.3505777	0.19191551	-0.35740304
80722427065785	0.086472034	0.027562141	-0.24009562
80722435366566	0.09905243	0.025316238	-0.23826504
80722443667347	-0.10686779	-0.071294785	-0.48818064
80722451968128	0.047364473	-0.07848072	-1.0583344
80722460268910	0.20203567	-0.101368904	-1.4333918
80722468569691	0.27803826	-0.028015137	-1.5376539
80722476870472	0.3123355	-0.047042847	-1.4691522
80722485171253	0.30954456	0.15804958	-1.3352125
80722493472035	0.23081064	0.2020979	-0.7172606
80722501772816	0.04951632	-0.015593529	-0.34718537
80722510073597	-0.21295285	-0.16522789	-0.09037423
80722518374378	-0.4714812	-0.2003336	0.069736004
80722526675160	-0.43933797	-0.20899105	0.10055089
80722534975941	-1.0376883	-0.06905651	-0.068327904
80722543276722	-1.0667865	-0.08571243	-0.3649721
80722551577503	-1.0776031	-0.037080765	-0.52978384
80722559878285	-1.0487969	0.04534912	-0.6387199
80722568179066	-0.98430765	0.14670277	-0.75358665
80722576479847	-0.9556817	0.14259243	-0.74321544
80722584780628	-0.84593874	0.23220539	-0.8772981
80722593081410	-0.5089078	0.018651962	-0.99977756
80722601382191	-0.34514505	-0.15585232	-0.92827594
80722609682972	-0.21205544	-0.25908756	-0.799991
80722617983753	-0.14209944	-0.26951408	-0.6258987
80722626284535	-0.10855675	-0.27113438	-0.6247637
80722634585316	-0.09154934	-0.22098923	-0.43664694
80722642886097	-0.065758705	-0.18430996	-0.1853745
80722651186878	-0.013469517	-0.17201138	-0.1444968
80722659487660	0.018579274	-0.14659119	-0.11360347
80722667788441	0.05707276	-0.14734554	-0.117806315
80722676089222	0.06963718	-0.10412121	-0.104597926
80722684390003	0.03951925	-0.054299355	-0.1297661
80722692690785	-0.3096653	-0.011632919	-0.15167153
80722700991566	-0.3830293	-0.06737137	-0.16748393
80722709292347	-0.41632473	-0.14404011	-0.18077254
80722717593128	-0.3702737	-0.14499283	-0.17854846
80722725893910	-0.3985469	-0.25340748	-0.20332503
80722734194691	-0.49195898	-0.5185232	-0.21135569
80722742495472	-0.5050903	-0.6480932	-0.23870742
80722750796253	-0.51924276	-0.6845627	-0.30469334
80722759097035	-0.5523729	-0.7048044	-0.35673225
80722767397816	-0.5673787	-0.7278662	-0.3750527
80722775698597	-0.5378208	-0.7539387	-0.36388767
80722783999378	-0.49585092	-0.75231266	-0.35911238
80722792300160	-0.46037567	-0.81865215	-0.33916438
80722800600941	-0.4262938	-0.8801756	-0.3583274
80722808901722	-0.4302733	-0.927021	-0.41797495
80722817202503	-0.470702	-0.9462433	-0.48426712
80722825503285	-0.4418982	-0.9438782	-0.4794289
80722833804066	-0.48908997	-0.94228077	-0.5104517
80722842104847	-0.6314522	-0.93920803	-0.5415946
80722850405628	-0.77541983	-0.8656063	-0.5115056
80722858706410	-0.8940235	-0.7989731	-0.49121678
80722867007191	-0.878752	-0.79723644	-0.48663676
80722875307972	-0.97202724	-0.7478514	-0.4908309
80722883608753	-1.0349429	-0.6929159	-0.51157093
80722891909535	-1.0446361	-0.65640545	-0.65979123
80722900210316	-1.0788789	-0.6637316	-0.70415807
80722908511097	-1.0700688	-0.6630068	-0.6963062
80722916811878	-1.0089242	-0.6032858	-0.69062567
80722925112660	-0.9414593	-0.45553207	-0.6509774
80722933413441	-1.1367047	-0.002257347	-0.68305695
80722941714222	-1.1761583	0.04894638	-0.75090325
80722950015003	-1.3095951	0.0711689	-0.81943893
80722958315785	-1.3030751	0.06796932	-0.7957908
80722966616566	-1.5766191	-0.00595665	-0.9349177
80722974917347	-1.6527623	-0.080994606	-0.9834943
80722983218128	-1.6450796	-0.10985851	-1.0140289
80722991518910	-1.5799906	-0.10089874	-0.97630835
80722999819691	-1.7516761	-0.012823105	-0.9427446
80723008120472	-1.969352	0.12281132	-0.91038406
80723016421253	-1.9430053	0.12157345	-0.8889085
80723024722035	-1.9741248	0.25261116	-0.87584555
80723033022816	-1.6876452	0.3130083	-0.9035479
80723041323597	-1.3436723	0.24768925	-0.9692081
80723049624378	-1.232074	0.12382698	-0.95324755
80723057925160	-1.1030946	-0.10254383	-0.9602475
80723066225941	-1.001782	-0.34683418	-0.9639047
80723074526722	-0.90913314	-0.5593548	-0.9300797
80723082827503	-0.7933117	-0.7150545	-0.8366723
80723091128285	-0.69891095	-0.78887844	-0.698751
80723099429066	-0.6855104	-0.7913227	-0.6246248
80723107729847	-0.5960146	-0.717741	-0.5303256
80723116030628	-0.52181935	-0.5342951	-0.34296286
80723124331410	-0.44398534	-0.27522087	-0.102127016
80723132632191	-0.28310955	0.19558716	0.1990729
80723140932972	-0.28825283	0.194808	0.195041
80723149233753	-0.22725952	0.27034283	0.29928035
80723157534535	-0.12838393	0.05309105	0.4323876
80723165835316	-0.072936475	-0.13421631	0.4866969
80723174136097	-0.10772681	0.06729412	0.4059195
80723182436878	-0.22222352	0.94933224	0.20810306
80723190737660	-0.3353492	2.862135	-0.034200728
80723199038441	-0.09775865	5.232192	-0.10174972
80723207339222	0.48245627	7.2467155	-0.17534208
80723215640003	1.1361096	8.367821	-0.110767186
80723223940785	1.333828	7.7983027	0.11408794
80723232241566	1.2767496	7.781932	0.077451766
80723240542347	-1.7471998	1.3984728	-0.11905891
80723248843128	-1.4189222	-0.9932308	-0.48949957
80723257143910	-0.30571532	-2.4874792	-0.58460355
80723265444691	0.43086886	-3.2053757	-0.3944199
80723273745472	0.5231927	-3.315215	-0.11883712
80723282046253	0.56396246	-3.3055067	-0.11733043
80723290347035	0.7994475	-2.3050127	-0.41411364
80723298647816	1.3910811	-1.497633	-0.96789694
80723306948597	1.6618731	-0.70203304	-1.2848402
80723315249378	1.6808214	-0.15172672	-1.0778537
80723323550160	1.6082674	0.05691433	-0.4233595
80723331850941	1.580066	0.015060425	0.2959993
80723340151722	1.5706445	-0.2058096	0.87763536
80723348452503	1.6292994	-0.479599	1.1091855
80723356753285	1.606082	-0.6262779	1.1057887
80723365054066	1.4982815	-0.790535	0.9101014
80723373354847	1.2705796	-0.9349232	0.5748004
80723381655628	1.1868051	-0.9295492	0.54791534
80723389956410	0.37414065	-0.52677727	-0.12921894
80723398257191	0.066157565	-0.04467392	-0.19706452
80723406557972	0.18703513	0.2895174	-0.1755619
80723414858753	0.32025725	0.37461662	-0.22003317
80723423159535	0.2815065	0.37594318	-0.22723472
80723431460316	0.09800741	0.31448078	-0.29723847
80723439761097	-0.8208355	0.38049316	0.0019518137
80723448061878	-0.9736854	0.10514927	0.04502213
80723456362660	-1.1017027	-0.1320486	0.10858047
80723464663441	-1.1604722	-0.29732895	0.214867
80723472964222	-1.2003946	-0.2868681	0.17187977
80723481265003	-1.2598743	-0.46736622	0.19794965
80723489565785	-1.5302093	-1.1917715	-0.21686113
80723497866566	-1.998635	-1.2911806	-0.32218957
80723506167347	-2.436998	-1.2715435	-0.35632813
80723514468128	-2.5685003	-1.3003168	-0.28193212
80723522768910	-2.4063687	-1.4202776	-0.061885357
80723531069691	-2.4278288	-1.4104671	-0.08513665
80723539370472	-2.330947	-1.536664	0.68645954
80723547671253	-2.618676	-1.418848	1.1025829
80723555972035	-2.8222685	-1.2278471	1.2229376
80723564272816	-2.5222867	-1.0681581	1.0672679
80723572573597	-2.5166125	-1.0511017	1.0022237
80723580874378	-1.6990505	-0.92563534	0.73242164
80723589175160	-0.8146918	-0.32288647	0.810086
80723597475941	-0.5580392	-0.14113998	0.9915149
80723605776722	0.11158478	-0.16121769	0.55548096
80723614077503	0.09061694	-0.14035988	0.48665786
80723622378285	0.94000316	-0.26324463	-0.58039236
80723630679066	1.5851738	-0.35993385	-1.8447711
80723638979847	0.57497877	-0.25588894	-2.0030334
80723647280628	0.14029926	-0.5661936	-1.3945129
80723655581410	-0.00937742	-0.8879461	-0.74164486
80723663882191	-0.021811962	-0.88018227	-0.75565743
80723672182972	-0.08294779	-1.0328846	-0.1378107
80723680483753	-0.4690218	-0.7395954	0.73968387
80723688784535	-0.63415414	-0.5060568	0.91340446
80723697085316	-0.7112672	-0.26071644	0.8277757
80723705386097	-0.7693204	0.00906086	0.6197512
80723713686878	-0.79008317	0.020690918	0.5900724
80723721987660	-0.6251712	0.08448315	0.47936344
80723730288441	-0.6487088	0.09251404	0.4621861
80723738589222	-1.368615	0.53905773	0.67071724
80723746890003	-2.1641135	0.5491972	0.61823416
80723755190785	-2.9906192	0.42269802	0.73316
80723763491566	-3.3337078	0.22262287	0.86387014
80723771792347	-3.335361	0.2263813	0.85269976
80723780093128	-2.9598277	0.03415966	0.7966292
80723788393910	-2.3169205	0.024104118	0.45617867
80723796694691	-2.2841105	0.29342937	0.33576584
80723804995472	-2.4059577	0.59115314	0.28879905
80723813296253	-2.5103734	0.9465742	0.27774143
80723821597035	-2.5238218	1.3265028	0.26227808
80723829897816	-2.4433494	1.654355	0.26002955
80723838198597	-2.2121744	2.0131273	0.5023308
80723846499378	-2.221014	2.007533	0.51060057
80723854800160	-2.080545	1.7904701	0.6949463
80723863100941	-2.0758848	1.2025118	0.8981204
80723871401722	-1.969824	0.36950397	1.0669045
80723879702503	-1.6061728	-0.44261074	1.1619802
80723888003285	-0.9991567	-1.069643	1.1108811
80723896304066	-0.948822	-1.0923872	1.1677704
80723904604847	-0.65297675	-0.9059572	1.0263658
80723912905628	-0.25352347	-0.54328823	0.80521894
80723921206410	0.22085524	0.06804371	0.58451176
80723929507191	0.75595194	1.0238361	0.4588735
80723937807972	1.3834412	2.2584772	0.504755
80723946108753	1.8501678	3.7182484	0.35235405
80723954409535	2.3574502	4.549118	0.008533001
80723962710316	3.3790727	4.666954	-0.6962755
80723971011097	4.7348013	4.1475735	-1.6149551
80723979311878	5.9811583	3.0911732	-2.464406
80723987612660	6.03882	3.0618935	-2.3168766
80723995913441	4.455061	0.7281084	-2.1318886
80724004214222	2.590887	-0.015634537	-1.3202446
80724012515003	1.5122204	-0.78987694	-0.5799719
80724020815785	1.0628835	-1.4712715	0.11014569
80724029116566	0.7561259	-1.8248596	0.7159972
80724037417347	0.3178526	-1.6712008	0.98660326
80724045718128	-0.48437533	-1.283741	0.7552744
80724054018910	-1.2847311	-1.026268	0.13928986
80724062319691	-1.8237276	-0.8784838	-0.5317384
80724070620472	-1.8486125	-0.80714417	-0.94027793
80724078921253	-1.7761526	-0.7994909	-0.94789803
80724087222035	0.4881143	-0.7104006	-0.56720674
80724095522816	1.6296015	-0.7704067	-0.5634203
80724103823597	2.07362	-0.8720226	-0.9485996
80724112124378	2.2040935	-0.9680157	-1.5119338
80724120425160	2.0768945	-0.9778738	-1.9623682
80724128725941	1.722028	-0.91947937	-2.0885916
80724137026722	1.7700851	-0.9167366	-2.0439558
80724145327503	1.3181107	-1.7031231	-1.8213772
80724153628285	1.2856342	-2.0491495	-1.7498956
80724161929066	1.2274815	-1.8517618	-1.5206928
80724170229847	1.122407	-1.4490118	-1.1585081
80724178530628	1.138806	-1.4470673	-1.119667
80724186831410	0.64253163	-1.2521877	-0.59536505
80724195132191	0.32790363	-1.3401489	-0.52650595
80724203432972	0.16463089	-1.4171267	-0.51127476
80724211733753	-0.003468275	-1.4279537	-0.5296664
80724220034535	-0.20237577	-1.4145851	-0.5700533
80724228335316	-0.20254016	-1.4143476	-0.5351471
80724236636097	-0.6155356	-1.4052744	-0.7101145
80724244936878	-0.94319415	-1.3203421	-0.98651016
80724253237660	-1.1937447	-1.1843395	-1.2529948
80724261538441	-1.334249	-1.0461655	-1.3929951
80724269839222	-1.4831789	-0.969367	-1.357005
80724278140003	-1.4691035	-0.96820927	-1.302845
80724286440785	-2.0282488	-0.87728405	-0.6428056
80724294741566	-2.0564432	-0.47824287	-0.36393428
80724303042347	-1.9119644	0.09261227	-0.37540352
80724311343128	-1.8338931	0.51392555	-0.6372044
80724319643910	-1.8567456	0.7759428	-1.0575483
80724327944691	-1.8361012	0.7764368	-1.0397943
80724336245472	-1.5756763	0.89781284	-1.8602227
80724344546253	-1.2346426	0.5685377	-1.9964627
80724352847035	-1.1422986	0.41457558	-1.9318168
80724361147816	-1.0467556	0.29938793	-1.7250575
80724369448597	-1.0328217	0.30024433	-1.6949772
80724377749378	-0.7237141	0.10560799	-1.373574
80724386050160	0.012266278	-0.7985611	-0.71802235
80724394350941	-0.10479355	-1.539958	-0.4532091
80724402651722	-0.28680158	-2.0928974	-0.2831452
80724410952503	-0.4561262	-2.3171473	-0.12119186
80724419253285	-0.4511875	-2.3116322	-0.11602533
80724427554066	-0.5244757	-2.1564045	0.10346319
80724435854847	-0.059189796	-0.41333008	1.2210261
80724444155628	0.43300533	2.2948885	2.127799
80724452456410	0.89959085	6.53335	2.4397655
80724460757191	1.8620251	11.5269575	2.4755867
80724469057972	3.239245	15.487744	2.3716648
80724477358753	3.1482205	15.446067	2.289714
80724485659535	1.8332784	8.935416	-1.3081229
80724493960316	0.1541127	2.25428	-0.844501
80724502261097	0.33127606	-2.2746353	-0.310143
80724510561878	1.0836673	-5.008112	-0.18616581
80724518862660	1.8817619	-6.10279	-0.6589286
80724527163441	1.908852	-6.082246	-0.7182605
80724535464222	3.4728703	-3.5653038	-1.2783636
80724543765003	3.4708393	-3.5542698	-1.311554
80724552065785	3.3545728	-1.3650799	-0.32537198
80724560366566	3.3109853	-1.3632488	-0.3563614
80724568667347	2.7581983	-0.93351173	0.17726547
80724576968128	2.3233147	-0.6303816	0.96701175
80724585268910	2.502187	-0.32676888	1.9772539
80724593569691	3.2718813	-0.14055634	2.8514566
80724601870472	3.6883845	-0.20262718	3.0204465
80724610171253	3.23039	-0.24008656	2.4215524
80724618472035	2.267342	-0.19178867	1.4405984
80724626772816	1.1831285	-0.04443741	0.45228875
80724635073597	1.1158907	-0.04901123	0.47684777
80724643374378	-0.772435	0.3236723	-0.193941
80724651675160	-1.1468731	0.05109787	0.057016134
80724659975941	-1.3092519	-0.38824272	0.22553456
80724668276722	-1.4774688	-0.8508377	0.24416852
80724676577503	-1.7012452	-1.2369595	0.18844283
80724684878285	-1.9023832	-1.5047197	0.20830464
80724693179066	-2.0269415	-1.7905178	0.34027123
80724701479847	-2.0163586	-2.1361217	0.39190793
80724709780628	-2.1301608	-2.2040777	0.55252993
80724718081410	-2.4639163	-2.0312195	0.73009586
80724726382191	-3.0131576	-1.6925459	0.87452483
80724734682972	-3.6868205	-1.2537022	0.99778545
80724742983753	-4.163005	-0.86809826	1.067074
80724751284535	-3.4626708	-0.9110899	1.085175
80724759585316	-2.604861	-1.0395088	1.2629817
80724767886097	-1.777502	-1.121995	1.3619194
80724776186878	-0.89130026	-1.0778675	0.93643236
80724784487660	-0.93328345	-1.0429134	0.82244754
80724792788441	0.9749798	-0.62506104	-1.9580362
80724801089222	1.0249708	-0.2606039	-2.6425705
80724809390003	0.7779995	-0.08794403	-2.6636877
80724817690785	0.5124291	-0.1542244	-2.2011852
80724825991566	0.36438608	-0.36767864	-1.4293287
80724834292347	0.33362222	-0.3637743	-1.4276555
80724842593128	0.23236722	-0.40300465	0.33344698
80724850893910	0.2885185	-0.20845127	1.1647749
80724859194691	0.23252845	6.67572E-4	1.4509652
80724867495472	0.07485062	0.32691002	1.3466909
80724875796253	-0.14860219	0.7403698	1.0316668
80724884097035	-0.42290735	1.0556507	0.5614612
80724892397816	-0.7209462	1.0676174	-0.06496143
80724900698597	-1.1986804	0.9461231	-0.3296821
80724908999378	-1.7741258	0.6881056	-0.24531054
80724917300160	-2.189389	0.44079018	0.18929839
80724925600941	-2.2968888	0.27702045	0.89371586
80724933901722	-2.2801142	0.27837467	0.88192105
80724942202503	-1.5893736	-0.059161186	2.0831764
80724950503285	-1.163847	-0.23317528	1.7104833
80724958804066	-1.0834303	-0.1194725	0.9053514
80724967104847	-1.2115972	0.2004404	0.17297053
80724975405628	-1.4150053	0.6129856	-0.18186212
80724983706410	-1.4324565	0.6231108	-0.21009398
80724992007191	-1.7985083	1.3565578	-0.3194263
80725000307972	-2.129547	1.7464724	-0.6497803
80725008608753	-2.508912	2.3131752	-0.95092964
80725016909535	-2.4317706	2.716034	-0.8390634
80725025210316	-1.7312253	2.6894026	-0.12884021
80725033511097	-1.7538022	2.6785955	-0.10490799
80725041811878	-0.65065503	1.8003902	2.0317001
80725050112660	-0.55835855	1.2856541	2.6137743
80725058413441	-0.36787397	0.7321167	2.7167134
80725066714222	-0.023989499	0.24054909	2.4660547
80725075015003	0.4314041	-0.117176056	2.0322978
80725083315785	0.51009655	-0.15125561	2.1162174
80725091616566	1.3527526	-0.11954117	1.0625987
80725099917347	1.8409078	0.36335087	0.68950486
80725108218128	2.06027	1.1851912	0.29959464
80725116518910	2.2860103	2.1436195	-0.30017114
80725124819691	2.394746	2.0976067	-0.13322043
80725133120472	3.576453	3.0642185	-1.7135541
80725141421253	4.380831	2.5812569	-2.6124973
80725149722035	3.9200954	2.1737013	-2.9261622
80725158022816	2.6196287	1.7190695	-2.4725661
80725166323597	1.425749	1.1034231	-1.4841415
80725174624378	0.81991285	0.37973976	-0.3275038
80725182925160	0.8734084	0.3761711	-0.3007139
80725191225941	-0.012855291	-0.5857115	0.953043
80725199526722	-0.7334713	-0.9200735	0.9789741
80725207827503	-1.4105022	-1.1968746	0.7997135
80725216128285	-1.8286933	-1.3246603	0.48825586
80725224429066	-1.7154366	-1.2663317	0.1517204
80725232729847	-1.6068287	-1.2624588	0.19644415
80725241030628	0.43586576	-1.1274433	-0.09475362
80725249331410	1.2446749	-1.2300472	-0.08368182
80725257632191	1.7668364	-1.434102	0.025063992
80725265932972	2.1148348	-1.6821337	-0.065591276
80725274233753	2.202104	-1.6709089	-0.034462094
80725282534535	2.6259665	-2.1143322	-1.2441024
80725290835316	2.5711904	-2.2880201	-1.6637597
80725299136097	2.390719	-2.5652456	-1.7304633
80725307436878	2.2810884	-2.9214869	-1.6033089
80725315737660	2.3366663	-2.9086342	-1.5672004
80725324038441	2.2629542	-3.2292747	-1.3044364
80725332339222	2.297966	-3.2177477	-1.2775006
80725340640003	1.7379774	-3.3802958	-0.4288702
80725348940785	1.2565618	-3.4691916	-0.015946686
80725357241566	1.1232401	-3.3495636	0.18722379
80725365542347	0.8862871	-3.155591	0.33199447
80725373843128	0.48930252	-2.95407	0.50485706
80725382143910	0.035797715	-2.7535648	0.6924079
80725390444691	0.020660639	-2.7529268	0.7320509
80725398745472	-0.7801087	-2.4396544	0.58209586
80725407046253	-0.9740833	-2.414259	0.3970926
80725415347035	-1.0706229	-2.30169	0.23321778
80725423647816	-1.1714126	-2.0350828	0.1002776
80725431948597	-1.3560236	-1.5718021	0.018852293
80725440249378	-1.6100049	-0.8046198	0.068572074
80725448550160	-1.9477112	0.59211826	0.18387789
80725456850941	-2.5460887	2.3734646	0.21903566
80725465151722	-3.4138663	3.9425497	0.009595871
80725473452503	-4.585879	4.8094244	-0.7297503
80725481753285	-6.032788	4.6990166	-2.1535668
80725490054066	-7.438441	3.721325	-3.8854141
80725498354847	-6.3128376	2.4528303	-4.579171
80725506655628	-3.4956417	1.4492168	-4.216842
80725514956410	-1.1881715	0.54704094	-3.162118
80725523257191	-0.023339987	-0.2502079	-1.7435455
80725531557972	0.39465928	-0.8126545	-0.17763987
80725539858753	0.4737171	-0.9899645	1.2982588
80725548159535	0.5369446	-0.6791048	2.0726762
80725556460316	0.5992935	-0.2802372	2.2672987
80725564761097	0.59456956	0.28537464	2.1000204
80725573061878	0.57933474	0.28512573	2.0527265
80725581362660	0.4983722	2.4066725	1.2875412
80725589663441	0.40349984	4.3633747	0.67575264
80725597964222	0.88987434	6.6209793	0.2489785
80725606265003	2.2530074	8.645727	0.36481488
80725614565785	5.4940147	9.925793	2.6188602
80725622866566	5.349751	9.892623	2.550394
80725631167347	10.824756	4.3893604	-1.5878718
80725639468128	5.9317946	0.55171967	-3.956451
80725647768910	2.6141558	-1.6536856	-3.8443446
80725656069691	1.0219991	-3.2255602	-2.4606686
80725664370472	1.0019355	-3.2242565	-2.4195957
80725672671253	0.43371785	-4.586195	-0.55394554
80725680972035	0.27328897	-4.238348	-0.24636525
80725689272816	-0.12476182	-3.2031612	-0.38737065
80725697573597	-0.055137157	-2.294777	-0.5799453
80725705874378	0.1676209	-1.5576096	-0.57736087
80725714175160	0.40056658	-0.97534084	-0.24919784
80725722475941	0.7765068	-0.48800468	0.402902
80725730776722	1.476839	-0.004860878	1.2933022
80725739077503	2.1880605	0.6509905	2.2828064
80725747378285	2.6914692	1.0924978	3.0175824
80725755679066	2.9870684	1.1234589	3.2404275
80725763979847	2.990542	0.8021078	2.731246
80725772280628	2.938424	0.80593014	2.683472
80725780581410	1.9355727	-0.2300129	0.19810295
80725788882191	1.3038273	-0.5411072	-0.7075378
80725797182972	0.61704737	-0.9927273	-1.1445733
80725805483753	0.052477732	-1.6137991	-1.2818855
80725813784535	0.021424651	-1.6119986	-1.270969
80725822085316	-0.42058736	-2.118207	-1.1489884
80725830386097	-0.7594655	-2.4498806	-0.89812195
80725838686878	-1.3698109	-2.906724	-0.009230614
80725846987660	-1.7196193	-2.6086464	0.8908063
80725855288441	-1.7441386	-2.5922356	0.82732403
80725863589222	-2.382247	-2.0226974	1.7790266
80725871890003	-3.5352144	-1.0625591	2.9945257
80725880190785	-3.541358	-1.0372858	2.876741
80725888491566	-2.2718241	-1.2012901	2.267777
80725896792347	-1.7960694	-1.082902	1.5913391
80725905093128	-1.26464	-1.0494566	0.76934195
80725913393910	-0.5043605	-1.0694332	-0.34502363
80725921694691	-0.55641866	-1.0431585	-0.42810774
80725929995472	0.30147147	-1.0884504	-1.7378502
80725938296253	0.46444228	-1.026041	-3.0956228
80725946597035	-0.26884434	-0.9043455	-2.3993864
80725954897816	-0.6383963	-0.918313	-1.6020129
80725963198597	-0.6821508	-0.91076946	-1.6083381
80725971499378	-0.79979223	-0.9205227	-0.7205622
80725979800160	-0.8082145	-0.8771925	0.16622686
80725988100941	-0.7152738	-0.71662617	1.1549444
80725996401722	-0.60808426	-0.42543602	1.0693259
80726004702503	-0.622117	-0.41423035	1.0370562
80726013003285	-0.6773249	-0.12314224	0.60390997
80726021304066	-0.7997188	0.24080372	0.013103008
80726029604847	-0.8677156	0.72378063	-0.41178155
80726037905628	-0.7798155	1.6573229	0.04157114
80726046206410	-0.9353418	1.5475225	0.3673389
80726054507191	-1.2799283	1.2671223	0.5410936
80726062807972	-1.2787085	1.2699242	0.52313423
80726071108753	-1.5857561	0.9467802	0.75981545
80726079409535	-1.6170408	0.6700487	1.1663237
80726087710316	-1.2380228	0.4742489	1.5734363
80726096011097	-0.6459525	0.21602058	1.3570373
80726104311878	-0.7630133	0.3384323	0.74995923
80726112612660	-1.1825699	0.643589	0.44893265
80726120913441	-1.5080135	0.8894758	0.48976278
80726129214222	-1.7734376	0.9362383	0.39801383
80726137515003	-2.3954206	0.7964144	-0.51857066
80726145815785	-3.0487728	0.56809807	-1.7301123
80726154116566	-3.3994079	0.7003393	-2.6360962
80726162417347	-3.051804	0.88872623	-2.8411787
80726170718128	-2.041318	0.87280655	-2.3387287
80726179018910	-0.76373017	0.4980421	-1.3468416
80726187319691	-0.06357741	-0.20979977	-0.34177327
80726195620472	-0.19542879	-0.9445448	0.5505252
80726203921253	-0.65627533	-1.2716169	1.3175492
80726212222035	-0.4911921	-1.5077782	1.828644
80726220522816	-0.16972166	-1.263813	2.1148965
80726228823597	-0.09119004	-0.26206207	2.2086487
80726237124378	0.010669649	1.3971148	2.0386934
80726245425160	0.8398671	3.3836622	1.2871628
80726253725941	1.6706771	5.6145506	0.3660667
80726262026722	2.6037483	7.510765	-0.61814475
80726270327503	3.8427372	8.737945	-2.0942776
80726278628285	5.311137	9.100895	-3.7098117
80726286929066	6.468893	8.544833	-3.7967117
80726295229847	6.7351165	6.3836355	-1.357718
80726303530628	4.7814503	3.586259	0.102585435
80726311831410	3.098503	1.0115423	0.6573927
80726320132191	1.8837867	-0.97502327	0.6570516
80726328432972	1.9657408	-0.9614897	0.62889296
80726336733753	-0.3824153	-2.5824528	0.07073438
80726345034535	-1.3222791	-2.5668316	-0.3969903
80726353335316	-1.7646601	-2.5580711	-0.77070487
80726361636097	-1.7624971	-2.5728674	-0.879984
80726369936878	-1.2853734	-2.38902	-0.7736273
80726378237660	-1.1851983	-2.3619928	-0.8165554
80726386538441	0.6733675	-1.591898	-0.49144685
80726394839222	1.3537964	-1.6272202	-0.6568192
80726403140003	1.9102924	-1.7243471	-0.8150908
80726411440785	2.2604945	-1.9387264	-1.1174523
80726419741566	2.309139	-1.9272718	-1.08537
80726428042347	2.4703872	-2.322815	-1.7783195
80726436343128	2.4895644	-2.3191814	-1.7207268
80726444643910	2.7931306	-2.7767296	-1.7283951
80726452944691	2.7212658	-3.0515375	-1.3197203
80726461245472	2.5109549	-3.1540709	-0.8474111
80726469546253	2.3125594	-3.165472	-0.4036746
80726477847035	2.2816753	-3.1691732	-0.3493243
80726486147816	2.32981	-3.3492765	0.16521502
80726494448597	2.3730996	-3.6516533	0.17822307
80726502749378	2.2997863	-3.9451895	0.1976924
80726511050160	2.0671315	-4.054014	0.112398565
80726519350941	2.0295315	-4.0555925	0.17432082
80726527651722	1.6116687	-3.8664427	-0.047997415
80726535952503	0.46658576	-2.721118	-0.74034345
80726544253285	0.060668588	-1.9743195	-0.9629544
80726552554066	-0.2952175	-1.0849667	-1.0158141
80726560854847	-0.6110307	-0.16146374	-1.0167692
80726569155628	-0.6659472	-0.17019844	-1.0255332
80726577456410	-0.96541584	0.83524036	-0.98034424
80726585757191	-1.2889682	2.036891	-0.7190412
80726594057972	-2.1304097	4.6102934	1.0611844
80726602358753	-2.7440443	4.867936	2.17336
80726610659535	-3.908051	4.0830517	2.4121413
80726618960316	-3.9264073	4.0783043	2.3123565
80726627261097	-6.606945	1.0324984	-1.2327307
80726635561878	-7.2790117	-0.03258133	-3.9818335
80726643862660	-7.6071086	-0.6117897	-5.276485
80726652163441	-7.6211643	-0.8608284	-4.555039
80726660464222	-6.6499996	-0.9087982	-2.782765
80726668765003	-4.607733	-0.79402256	-0.8852231
80726677065785	-4.515927	-0.7761421	-0.89448565
80726685366566	-1.6291672	0.20658588	1.3100233
80726693667347	-1.9880815	1.3608751	1.4042773
80726701968128	-2.4236562	3.3028593	1.1424942
80726710268910	-2.4616332	6.228444	0.6973061
80726718569691	-2.472661	6.213724	0.68167424
80726726870472	-1.530446	9.710422	0.56800103
80726735171253	6.6596875	14.244081	2.3113432
80726743472035	11.485111	9.369772	-0.3510511
80726751772816	12.038563	3.8221207	-0.8136021
80726760073597	11.842885	3.7955837	-0.86181915
80726768374378	9.988274	-0.8770504	-0.44068778
80726776675160	7.554967	-3.9692526	-0.19336617
80726784975941	4.442742	-6.3414316	-0.86864614
80726793276722	3.1935294	-6.104744	-1.0637228
80726801577503	1.9304467	-5.062771	-1.1422633
80726809878285	1.3782544	-3.958723	-1.260166
80726818179066	1.6571333	-3.149681	-1.2725568
80726826479847	1.6585739	-3.13968	-1.2885113
80726834780628	2.9056118	-1.8565512	-0.049331784
80726843081410	2.862599	-1.8525267	-0.06839657
80726851382191	2.8925323	-1.0107412	0.70925236
80726859682972	3.0671923	-0.0440073	1.4591265
80726867983753	3.510839	0.99565315	2.0093813
80726876284535	3.8859382	1.8061104	2.0930228
80726884585316	3.7104855	1.9896679	1.5335921
80726892886097	3.1266186	1.4132004	0.6258682
80726901186878	2.6917212	0.77706623	-0.062126637
80726909487660	2.2272692	0.2015047	-0.3592087
80726917788441	1.7000527	-0.38607693	-0.5107955
80726926089222	1.0885736	-1.0004177	-0.600927
80726934390003	0.37954974	-1.5759354	-0.6062951
80726942690785	-0.43250763	-1.9483566	-0.584754
80726950991566	-0.9944275	-2.522173	-0.46661282
80726959292347	-1.6279383	-2.7439194	-0.08111441
80726967593128	-2.2618296	-2.6867313	0.5745133
80726975893910	-2.9131906	-2.419736	1.3831915
80726984194691	-3.6713078	-1.9837523	2.1201012
80726992495472	-4.5752	-1.4435501	2.4391158
80727000796253	-4.4415703	-1.1135035	2.1926138
80727009097035	-3.2249086	-0.90702057	1.7033389
80727017397816	-1.940758	-0.670331	1.361321
80727025698597	-1.0249043	-0.45330238	1.3094294
80727033999378	-1.0924208	-0.41261864	1.178714
80727042300160	0.36633736	-0.26687908	-0.9711571
80727050600941	0.61042666	-0.07153988	-3.9753644
80727058901722	0.32867825	0.3367443	-4.7876577
80727067202503	-0.123491615	0.578949	-4.0282207
80727075503285	-0.4700051	0.46566772	-2.6714892
80727083804066	-0.517356	0.4620676	-2.6495895
80727092104847	-1.0604825	-0.36275673	-0.28505278
80727100405628	-1.4646628	-0.5840883	0.6142826
80727108706410	-1.8140383	-0.7414055	1.1405828
80727117007191	-2.0855918	-0.8275871	1.0631242
80727125307972	-2.2373955	-0.71173	0.6545336
80727133608753	-2.2457576	-0.70619106	0.644222
80727141909535	-1.9336462	0.2392435	0.7816596
80727150210316	-1.5852692	0.7117977	1.1505742
80727158511097	-1.6592839	0.96916676	1.1996932
80727166811878	-2.0311985	1.0635233	1.017518
80727175112660	-2.0211456	1.0536385	1.0364599
80727183413441	-2.0043416	0.52068233	0.5615654
80727191714222	-1.5502679	-0.055026054	0.38197374
80727200015003	-1.1491845	-0.5590172	0.24945116
80727208315785	-0.75033814	-0.8510828	0.114159346
80727216616566	-0.57827157	-0.8350296	-0.057293653
80727224917347	-0.71999717	-0.4921131	-0.25477672
80727233218128	-0.70446634	-0.489501	-0.26150894
80727241518910	-0.97984165	1.0069456	-0.7740526
80727249819691	-1.0100279	1.8679094	-1.0031028
80727258120472	-1.0031344	2.3975372	-1.0958226
80727266421253	-0.7556119	2.429284	-0.8164499
80727274722035	-0.7646888	2.4300852	-0.83021426
80727283022816	-0.3838542	1.9578896	-0.021788359
80727291323597	-0.87698966	0.060534477	1.4205515
80727299624378	-1.1793575	-0.83696175	0.8573203
80727307925160	-1.0039053	-1.3912868	0.15927243
80727316225941	-0.6768646	-1.6090631	-0.4667101
80727324526722	-0.6016699	-1.6346731	-0.3891616
80727332827503	-0.43728602	-0.4712696	-0.8583238
80727341128285	-0.44780982	1.0884724	-0.45047283
80727349429066	-0.1976887	3.2277918	0.061034918
80727357729847	-0.2989559	5.8322506	-0.14545226
80727366030628	-0.26216152	8.484088	-0.6585109
80727374331410	0.62805223	10.508534	-1.0259824
80727382632191	2.9030523	11.05324	-1.1977526
80727390932972	6.548444	8.623844	-1.5667721
80727399233753	8.982786	5.670089	-1.6428674
80727407534535	8.50037	3.1157818	-1.1392559
80727415835316	6.2189584	1.1713362	-0.25279534
80727424136097	3.836522	-0.3019514	0.77491474
80727432436878	3.8731523	-0.3039322	0.8305572
80727440737660	1.0836715	-2.2644825	1.651085
80727449038441	0.0999645	-2.753602	1.0941561
80727457339222	-0.4622339	-3.092249	0.39195955
80727465640003	-0.64777493	-3.3409595	-0.3842373
80727473940785	-0.53262126	-3.3197355	-0.3577131
80727482241566	-0.45567298	-3.4636526	-1.1510246
80727490542347	0.086548924	-3.02244	-2.1675289
80727498843128	0.85401154	-2.710825	-1.9738481
80727507143910	1.4527068	-2.2060623	-1.6857791
80727515444691	1.5015978	-2.1930552	-1.66418
80727523745472	2.005513	-1.8070717	-1.5580013
80727532046253	2.6375794	-1.9510794	-1.7905955
80727540347035	2.6190128	-2.3807135	-1.7177547
80727548647816	2.3659687	-2.7988062	-1.4450285
80727556948597	2.113021	-3.128397	-1.0629708
80727565249378	1.8778095	-3.3549643	-0.60151076
80727573550160	1.6738833	-3.4741077	-0.121499896
80727581850941	1.6461632	-3.4731731	-0.10316908
80727590151722	1.5660084	-3.488162	0.24743754
80727598452503	1.428161	-3.4813795	0.4954707
80727606753285	1.346308	-3.5526218	0.584392
80727615054066	1.2363799	-3.5481253	0.5164373
80727623354847	1.0242496	-3.3883877	0.30809522
80727631655628	0.6793963	-3.090394	-0.010594845
80727639956410	0.2467984	-2.7831907	-0.41283143
80727648257191	-0.21376216	-2.3499737	-0.7033242
80727656557972	-0.6922095	-1.638278	-0.977558
80727664858753	-1.0929716	-0.83380127	-1.2249217
80727673159535	-1.4261876	0.28123283	-1.2448852
80727681460316	-1.6122658	1.9155521	-0.82244515
80727689761097	-1.3719823	3.9847603	0.16445807
80727698061878	-1.6680635	5.713455	1.8160474
80727706362660	-2.6358433	5.9513893	3.2163844
80727714663441	-4.515009	4.5643177	2.8576837
80727722964222	-6.2536573	2.3122263	0.7941037
80727731265003	-6.9355626	0.20158386	-2.2290764
80727739565785	-6.6732726	-1.8935537	-6.1701207
80727747866566	-6.569171	-1.8734217	-6.193636
80727756167347	-4.0803328	-2.257516	-4.8500705
80727764468128	-1.7723393	-2.4422045	-2.8665102
80727772768910	-0.4764253	-2.4250574	-0.9443779
80727781069691	-0.3167658	-1.8188076	1.7525743
80727789370472	-0.3050549	-1.8081894	1.694056
80727797671253	-0.40770686	-1.4366207	1.8233315
80727805972035	-0.68283594	-0.53297997	1.3754971
80727814272816	-1.1730717	1.3256655	0.79410756
80727822573597	-1.6988024	4.17951	0.2916541
80727830874378	-1.8808317	7.7588663	-0.03847897
80727839175160	-1.9489232	7.738744	-0.10224247
80727847475941	2.4873066	13.894551	1.5260884
80727855776722	8.610186	13.120805	2.3717422
80727864077503	12.940753	9.116256	1.1568602
80727872378285	13.583593	3.7475271	-0.47806144
80727880679066	10.837617	-0.61126137	-0.82729876
80727888979847	7.062351	-3.4869194	-2.0900397
80727897280628	4.422756	-4.900628	-3.3439243
80727905581410	2.3261697	-5.6364174	-3.5072165
80727913882191	0.7402162	-5.558606	-2.7661304
80727922182972	-0.2533719	-4.7991467	-1.6646913
80727930483753	0.41974342	-2.5417452	0.002662301
80727938784535	0.48290977	-2.5331163	-7.3313713E-4
80727947085316	1.4697063	-1.5937061	0.6938373
80727955386097	2.132468	-0.6732435	1.2092646
80727963686878	2.5513592	0.08256245	1.3614191
80727971987660	3.0710843	0.710783	1.1692197
80727980288441	3.8123734	1.2712069	0.7570678
80727988589222	3.777098	1.5129204	0.15738678
80727996890003	3.2556088	1.150424	-0.18787658
80728005190785	2.4733508	0.51978683	-0.34741366
80728013491566	1.4120808	-0.19326973	-0.33799195
80728021792347	0.25062844	-0.8484173	-0.19595599
80728030093128	0.22002725	-0.84544754	-0.19987035
80728038393910	-1.3553606	-2.0112562	0.03403318
80728046694691	-1.8031071	-2.4370527	0.42819202
80728054995472	-2.5002398	-2.5523663	1.243291
80728063296253	-3.3575394	-2.4971619	2.2240016
80728071597035	-4.260886	-2.3517237	3.1616259
80728079897816	-4.254478	-2.3251362	3.0600305
80728088198597	-5.2286744	-1.4262447	3.226069
80728096499378	-4.4098377	-0.9233761	2.0469213
80728104800160	-3.4634128	-0.65192413	0.9851165
80728113100941	-2.5529	-0.56109905	0.0512774
80728121401722	-1.8593827	-0.48612118	-0.34272003
80728129702503	-1.4138787	-0.30993938	0.038593054
80728138003285	-0.49743575	-0.2921543	-0.61018395
80728146304066	0.98583174	-0.7606354	-4.429983
80728154604847	1.5323192	-0.94344044	-5.332175
80728162905628	0.9573563	-0.8684702	-4.4875
80728171206410	-0.14375466	-0.7435913	-3.0436065
80728179507191	-0.21140403	-0.7388525	-3.0333204
80728187807972	-0.7778359	-1.0961723	-0.7333176
80728196108753	-0.90770936	-1.044774	-0.0260396
80728204409535	-0.9627932	-0.84684753	0.24822736
80728212710316	-0.9327349	-0.48071194	0.34351063
80728221011097	-0.91421926	-0.47318935	0.32145977
80728229311878	-0.78668815	0.025177956	0.42617726
80728237612660	-0.082084656	0.8965101	0.8459234
80728245913441	0.07114911	1.2947912	0.7722659
80728254214222	0.15154779	1.5269184	0.6519778
80728262515003	0.021000266	1.7022276	0.5704744
80728270815785	-0.24598092	1.75173	0.4545095
80728279116566	-0.2317591	1.7483234	0.45073986
80728287417347	0.2243818	0.6373539	-0.18912554
80728295718128	0.12763533	0.35904503	-0.24329472
80728304018910	-0.38913321	0.39147282	-0.34535336
80728312319691	-1.0592847	0.6001196	-0.38017273
80728320620472	-1.5961711	0.8381367	-0.22639585
80728328921253	-1.8341572	0.99512196	0.12364721
80728337222035	-2.1365316	1.1121387	0.29846692
80728345522816	-2.1624882	1.1307125	0.25117564
80728353823597	-2.5279918	1.3867416	0.14805126
80728362124378	-2.5607102	2.0031433	-0.14087033
80728370425160	-2.5872586	2.0066566	-0.15297556
80728378725941	-2.1165285	2.049016	-0.002621889
80728387026722	-1.665171	1.8913946	0.43601775
80728395327503	-1.6289915	1.7523718	0.91645813
80728403628285	-1.7835151	1.6331749	1.1484957
80728411929066	-1.7990795	1.631855	1.1741543
80728420229847	-1.7384262	1.4160385	1.0027468
80728428530628	-1.5585165	0.88294125	0.70676756
80728436831410	-0.38271886	-0.13153362	0.15512443
80728445132191	0.21293864	-0.027057648	0.30254364
80728453432972	0.3226866	-0.070910454	0.41328096
80728461733753	0.9635378	0.35971737	0.56379986
80728470034535	1.7921268	0.8571243	0.66989064
80728478335316	2.6516783	1.4174242	0.6789062
80728486636097	3.0911047	3.3646917	-0.41678
80728494936878	3.4900236	3.9126234	-2.8746088
80728503237660	3.5624192	3.8737307	-2.7465298
80728511538441	4.2453465	4.2118807	-5.816571
80728519839222	4.935845	4.04012	-6.6408863
80728528140003	5.1411457	3.2819233	-4.563499
80728536440785	3.081781	1.5273676	-0.914853
80728544741566	3.1434758	1.5097075	-0.81836665
80728553042347	2.5333114	0.34977436	-0.028285623
80728561343128	2.3926086	-0.71912575	0.4435606
80728569643910	2.2180953	-1.4344273	0.83140814
80728577944691	1.6863089	-1.7079105	1.120981
80728586245472	0.84116846	-1.6662359	1.0531552
80728594546253	-0.2695194	-1.3566189	0.69319415
80728602847035	-1.1602308	-0.98927784	0.17236447
80728611147816	-1.2886891	-0.7697773	-0.3048886
80728619448597	-0.5897739	-0.68303394	-0.58843565
80728627749378	0.57829857	-0.6822109	-0.61741185
80728636050160	1.7025183	-1.0058813	-0.51651156
80728644350941	1.7465596	-0.99791336	-0.5094664
80728652651722	1.7328656	-1.4040995	-0.5666449
80728660952503	1.7134267	-1.9995909	-0.6280514
80728669253285	1.7365911	-2.7434778	-0.75585365
80728677554066	1.7393264	-3.4998865	-0.9470155
80728685854847	1.5077004	-4.462785	-1.2082903
80728694155628	1.5223362	-4.456049	-1.1660993
80728702456410	1.4068054	-4.6713724	-1.1343254
80728710757191	1.1667175	-4.6322002	-0.977376
80728719057972	0.8301321	-4.412489	-0.7564367
80728727358753	0.47694695	-4.1134872	-0.527099
80728735659535	0.4753852	-4.1077213	-0.50296307
80728743960316	0.080364704	-3.5985975	-0.17561269
80728752261097	-0.17514586	-3.2372017	-0.14005661
80728760561878	-0.6233525	-2.7602234	-0.11002445
80728768862660	-1.2509303	-2.2664175	-0.10486174
80728777163441	-1.9124361	-1.8224878	-0.18946087
80728785464222	-1.939895	-1.826273	-0.1623646
80728793765003	-2.2133632	-0.6352949	-0.8994115
80728802065785	-2.069881	0.31590366	-1.1699058
80728810366566	-2.0409834	1.6266251	-0.9623957
80728818667347	-2.0786507	3.198821	-0.21004802
80728826968128	-2.1147618	4.772641	0.98425585
80728835268910	-2.2494779	6.0111494	2.393455
80728843569691	-3.583552	5.7893553	1.3070228
80728851870472	-5.6621304	4.63408	-1.6701113
80728860171253	-7.2302713	3.2735195	-4.3830814
80728868472035	-7.536809	1.9412336	-5.6513524
80728876772816	-6.2385554	0.72524166	-5.219208
80728885073597	-3.3160493	-0.105070114	-3.7405066
80728893374378	-1.4266577	-0.5444212	-1.7853028
80728901675160	-0.24177063	-0.64777374	0.24794644
80728909975941	-0.21671784	-0.6439409	0.27500206
80728918276722	0.41412807	-0.21768188	1.7322133
80728926577503	0.62680554	0.65331554	2.3006413
80728934878285	0.50517654	2.9605703	1.271316
80728943179066	0.6516744	4.4431915	0.6480661
80728951479847	1.2596655	6.194318	0.26017177
80728959780628	1.2027556	6.1750565	0.2208435
80728968081410	2.9003572	8.085353	0.8957942
80728976382191	5.993871	8.779692	0.2776844
80728984682972	11.350246	2.375393	-5.68075
80728992983753	6.996771	-0.6870794	-2.7200627
80729001284535	6.836673	-0.6972723	-2.7445846
80729009585316	3.5289705	-2.425355	-0.69252527
80729017886097	1.3918996	-3.6214485	1.2035538
80729026186878	1.3848863	-3.6100817	1.1597373
80729034496854	1.3988805	-2.4604263	1.9159805
80729042797635	1.2178537	-1.9452057	1.5266414
80729051098416	1.1907177	-1.9375677	1.4778557
80729059399197	1.2944859	-1.756711	0.46073997
80729067699979	1.2302434	-1.7531719	0.4312141
80729076000760	1.1835563	-1.7844763	0.13081849
80729084301541	0.78390145	-1.5207167	0.012188077
80729092602322	0.97486556	-1.0720177	0.28791523
80729100903104	1.1526818	-0.37979698	0.528432
80729109203885	1.0752443	-0.38037586	0.5282028
80729117504666	1.218362	0.19232368	0.6477915
80729125805447	1.3855381	0.5598726	0.69289565
80729134106229	1.6138707	0.76883507	0.7487117
80729142407010	1.7496783	0.78162766	0.8165839
80729150707791	1.1586834	0.5692978	0.60961235
80729159008572	0.42620075	0.1764679	0.29223287
80729167309354	-0.21500641	-0.31598377	0.026737452
80729175610135	-0.78743786	-0.90278053	-0.1314869
80729183910916	-1.3996648	-1.5522642	-0.2098304
80729192211697	-1.9869225	-2.0278854	-0.2731266
80729200512479	-2.405454	-2.3242111	-0.24076605
80729208813260	-2.805368	-2.362955	0.0289191
80729217114041	-3.2242527	-2.215641	0.47821295
80729225414822	-3.7951546	-1.9163628	1.0485059
80729233715604	-3.809919	-1.8880386	0.9342457
80729242016385	-5.1899934	-1.169692	2.012325
80729250317166	-4.3274026	-1.1286716	1.9109852
80729258617947	-3.3110368	-0.8796921	1.6849627
80729266918729	-2.4345806	-0.5558672	1.8526368
80729275219510	-1.3389878	-0.3780756	1.584636
80729283520291	-1.3815348	-0.33747387	1.4596348
80729291821072	1.9742117	-0.5328541	-3.4091513
80729300121854	2.1123676	-0.26274014	-4.0708237
80729308422635	1.3368639	-0.09492016	-3.8214002
80729316723416	0.48829758	-0.1737194	-2.983251
80729325024197	0.45168924	-0.1735239	-2.9632592
80729333324979	-0.30639958	-1.032341	-0.7476337
80729341625760	-0.59009933	-1.4177189	0.031446695
80729349926541	-0.99937475	-1.5967922	0.51649594
80729358227322	-1.5476518	-1.433054	0.9081602
80729366528104	-1.9529955	-1.0786781	1.0136256
80729374828885	-1.967068	-1.0604753	0.9714768
80729383129666	-1.9384462	-0.6430769	0.79532576
80729391430447	-1.0176524	0.4084549	0.37383533
80729399731229	-1.0119323	1.2622709	0.32905293
80729408032010	-1.2167233	1.9050493	0.17445803
80729416332791	-1.394743	2.266842	-0.005619049
80729424633572	-1.4023354	2.264701	-0.008828163
80729432934354	-1.4055473	2.291276	-0.07556558
80729441235135	-1.2730571	1.394618	0.21373224
80729449535916	-0.997067	1.0073032	0.42653227
80729457836697	-0.8622837	0.70534325	0.5243051
80729466137479	-0.8542508	0.7140703	0.4928596
80729474438260	-1.1793507	0.6118431	0.25018716
80729482739041	-1.7992857	0.6846256	-0.11144757
80729491039822	-2.5653808	1.1218767	-0.20779228
80729499340604	-2.804859	1.2947121	-1.1812494
80729507641385	-2.8565347	1.4049749	-1.8679354
80729515942166	-2.855145	1.397748	-1.8511238
80729524242947	-2.4599283	1.4714012	-1.7924309
80729532543729	-1.167461	1.2880859	-0.025587559
80729540844510	-1.3212157	1.0094051	0.96243715
80729549145291	-1.4751544	0.6322069	1.6970792
80729557446072	-1.4191545	0.22570038	2.0127492
80729565746854	-1.3619863	0.20273876	2.05351
80729574047635	-0.7424631	-0.09630585	1.8135238
80729582348416	-0.64278233	-0.13427258	1.892828
80729590649197	0.32147223	0.7433605	1.6219039
80729598949979	0.82586765	1.3029308	1.2585626
80729607250760	1.2220788	2.0612955	1.1039429
80729615551541	1.7055529	2.98349	1.1883516
80729623852322	1.8295836	2.931261	1.3461902
80729632153104	2.4815485	3.880437	1.312526
80729640453885	4.2427926	5.070285	-0.867694
80729648754666	5.14356	4.9546385	-2.7342136
80729657055447	5.5622215	4.46541	-5.1239004
80729665356229	5.6090574	4.4385834	-5.008518
80729673657010	5.255018	3.5873623	-5.8081875
80729681957791	4.2360463	2.3470364	-4.1757164
80729690258572	1.86149	-1.0030813	-0.05875635
80729698559354	1.0982003	-1.8418837	0.2504667
80729706860135	1.1532011	-1.8325138	0.22804832
80729715160916	0.6450479	-1.992795	0.42429185
80729723461697	0.35640177	-1.8269806	0.56937945
80729731762479	-0.6599807	-1.2801409	0.8467332
80729740063260	-1.5370333	-0.79529476	1.0975245
80729748364041	-2.5195174	-0.3275442	1.0836517
80729756664822	-2.4228363	-0.32271862	1.1005659
80729764965604	-3.5836072	-0.2764244	0.11902845
80729773266385	-2.7168427	-0.614028	-0.33520222
80729781567166	-2.597878	-0.6031332	-0.31135964
80729789867947	1.2274694	-1.6773586	-1.273572
80729798168729	2.0691776	-2.2776785	-1.8118205
80729806469510	2.3919897	-2.6500216	-2.082131
80729814770291	2.4793568	-2.9175615	-2.0822804
80729823071072	2.5101984	-2.9128313	-2.0240088
80729831371854	2.513091	-3.1917515	-1.8520467
80729839672635	2.3325896	-3.8877172	-1.4952993
80729847973416	2.186721	-4.3316774	-1.2257173
80729856274197	1.9465841	-4.7187977	-0.8681804
80729864574979	1.9496566	-4.7117558	-0.82602435
80729872875760	1.6416259	-5.0077724	-0.4730764
80729881176541	1.312224	-5.2131844	-0.20518267
80729889477322	0.9536921	-5.337781	-0.007914424
80729897778104	0.5939919	-5.2007484	0.082638144
80729906078885	0.1377269	-4.768813	0.114059985
80729914379666	-0.31698048	-4.221266	0.08136386
80729922680447	-0.6128535	-3.6828814	-0.0670346
80729930981229	-0.7047484	-3.144948	-0.34150642
80729939282010	-0.7488551	-3.147478	-0.30111742
80729947582791	-0.82093227	-1.0702772	-0.9024582
80729955883572	-1.2015071	0.98297215	-0.68861705
80729964184354	-1.5622927	3.835291	0.14806437
80729972485135	-2.1214967	6.912259	1.2250206
80729980785916	-3.4618955	9.10308	1.381487
80729989086697	-3.4320145	9.088341	1.3547606
80729997387479	-8.671533	5.710228	-5.1791
80730005688260	-8.747939	2.9271412	-6.4606094
80730013989041	-7.8845882	0.81179905	-6.159994
80730022289822	-5.9479403	-0.35701084	-4.9911966
80730030590604	-3.224478	-0.62941265	-3.4457781
80730038891385	-3.1629958	-0.6197853	-3.404997
80730047192166	-0.48234951	-0.13619137	1.2290087
80730055492947	0.5279279	0.52997875	2.53313
80730063793729	1.1654525	1.3313036	2.8781853
80730072094510	1.400825	2.392581	2.5249372
80730080395291	1.3666605	2.3826046	2.4991586
80730088696072	1.2632297	6.5830755	1.0677067
80730096996854	1.5680995	10.492812	0.6001146
80730105297635	3.7016454	13.697248	1.4825332
80730113598416	7.0205374	12.080579	0.3429172
80730121899197	8.2712755	6.3892345	-1.931631
80730130199979	5.750768	0.028944016	-2.9340696
80730138500760	5.634533	0.02114296	-2.984378
80730146801541	2.2468886	-4.732373	-0.7096369
80730155102322	2.2070336	-5.289178	-0.656897
80730163403104	2.7345414	-5.0267496	-0.6475459
80730171703885	3.5267107	-4.0368443	-0.4346432
80730180004666	3.5012438	-4.0268717	-0.46586186
80730188305447	4.302594	-1.2166405	0.008399248
80730196606229	3.8842044	-0.55028915	0.13886642
80730204907010	3.3208637	-0.3565626	0.3964969
80730213207791	3.146047	-0.6359472	0.7780752
80730221508572	3.0333023	-0.63337517	0.718004
80730229809354	3.1875446	-1.1231546	1.1131433
80730238110135	3.0848918	-1.4837532	1.8423256
80730246410916	2.5522552	-1.0265064	1.9385453
80730254711697	1.7872458	-0.38956547	1.6398022
80730263012479	1.1073968	0.23409748	1.1164826
80730271313260	1.0500295	0.23157597	1.1294842
80730279614041	0.6823737	0.4840002	0.57491124
80730287914822	0.808233	-0.43511772	0.17250156
80730296215604	0.0942986	-0.80801487	0.02952087
80730304516385	-1.0142046	-1.0231934	-0.1498264
80730312817166	-2.1841369	-1.2066936	-0.26132953
80730321117947	-2.9985113	-1.4536161	-0.36932552
80730329418729	-3.2462637	-1.7665796	-0.503155
80730337719510	-3.2237744	-1.9799194	-0.27417338
80730346020291	-3.3918896	-1.833394	0.2634318
80730354321072	-3.8070168	-1.4020166	0.7792511
80730362621854	-4.1200976	-0.9022865	1.3565131
80730370922635	-3.977101	-0.5356331	1.885105
80730379223416	-4.0030203	-0.49828053	1.7183468
80730387524197	-2.701795	-0.36075306	1.6950567
80730395824979	-2.7167203	-0.027497292	0.8292551
80730404125760	-2.326158	-0.09016609	0.6857307
80730412426541	-0.6488769	-0.71125984	-0.63929605
80730420727322	-0.7336913	-0.65260124	-0.79732966
80730429028104	1.7646295	-1.3865557	-2.8910341
80730437328885	2.5504975	-1.3138742	-4.2732706
80730445629666	0.10246301	-0.97733116	-3.7109275
80730453930447	-1.5782677	-0.9049635	-2.6830504
80730462231229	-1.609796	-0.90745926	-2.6510613
80730470532010	-2.5194106	-1.0253754	-1.5423257
80730478832791	-2.954547	-1.1927271	-0.53944373
80730487133572	-2.8616486	-1.2618628	0.81000996
80730495434354	-2.1842253	-0.7699394	1.2009327
80730503735135	-1.5616372	-0.11734104	1.4329541
80730512035916	-1.5685371	-0.09730816	1.3797061
80730520336697	-0.9009899	0.7972994	0.92750764
80730528637479	-0.90295064	0.8100624	0.8888228
80730536938260	-0.5276488	0.8055258	-0.15927386
80730545239041	-0.53623927	0.87459755	-0.8019364
80730553539822	-0.79324543	0.9328747	-0.9537504
80730561840604	-0.8610697	0.8775482	-0.43579555
80730570141385	-0.8829448	0.8802576	-0.4376099
80730578442166	-0.8835491	0.7469969	0.41395998
80730586742947	-1.7273962	0.6141777	0.84140587
80730595043729	-2.0893874	0.84533024	0.11309481
80730603344510	-2.3360896	1.113328	-0.67850447
80730611645291	-2.3234806	1.1161757	-0.6930444
80730619946072	-2.518427	1.4488192	-1.103956
80730628246854	-2.7120523	1.841609	-0.960835
80730636547635	-2.9230354	2.219697	-0.468997
80730644848416	-3.2124588	2.778119	-0.21814322
80730653149197	-3.234539	2.772233	-0.2062273
80730661449979	-3.4661598	2.871992	-0.044467688
80730669750760	-3.518362	2.6577406	0.3290305
80730678051541	-3.2731562	2.0579834	0.8576875
80730686352322	-2.2628634	0.22374344	1.5708053
80730694653104	-2.2210402	0.19849205	1.618928
80730702953885	-1.558612	-0.3685465	1.4734578
80730711254666	-0.7620071	-0.6186609	1.2771988
80730719555447	-0.013609052	-0.6446781	1.1951694
80730727856229	0.63637793	-0.5686941	1.205437
80730736157010	1.2656511	-0.45812893	1.146034
80730744457791	1.4086627	0.39723396	1.2057724
80730752758572	1.2844813	2.2128305	1.473088
80730761059354	1.3854281	4.318365	1.8045146
80730769360135	1.6685964	6.462928	1.7640698
80730777660916	2.2037795	8.250317	1.0112786
80730785961697	3.3191624	9.022406	-0.64179933
80730794262479	5.69175	7.8127747	-3.861752
80730802563260	7.693431	5.3602505	-5.257137
80730810864041	7.915168	2.4007835	-4.953829
80730819164822	6.549199	-0.26096725	-3.400573
80730827465604	4.6148105	-2.146597	-1.4078321
80730835766385	4.621717	-2.1376715	-1.4333103
80730844067166	2.0297804	-3.8708038	1.0069107
80730852367947	0.76353335	-3.707034	1.1695323
80730860668729	-0.42612278	-3.221321	0.85016024
80730868969510	-1.6380746	-2.4377728	0.3248633
80730877270291	-2.7261906	-1.5197535	-0.1444956
80730885571072	-3.2550375	-0.81823444	-0.4347911
80730893871854	-3.113484	-0.49019814	-0.45859575
80730902172635	-2.3076496	-0.40897846	-0.15530074
80730910473416	-0.8751088	-0.7013445	0.15673864
80730918774197	0.4946233	-1.0897398	0.17281544
80730927074979	1.3861582	-1.4658833	-0.22095549
80730935375760	1.4484979	-1.4603701	-0.1834774
80730943676541	2.1986566	-2.7088785	-1.4009563
80730951977322	2.2642498	-3.328084	-1.8064361
80730960278104	2.210981	-3.8140202	-1.9658464
80730968578885	2.122055	-4.1237755	-1.8274677
80730976879666	2.0348167	-4.2636175	-1.4215748
80730985180447	2.0563197	-4.2585325	-1.3510945
80730993481229	1.4496651	-4.234913	-0.44471985
80731001782010	1.181748	-4.1407776	-0.18632627
80731010082791	0.9958463	-4.034337	-0.0027347207
80731018383572	0.7984859	-3.7963734	0.066654325
80731026684354	0.7936704	-3.7935066	0.122555435
80731034985135	0.22070193	-2.9228973	0.009162843
80731043285916	0.029897928	-2.613408	-0.16718918
80731051586697	-0.3102988	-2.005375	-0.36319238
80731059887479	-0.64580595	-1.2185144	-0.5554582
80731068188260	-0.8431051	-0.41716957	-0.5936171
80731076489041	-0.9492483	0.46956635	-0.32506186
80731084789822	-1.0064414	0.45994377	-0.30042425
80731093090604	-2.0201511	3.865221	0.7300726
80731101391385	-3.48849	5.3477764	1.0022633
80731109692166	-5.549093	5.4726963	0.5074518
80731117992947	-7.326748	4.321212	-0.7460389
80731126293729	-7.2672915	4.319707	-0.78579235
80731134594510	-8.015965	2.4032307	-2.4760702
80731142895291	-7.3291073	-0.5718546	-4.283633
80731151196072	-4.6786785	-0.98037434	-3.56326
80731159496854	-2.5357203	-0.96759796	-2.292852
80731167797635	-2.483635	-0.95667934	-2.3080304
80731176098416	-1.3645803	-0.77301407	-0.8276219
80731184399197	-0.97121716	-0.54780865	0.5580517
80731192699979	-0.86956465	0.42450428	1.7896395
80731201000760	-0.8490608	1.5114002	1.5143036
80731209301541	-0.8384123	3.4438362	1.016079
80731217602322	-0.86738956	3.4347458	0.9728119
80731225903104	-0.71657205	6.18085	0.44754523
80731234203885	2.033958	11.743909	0.08647293
80731242504666	7.0495744	11.314193	1.0813993
80731250805447	11.785351	8.276807	2.533462
80731259106229	13.019628	4.000531	2.0375886
80731267407010	11.148226	-0.18360901	0.34492886
80731275707791	10.960261	-0.18081474	0.24187195
80731284008572	5.3958225	-4.655628	-1.7055781
80731292309354	3.62117	-5.0351753	-1.9453558
80731300610135	1.9750345	-4.7695227	-2.1422296
80731308910916	0.92464757	-4.1583157	-2.2048721
80731317211697	0.72491944	-3.3587494	-2.0264359
80731325512479	0.7522781	-3.3536854	-2.0029368
80731333813260	1.9560283	-1.7103357	-0.58397853
80731342114041	2.0256028	-1.1221924	0.4840728
80731350414822	1.5623717	-0.47719193	1.3195522
80731358715604	1.103894	0.12461376	1.8017017
80731367016385	1.0414636	0.12596798	1.7788283
80731375317166	1.1358877	0.61931896	1.9255338
80731383617947	2.4186497	0.5342903	1.3653785
80731391918729	2.3490913	0.53152275	1.3721243
80731400219510	1.468572	-0.27370358	0.6895703
80731408520291	1.4047289	-0.27351284	0.69546103
80731416821072	0.575853	-0.6253834	0.572134
80731425121854	-0.47864005	-1.0538177	0.5037888
80731433422635	-1.6179898	-1.6222181	0.5261916
80731441723416	-2.586336	-2.273116	0.48207915
80731450024197	-3.1010122	-2.832757	0.55027246
80731458324979	-3.517539	-3.072795	0.653306
80731466625760	-3.8413608	-3.044734	0.84587264
80731474926541	-4.363511	-2.6706705	1.1014131
80731483227322	-5.283458	-1.9038095	1.286391
80731491528104	-5.7857056	-1.2158079	1.014938
80731499828885	-4.2862334	-1.0240765	0.63321376
80731508129666	-2.9416418	-0.7165489	0.1441834
80731516430447	-2.3210435	-0.33691502	-0.18886685
80731524731229	-2.2025917	-0.0043764114	0.04058361
80731533032010	-1.7765592	0.076345444	0.35753846
80731541332791	0.2575618	-0.41368294	-3.2450137
80731549633572	2.218779	-0.7087498	-4.895767
80731557934354	2.6487858	-0.48939514	-4.813321
80731566235135	1.5593398	-0.20996761	-4.0025406
80731574535916	-0.22688258	-0.13853645	-2.9451768
80731582836697	-1.4738979	-0.28428555	-1.7613354
80731591137479	-1.7610402	-0.43109035	-0.6781113
80731599438260	-1.7248569	-0.5164099	0.63873625
80731607739041	-1.6928676	-0.5972185	1.6876702
80731616039822	-1.5240328	-0.5073824	2.393132
80731624340604	-1.1481375	-0.2269659	2.6238728
80731632641385	-1.1610152	-0.20253277	2.557152
80731640942166	-0.3518809	1.0148106	1.8620176
80731649242947	-0.19951665	1.3523779	1.4017472
80731657543729	-0.427719	1.3352594	0.69136906
80731665844510	-0.74477077	1.1631851	-0.014979601
80731674145291	-0.9638177	1.014471	-0.5057733
80731682446072	-1.0160146	0.9447756	-0.68309
80731690746854	-0.82609975	0.5417948	-0.7199693
80731699047635	-0.9436867	0.2024517	-0.5284915
80731707348416	-1.4284358	0.1663723	-0.21598458
80731715649197	-2.002219	0.33403778	-0.02524829
80731723949979	-2.4754708	0.6361084	0.005687952
80731732250760	-2.8005595	1.0631866	0.022892714
80731740551541	-3.1589499	1.5692787	0.23770857
80731748852322	-3.2165947	1.9357147	0.3605392
80731757153104	-3.2987618	2.1421175	0.08642459
80731765453885	-3.3371005	2.2336302	-0.42943335
80731773754666	-3.1481586	2.259879	-0.88477993
80731782055447	-3.169279	2.2570162	-0.8780227
80731790356229	-2.083337	1.958684	-0.22068906
80731798657010	-1.8215907	1.4113188	0.5882211
80731806957791	-1.6167204	0.70260525	1.0019875
80731815258572	-1.5037224	0.0024738312	1.144975
80731823559354	-1.4391885	-0.5298414	1.1524837
80731831860135	-1.3486041	-0.5619135	1.2117441
80731840160916	-0.9760587	-0.3486004	0.9458196
80731848461697	-0.44052678	0.35370445	0.67401934
80731856762479	0.16835916	1.1442451	0.3917973
80731865063260	0.62803715	2.1783438	0.37790155
80731873364041	0.99150264	3.4417753	0.67361736
80731881664822	1.109334	3.392046	0.80413795
80731889965604	2.7580492	5.476659	0.556582
80731898266385	4.1891017	5.3498306	-0.7695825
80731906567166	5.5136003	4.7111645	-2.6591063
80731914867947	6.134382	3.6498375	-4.1674013
80731923168729	6.1723456	3.621686	-4.0615287
80731931469510	5.6043553	2.3450422	-4.3143873
80731939770291	2.0069149	0.22716331	-1.2551812
80731948071072	1.5212587	-0.76455784	-0.46901536
80731956371854	1.6362894	-1.5413351	-0.056084037
80731964672635	1.9484041	-1.9879618	0.042726755
80731972973416	2.0029137	-1.9874525	0.076541424
80731981274197	2.1446013	-2.03333	-0.021083951
80731989574979	0.82355726	-1.1311073	0.072478294
80731997875760	-0.18623686	-0.70456123	0.112953186
80732006176541	-0.9112811	-0.44819927	0.21691024
80732014477322	-1.2903557	-0.37827873	0.3409282
80732022778104	-1.2499255	-0.46450806	0.3476975
80732031078885	-1.1486529	-0.45419312	0.345474
80732039379666	0.584108	-1.0779371	-0.6225245
80732047680447	1.3855264	-1.6719275	-1.4097806
80732055981229	1.8325748	-2.4478235	-2.0091083
80732064282010	1.7638038	-3.0428162	-2.2777505
80732072582791	1.8069285	-3.0341463	-2.248623
80732080883572	1.4526169	-3.3184366	-2.1866777
80732089184354	1.4615327	-3.8603554	-1.50737
80732097485135	1.3492786	-4.0700703	-1.1166208
80732105785916	1.0715245	-4.2619267	-0.7095555
80732114086697	0.7389082	-4.425481	-0.36126208
80732122387479	0.7472694	-4.417262	-0.34254742
80732130688260	-0.15064895	-4.56752	0.07432711
80732138989041	-0.7383146	-4.3083534	0.020115137
80732147289822	-1.1392095	-3.715992	-0.21482301
80732155590604	-1.1320703	-3.7123556	-0.17629397
80732163891385	-1.3992546	-3.0955067	-0.37262452
80732172192166	-1.6031784	-2.5158682	-0.5404786
80732180492947	-1.7765687	-1.9430332	-0.7418786
80732188793729	-1.8889056	-1.309514	-1.0337319
80732197094510	-1.9517728	-0.5203829	-1.3434174
80732205395291	-1.9637319	0.47717953	-1.4027426
80732213696072	-2.241995	1.9369993	-0.967033
80732221996854	-2.6322036	3.7394466	-0.03684038
80732230297635	-3.0619655	5.523514	1.1593368
80732238598416	-3.8225226	6.71846	2.1662126
80732246899197	-5.436287	6.1665335	1.0403719
80732255199979	-6.92356	4.376519	-1.213899
80732263500760	-7.2351656	2.3373232	-3.2760646
80732271801541	-6.132254	0.57832336	-4.3921595
80732280102322	-3.8967094	-0.66092587	-4.221777
80732288403104	-1.4955366	-1.3199129	-2.8777585
80732296703885	-0.49097335	-1.5910549	-0.8520925
80732305004666	-0.09292972	-1.43997	1.0854795
80732313305447	0.09332073	-0.8946924	2.2608795
80732321606229	0.18330741	-0.0698328	2.4672475
80732329907010	0.16378629	1.0234938	1.8238492
80732338207791	0.14859784	1.0205908	1.7959871
80732346508572	-0.2198832	5.1666727	0.20698869
80732354809354	0.119220376	8.432792	-0.14467603
80732363110135	2.2054548	12.1890745	1.7949443
80732371410916	2.119666	12.156558	1.7356176
80732379711697	10.382497	10.558259	-2.1379673
80732388012479	10.220398	10.52602	-2.199395
80732396313260	7.810209	-0.7769308	-3.2819943
80732404614041	4.9260836	-3.2460775	-1.2980529
80732412914822	3.2283337	-4.7869444	-0.45592546
80732421215604	3.220347	-4.7750835	-0.47254193
80732429516385	2.5010748	-5.845649	0.06836176
80732437817166	2.990177	-5.07751	0.17472255
80732446117947	2.8534095	-3.2823086	-0.038854003
80732454418729	2.4215584	-1.7908478	-0.14325595
80732462719510	2.2502823	-0.78105545	9.930134E-4
80732471020291	2.404925	-0.21788883	0.38957262
80732479321072	2.8723571	-0.013710976	0.9940077
80732487621854	3.9541037	-0.059407234	1.8180864
80732495922635	4.3566475	0.14009571	2.5333362
80732504223416	4.1538477	0.24127483	2.7362418
80732512524197	4.0749555	0.24013329	2.722444
80732520824979	2.8582299	0.098171234	1.634318
80732529125760	2.0874367	-0.21929741	0.64772356
80732537426541	1.6160884	-0.6569891	-0.2485708
80732545727322	1.3983905	-0.8117552	-0.71082366
80732554028104	0.91043806	-0.90476894	-0.9415535
80732562328885	0.14475606	-1.1453714	-1.0605667
80732570629666	0.09178707	-1.1412611	-1.0669862
80732578930447	-1.6430331	-1.6891985	-0.90736544
80732587231229	-2.1036136	-2.0817118	-0.7714951
80732595532010	-2.6183443	-2.3904095	0.034213543
80732603832791	-3.311748	-2.3038187	1.1257541
80732612133572	-3.338468	-2.2797585	1.0069406
80732620434354	-4.291867	-1.7826481	2.189339
80732628735135	-5.864416	-0.60775185	3.7726083
80732637035916	-5.324287	-0.48983192	3.3908243
80732645336697	-3.6895258	-0.5861101	2.4273794
80732653637479	-3.7318165	-0.53648186	2.2407787
80732661938260	-2.7107692	-0.31917572	1.1342034
80732670239041	-1.7633734	0.16441917	-0.21970296
80732678539822	-1.8486614	0.21363068	-0.35804653
80732686840604	0.9141307	-0.91296387	-1.7479682
80732695141385	2.6262088	-1.6155272	-3.2943895
80732703442166	2.1028404	-1.6345291	-3.8966045
80732711742947	0.3148738	-1.3956203	-3.7621796
80732720043729	-1.5877763	-1.1858902	-3.2350333
80732728344510	-1.644177	-1.1907139	-3.1835146
80732736645291	-3.6800468	-1.1231165	-1.8021071
80732744946072	-4.0734577	-0.8621273	-0.7647257
80732753246854	-3.7439961	-0.57539845	0.22119546
80732761547635	-2.819665	-0.16985226	1.2148395
80732769848416	-2.8198102	-0.15279102	1.1665344
80732778149197	-1.7932884	0.3570919	2.1112452
80732786449979	-1.197336	1.0102787	2.8468504
80732794750760	-1.5062152	1.1545038	1.9823315
80732803051541	-1.508341	1.2329016	1.0881357
80732811352322	-1.5181818	1.2503319	1.0391636
80732819653104	-1.3674359	1.2419462	0.55502725
80732827953885	-1.162153	1.2039394	0.30631614
80732836254666	-0.9567435	1.4340372	-1.0098317
80732844555447	-1.525097	1.761363	-1.5087845
80732852856229	-2.0940075	2.1247644	-1.499937
80732861157010	-2.1139035	2.1210165	-1.4887242
80732869457791	-2.6276932	3.4240704	-0.4162345
80732877758572	-2.6360857	3.4162836	-0.40798187
80732886059354	-2.100184	3.874363	0.5766437
80732894360135	-1.6293187	3.612113	1.0132942
80732902660916	-1.3365445	3.0958118	1.4018495
80732910961697	-1.33245	3.0861359	1.4065485
80732919262479	-1.1677309	2.3657627	1.6324935
80732927563260	-1.0667562	1.6720858	1.7210441
80732935864041	-0.97280896	1.2844639	1.7897208
80732944164822	-0.7644236	1.1711178	1.7380345
80732952465604	-0.5608461	0.9742155	1.4931705
80732960766385	-0.22576606	0.68800926	1.1664457
80732969067166	0.23341632	0.28660583	0.8499572
80732977367947	0.7040996	-0.117017746	0.58055615
80732985668729	1.0478638	-0.32701778	0.33132815
80732993969510	1.3471439	-0.3118763	0.0096457
80733002270291	1.6511204	0.032580376	-0.30874133
80733010571072	1.8722417	0.7667866	-0.6921892
80733018871854	2.1187727	1.7184172	-1.2260106
80733027172635	2.6089306	2.6196594	-2.1233227
80733035473416	3.4683805	3.2643652	-3.5146656
80733043774197	3.9369416	3.655383	-4.2217426
80733052074979	3.6433167	3.5574636	-3.2971268
80733060375760	3.0436232	2.4483356	-1.4986917
80733068676541	2.3119097	0.86376095	0.15094602
80733076977322	1.6219687	-0.5176182	1.0840503
80733085278104	1.094134	-1.3473864	1.4717203
80733093578885	0.565838	-1.6751003	1.6512026
80733101879666	-0.04056207	-1.7071886	1.734202
80733110180447	-0.41941917	-1.7900581	1.5758061
80733118481229	-0.5635335	-1.8855772	1.2639339
80733126782010	-0.45400822	-1.8886213	1.3179752
80733135082791	-0.17316043	-2.020609	0.07635307
80733143383572	0.12007862	-2.1117249	-0.54169965
80733151684354	0.49938893	-2.2761097	-0.7924837
80733159985135	1.1147368	-2.6211014	-0.80073667
80733168285916	1.7630427	-3.036168	-0.6443528
80733176586697	1.8376738	-3.0262022	-0.61932826
80733184887479	2.5352774	-3.8907871	-0.73945296
80733193188260	2.054033	-3.7703457	-1.4011089
80733201489041	1.7827305	-3.6164122	-1.888066
80733209789822	1.5169817	-3.573906	-1.8873736
80733218090604	1.2213761	-3.5620193	-1.4473397
80733226391385	0.9518658	-3.5429792	-0.8408593
80733234692166	0.7936473	-3.603795	-0.36385512
80733242992947	0.48342085	-3.6060753	-0.13622785
80733251293729	0.15746486	-3.321991	0.10398817
80733259594510	-0.22008157	-2.869855	0.15012312
80733267895291	-0.5552002	-2.4237804	0.0058984756
80733276196072	-0.77916276	-2.075717	-0.29658705
80733284496854	-0.9479712	-1.7024193	-0.7610577
80733292797635	-1.0682126	-1.3006334	-1.1261907
80733301098416	-1.3476493	-0.52314186	-1.3529181
80733309399197	-1.4428676	0.64563465	-1.3750336
80733317699979	-1.5935785	2.2354574	-1.2257966
80733326000760	-1.6235616	2.223775	-1.1538686
80733334301541	-3.7201388	5.946889	0.068526894
80733342602322	-5.879941	6.1341333	0.34510398
80733350903104	-7.291778	4.401702	-0.3362768
80733359203885	-7.292127	2.1265106	-1.5458802
80733367504666	-7.1990137	2.13336	-1.5697057
80733375805447	-5.6251984	0.35440826	-2.9588103
80733384106229	-1.1151669	-0.6616049	-3.7595356
80733392407010	-0.39857483	-1.1470776	-2.340034
80733400707791	-0.20415843	-1.6747189	-0.7023096
80733409008572	-0.06653583	-1.9199677	0.761931
80733417309354	-0.050963998	-1.9120436	0.73331106
80733425610135	-0.21122766	-1.0873098	1.9139829
80733433910916	-0.21478236	-1.0834093	1.870213
80733442211697	-0.39342785	0.21674633	1.2199943
80733450512479	-0.46041572	1.5674324	0.778946
80733458813260	-0.63894475	3.8577805	0.31308293
80733467114041	-0.50372887	7.340432	0.4204167
80733475414822	-0.57013094	7.319639	0.36544132
80733483715604	0.7146673	12.039391	1.5647833
80733492016385	9.606161	15.4256315	-5.5707226
80733500317166	11.258506	9.221908	-6.187677
80733508617947	9.330695	3.279274	-3.0653415
80733516918729	9.156745	3.261567	-3.0669725
80733525219510	5.9742074	-1.117384	0.028330803
80733533520291	4.124763	-3.9288788	0.8180256
80733541821072	2.6602252	-6.4475613	0.48454463
80733550121854	2.3392417	-6.468693	0.45294595
80733558422635	2.3793354	-6.451833	0.44454718
80733566723416	1.9584367	-5.5355997	0.477381
80733575024197	1.3632541	-4.09076	0.47302675
80733583324979	1.0778277	-2.07541	0.43550324
80733591625760	1.4495146	-1.4992867	0.7561221
80733599926541	1.7840667	-0.7910156	1.3278219
80733608227322	2.4925485	-0.049118042	1.8054876
80733616528104	3.177581	0.73507595	1.8851417
80733624828885	3.2761922	1.457344	1.382811
80733633129666	2.9781613	1.5068169	0.3123864
80733641430447	2.586905	0.57717705	-0.1082288
80733649731229	1.9134836	0.16793251	0.117919445
80733658032010	1.0978816	-0.12167454	0.45826918
80733666332791	0.21545196	-0.6385441	0.6382744
80733674633572	0.15289934	-0.6346779	0.6239324
80733682934354	-0.7305887	-1.4694834	0.57070047
80733691235135	-1.5973046	-2.132372	0.51712
80733699535916	-2.243081	-2.572341	0.6139033
80733707836697	-2.6071653	-2.993308	0.8017249
80733716137479	-2.930659	-3.168045	1.3165818
80733724438260	-3.4663274	-2.9795456	2.0649128
80733732739041	-4.2388825	-2.449356	2.745863
80733741039822	-4.6305246	-1.792902	3.108158
80733749340604	-3.6228976	-1.3795843	2.9648004
80733757641385	-2.575345	-1.0076733	2.244193
80733765942166	-1.8928988	-0.5901928	1.2431321
80733774242947	-1.5453445	-0.1931591	0.20564365
80733782543729	-1.2448573	0.0656662	-0.7305863
80733790844510	-0.85165316	0.1841898	-1.5336826
80733799145291	-0.17073137	0.018100739	-1.9905508
80733807446072	0.8309695	-0.27001858	-0.9793558
80733815746854	2.6460822	-0.5713148	-1.4696827
80733824047635	4.191722	-0.676383	-3.2261574
80733832348416	1.3489015	-0.05740738	-3.521946
80733840649197	1.2551429	-0.0500803	-3.5026126
80733848949979	-0.9485601	0.04122448	-2.3838181
80733857250760	-2.497953	-0.055893898	-1.0953503
80733865551541	-3.3209827	-0.15515041	0.32921982
80733873852322	-3.2950552	-0.20946693	1.6210928
80733882153104	-3.275142	-0.19512463	1.5717213
80733890453885	-1.1767137	0.06803799	2.6479738
80733898754666	-0.686478	0.6609945	2.5869849
80733907055447	-1.0140873	1.0890741	1.9424236
80733915356229	-1.6791167	1.306881	1.0065541
80733923657010	-2.1924663	1.3511829	0.19945407
80733931957791	-2.1813512	1.3473034	0.19964886
80733940258572	-1.8868408	0.840888	0.13101697
80733948559354	-1.6007482	0.4616518	0.3224151
80733956860135	-1.5167329	0.31198502	0.16889977
80733965160916	-1.6599159	0.38417053	-0.1301148
80733973461697	-1.9448444	0.63574314	-0.39979196
80733981762479	-2.215446	0.9990902	-0.54295564
80733990063260	-2.3783545	1.3285427	-0.4623754
80733998364041	-2.5067806	1.7855539	-0.2527027
80734006664822	-2.50189	2.1732626	-0.1433146
80734014965604	-2.3901467	2.4838839	-0.130054
80734023266385	-2.2913852	2.7155561	-0.16436672
80734031567166	-2.3108718	2.7122002	-0.16093898
80734039867947	-2.3204598	2.1854267	-0.0048315525
80734048168729	-2.4448128	1.4299936	0.29380584
80734056469510	-2.357839	0.6358681	0.51996875
80734064770291	-2.1133225	-0.018078804	0.6204088
80734073071072	-2.0640666	-0.045084953	0.6771996
80734081371854	-1.6927695	-0.44431782	0.6838558
80734089672635	-0.6898347	-0.24374676	0.53735375
80734097973416	-0.107088625	0.12760735	0.5000334
80734106274197	0.3771574	0.64353466	0.4682479
80734114574979	0.73511493	1.269743	0.47599244
80734122875760	0.83018225	1.2231264	0.60108995
80734131176541	1.6818657	2.9201002	0.82393265
80734139477322	2.330996	3.8000946	1.0815551
80734147778104	3.033494	4.1982317	0.6736753
80734156078885	3.8360233	4.111781	0.009879589
80734164379666	4.617201	3.547967	-1.0567477
80734172680447	4.98609	2.7366333	-2.2037475
80734180981229	4.3904967	2.0524492	-2.5791988
80734189282010	2.9880788	1.1667957	-2.163839
80734197582791	2.036748	0.1228075	-0.9425919
80734205883572	1.5985634	-0.84691906	0.15985322
80734214184354	1.3355091	-1.4768152	0.7803365
80734222485135	0.9927146	-1.6910229	0.8613429
80734230785916	1.066197	-1.6916885	0.89639723
80734239086697	-0.16990161	-1.7160482	0.54628646
80734247387479	-0.82482564	-1.6774235	0.6182667
80734255688260	-1.4399296	-1.5627298	0.7669977
80734263989041	-1.9146998	-1.4251785	0.71848977
80734272289822	-1.7975311	-1.4201202	0.7627549
80734280590604	-1.8771937	-1.2736349	0.37596118
80734288891385	0.638035	-1.1454191	-0.92715657
80734297192166	2.0506172	-1.0544577	-1.6209902
80734305492947	3.0149722	-1.1872311	-2.0847278
80734313793729	3.0797434	-1.1783695	-2.0600617
80734322094510	3.4107254	-1.5225306	-2.1785889
80734330395291	2.8298645	-2.4878178	-1.903718
80734338696072	2.6503997	-2.9585543	-1.5932622
80734346996854	2.4766507	-3.392456	-1.0356841
80734355297635	2.1835315	-3.6736183	-0.4587189
80734363598416	1.7891269	-3.8616076	-0.023871839
80734371899197	1.3585622	-4.0105476	0.16021937
80734380199979	1.3733639	-4.0007076	0.17355365
80734388500760	0.4640752	-3.935298	0.084059656
80734396801541	0.01424551	-3.5366411	0.26553494
80734405102322	-0.41906607	-3.0742512	0.3975085
80734413403104	-0.8400607	-2.6300364	0.38227123
80734421703885	-0.85827315	-2.631792	0.43581486
80734430004666	-1.2330353	-2.2339573	0.21297455
80734438305447	-1.457361	-1.8336096	-0.24135995
80734446606229	-1.5183103	-1.3102121	-0.58938944
80734454907010	-1.711398	0.74073505	-0.55018586
80734463207791	-1.7568244	0.73025894	-0.49614847
80734471508572	-1.8216202	2.3720407	-0.24253261
80734479809354	-2.2104115	4.2415247	0.019310623
80734488110135	-3.4382825	5.7995234	0.28965178
80734496410916	-6.143468	5.6359053	-0.5226115
80734504711697	-7.654956	4.097062	-2.0087655
80734513012479	-7.7451277	2.1344318	-3.2577543
80734521313260	-6.170762	0.42758846	-3.7665823
80734529614041	-3.4021285	-0.6174898	-3.311142
80734537914822	-0.065501094	-1.271451	-0.16895908
80734546215604	-0.043774247	-1.2648935	-0.1783807
80734554516385	0.47844362	-0.81810856	1.2960389
80734562817166	0.6905055	0.0877676	2.215731
80734571117947	0.70762074	1.1854658	2.5095649
80734579418729	0.6353663	2.2973757	2.2540407
80734587719510	0.5731125	3.50418	1.6547438
80734596020291	0.901279	4.656801	0.90835845
80734604321072	1.7805432	5.5162745	0.3557524
80734612621854	3.1564069	6.6762524	0.787918
80734620922635	5.0352798	7.806199	0.85604143
80734629223416	6.805388	8.016089	-0.7192656
80734637524197	6.684175	7.9915724	-0.7733721
80734645824979	3.423373	2.4529142	-3.4420383
80734654125760	1.879782	-0.16104507	-2.2873597
80734662426541	1.4087493	-1.6900063	-1.1642163
80734670727322	1.7003083	-2.3853064	-0.50612
80734679028104	2.4206252	-2.6654873	-0.23574579
80734687328885	3.3865561	-2.6286287	0.0059274435
80734695629666	3.8971748	-2.3866024	0.2680223
80734703930447	3.6281755	-1.983366	0.40692663
80734712231229	2.7105265	-1.6036444	0.3824079
80734720532010	1.8268439	-1.3697863	0.37474698
80734728832791	2.339323	-1.3107729	1.0036812
80734737133572	2.2591352	-1.3046188	0.93718696
80734745434354	2.8740118	-1.14433	1.2698692
80734753735135	3.0644078	-0.781641	1.5633619
80734762035916	2.9076197	-0.37926865	1.7195246
80734770336697	2.4830709	-0.027298927	1.631095
80734778637479	1.7374363	-0.053563118	0.5713899
80734786938260	1.6832409	-0.05243206	0.5650083
80734795239041	1.4954456	-0.25349998	0.25483823
80734803539822	0.7674326	-0.12268543	0.17918265
80734811840604	-0.09159689	-0.12592125	0.07115412
80734820141385	-0.7417135	-0.508749	-0.15169382
80734828442166	-0.7850571	-0.503767	-0.17032564
80734836742947	-1.4234145	-1.9613876	-0.64006567
80734845043729	-1.6668519	-2.234933	-0.71012354
80734853344510	-2.1159034	-2.3314915	-0.49188948
80734861645291	-2.885918	-2.2076178	-0.087993026
80734869946072	-3.8449357	-1.9428749	0.4417187
80734878246854	-3.8753176	-1.9184961	0.3356595
80734886547635	-5.196368	-1.5375853	1.4567219
80734894848416	-4.7061386	-1.3759279	1.7712469
80734903149197	-3.8972383	-1.0363064	2.1250937
80734911449979	-3.260537	-0.6206989	2.2176921
80734919750760	-2.4563634	-0.37364674	1.329402
80734928051541	-0.9576753	-0.45926	-1.0757692
80734936352322	0.7200115	-0.5349531	-3.936659
80734944653104	0.85849494	-0.21592426	-3.9331136
80734952953885	0.18578732	-0.24073792	-3.4329352
80734961254666	-0.5726057	-0.45680904	-2.6836157
80734969555447	-1.0537499	-0.66115665	-1.8185413
80734977856229	-1.0687952	-0.6555395	-1.8222859
80734986157010	-1.2245929	-0.62369347	-0.23856902
80734994457791	-1.1080688	-0.6650982	0.25857854
80735002758572	-1.0543648	-0.60541916	0.76887465
80735011059354	-1.0024973	-0.5033388	1.2442214
80735019360135	-1.0310836	-0.4810896	1.1883419
80735027660916	-0.9551952	-0.37406158	1.4036176
80735035961697	-0.6739383	0.147192	0.95349073
80735044262479	-0.5543283	0.6210556	0.87359285
80735052563260	-0.40971434	0.8484335	0.511924
80735060864041	-0.34572065	0.84473324	0.18071532
80735069164822	-0.31811547	0.6168175	0.15762925
80735077465604	-0.31247282	0.62373924	0.13286209
80735085766385	-0.4992702	0.27006626	0.66043115
80735094067166	-0.7246033	0.41120052	0.14831543
80735102367947	-0.8738923	0.4717846	-0.4384644
80735110668729	-1.2575706	0.60801506	-0.8031094
80735118969510	-1.922388	0.9257593	-0.8057132
80735127270291	-2.6190283	1.4257746	-0.47499228
80735135571072	-2.9829843	1.99825	0.056814432
80735143871854	-3.0606985	2.4588337	0.35823274
80735152172635	-3.0026507	2.8349686	0.37709904
80735160473416	-2.7572212	3.0887823	0.23714495
80735168774197	-2.338304	3.1945372	0.098074436
80735177074979	-2.3655303	3.192175	0.098525286
80735185375760	-1.3002381	2.8728342	0.3987527
80735193676541	-1.3341949	2.8673973	0.41092587
80735201977322	-1.1407455	2.4825916	0.8354411
80735210278104	-0.99615407	1.595356	1.6263692
80735218578885	-0.98932064	1.5797195	1.6543975
80735226879666	-0.91631114	1.1959629	1.869308
80735235180447	-0.8375894	0.78399086	1.8706338
80735243481229	-0.5442833	0.15505981	1.3644328
80735251782010	-0.46463013	0.116368294	1.443608
80735260082791	-0.12680495	-0.038668633	0.8691094
80735268383572	0.40941292	-0.11998558	0.021974087
80735276684354	1.1050634	-0.092562675	-0.94492126
80735284985135	2.2717285	0.8448982	-2.7230446
80735293285916	2.906383	1.6182604	-3.6824555
80735301586697	2.982548	1.5708895	-3.516237
80735309887479	3.6036046	2.2424736	-3.6847029
80735318188260	4.0721483	2.6558714	-3.2080736
80735326489041	4.0759907	2.7834044	-2.2425833
80735334789822	2.2041392	2.2493715	0.4614762
80735343090604	2.2748947	2.235505	0.49827933
80735351391385	1.5439103	1.602128	1.1820676
80735359692166	1.221556	0.8041878	1.2323056
80735367992947	1.1365762	0.03236103	0.76146114
80735376293729	0.9340567	-0.57352924	0.18243825
80735384594510	0.2211529	-1.0008688	0.07809079
80735392895291	-0.8852144	-1.2067108	0.11526084
80735401196072	-1.6337614	-1.4810047	0.18559659
80735409496854	-2.0300672	-1.7024927	0.1950711
80735417797635	-2.061678	-1.8068724	0.18439662
80735426098416	-1.6376554	-1.7612238	0.15940201
80735434399197	-0.605435	-1.5884724	0.018443704
80735442699979	0.71937555	-1.7022219	-0.58949685
80735451000760	1.486489	-2.2266474	-1.2420944
80735459301541	1.87727	-2.7624226	-1.7413894
80735467602322	1.9052556	-3.1405058	-1.9874471
80735475903104	1.7227712	-3.3400717	-2.0127773
80735484203885	1.3371967	-3.4950857	-1.722453
80735492504666	1.3791349	-3.487071	-1.6868871
80735500805447	1.2387607	-3.564227	-1.2987827
80735509106229	1.1256508	-3.7646675	-0.87851596
80735517407010	0.94670296	-3.976884	-0.5449312
80735525707791	0.70278394	-4.092102	-0.3240813
80735534008572	0.53465295	-4.0691233	-0.11974883
80735542309354	0.19196749	-3.813098	0.0498749
80735550610135	-0.27851772	-3.4457064	0.06593263
80735558910916	-0.7064744	-3.0441961	-0.03892517
80735567211697	-1.0574427	-2.693406	-0.21440482
80735575512479	-1.313024	-2.3686037	-0.44858438
80735583813260	-1.3414338	-2.3742275	-0.38359815
80735592114041	-1.7684764	-1.0450315	-0.9453265
80735600414822	-2.1988378	0.051667213	-0.8358959
80735608715604	-2.4540262	1.6359215	-0.56420386
80735617016385	-2.5632157	3.5983	-0.09364784
80735625317166	-2.7905803	5.5437717	0.60690564
80735633617947	-3.606555	6.8275404	1.4348664
80735641918729	-5.5986233	6.0240345	0.20141315
80735650219510	-7.3606825	4.1020336	-1.6672947
80735658520291	-7.936005	2.2333155	-3.292585
80735666821072	-6.6618505	0.92166615	-4.155731
80735675121854	-3.806072	0.22140503	-3.997467
80735683422635	-1.0379814	-0.17895603	-2.8092
80735691723416	0.120376706	-0.64846516	-0.78780496
80735700024197	0.6546445	-0.58999634	1.0805197
80735708324979	0.8280029	0.14443779	2.0601172
