accelerometer_timestamp	accelerometer_x_data	accelerometer_y_data	accelerometer_z_data
1451464045977583934	-0.25271606	6.361084	-0.54559326
1451464045985976268	-0.38182068	5.937546	-0.23220825
1451464045994368602	-0.29441833	5.5911865	-0.05227661
1451464046002760936	-0.54452515	5.710556	0.27923584
1451464046011153270	-0.3378601	5.6772614	0.6312103
1451464046019545604	-0.21443176	5.2030334	0.9349365
1451464046027937938	-0.27246094	4.893341	0.9549866
1451464046036330272	-0.35205078	4.581375	0.9822235
1451464046044722606	-0.54389954	4.111679	1.2439728
1451464046053114940	-0.56155396	3.6133423	1.5589142
1451464046061507274	-0.45333862	3.3170776	1.9193115
1451464046069899608	-0.23678589	3.1422882	2.1024475
1451464046078291942	0.08406067	3.0247803	2.420456
1451464046086684276	0.690567	3.1455383	2.9062347
1451464046095076610	1.4618683	3.701233	3.2238312
1451464046103468944	2.005249	4.313202	3.3148193
1451464046111861278	2.4132996	4.8414154	3.3456573
1451464046120253612	3.2549133	5.9607086	3.4185028
1451464046128645946	4.490158	7.610016	3.8430786
1451464046137038280	6.4889526	9.585922	4.815277
1451464046145430614	7.5530853	10.717514	5.4500275
1451464046153822948	8.648926	11.905014	6.151993
1451464046162215282	9.835449	13.42482	7.2259674
1451464046170607616	9.942398	14.0976715	7.5809937
1451464046178999950	9.814804	14.178238	7.6229095
1451464046187392284	9.665726	14.193008	7.6820374
1451464046195784618	9.25499	14.038696	7.5012054
1451464046204176952	8.108917	12.8684845	6.5674133
1451464046212569286	6.5687714	10.072968	5.375046
1451464046220961620	5.505615	7.84523	4.819397
1451464046229353954	4.67601	6.173172	4.520584
1451464046237746288	3.1549683	4.1566925	4.1657715
1451464046246138622	1.9398346	4.207062	4.6476593
1451464046254530956	0.7657471	6.2802277	4.3895264
1451464046262923290	0.23175049	7.797409	3.0066528
1451464046271315624	-0.49401855	9.672699	1.2696686
1451464046279707958	-2.3937073	13.513458	-1.590271
1451464046288100292	-4.750778	17.441895	-1.1301727
1451464046296492626	-5.6526184	19.4973	0.97254944
1451464046304884960	-4.4747314	19.135513	2.4865265
1451464046313277294	-1.70755	16.302277	4.057663
1451464046321669628	0.5212097	10.942368	5.7460327
1451464046330061962	0.21873474	7.488205	4.773163
1451464046338454296	0.24098206	6.8022003	2.6639862
1451464046346846630	0.61305237	6.7887115	0.7008209
1451464046355238964	0.3349762	6.884033	-2.846405
1451464046363631298	-0.7723541	7.92778	-5.251129
1451464046372023632	-1.4961548	8.661194	-3.9640656
1451464046380415966	-1.4614563	9.396317	-2.7803955
1451464046388808300	-1.1352692	10.268494	-1.6880798
1451464046397200634	0.67211914	11.420715	-1.4309082
1451464046405592968	3.2531586	11.536301	-2.2724915
1451464046413985302	4.994156	11.221695	-2.3676605
1451464046422377636	5.564804	11.0346985	-1.8818512
1451464046430769970	5.6382294	10.683701	-0.76794434
1451464046439162304	4.6513367	10.085693	0.5599365
1451464046447554638	2.955368	9.058609	0.69996643
1451464046455946972	2.0215454	8.250549	0.24708557
1451464046464339306	1.3905029	7.5726013	-0.24900818
1451464046472731640	0.68647766	6.68425	-0.49421692
1451464046481123974	-0.12837219	6.136688	-0.4547882
1451464046489516308	-0.55506897	6.1225433	-0.51390076
1451464046497908642	-0.9746094	6.120407	-0.5145569
1451464046506300976	-1.2080536	6.267456	-0.27770996
1451464046514693309	-0.9724884	6.6850433	-0.14642334
1451464046523085643	-0.5089264	7.2217255	-0.030044556
1451464046531477977	0.18066406	7.858139	-0.22094727
1451464046539870311	0.5456543	8.267487	-0.28842163
1451464046548262645	0.880188	8.868164	-0.3005371
1451464046556654979	1.1500702	9.266541	-0.124191284
1451464046565047313	1.2858887	9.270065	-0.026885986
1451464046573439647	1.3777924	9.191025	0.007171631
1451464046581831981	1.2099457	8.74791	0.25045776
1451464046590224315	0.8684845	8.16922	0.47947693
1451464046598616649	0.7909546	7.922516	0.3789673
1451464046607008983	0.7781067	7.9874268	0.27485657
1451464046615401317	0.78041077	8.085617	0.16253662
1451464046623793651	0.82159424	8.309692	0.060195923
1451464046632185985	0.82925415	8.472748	0.0152282715
1451464046640578319	0.89782715	8.508682	-0.16950989
1451464046648970653	0.9820099	8.477188	-0.38928223
1451464046657362987	1.0616302	8.474091	-0.69036865
1451464046665755321	1.1256104	8.617859	-1.0023499
1451464046674147655	1.0310364	8.905685	-1.1231537
1451464046682539989	0.8428192	9.131546	-1.1550598
1451464046690932323	0.6468353	9.326904	-1.1814117
1451464046699324657	0.14569092	9.827972	-1.2884827
1451464046707716991	-0.41000366	10.343933	-1.2303467
1451464046716109325	-0.72151184	10.938187	-1.3870392
1451464046724501659	-0.6951752	11.229919	-1.6607819
1451464046732893993	-0.5143585	11.508301	-1.9643097
1451464046741286327	0.2813263	11.674408	-2.2898102
1451464046749678661	1.2243195	11.694473	-2.1828156
1451464046758070995	1.7392731	11.744705	-1.7011719
1451464046766463329	1.9603271	11.809616	-1.3021088
1451464046774855663	2.0161285	11.968369	-0.6357422
1451464046783247997	1.8159637	12.247253	0.007797241
1451464046791640331	1.4126587	12.639557	0.34169006
1451464046800032665	1.3190002	12.797226	0.29830933
1451464046808424999	1.3215637	12.883331	0.17428589
1451464046816817333	1.7639008	12.694153	0.27729797
1451464046825209667	2.475006	12.226425	0.32865906
1451464046833602001	3.218872	11.828613	-0.58921814
1451464046841994335	3.3493195	11.376862	-1.1283722
1451464046850386669	3.2160034	10.791397	-1.8117523
1451464046858779003	2.3283844	9.945099	-2.2673645
1451464046867171337	1.4757233	9.721558	-1.6187897
1451464046875563671	1.098526	10.264587	-1.2785187
1451464046883956005	1.0297699	10.957306	-1.155777
1451464046892348339	0.839859	12.31105	0.23060608
1451464046900740673	-0.18188477	13.858429	1.9028168
1451464046909133007	-2.0243835	14.621857	1.8140717
1451464046917525341	-2.9498749	14.491608	1.3860016
1451464046925917675	-3.6490173	14.219147	0.99079895
1451464046934310009	-5.0146484	13.7282715	0.57118225
1451464046942702343	-6.2065277	13.815277	-0.16107178
1451464046951094677	-6.191345	14.30011	-0.82676697
1451464046959487011	-5.9092407	14.5308075	-0.68795776
1451464046967879345	-5.360382	14.64888	-0.13323975
1451464046976271679	-4.1447906	14.331009	1.3020782
1451464046984664013	-2.8989716	13.615982	2.442276
1451464046993056347	-2.1681213	12.903915	2.8247528
1451464047001448681	-1.8204651	12.303726	2.7457123
1451464047009841015	-1.4219208	11.21225	2.227127
1451464047018233349	-0.041381836	10.056808	1.6821136
1451464047026625683	1.2627716	8.988159	1.1483307
1451464047035018017	1.3567047	8.77504	1.1336212
1451464047043410351	1.2751007	8.698578	1.2049408
1451464047051802684	1.4960632	8.429245	0.54322815
1451464047060195018	1.420044	7.786209	0.3925476
1451464047068587352	1.4835968	7.4183655	0.016983032
1451464047076979686	1.2888947	7.2853394	-0.13853455
1451464047085372020	1.1383667	7.087723	-0.26339722
1451464047093764354	1.1439819	6.854553	-0.50019836
1451464047102156688	1.0499268	6.7688904	-0.76878357
1451464047110549022	0.909256	6.540344	-0.6260834
1451464047118941356	0.90541077	6.174698	-0.3304901
1451464047127333690	0.9379425	5.642563	0.17111206
1451464047135726024	0.53063965	5.347534	0.57051086
1451464047144118358	0.10290527	4.805649	0.60910034
1451464047152510692	-0.08465576	4.405014	0.67485046
1451464047160903026	-0.25820923	4.019943	0.76553345
1451464047169295360	-0.6904297	3.396988	1.2165833
1451464047177687694	-0.94029236	2.7167358	1.3531494
1451464047186080028	-0.9023285	2.3517456	1.4052429
1451464047194472362	-0.7744446	2.254074	1.6430054
1451464047202864696	-0.5344391	2.2584534	1.9602661
1451464047211257030	-0.07406616	2.510971	2.4363708
1451464047219649364	0.52716064	3.0000763	3.019333
1451464047228041698	1.0512085	3.5099182	3.458496
1451464047236434032	1.4611969	3.9468842	3.752182
1451464047244826366	2.3450623	4.702591	4.0706177
1451464047253218700	3.5397034	5.754883	4.084137
1451464047261611034	4.887375	7.470886	3.7970734
1451464047270003368	5.4794464	8.734131	3.651123
1451464047278395702	6.063339	10.074646	3.5739136
1451464047286788036	7.1822205	12.828751	4.308014
1451464047295180370	7.941757	15.027069	5.6651917
1451464047303572704	8.4822235	16.174255	7.0286407
1451464047311965038	8.892197	16.368317	7.7406464
1451464047320357372	9.253281	16.302246	8.585403
1451464047328749706	8.9626465	15.5542755	9.082535
1451464047337142040	8.01709	14.346573	8.805405
1451464047345534374	7.0390472	13.040802	8.357513
1451464047353926708	5.718231	9.937256	7.323593
1451464047362319042	3.363388	6.246231	5.971115
1451464047370711376	1.6930084	3.7289886	4.8802032
1451464047379103710	1.0222626	3.052887	4.9014893
1451464047387496044	0.3894806	2.6066742	5.005783
1451464047395888378	-1.4189453	3.7343903	3.879837
1451464047404280712	-3.1291351	7.5892487	-0.83158875
1451464047412673046	-5.1208954	12.511002	-3.4857788
1451464047421065380	-6.712616	15.024872	-2.7487183
1451464047429457714	-8.51265	18.291733	-1.0820465
1451464047437850048	-8.302231	22.454163	1.6098785
1451464047446242382	-3.3580017	23.626724	3.4763336
1451464047454634716	1.4530029	19.944412	4.198517
1451464047463027050	4.970627	14.566452	4.3077545
1451464047471419384	4.807785	6.799225	3.3282623
1451464047479811718	1.3816833	4.154785	1.7628784
1451464047488204052	0.98353577	4.248535	-0.42512512
1451464047496596386	0.4399109	4.1615753	-2.0078278
1451464047504988720	-0.1712799	4.1309204	-3.554947
1451464047513381054	-0.83140564	5.3243866	-4.9457397
1451464047521773388	-0.12086487	8.075577	-4.542343
1451464047530165722	0.5722351	10.618851	-3.629364
1451464047538558056	1.1396484	11.821167	-2.9488373
1451464047546950390	2.3492126	12.884415	-2.0116272
1451464047555342724	4.442749	13.205017	-0.8518982
1451464047563735058	6.069519	12.57814	-0.07244873
1451464047572127392	6.357849	11.868881	0.40567017
1451464047580519726	6.0751038	11.2847595	0.82014465
1451464047588912059	4.566635	10.035507	1.0290222
1451464047597304393	2.9174805	8.379196	0.6638794
1451464047605696727	0.7188873	7.057434	-0.30523682
1451464047614089061	-0.109573364	6.618988	-0.564209
1451464047622481395	-0.9244385	6.187805	-0.8229675
1451464047630873729	-1.8451233	5.7148438	-1.1278992
1451464047639266063	-2.3123016	5.6192474	-0.8806
1451464047647658397	-2.3481293	5.7577972	-0.5215149
1451464047656050731	-2.009491	6.1279297	-0.31973267
1451464047664443065	-1.4738617	6.866104	0.10227966
1451464047672835399	-0.8049164	7.885666	0.3056183
1451464047681227733	-0.08502197	8.498306	-0.17044067
1451464047689620067	0.31884766	8.7099	-0.35334778
1451464047698012401	0.51612854	8.811432	-0.30386353
1451464047706404735	0.9948578	8.757004	-0.21565247
1451464047714797069	1.2126007	8.385193	0.3934784
1451464047723189403	1.1948242	7.8036804	0.81832886
1451464047731581737	1.0733643	7.6963654	0.80226135
1451464047739974071	0.93647766	7.612137	0.7439575
1451464047748366405	0.69026184	7.7194214	0.40888977
1451464047756758739	0.3577118	8.059921	-0.019088745
1451464047765151073	0.05697632	8.373169	-0.35453796
1451464047773543407	-0.1415863	8.551163	-0.67840576
1451464047781935741	-0.19744873	8.79686	-1.0722046
1451464047790328075	0.22210693	8.940063	-1.3164978
1451464047798720409	1.046463	8.882034	-1.2466431
1451464047807112743	1.4773712	8.887192	-1.1455688
1451464047815505077	1.7042084	8.93602	-1.0665283
1451464047823897411	1.970459	9.162979	-0.89193726
1451464047832289745	1.3609161	9.687927	-0.3544922
1451464047840682079	0.8507385	10.338394	-0.35717773
1451464047849074413	0.6560364	10.657776	-0.57696533
1451464047857466747	0.4764557	10.986557	-0.9056549
1451464047865859081	0.4539795	11.263458	-1.7353363
1451464047874251415	0.8595123	11.199509	-2.310028
1451464047882643749	1.4446869	11.058487	-2.1265717
1451464047891036083	1.7820435	11.0173645	-1.8084717
1451464047899428417	2.080185	11.116791	-1.10112
1451464047907837689	1.9041138	11.589493	-0.14234924
1451464047916230023	1.5476685	12.14827	0.3273468
1451464047924622357	1.5206299	12.313629	0.26737976
1451464047933014691	1.5906677	12.35347	0.09451294
1451464047941407025	2.307785	12.259277	-0.49902344
1451464047949799359	2.985443	12.524643	-0.62323
1451464047958191693	3.365265	12.284332	-1.083786
1451464047966584027	2.8935852	12.1571045	-1.140976
1451464047974976361	2.2614136	12.00621	-1.0834198
1451464047983368695	1.156662	11.842957	-0.7257538
1451464047991761029	0.3390503	11.946808	-0.5127716
1451464048000153363	-0.154953	12.160538	-0.25590515
1451464048008545697	-0.37600708	12.296127	-0.18908691
1451464048016938031	-0.6087189	12.720795	0.48361206
1451464048025330365	-1.374588	13.488647	1.5750885
1451464048033722699	-2.8434906	13.926773	1.8666229
1451464048042115033	-3.8054352	14.076996	1.5269012
1451464048050507367	-4.5707703	14.192032	1.097641
1451464048058899701	-5.8845215	14.528168	0.06777954
1451464048067292035	-6.0037537	14.715042	-0.8777313
1451464048075684369	-5.0425262	14.560745	-0.5121155
1451464048084076703	-4.45903	14.349319	0.25387573
1451464048092469037	-3.6864166	14.016617	1.2006989
1451464048100861371	-2.5571136	13.303497	2.4374695
1451464048109253705	-1.9074707	12.591904	2.8058472
1451464048117646039	-1.4347687	12.074249	2.5395355
1451464048126038372	-0.99780273	11.661697	2.2375183
1451464048134430706	0.14126587	10.709961	1.8734283
1451464048142823040	1.1145172	9.687775	1.6000061
1451464048151215374	1.40242	8.934174	0.9233551
1451464048159607708	1.5011292	8.48761	0.5150604
1451464048168000042	1.5865936	8.102051	0.20724487
1451464048176392376	1.3616791	7.7037354	-0.021881104
1451464048184784710	1.1969299	7.735428	0.016906738
1451464048193177044	1.1279907	7.7314606	0.036834717
1451464048201569378	1.082367	7.5605316	-0.057632446
1451464048209961712	1.0793304	7.274521	-0.17726135
1451464048218354046	0.9576874	6.8143005	-0.37075806
1451464048226746380	0.6257782	6.5265503	-0.21200562
1451464048235138714	0.46426392	6.2835083	0.20323181
1451464048243531048	0.24320984	6.0913696	0.38380432
1451464048251923382	0.2154541	5.4439545	0.51379395
1451464048260315716	0.033950806	4.7646484	0.827652
1451464048268708050	-0.57624817	4.311325	0.9856262
1451464048277100384	-0.93714905	4.0638885	1.0585175
1451464048285492718	-1.2366028	3.846695	1.1285553
1451464048293885052	-1.530365	3.6440582	1.306778
1451464048302277386	-1.4170532	3.451767	1.6495667
1451464048310669720	-1.2930145	3.4087067	1.7620087
1451464048319062054	-1.0695648	3.3725586	1.9392395
1451464048327454388	-0.4790039	3.413269	2.289322
1451464048335846722	0.3347931	3.702179	2.6473694
1451464048344239056	1.3444824	4.312851	3.0380402
1451464048352631390	2.1751862	4.9119415	3.2759705
1451464048361023724	2.7316895	5.3810425	3.391632
1451464048369416058	3.6680603	6.287384	3.3160706
1451464048377808392	5.1981506	7.8704834	3.1566467
1451464048386200726	6.327179	9.180878	3.2725677
1451464048394593060	7.332855	10.392822	3.4505768
1451464048402985394	9.072205	12.997864	4.5691833
1451464048411377728	10.02327	14.640259	5.673172
1451464048419770062	9.952621	15.316727	6.8205566
1451464048428162396	9.511154	15.381638	7.655945
1451464048436554730	9.007034	15.335983	8.49939
1451464048444947064	8.276611	14.711945	8.788727
1451464048453339398	7.2825165	12.816391	7.6909943
1451464048461731732	6.2031555	10.420303	6.513962
1451464048470124066	5.2019806	8.4487915	5.764679
1451464048478516400	3.3851776	5.727005	4.4223022
1451464048486908734	1.4786072	4.108551	3.3973236
1451464048495301068	-0.12136841	4.907852	2.8928528
1451464048503693402	-0.85791016	6.3226013	1.9300842
1451464048512085736	-1.4510193	7.756897	0.87428284
1451464048520478070	-2.778122	11.608536	-1.7798767
1451464048528870404	-4.351959	15.921371	-0.68707275
1451464048537262738	-4.645874	18.12149	1.845993
1451464048545655072	-3.3233948	17.743637	3.3740997
1451464048554047406	-1.6487885	16.300766	4.554367
1451464048562439740	-0.2349701	12.497208	5.2155
1451464048570832074	-0.5141907	8.79744	5.352356
1451464048579224408	-0.60395813	7.1857452	4.105545
1451464048587616742	-0.27622986	6.9042816	2.4238434
1451464048596009076	0.01828003	6.5861206	-1.0673523
1451464048604401410	-0.46820068	7.1518097	-4.589813
1451464048612793744	-0.847229	8.631317	-4.622986
1451464048621186078	-0.91789246	9.731384	-3.7605133
1451464048629578412	-0.9372711	10.784561	-2.8690186
1451464048637970746	0.021591187	12.413544	-1.827179
1451464048646363080	2.2108765	12.605667	-1.5391083
1451464048654755414	4.3916016	12.14798	-1.2921143
1451464048663147747	5.3214417	11.876144	-1.205368
1451464048671540081	5.8420563	11.414841	-0.8223419
1451464048679932415	5.1228485	10.604446	0.11236572
1451464048688324749	3.758194	9.7764435	0.74916077
1451464048696717083	2.8272705	9.071747	0.7020874
1451464048705109417	2.178238	8.444565	0.40971375
1451464048713501751	1.2051239	7.3146973	-0.3895111
1451464048721894085	-0.2132721	6.522827	-1.171341
1451464048730286419	-1.605133	6.2993774	-0.97987366
1451464048738678753	-1.9657593	6.27594	-0.5853882
1451464048747071087	-2.2222595	6.2712708	-0.23297119
1451464048755463421	-2.1583557	6.424103	-0.5548096
1451464048763855755	-1.8722687	6.8350983	-0.66482544
1451464048772248089	-1.1007843	7.3652954	-0.50805664
1451464048780640423	-0.708786	7.817047	-0.20474243
1451464048789032757	-0.22991943	8.370605	0.068725586
1451464048797425091	0.4586792	8.932739	-0.198349
1451464048805817425	0.93666077	9.140945	-0.5828552
1451464048814209759	1.1210022	8.977112	-0.5063782
1451464048822602093	1.2790833	8.684738	-0.3650055
1451464048830994427	1.6335449	8.21579	-0.21009827
1451464048839386761	1.6733551	7.662445	0.1341095
1451464048847779095	1.5290375	7.413681	0.4233551
1451464048856171429	1.5357208	7.482361	0.48010254
1451464048864563763	1.5552063	7.582947	0.510376
1451464048872956097	1.5779266	7.895767	0.35777283
1451464048881348431	1.3515625	8.31456	0.03366089
1451464048889740765	1.2136993	8.574936	-0.38406372
1451464048898133099	1.2124023	8.655914	-0.63531494
1451464048906525433	1.2727051	8.801315	-0.9398804
1451464048914917767	1.4826965	8.992584	-1.1900635
1451464048923310101	1.6838226	9.098312	-1.2547302
1451464048931702435	1.6542053	9.141342	-1.206955
1451464048940094769	1.530838	9.170898	-1.1259918
1451464048948487103	1.0717773	9.416473	-0.8452301
1451464048956879437	0.39614868	9.877502	-0.6941681
1451464048965271771	-0.15861511	10.424179	-0.7830963
1451464048973664105	-0.30081177	10.759125	-0.85136414
1451464048982056439	-0.39060974	11.084457	-0.9675598
1451464048990448773	-0.03665161	11.271927	-1.4329987
1451464048998841107	0.82292175	11.109528	-1.8622437
1451464049007233441	1.5672302	10.916428	-1.6651764
1451464049015625775	1.8268433	10.831604	-1.2519989
1451464049024018109	1.8612823	10.931229	-0.56396484
1451464049032410443	1.5452423	11.42688	0.11550903
1451464049040802777	1.3665161	12.092361	-0.26768494
1451464049049195111	1.4618225	12.454529	-1.081253
1451464049057587445	1.6186218	12.676224	-1.8626556
1451464049065979779	2.0480652	13.200806	-2.1666565
1451464049074372113	1.8752441	13.858414	-0.8222656
1451464049082764447	1.6633759	14.632568	-0.12088013
1451464049091156781	1.4635162	14.772659	-0.2731781
1451464049099549115	1.1730652	14.844864	-0.34803772
1451464049107941449	0.43998718	14.459503	-0.07661438
1451464049116333783	-0.22419739	13.532761	0.13778687
1451464049124726117	-0.5932617	12.591354	0.42019653
1451464049133118451	-0.76612854	12.122253	0.6830139
1451464049141510785	-1.3706818	11.70491	0.93821716
1451464049149903119	-2.5488586	11.786011	0.9514923
1451464049158295453	-3.9209595	12.589508	0.32495117
1451464049166687787	-4.7043457	13.255951	-0.22419739
1451464049175080121	-5.247986	13.788666	-0.6483154
1451464049183472455	-5.4637756	14.3706665	-0.9572296
1451464049191864789	-4.686615	14.02739	-0.24630737
1451464049200257122	-3.4649506	12.770813	0.99406433
1451464049208649456	-2.8397064	12.211746	1.699646
1451464049217041790	-2.2145844	11.772293	2.4790192
1451464049225434124	-1.6691742	11.844986	3.222702
1451464049233826458	-1.3209534	11.840683	2.9577637
1451464049242218792	-0.9645691	11.412735	2.3700562
1451464049250611126	-0.6239929	10.975769	1.7981415
1451464049259003460	-0.22657776	10.118973	1.3356171
1451464049267395794	0.43099976	9.302841	0.8753052
1451464049275788128	1.2499084	8.488983	0.27726746
1451464049284180462	1.4790802	8.04245	0.11579895
1451464049292572796	1.5176392	7.744278	0.10423279
1451464049300965130	1.9659882	7.296036	-0.063186646
1451464049309357464	2.0926666	7.1668396	-0.17218018
1451464049317749798	1.9724884	6.960556	-0.107925415
1451464049326142132	1.7837982	6.7465515	-0.042541504
1451464049334534466	1.3126526	6.5313263	0.059143066
1451464049342926800	0.96595764	6.294098	0.39613342
1451464049351319134	0.5456238	5.923218	0.8797455
1451464049359711468	0.0231781	5.8049774	1.1059418
1451464049368103802	-0.39266968	5.2296143	1.09021
1451464049376496136	-0.6010895	4.604782	1.0146942
1451464049384888470	-1.0430603	4.406433	0.9948883
1451464049393280804	-1.2630615	4.274994	0.9933777
1451464049401673138	-1.3395386	4.1361847	1.0100708
1451464049410065472	-1.489975	3.9851532	1.2370148
1451464049418457806	-1.1818085	3.794815	1.7735901
1451464049426850140	-0.72203064	3.5707245	2.181961
1451464049435242474	-0.43029785	3.5045319	2.3895264
1451464049443634808	-0.011962891	3.4639587	2.6129303
1451464049452027142	0.8846588	3.6469727	2.89711
1451464049460419476	1.8238068	4.218155	3.1029053
1451464049468811810	2.565094	4.808426	3.0975647
1451464049477204144	2.9519348	5.270462	3.011444
1451464049485596478	3.4739227	6.0939484	2.730133
1451464049493988812	4.233902	7.567383	2.643631
1451464049502381146	5.336975	9.773376	3.3498993
1451464049510773480	6.2357025	11.3789215	4.2349854
1451464049519165814	7.0351105	12.728378	5.0960846
1451464049527558148	8.104553	14.729233	6.4474335
1451464049535950482	8.96199	15.208237	6.949539
1451464049544342816	9.360794	14.29982	7.3626404
1451464049552735150	9.364014	13.79216	7.6016846
1451464049561127484	9.2504425	13.222534	7.610962
1451464049569519818	8.335297	12.295532	7.045639
1451464049577912152	6.193268	10.527832	6.460724
1451464049586304486	4.2008514	8.56163	5.597122
1451464049594696820	2.8912354	7.2680664	4.952591
1451464049603089154	1.2266235	6.222473	4.7312164
1451464049611481488	-0.26513672	6.6409607	4.369385
1451464049619873822	-1.1559601	8.51149	2.5368958
1451464049628266156	-1.8109131	9.872787	0.9159851
1451464049636658490	-2.4425812	11.033966	-0.5369415
1451464049645050824	-4.249069	14.092682	-1.0728455
1451464049653443158	-5.348572	16.77185	0.50761414
1451464049661835492	-3.3621826	16.706604	2.6797638
1451464049670227826	-1.9227448	15.7144165	3.0556946
1451464049678620160	-0.48988342	14.040558	3.5382385
1451464049687012494	0.48532104	10.441055	4.117813
1451464049695404828	0.4640808	7.4229584	3.261795
1451464049703797162	0.33979797	6.547714	1.3211517
1451464049712189496	0.37449646	6.5361633	-0.15296936
1451464049720581830	0.057495117	6.839905	-2.7105103
1451464049728974164	-0.2237091	7.972046	-4.5823975
1451464049737366497	-0.3623047	9.528839	-3.6275024
1451464049745758831	-0.24230957	10.373489	-2.6843262
1451464049754151165	-0.07394409	11.070068	-1.8772125
1451464049762543499	1.2883453	11.762619	-1.4227295
1451464049770935833	3.2240448	11.574951	-1.3795471
1451464049779328167	4.3868103	11.03096	-1.1005402
1451464049787720501	4.478058	10.70517	-0.60702515
1451464049796112835	4.262909	10.322815	0.046066284
1451464049804505169	3.221161	9.775787	0.7477112
1451464049812897503	2.1063995	9.005188	0.58099365
1451464049821289837	1.5218811	8.278854	-0.012527466
1451464049829682171	1.197998	7.755127	-0.5516815
1451464049838074505	0.38835144	7.2737427	-0.8620453
1451464049846466839	-0.37286377	6.7079163	-0.21813965
1451464049854859173	-0.5821228	6.2835846	0.14033508
1451464049863251507	-0.66947937	6.2990875	0.1452179
1451464049871643841	-0.7529144	6.375717	0.12113953
1451464049880036175	-0.5878296	6.767456	0.20899963
1451464049888428509	0.2878418	7.2868958	-0.13349915
1451464049896820843	0.92866516	7.905411	-0.55921936
1451464049905213177	1.1394348	8.322464	-0.5348053
1451464049913605511	1.3025818	8.734695	-0.45770264
1451464049921997845	1.4278107	8.997177	-0.43859863
1451464049930390179	1.3853912	8.860046	-0.39743042
1451464049938782513	1.2041016	8.5490265	-0.2480774
1451464049947174847	1.09935	8.26886	-0.19602966
1451464049955567181	0.77497864	8.043701	-0.044296265
1451464049963959515	0.49302673	7.936035	0.29045105
1451464049972351849	0.39067078	7.9589233	0.32803345
1451464049980744183	0.37034607	8.01593	0.27651978
1451464049989136517	0.35011292	8.075653	0.22406006
1451464049997528851	0.23991394	8.157043	0.1625824
1451464050005921185	0.2753601	8.239243	-0.21534729
1451464050014313519	0.30178833	8.42746	-0.5821533
1451464050022705853	0.34162903	8.579758	-0.71710205
1451464050031098187	0.42689514	8.771683	-0.85861206
1451464050039490521	0.53967285	9.027832	-0.9651489
1451464050047882855	0.53715515	9.2854	-0.9508972
1451464050056275189	0.45939636	9.472534	-0.95500183
1451464050064667523	0.3700714	9.613907	-1.0115509
1451464050073059857	0.19393921	9.891876	-1.0292053
1451464050081452191	0.113601685	10.314819	-1.1004944
1451464050089844525	-0.008605957	10.756287	-1.1766357
1451464050098236859	0.19438171	10.918854	-1.3234711
1451464050106629193	0.45713806	11.066864	-1.4973297
1451464050115021527	1.1723328	11.20723	-1.8513641
1451464050123413861	1.83284	11.1723175	-1.6835327
1451464050131806195	2.004013	11.081375	-1.0688324
1451464050140198529	1.9063416	11.207321	-0.5033417
1451464050148590863	1.6526031	11.553864	0.14265442
1451464050156983197	1.4229736	12.111938	0.40663147
1451464050165375531	1.7658539	12.252823	0.1210022
1451464050173767865	2.289215	12.182205	-0.1209259
1451464050182160199	2.7679596	12.136581	-0.31306458
1451464050190552533	3.3935394	11.945114	-0.35835266
1451464050198944867	3.437317	11.756744	-0.7924652
1451464050207337201	2.9072723	11.657761	-0.9640198
1451464050215729535	2.2988434	11.571548	-1.0670929
1451464050224121869	1.0837097	11.634628	-0.5819092
1451464050232514203	0.15577698	12.116364	-0.5748596
1451464050240906537	-0.54029846	12.586426	-0.20440674
1451464050249298871	-0.6810303	12.867233	0.07833862
1451464050257691205	-1.0517578	13.388245	0.56892395
1451464050266083539	-2.0210114	14.184723	1.6673584
1451464050274475872	-3.3131561	14.599197	2.337799
1451464050282868206	-4.370941	14.710907	1.9419708
1451464050291260540	-5.25325	14.782883	1.2820129
1451464050299652874	-6.5002136	15.037903	0.026672363
1451464050308045208	-6.658905	15.240952	-0.79182434
1451464050316437542	-5.531067	14.975937	-0.58587646
1451464050324829876	-4.83667	14.642853	0.09727478
1451464050333222210	-4.126358	14.248154	0.87002563
1451464050341614544	-2.9975586	13.2397	2.2480316
1451464050350006878	-2.2043	12.46489	2.6704254
1451464050358399212	-1.3507233	12.020966	2.3100739
1451464050366791546	-0.5982361	11.606476	2.1301575
1451464050375183880	0.494339	10.690628	1.9552307
1451464050383576214	1.5535583	9.441299	1.4037628
1451464050391968548	1.7679596	8.583817	1.0127563
1451464050400360882	1.7572174	8.142426	1.0322876
1451464050408753216	1.7758636	7.905304	1.0541382
1451464050417145550	1.6239624	7.671692	0.8479614
1451464050425537884	1.4681244	7.584976	0.03666687
1451464050433930218	1.4074707	7.4044495	-0.5539856
1451464050442322552	1.5365143	7.197754	-0.7584686
1451464050450714886	1.6236877	6.9698486	-0.9594116
1451464050459107220	1.3334808	6.5762024	-1.0167084
1451464050467499554	0.8223419	5.9756927	-0.5327759
1451464050475891888	0.54356384	5.168152	-0.28404236
1451464050484284222	0.52749634	4.7131805	0.12980652
1451464050492676556	0.20004272	4.3118744	0.53941345
1451464050501068890	-0.54000854	4.0612183	0.8197632
1451464050509461224	-1.3004761	3.9829407	0.90974426
1451464050517853558	-1.6556702	3.9605865	1.0191956
1451464050526245892	-1.8265991	3.9355164	1.1637726
1451464050534638226	-1.6635742	3.9601746	1.3497162
1451464050543030560	-1.4665527	3.982544	1.5587006
1451464050551422894	-1.069458	3.8263397	1.7141418
1451464050559815228	-0.88630676	3.806427	1.9660339
1451464050568207562	-0.59840393	3.8480988	2.2767487
1451464050576599896	0.26576233	4.2872925	2.8797302
1451464050584992230	1.2184753	5.052414	3.3137817
1451464050593384564	2.0271912	5.84906	3.4129028
1451464050601776898	2.586258	6.3907776	3.3949127
1451464050610169232	3.7254333	7.422638	3.3587189
1451464050618561566	5.630081	9.224976	3.6636047
1451464050626953900	7.871521	11.392471	4.3922424
1451464050635346234	9.132843	12.588547	5.0288086
1451464050643738568	9.956665	13.35968	5.5930176
1451464050652130902	10.525665	14.170166	6.433899
1451464050660523236	10.469498	14.294693	7.4817047
1451464050668915570	10.049164	14.136597	8.1679535
1451464050677307904	9.260696	13.957306	7.898697
1451464050685700238	8.210892	13.556564	7.3332977
1451464050694092572	6.057129	11.751068	5.7568054
1451464050702484906	3.7598572	8.589111	4.873932
1451464050710877240	2.114853	6.3839417	4.334778
1451464050719269574	1.575058	5.5254364	3.8990936
1451464050727661908	0.8472595	5.372299	3.746811
1451464050736054242	-0.08743286	7.1944275	3.3898163
1451464050744446576	-1.1548767	10.495911	1.1985474
1451464050752838910	-1.8150482	12.83699	-0.39367676
1451464050761231244	-2.3227081	14.761581	-1.5407257
1451464050769623578	-3.5624542	17.350418	-0.44303894
1451464050778015912	-3.5715332	17.815521	2.0928192
1451464050786408246	-0.75213623	14.189392	4.870117
1451464050794800580	-0.2007904	11.739792	5.382263
1451464050803192914	-0.06578064	9.106247	5.829666
1451464050811585247	-0.83795166	6.6284637	5.2307587
1451464050819977581	-0.38702393	6.1999054	2.0255585
1451464050828369915	-0.10887146	6.4829407	-1.4707642
1451464050836762249	-0.36654663	7.054199	-3.8702545
1451464050845154583	-0.64541626	8.22551	-5.4248505
1451464050853546917	-0.78001404	9.781357	-4.187683
1451464050861939251	-0.89201355	11.383682	-1.8755493
1451464050870331585	-0.29614258	11.9483795	-1.2424927
1451464050878723919	0.5000458	12.221481	-1.0561371
1451464050887116253	2.818634	11.716476	-1.6924286
1451464050895508587	4.6361237	11.187149	-1.7974396
1451464050903900921	4.8741455	10.430084	-0.73854065
1451464050912293255	4.345932	10.039368	-0.038742065
1451464050920685589	3.5859985	9.663193	0.61660767
1451464050929077923	2.2036438	9.282135	0.79093933
1451464050937470257	1.0740967	8.59343	0.1026001
1451464050945862591	0.5556488	7.8247833	-0.43025208
1451464050954254925	0.32624817	7.3216248	-0.5401459
1451464050962647259	-0.20606995	6.7825317	-0.48692322
1451464050971039593	-0.8027191	6.4247284	-0.2013855
1451464050979431927	-1.1332245	6.3373413	-0.33647156
1451464050987824261	-1.0980835	6.356369	-0.46420288
1451464050996216595	-0.9984894	6.3859253	-0.5560913
1451464051004608929	-0.46972656	6.889038	-0.71084595
1451464051013001263	0.4947052	7.5965424	-0.56243896
1451464051021393597	0.95188904	8.4613495	-0.46040344
1451464051029785931	1.0939026	8.845627	-0.38136292
1451464051038178265	1.29422	9.173767	-0.32841492
1451464051046570599	1.5187836	9.183151	-0.15866089
1451464051054962933	1.4524384	8.768509	0.26481628
1451464051063355267	1.3070679	8.364304	0.4622345
1451464051071747601	1.2177429	8.095047	0.49308777
1451464051080139935	1.0912018	7.7710114	0.36665344
1451464051088532269	0.9511566	7.635956	0.122558594
1451464051096924603	1.0631256	7.7055054	-0.18315125
1451464051105316937	0.9842377	7.8285522	-0.26585388
1451464051113709271	0.8627777	7.955139	-0.30955505
1451464051122101605	1.0031586	8.275909	-0.53141785
1451464051130493939	0.9465637	8.737137	-0.57089233
1451464051138886273	1.0460663	9.072281	-0.5252533
1451464051147278607	1.2079926	9.144882	-0.6730499
1451464051155670941	1.3325958	9.166321	-0.90914917
1451464051164063275	1.2770233	9.047501	-1.2323761
1451464051172455609	1.0156708	9.013824	-1.4243774
1451464051180847943	0.7545471	9.192947	-1.4721069
1451464051189240277	0.53863525	9.417862	-1.4123383
1451464051197632611	0.23439026	10.005798	-1.4554901
1451464051206024945	0.06590271	10.642288	-1.7223816
1451464051214417279	0.11746216	11.118134	-1.7725372
1451464051222809613	0.42315674	11.220749	-1.9303741
1451464051231201947	0.7661438	11.280121	-2.0943298
1451464051239594281	1.4290009	11.263031	-1.8257141
1451464051247986615	1.8427429	11.223099	-1.2128601
1451464051256378949	1.7515411	11.445969	-0.5938568
1451464051264771283	1.5831909	11.751846	-0.36701965
1451464051273163617	1.4819031	12.114578	-0.38294983
1451464051281555951	1.6639099	12.462189	-0.97972107
1451464051289948285	2.0667267	12.574341	-1.4081116
1451464051298340619	2.476059	12.59169	-1.4685059
1451464051306732953	2.9379883	12.672546	-1.1587677
1451464051315125287	2.7319946	12.832489	-0.5774231
1451464051323517621	1.8558502	13.101547	-0.1890564
1451464051331909955	1.3302765	13.240616	-0.13398743
1451464051340302289	0.87789917	13.355011	-0.12307739
1451464051348694622	0.08105469	13.439514	0.11439514
1451464051357086956	-0.50141907	13.1358185	0.16365051
1451464051365479290	-0.89183044	12.668854	0.5110626
1451464051373871624	-1.1238098	12.475433	0.60939026
1451464051382263958	-1.4807587	12.279114	0.7576599
1451464051390656292	-2.175766	12.306961	0.8673706
1451464051399048626	-3.2101288	12.83252	0.5322571
1451464051407440960	-4.1427155	13.42746	0.058746338
1451464051415833294	-4.823242	13.92868	-0.30496216
1451464051424225628	-5.3159485	14.4583435	-0.4697876
1451464051432617962	-4.7351837	14.313049	-0.027923584
1451464051441010296	-3.639511	13.418915	1.0633087
1451464051449402630	-3.0804443	12.89653	1.7358093
1451464051457794964	-2.588272	12.431671	2.3469543
1451464051466187298	-2.1461182	12.052948	2.8293304
1451464051474579632	-1.7750702	11.72908	2.676529
1451464051482971966	-1.1786499	11.269806	2.0484467
1451464051491364300	-0.5938721	10.597641	1.6410522
1451464051499756634	-0.13031006	9.874924	1.307251
1451464051508148968	0.43255615	9.099365	0.90834045
1451464051516541302	1.212326	8.328339	0.5289459
1451464051524933636	1.536026	7.83255	0.46481323
1451464051533325970	1.6337128	7.5485077	0.46351624
1451464051541718304	1.5631256	7.319626	0.32296753
1451464051550110638	1.3957062	7.1370087	0.07798767
1451464051558502972	1.4676666	6.750717	-0.34718323
1451464051566895306	1.4466705	6.4554443	-0.4553833
1451464051575287640	1.3700562	6.1632385	-0.4940033
1451464051583679974	0.6992035	5.8102875	0.040161133
1451464051592072308	0.113464355	5.5413666	0.47888184
1451464051600464642	-0.015945435	5.308548	0.6699066
1451464051608856976	0.060516357	4.985962	0.6647644
1451464051617249310	0.17218018	4.5354614	0.770874
1451464051625641644	-0.061065674	4.033493	1.008606
1451464051634033978	-0.6423187	3.8147888	1.2226563
1451464051642426312	-0.8646698	3.7158356	1.4155884
1451464051650818646	-0.9038696	3.616867	1.59552
1451464051659210980	-0.9465027	3.4933777	1.9295349
1451464051667603314	-0.6819763	3.3323212	2.2266998
1451464051675995648	-0.30337524	3.22435	2.5219269
1451464051684387982	0.075286865	3.2513428	2.7058868
1451464051692780316	0.5259094	3.3353271	2.9272003
1451464051701172650	1.581665	3.923111	3.3968353
1451464051709564984	2.6509857	4.902313	3.3316193
1451464051717957318	3.3982544	5.99382	2.8691711
1451464051726349652	3.8468018	6.8722534	2.5099487
1451464051734741986	4.5961914	8.538467	2.3443909
1451464051743134320	5.8997498	11.436035	3.2436981
1451464051751526654	7.5458527	14.279175	5.116684
1451464051759918988	8.534271	15.641754	6.374069
1451464051768311322	9.1280365	16.358261	7.2409363
1451464051776703656	9.763947	16.074875	8.526794
1451464051785095990	9.722366	14.867981	9.553253
1451464051793488324	8.922913	13.518295	9.087494
1451464051801880658	8.148575	12.776733	8.346573
1451464051810272992	7.190201	11.812912	7.3976746
1451464051818665326	4.873459	9.534683	5.359314
1451464051827057660	1.8378296	8.040253	4.194092
1451464051835449994	0.154068	8.939011	3.8704681
1451464051843842328	-0.41912842	10.451706	3.2901917
1451464051852234662	-1.6182098	12.638214	1.4408112
1451464051860626996	-3.3108826	14.526688	-0.94447327
1451464051869019330	-3.3007507	14.452362	-0.6954956
1451464051877411664	-2.6054535	13.389999	0.8098297
1451464051885803997	-2.0168304	12.201172	2.3430939
1451464051894196331	-1.2476196	9.711731	4.63414
1451464051902588665	-1.2774506	7.4298096	5.3663177
1451464051910980999	-1.3220215	6.5019684	5.1393127
1451464051919373333	-0.9865875	6.5842133	3.7814941
1451464051927765667	-0.65838623	6.769989	1.8076019
1451464051936158001	-0.5527344	7.649246	-2.5510712
1451464051944550335	-0.91500854	9.258377	-4.680771
1451464051952942669	-1.0113983	10.548828	-4.18692
1451464051961335003	-1.0210419	11.171509	-3.149765
1451464051969727337	-0.79112244	12.031708	-1.6782227
1451464051978119671	0.27897644	12.65802	-0.89564514
1451464051986512005	2.0896912	12.200195	-1.3586578
1451464051994904339	3.2640839	11.533478	-1.6405487
1451464052003296673	4.150879	10.933289	-1.7632904
1451464052011689007	4.6249084	10.123337	-1.1664886
1451464052020081341	3.7401886	9.632294	-0.014190674
1451464052028473675	2.63266	9.04068	0.68481445
1451464052036866009	2.149414	8.666046	0.58392334
1451464052045258343	1.5876617	8.16481	0.3356781
1451464052053650677	0.84277344	7.2109985	-0.49153137
1451464052062043011	0.28430176	6.5242157	-1.1689911
1451464052070435345	-0.24034119	6.378418	-1.1343842
1451464052078827679	-0.5796356	6.3186646	-0.8117981
1451464052087220013	-0.87908936	6.2375336	-0.59858704
1451464052095612347	-0.87609863	6.3748627	-0.5172272
1451464052104004681	-0.68026733	6.726181	-0.17912292
1451464052112397015	-0.25845337	6.9985046	-0.29792786
1451464052120789349	0.22607422	7.237549	-0.58839417
1451464052129181683	0.27830505	8.1028595	-0.080841064
1451464052137574017	0.7708435	8.664871	-0.43043518
1451464052145966351	0.8643646	8.854111	-0.6858368
1451464052154358685	0.79945374	8.782135	-0.40179443
1451464052162751019	0.73602295	8.666321	-0.07949829
1451464052171143353	0.67066956	8.4375305	0.3698883
1451464052179535687	0.58973694	8.187881	0.8253174
1451464052187928021	0.52064514	7.9981537	0.97254944
1451464052196320355	0.46987915	7.9737396	0.8061218
1451464052204712689	0.5883789	8.131302	0.40563965
1451464052213105023	0.64686584	8.467819	-0.19126892
1451464052221497357	0.69958496	8.824265	-0.6639557
1451464052229889691	0.7867737	8.940109	-0.93455505
1451464052238282025	0.87545776	8.999237	-1.1690979
1451464052246674359	1.1165924	8.969986	-1.2440796
1451464052255066693	1.3847504	8.958527	-1.0917969
1451464052263459027	1.4226685	8.948242	-1.0872955
1451464052271851361	1.4182434	8.979874	-1.0698242
1451464052280243695	1.1998749	9.234039	-1.0685425
1451464052288636029	0.7993469	9.704208	-1.1856995
1451464052297028363	0.49473572	10.127747	-1.2221069
1451464052305420697	0.37135315	10.413712	-1.2266083
1451464052313813031	0.26911926	10.810852	-1.4377899
1451464052322205365	0.505249	11.091614	-2.008667
1451464052330597699	1.0515289	11.13591	-2.4256897
1451464052338990033	1.5061035	11.05632	-2.272873
1451464052347382367	1.9186554	10.955444	-1.986908
1451464052355774701	1.9699249	11.05455	-0.842865
1451464052364167035	1.6404724	11.456696	0.12060547
1451464052372559369	1.3559113	11.829025	0.060302734
1451464052380951703	1.3314972	11.944046	-0.3856659
1451464052389344037	1.4099426	12.105362	-0.98890686
1451464052397736371	1.8032837	12.396301	-1.6554108
1451464052406128705	2.0204163	12.65181	-1.191925
1451464052414521039	1.7958374	12.893494	-0.45448303
1451464052422913372	1.4417572	13.169159	0.018478394
1451464052431305706	1.0578156	13.691162	0.056991577
1451464052439698040	0.6810608	14.059311	0.05923462
1451464052448090374	0.31163025	13.688568	0.12350464
1451464052456482708	0.067871094	13.279251	0.1567688
1451464052464875042	-0.14611816	12.908478	0.18762207
1451464052473267376	-0.65052795	12.617508	0.5174103
1451464052481659710	-1.6306763	12.439255	0.9815979
1451464052490052044	-2.8053284	12.778641	1.1394348
1451464052498444378	-3.605362	13.277939	0.720459
1451464052506836712	-4.5581512	13.961792	0.13491821
1451464052515229046	-5.554779	14.93013	-0.6280365
1451464052523621380	-5.4656677	15.113434	-0.48944092
1451464052532013714	-4.800003	14.515717	0.26089478
1451464052540406048	-4.241577	13.805634	0.94976807
1451464052548798382	-3.3562012	12.731598	2.0285187
1451464052557190716	-2.600418	11.999603	2.9101105
1451464052565583050	-2.2542572	11.740997	3.0507507
1451464052573975384	-1.8717041	11.558792	2.700592
1451464052582367718	-1.4681549	11.377579	2.2912598
1451464052590760052	-0.53189087	10.439819	1.2824554
1451464052599152386	0.09649658	9.300232	0.8403168
1451464052607544720	0.7893982	8.527679	0.24299622
1451464052615937054	1.1062012	8.212173	0.25520325
1451464052624329388	1.429596	7.7922516	0.26210022
1451464052632721722	1.5740509	7.289734	0.36721802
1451464052641114056	1.6019287	7.1138306	0.21382141
1451464052649506390	1.7084198	7.01091	-0.15058899
1451464052657898724	1.7154846	6.8406067	-0.2861786
1451464052666291058	1.5873718	6.383911	-0.544754
1451464052674683392	1.0563965	6.0861816	-0.20785522
1451464052683075726	0.32933044	5.9031525	0.16720581
1451464052691468060	0.07962036	5.837921	0.4478302
1451464052699860394	-0.10624695	5.7726135	0.72088623
1451464052708252728	-0.32191467	5.002777	0.92033386
1451464052716645062	-0.2552948	4.116333	0.72369385
1451464052725037396	-0.5339813	3.888977	0.70999146
1451464052733429730	-0.79037476	3.852356	0.8577881
1451464052741822064	-0.8610382	3.6667938	1.0650635
1451464052750214398	-0.70928955	3.3716125	1.4813538
1451464052758606732	-0.63552856	3.2272644	1.9404297
1451464052766999066	-0.42240906	3.0909119	2.2184753
1451464052775391400	-0.1409607	2.988739	2.4311829
1451464052783783734	0.44187927	3.143509	2.8742523
1451464052792176068	1.3230133	3.7012482	3.2343597
1451464052800568402	2.2589722	4.6356506	3.0959015
1451464052808960736	2.6661835	5.287979	2.8018494
1451464052817353070	3.0600739	5.9822693	2.515396
1451464052825745404	4.025345	7.9314117	2.5937653
1451464052834137738	5.457016	10.713486	3.7056122
1451464052842530072	7.2866364	13.406143	5.098999
1451464052850922406	8.136795	14.66243	5.9453125
1451464052859314740	8.868927	15.885254	7.0917206
1451464052867707074	9.104111	16.135178	8.512619
1451464052876099408	8.985016	14.8975525	9.180389
1451464052884491742	8.530273	13.924316	9.108368
1451464052892884076	7.8587494	13.365906	8.869308
1451464052901276410	6.6505127	12.303482	7.710861
1451464052909668744	4.6694183	9.507584	5.835388
1451464052918061078	2.2349548	6.097122	3.940857
1451464052926453412	1.1147614	5.0305023	3.8960724
1451464052934845746	0.013198853	4.1878815	3.9456635
1451464052943238080	-1.3331909	4.706665	3.7605743
1451464052951630414	-1.855011	6.743042	1.5510101
1451464052960022747	-2.5957794	9.344574	-0.87680054
1451464052968415081	-3.548767	11.631592	-1.3960114
1451464052976807415	-4.8401947	15.41803	-0.9165802
1451464052985199749	-5.211258	20.402222	1.466568
1451464052993592083	-2.0985413	21.358109	3.140854
1451464053001984417	0.72154236	18.558945	3.522171
1451464053010376751	2.5150452	15.042618	3.7233124
1451464053018769085	2.1235504	8.942032	3.8482208
1451464053027161419	0.50701904	5.990509	2.1237183
1451464053035553753	0.7956238	5.707184	0.18885803
1451464053043946087	0.5175934	5.541748	-1.2719879
1451464053052338421	0.17170715	5.4780884	-2.8675537
1451464053060730755	-0.47166443	6.3363495	-4.734955
1451464053069123089	-0.763443	8.261993	-3.7512207
1451464053077515423	-1.0696411	9.997147	-2.4634094
1451464053085907757	-0.77531433	10.8723755	-2.0180817
1451464053094300091	0.15509033	11.578629	-1.680191
1451464053102692425	2.0335999	11.629456	-1.294281
1451464053111084759	3.7577515	11.142761	-0.8386383
1451464053119477093	4.2696533	10.80603	-0.4502411
1451464053127869427	4.3255615	10.581116	-0.073028564
1451464053136261761	3.31839	10.105881	0.66381836
1451464053144654095	2.2261505	9.327911	0.6771393
1451464053153046429	1.0026398	8.109909	-0.23754883
1451464053161438763	0.39666748	7.6980133	-0.55371094
1451464053169831097	-0.2582245	7.2354736	-0.80345154
1451464053178223431	-1.0484314	6.566162	-0.7188263
1451464053186615765	-1.3644257	6.209137	-0.6192932
1451464053195008099	-1.3965607	6.229706	-0.5126343
1451464053203400433	-1.269043	6.348343	-0.21780396
1451464053211792767	-0.7324219	6.8291473	-0.18122864
1451464053220185101	0.025146484	7.6449738	-0.24197388
1451464053228577435	0.4759369	8.201065	-0.2667694
1451464053236969769	0.75354004	8.57634	-0.41586304
1451464053245362103	1.2380371	8.915131	-0.72416687
1451464053253754437	1.5197296	8.827225	-0.5654602
1451464053262146771	1.5633392	8.320053	-0.31539917
1451464053270539105	1.5000458	8.126038	-0.18963623
1451464053278931439	1.3841248	7.9164734	-0.02154541
1451464053287323773	0.9482269	7.645874	0.34516907
1451464053295716107	0.6209564	7.6359406	0.31736755
1451464053304108441	0.45341492	7.81546	0.06904602
1451464053312500775	0.3666687	7.961975	-0.11795044
1451464053320893109	0.27098083	8.223831	-0.34658813
1451464053329285443	0.19381714	8.622681	-0.63586426
1451464053337677777	0.40361023	9.056015	-0.9688721
1451464053346070111	0.6358795	9.293442	-1.0732574
1451464053354462445	0.804245	9.434799	-1.0649109
1451464053362854779	1.0383759	9.45842	-0.9987335
1451464053371247113	1.0254517	9.334122	-0.92263794
1451464053379639447	1.1538696	9.302032	-0.93330383
1451464053388031781	0.9591675	9.426056	-0.9776306
1451464053396424115	0.69955444	9.61322	-1.0552521
1451464053404816449	0.22561646	10.123718	-1.2878265
1451464053413208783	0.08639526	10.662094	-1.4927216
1451464053421601117	0.11140442	10.972153	-1.687973
1451464053429993451	0.3466034	11.001724	-1.8936157
1451464053438385785	0.81140137	10.935043	-2.0395203
1451464053446778119	1.3377838	10.751175	-1.6923218
1451464053455170453	1.4593658	10.900574	-0.67048645
1451464053463562787	1.3846741	11.250427	-0.16789246
1451464053471955121	1.2947083	11.605789	0.06278992
1451464053480347455	1.2911377	12.264084	-0.36387634
1451464053488739789	1.8039246	12.4254	-1.9763184
1451464053497132122	2.4503326	12.677292	-2.2939453
1451464053505524456	2.3860626	13.033295	-1.3673096
1451464053513916790	2.1963348	13.563522	-0.3040161
1451464053522309124	1.5611877	14.698257	0.708313
1451464053530701458	0.99983215	15.315079	0.29988098
1451464053539093792	0.55307007	15.008438	0.09655762
1451464053547486126	0.312088	14.350418	-0.03453064
1451464053555878460	0.0011444092	13.146118	-0.26293945
1451464053564270794	-0.46072388	11.852997	-0.15933228
1451464053572663128	-1.412384	11.358978	0.43650818
1451464053581055462	-2.1277313	11.48288	0.7706146
1451464053589447796	-2.707367	11.71936	0.9878082
1451464053597840130	-3.9934387	12.88855	0.7802124
1451464053606232464	-5.1132355	14.250717	0.1689148
1451464053614624798	-5.298111	14.978668	-0.22503662
1451464053623017132	-4.936325	14.719055	-0.06889343
1451464053631409466	-4.434723	14.224609	0.31066895
1451464053639801800	-3.491867	13.06781	1.5220795
1451464053648194134	-2.621933	12.352554	2.7988434
1451464053656586468	-2.1797485	12.24054	3.3249817
1451464053664978802	-2.0833435	12.281677	3.4072418
1451464053673371136	-1.8029938	12.037369	3.0026703
1451464053681763470	-1.2098846	11.277603	2.0555267
1451464053690155804	-0.2359314	9.828247	1.2525024
1451464053698548138	0.17095947	9.276001	0.971405
1451464053706940472	0.40550232	9.00354	0.79981995
1451464053715332806	1.0075684	8.2043	0.54963684
1451464053723725140	1.4671936	7.5131073	0.030349731
1451464053732117474	1.9032593	7.02594	0.0954895
1451464053740509808	1.9373169	7.0593567	0.033798218
1451464053748902142	2.046051	6.971863	-0.07034302
1451464053757294476	2.208603	6.5025635	-0.2917633
1451464053765686810	1.3309631	5.9763184	-0.26704407
1451464053774079144	0.15774536	5.6271057	-0.011352539
1451464053782471478	-0.1809082	5.3539886	0.10494995
1451464053790863812	-0.368042	5.070038	0.43789673
1451464053799256146	-0.29571533	4.556427	0.96839905
1451464053807648480	-0.43382263	4.3048553	1.2451172
1451464053816040814	-0.55726624	4.408783	1.1739807
1451464053824433148	-0.66007996	4.561722	1.0506134
1451464053832825482	-0.9295807	4.60849	1.4925995
1451464053841217816	-0.99768066	4.1207886	1.8078308
1451464053849610150	-0.9488678	3.7626953	1.8890228
1451464053858002484	-0.89424133	3.638031	1.8941498
1451464053866394818	-0.66093445	3.4483032	1.9253235
1451464053874787152	-0.07019043	3.3092346	2.1826324
1451464053883179486	0.5763855	3.667801	2.7587433
1451464053891571820	1.1925049	4.13826	3.1611938
1451464053899964154	1.6699677	4.500046	3.3533325
1451464053908356488	2.4480896	5.1693115	3.2924194
1451464053916748822	3.4785156	6.383667	2.778122
1451464053925141156	4.7508698	8.2765045	2.2606964
1451464053933533490	5.783661	9.837509	2.4430542
1451464053941925824	6.781311	11.341217	2.7368622
1451464053950318158	8.93602	14.501678	4.484131
1451464053958710492	10.5047	16.240005	6.4806213
1451464053967102826	10.597916	16.43547	7.5585175
1451464053975495160	10.387787	15.859695	8.107941
1451464053983887494	10.091751	14.787064	8.63356
1451464053992279828	9.597961	13.118774	8.681274
1451464054000672162	8.845703	11.93132	8.005707
1451464054009064496	7.882431	10.793259	7.1973114
1451464054017456830	4.775406	8.442841	5.6426544
1451464054025849164	0.8665314	6.044327	4.484314
1451464054034241497	-1.4995117	5.235672	4.157852
1451464054042633831	-2.8701935	5.7973175	3.7542572
1451464054051026165	-4.125839	6.5498047	3.3076477
1451464054059418499	-4.8693237	8.848618	-0.011047363
1451464054067810833	-5.975952	12.249008	-1.3451996
1451464054076203167	-6.2669983	15.823166	0.63682556
1451464054084595501	-5.161072	17.639175	2.2960358
1451464054092987835	-3.1505737	18.91188	3.4942017
1451464054101380169	0.59664917	17.61145	3.5956726
1451464054109772503	2.2730255	12.801025	3.6488647
1451464054118164837	1.5218201	9.064957	3.4088593
1451464054126557171	0.48080444	7.6518707	2.7623901
1451464054134949505	0.30955505	7.096161	1.6327057
1451464054143341839	-0.07296753	6.767578	-1.1323395
1451464054151734173	-0.81689453	6.8249207	-4.0608215
1451464054160126507	-0.7680359	7.207123	-4.2014465
1451464054168518841	-0.59947205	7.633545	-3.9352264
1451464054176911175	-0.4857483	9.275925	-2.6447296
1451464054185303509	-0.3459015	10.962341	-2.5284424
1451464054193695843	0.869751	11.560303	-2.5807343
1451464054202088177	1.9236145	11.565445	-2.4612122
1451464054210480511	3.222046	11.353958	-2.0829163
1451464054218872845	4.390808	10.740799	-1.1311798
1451464054227265179	4.215912	10.174637	-0.15376282
1451464054235657513	3.555954	9.774063	0.21124268
1451464054244049847	2.973114	9.453415	0.19517517
1451464054252442181	2.1679382	8.478363	-0.25338745
1451464054260834515	0.9661102	7.346161	-0.96199036
1451464054269226849	-0.5543976	6.859833	-1.2053223
1451464054277619183	-1.1604309	6.5002136	-0.79603577
1451464054286011517	-1.654068	6.1441956	-0.33242798
1451464054294403851	-1.8084869	5.874588	0.033050537
1451464054302796185	-1.8625336	5.996353	-0.076156616
1451464054311188519	-1.6006012	6.62204	-0.09828186
1451464054319580853	-1.2227478	7.107834	-0.113708496
1451464054327973187	-0.728302	7.713272	-0.25076294
1451464054336365521	0.09303284	8.47934	-0.6026306
1451464054344757855	0.7392578	9.03418	-0.5114136
1451464054353150189	0.9738159	9.188019	-0.08909607
1451464054361542523	1.13768	9.182236	0.2746277
1451464054369934857	1.4604645	8.9748535	0.75598145
1451464054378327191	1.581253	8.52478	0.9532776
1451464054386719525	1.3869476	8.403259	0.7236328
1451464054395111859	1.4491272	8.507614	0.5036926
1451464054403504193	1.5211334	8.62178	0.24945068
1451464054411896527	1.5038147	8.729477	-0.3798828
1451464054420288861	1.4589081	8.782074	-0.7838898
1451464054428681195	1.5256042	8.728592	-1.021347
1451464054437073529	1.5230255	8.691971	-0.9917908
1451464054445465863	1.501709	8.64679	-0.8111267
1451464054453858197	1.4362335	8.565903	-0.66760254
1451464054462250531	1.2150726	8.512283	-0.9338684
1451464054470642865	0.98887634	8.63147	-1.1305542
1451464054479035199	0.8192291	8.826813	-1.2134552
1451464054487427533	0.45446777	9.358627	-1.0738678
1451464054495819867	-0.08418274	10.045837	-0.9540863
1451464054504212201	-0.58117676	10.693268	-1.0024719
1451464054512604535	-0.54089355	10.957947	-1.2339172
1451464054520996869	-0.43000793	11.23468	-1.4986115
1451464054529389203	0.20011902	11.584747	-1.9443359
1451464054537781537	1.1274567	11.556717	-2.0398865
1451464054546173871	1.7444	11.329651	-1.6236877
1451464054554566205	1.8330841	11.246109	-1.2079315
1451464054562958539	1.9139862	11.214615	-0.67282104
1451464054571350872	1.8519897	11.558914	-0.0776062
1451464054579743206	1.8448029	12.187698	-0.3655243
1451464054588135540	2.0115662	12.545486	-1.1819916
1451464054596527874	2.2082062	12.768463	-1.9948883
1451464054604920208	2.9842987	12.916946	-2.0756378
1451464054613312542	2.905899	13.440475	-0.9202881
1451464054621704876	2.2250977	13.927536	0.04660034
1451464054630097210	1.8324585	14.160141	0.16612244
1451464054638489544	1.4248657	14.320618	0.26916504
1451464054646881878	0.9254761	13.933075	0.24476624
1451464054655274212	0.3814392	12.902725	0.13491821
1451464054663666546	-0.09503174	11.957626	0.17486572
1451464054672058880	-0.42468262	11.569489	0.28025818
1451464054680451214	-1.1809692	11.427078	0.56622314
1451464054688843548	-2.2742004	11.895477	1.1026459
1451464054697235882	-3.4397278	12.897903	1.0361786
1451464054705628216	-4.1999817	13.654175	0.5171051
1451464054714020550	-4.762268	14.249863	-0.03617859
1451464054722412884	-5.312027	14.848282	-0.8600464
1451464054730805218	-4.839615	14.377823	-0.6668701
1451464054739197552	-3.765213	13.251114	0.6923828
1451464054747589886	-3.1701813	12.859756	1.5386963
1451464054755982220	-2.555069	12.501221	2.4589386
1451464054764374554	-1.9955597	12.352524	3.2766876
1451464054772766888	-1.7536316	12.324432	2.8293304
1451464054781159222	-1.421524	12.056335	2.266922
1451464054789551556	-1.1850586	11.681061	1.8440857
1451464054797943890	-0.6110382	10.410049	1.2172089
1451464054806336224	0.03175354	9.157928	0.5853882
1451464054814728558	0.7881317	8.493301	0.3365326
1451464054823120892	1.1872253	8.054855	0.2690735
1451464054831513226	1.422409	7.6808777	0.21896362
1451464054839905560	1.7087097	7.0434113	0.052993774
1451464054848297894	1.0795593	7.0185394	0.21894836
1451464054856690228	1.3414459	6.7332153	0.0029144287
1451464054865082562	1.1762848	6.4607544	-0.111465454
1451464054873474896	0.9229584	6.167389	-0.17903137
1451464054881867230	0.40585327	5.8665314	0.007507324
1451464054890259564	-0.09693909	5.7268066	0.40812683
1451464054898651898	-0.46559143	5.5663757	0.716156
1451464054907044232	-0.52020264	5.349823	0.93400574
1451464054915436566	-0.3839569	4.926132	0.90779114
1451464054923828900	-0.27923584	4.473999	0.77531433
1451464054932221234	-0.7163391	4.1459656	0.9112549
1451464054940613568	-1.0227509	3.9888	1.1146088
1451464054949005902	-1.2425079	3.8731232	1.3112488
1451464054957398236	-1.2388153	3.50206	1.6332245
1451464054965790570	-0.72743225	2.944687	1.8133087
1451464054974182904	-0.59954834	2.9800262	1.9058533
1451464054982575238	-0.39785767	3.051834	2.0602264
1451464054990967572	0.25776672	3.305313	2.4730988
1451464054999359906	1.3278961	3.7430573	2.908371
1451464055007752240	2.2795258	4.5634766	3.206192
1451464055016144574	2.8601532	5.523697	3.1436615
1451464055024536908	3.203949	6.3192444	2.9296875
1451464055032929242	3.872406	7.9344788	2.4774017
1451464055041321576	5.0430145	10.494766	2.821579
1451464055049713910	5.9709167	12.372711	3.9032135
1451464055058106244	6.7709503	13.955444	5.082382
1451464055066498578	8.115509	16.1055	7.4743195
1451464055074890912	9.03067	16.529327	8.841141
1451464055083283246	8.948456	15.697388	9.6597595
1451464055091675580	8.817368	14.910843	9.505539
1451464055100067914	8.490356	13.978943	9.240036
1451464055108460247	7.2951813	12.476624	8.45372
1451464055116852581	5.3899384	10.233826	7.077591
1451464055125244915	3.515152	7.9608154	5.645996
1451464055133637249	2.102066	6.792557	4.648041
1451464055142029583	0.7465668	6.0352325	3.9878082
1451464055150421917	-0.36143494	6.752304	2.7520752
1451464055158814251	-1.9872131	8.859833	0.21498108
1451464055167206585	-3.0466614	10.565903	-1.2124329
1451464055175598919	-3.8833313	12.0811615	-2.244461
1451464055183991253	-5.0227203	15.444687	-1.081604
1451464055192383587	-3.6752167	17.16713	1.6106415
1451464055200775921	-0.49771118	15.561722	3.5263367
1451464055209168255	0.72901917	13.536865	3.885559
1451464055217560589	1.5108337	10.886932	4.387436
1451464055225952923	1.0285187	7.382263	4.43013
1451464055234345257	0.7885437	6.283539	2.105606
1451464055242737591	0.80532837	6.321869	-0.43989563
1451464055251129925	0.542511	6.4009094	-2.092041
1451464055259522259	0.11343384	7.2472534	-4.6149445
1451464055267914593	-0.23103333	8.976395	-5.119339
1451464055276306927	-0.8489227	11.014221	-2.9799652
1451464055284699261	-0.8618469	11.916321	-2.013382
1451464055293091595	-0.7178955	12.563416	-1.4048462
1451464055301483929	1.3004913	12.217331	-1.5085144
1451464055309876263	3.6319733	11.1323395	-1.5928955
1451464055318268597	4.7348785	10.339493	-0.9603119
1451464055326660931	4.4759064	10.014343	-0.42245483
1451464055335053265	3.9203491	9.700562	0.21177673
1451464055343445599	2.7404633	9.351547	0.6203613
1451464055351837933	1.7542267	8.633026	0.011962891
1451464055360230267	1.0361328	7.897766	-0.5654297
1451464055368622601	0.44172668	7.4653015	-0.78648376
1451464055377014935	-0.07948303	6.919464	-0.7925415
1451464055385407269	-0.59936523	6.454422	-0.47045898
1451464055393799603	-0.8155823	6.1580353	-0.25933838
1451464055402191937	-0.9499817	6.128586	-0.094451904
1451464055410584271	-1.0849304	6.138214	0.07133484
1451464055418976605	-0.4921875	6.4497375	-0.449234
1451464055427368939	-0.124069214	7.449417	-0.08100891
1451464055435761273	0.34751892	8.355026	0.16720581
1451464055444153607	0.62768555	8.736084	0.059249878
1451464055452545941	0.8503113	9.161743	-0.024978638
1451464055460938275	0.85861206	9.388611	0.08961487
1451464055469330609	0.8042755	8.970505	0.31333923
1451464055477722943	0.7994385	8.521957	0.32147217
1451464055486115277	0.75894165	8.259125	0.2507782
1451464055494507611	0.7074127	7.903122	0.2675476
1451464055502899945	0.6742096	7.884796	-0.008361816
1451464055511292279	0.7705078	8.214859	0.0234375
1451464055519684613	0.7575073	8.390945	-0.028900146
1451464055528076947	0.7328491	8.540817	-0.11105347
1451464055536469281	0.8385773	8.6073	-0.46310425
1451464055544861615	0.9889221	8.573578	-0.67796326
1451464055553253949	1.1426392	8.561615	-0.7452545
1451464055561646283	1.1889038	8.544266	-0.87506104
1451464055570038617	1.2016296	8.5412445	-1.0802002
1451464055578430951	1.0885162	8.623306	-1.3730011
1451464055586823285	0.7446747	9.004379	-1.4332428
1451464055595215619	0.3884735	9.469009	-1.4240417
1451464055603607953	0.11859131	9.844925	-1.4902344
1451464055612000287	-0.3521881	10.440796	-1.5987244
1451464055620392621	-0.5227356	10.966827	-1.7936859
1451464055628784955	-0.3499298	11.279861	-1.9295044
1451464055637177289	-0.03855896	11.333069	-1.9757233
1451464055645569622	0.3123169	11.349426	-1.9848938
1451464055653961956	1.0581207	11.123047	-1.5201416
1451464055662354290	1.4672089	11.141022	-0.7577057
1451464055670746624	1.5105286	11.537445	-0.26669312
1451464055679138958	1.5831299	11.831131	-0.20628357
1451464055687531292	1.7647095	12.212433	-0.48526
1451464055695923626	2.0752869	12.530426	-1.2913971
1451464055704315960	2.730133	12.360977	-1.7614746
1451464055712708294	3.0149384	12.289154	-1.6165924
1451464055721100628	2.8921967	12.41832	-1.2882233
1451464055729492962	2.2747192	13.057831	-0.17601013
1451464055737885296	1.5223541	13.978928	0.43252563
1451464055746277630	0.7374115	14.622406	0.2732544
1451464055754669964	0.40142822	14.526733	0.096069336
1451464055763062298	0.056854248	14.293488	-0.05895996
1451464055771454632	-0.42582703	13.100388	0.02319336
1451464055779846966	-0.68925476	12.077042	0.33703613
1451464055788239300	-1.218277	11.689407	0.4162445
1451464055796631634	-1.7349396	11.692627	0.4689331
1451464055805023968	-2.5396118	11.982407	0.5836334
1451464055813416302	-3.7685242	12.919205	0.37419128
1451464055821808636	-4.82605	14.300003	-0.18748474
1451464055830200970	-5.064087	15.060501	-0.27061462
1451464055838593304	-4.963196	15.437714	-0.11125183
1451464055846985638	-4.0951996	15.108185	0.6304779
1451464055855377972	-2.8853455	13.905014	2.056137
1451464055863770306	-2.411316	13.294937	2.7037964
1451464055872162640	-2.0180206	12.732773	3.2644043
1451464055880554974	-1.9302368	12.122543	3.3412628
1451464055888947308	-1.5514221	11.316177	2.4509735
1451464055897339642	-0.89904785	10.307922	1.3583527
1451464055905731976	-0.064590454	9.181854	0.8745117
1451464055914124310	-0.046585083	8.886902	0.6579437
1451464055922516644	0.35404968	8.313568	0.21186829
1451464055930908978	0.9992676	7.3422394	-0.23545837
1451464055939301312	1.2668915	6.7565155	-0.3127594
1451464055947693646	1.3838501	6.4519196	-0.28318787
1451464055956085980	0.9089966	6.4074097	-0.15942383
1451464055964478314	1.1842041	6.410202	-0.46453857
1451464055972870648	1.357132	6.152527	-0.31924438
1451464055981262982	1.272644	5.904648	-0.26213074
1451464055989655316	1.0967102	5.6584473	-0.1375122
1451464055998047650	0.2287445	5.4759064	0.57151794
1451464056006439984	-0.47576904	5.4511566	1.1504822
1451464056014832318	-0.5717621	5.0663757	1.3306885
1451464056023224652	-0.44197083	4.658325	1.4142151
1451464056031616986	-0.44651794	4.526886	1.541565
1451464056040009320	-0.8034363	4.8364105	1.496048
1451464056048401654	-1.1407318	4.6531982	1.6903076
1451464056056793988	-1.1401062	4.229141	1.9593201
1451464056065186322	-1.0347137	3.889862	2.1103363
1451464056073578656	-0.78434753	3.3603516	2.3163605
1451464056081970990	-0.26765442	2.9966278	2.632187
1451464056090363324	0.564209	2.9990997	3.2490997
1451464056098755658	1.026886	3.1950836	3.671936
1451464056107147992	1.5578003	3.4855804	4.071579
1451464056115540326	2.4873505	4.383362	4.189743
1451464056123932660	3.498169	5.5893097	3.6523285
1451464056132324994	4.5547943	7.015106	3.0675507
1451464056140717328	5.2815704	8.300308	2.9685822
1451464056149109662	6.775879	10.586792	3.3062286
1451464056157501996	9.135925	13.50499	4.5046997
1451464056165894330	9.962906	15.403503	6.2841644
1451464056174286664	9.751373	15.805252	7.619049
1451464056182678997	9.495621	15.738419	8.695419
1451464056191071331	8.899124	14.446213	10.078674
1451464056199463665	9.0482025	13.546127	8.958328
1451464056207855999	7.7501526	12.5522	7.2946167
1451464056216248333	6.4084015	11.427643	6.443161
1451464056224640667	4.5754547	10.037857	5.487152
1451464056233033001	0.813385	7.910248	4.5768433
1451464056241425335	-1.494751	7.831436	4.9948425
1451464056249817669	-2.2271729	9.0585785	4.496826
1451464056258210003	-2.535614	10.0392	3.2713928
1451464056266602337	-3.0975037	11.254959	1.1117859
1451464056274994671	-3.8115234	12.508316	-0.21138
1451464056283387005	-3.7836456	13.428055	0.6837158
1451464056291779339	-3.079834	13.371918	1.9290161
1451464056300171673	-2.2572937	13.002426	3.1036987
1451464056308564007	-1.1644592	11.496155	4.522888
1451464056316956341	-0.4774475	9.64917	4.7916107
1451464056325348675	0.2638092	8.1766205	2.947754
1451464056333741009	0.49900818	8.00827	1.5224609
1451464056342133343	0.65625	7.9125366	-0.16586304
1451464056350525677	0.3720703	8.249451	-2.6840668
1451464056358918011	-0.16264343	9.017822	-3.9235382
1451464056367310345	-0.29011536	9.65802	-3.2905273
1451464056375702679	-0.23742676	10.116196	-2.5663147
1451464056384095013	0.004333496	11.065872	-1.8924408
1451464056392487347	0.7340088	11.97319	-1.788559
1451464056400879681	2.0569916	11.87471	-2.123703
1451464056409272015	2.9365234	11.380325	-2.0611267
1451464056417664349	3.6343994	10.864319	-1.8638458
1451464056426056683	3.8719177	9.938797	-0.75112915
1451464056434449017	3.0357819	9.517029	0.22361755
1451464056442841351	2.4760742	9.1805725	0.46870422
1451464056451233685	2.1554108	8.963379	0.31062317
1451464056459626019	1.7878113	8.601898	0.027252197
1451464056468018353	1.3272247	7.785904	-0.5307312
1451464056476410687	0.7406006	7.052368	-0.52223206
1451464056484803021	0.18591309	6.654907	-0.08633423
1451464056493195355	0.06317139	6.3798676	0.17456055
1451464056501587689	-0.17098999	6.2289886	0.21722412
1451464056509980023	-0.5035095	6.2950134	0.22964478
1451464056518372357	-0.47036743	6.5089874	0.06376648
1451464056526764691	-0.27215576	6.715576	-0.31266785
1451464056535157025	-0.06652832	6.913498	-0.7194214
1451464056543549359	0.21331787	7.6374207	-0.69937134
1451464056551941693	0.49217224	8.172882	-0.6833496
1451464056560334027	0.6146698	8.204544	-0.7121582
1451464056568726361	0.57547	8.205185	-0.40177917
1451464056577118695	0.4923401	8.200043	-0.0463562
1451464056585511029	0.3280487	8.151154	0.3448639
1451464056593903363	0.18278503	8.08049	0.5145874
1451464056602295697	0.111694336	8.118805	0.49108887
1451464056610688031	0.15153503	8.225479	0.3934021
1451464056619080365	0.2911682	8.472824	0.28018188
1451464056627472699	0.4723816	8.812332	-0.02142334
1451464056635865033	0.6790314	8.988556	-0.43780518
1451464056644257367	0.90740967	9.008987	-0.685791
1451464056652649701	1.1381073	9.009628	-0.9004364
1451464056661042035	1.447876	9.012466	-1.2187958
1451464056669434369	1.5640106	8.991943	-1.1251221
1451464056677826703	1.5478058	9.116028	-1.0546722
1451464056686219037	1.3132477	9.292755	-0.9576416
1451464056694611371	0.98680115	9.614365	-0.8805847
1451464056703003705	0.4469757	10.339279	-0.90267944
1451464056711396039	0.010498047	11.135071	-1.1477966
1451464056719788372	-0.06324768	11.530319	-1.4516602
1451464056728180706	0.0382843	11.66655	-1.6720734
1451464056736573040	0.5089874	11.692108	-2.0632324
1451464056744965374	1.3804932	11.553238	-1.8748779
1451464056753357708	2.0819855	11.43425	-0.8545532
1451464056761750042	2.1462402	11.553925	-0.27929688
1451464056770142376	2.1266937	11.708649	0.21205139
1451464056778534710	1.870163	12.091675	0.38043213
1451464056786927044	1.8900452	12.38472	-0.5184021
1451464056795319378	2.1700592	12.560898	-1.2634735
1451464056803711712	2.3082123	12.763962	-1.3759308
1451464056812104046	2.5788727	12.928696	-1.4718018
1451464056820496380	2.5769653	13.202118	-1.0041809
1451464056828888714	2.028595	13.514053	-0.18998718
1451464056837281048	1.5941925	13.635498	0.27268982
1451464056845673382	1.0158539	13.841263	0.2780304
1451464056854065716	0.36383057	13.6716	0.120895386
1451464056862458050	-0.17918396	12.708374	0.1166687
1451464056870850384	-0.42736816	12.160217	0.32463074
1451464056879242718	-0.6278534	11.71875	0.56495667
1451464056887635052	-1.3099365	11.580215	0.963562
1451464056896027386	-2.591507	12.068573	1.1108398
1451464056904419720	-4.168701	13.068817	0.110076904
1451464056912812054	-5.4955444	14.272385	-1.1295471
1451464056921204388	-5.870819	14.9522705	-1.4688416
1451464056929596722	-5.8389435	15.503616	-1.3141022
1451464056937989056	-4.8731995	15.299103	-0.06985474
1451464056946381390	-3.8962097	14.545471	1.1399536
1451464056954773724	-3.223404	13.867538	1.9817657
1451464056963166058	-2.427597	12.99704	3.1121674
1451464056971558392	-1.923584	12.402313	3.3679962
1451464056979950726	-1.5089417	11.877731	2.8310242
1451464056988343060	-1.0249329	11.3479	2.3063965
1451464056996735394	-0.53100586	10.801605	1.7950592
1451464057005127728	0.036132813	9.519897	1.1940613
1451464057013520062	0.5848541	8.667755	0.49705505
1451464057021912396	1.1294708	7.793976	-0.0033416748
1451464057030304730	1.3659515	7.3704987	-0.10745239
1451464057038697064	1.4424133	6.816513	-0.18559265
1451464057047089398	1.3491974	6.274338	-0.21957397
1451464057055481732	1.6111755	6.0618896	-0.3088379
1451464057063874066	1.8419037	5.941635	-0.53125
1451464057072266400	1.8913879	5.872238	-0.81269836
1451464057080658734	1.6134033	5.6718597	-0.82577515
1451464057089051068	1.0336151	5.6326904	-0.4965515
1451464057097443402	0.47969055	5.5614014	0.12547302
1451464057105835736	0.3075409	5.245804	0.33036804
1451464057114228070	0.17500305	4.884796	0.4986267
1451464057122620404	0.05267334	4.1986237	0.73706055
1451464057131012738	-0.7652893	4.1449738	1.0805359
1451464057139405072	-1.1568451	4.168976	1.2925262
1451464057147797406	-1.1915436	4.141983	1.5007172
1451464057156189740	-1.0571289	3.8229218	1.7291565
1451464057164582074	-0.9262085	3.3639984	1.8744812
1451464057172974408	-0.7589264	3.159317	1.9167328
1451464057181366742	-0.30978394	3.0543365	2.0950165
1451464057189759076	0.14710999	3.051117	2.3475647
1451464057198151410	1.0868073	3.2649994	2.9308014
1451464057206543744	1.9484711	3.9732666	3.401886
1451464057214936078	2.8207397	5.0375214	3.2361755
1451464057223328412	3.2432556	5.8861847	2.9817047
1451464057231720746	3.6632843	6.8977966	2.6963959
1451464057240113080	4.3338623	9.711014	2.3696594
1451464057248505414	5.89534	13.164764	3.8947754
1451464057256897747	8.462677	15.795578	6.5644226
1451464057265290081	9.456146	16.79419	7.4152374
1451464057273682415	10.009094	17.286667	8.147293
1451464057282074749	9.705658	16.388489	8.8368225
1451464057290467083	9.00705	14.2799835	9.128754
1451464057298859417	8.404572	12.823151	8.629944
1451464057307251751	7.8981934	11.916428	7.8999634
1451464057315644085	6.3116913	10.031036	6.3088837
1451464057324036419	3.425232	7.520279	4.5572815
1451464057332428753	0.5125427	5.789032	3.8250275
1451464057340821087	-0.32063293	6.0506134	4.135437
1451464057349213421	-1.225235	6.6426697	4.2284393
1451464057357605755	-2.5564575	9.420517	2.3512726
1451464057365998089	-3.3576813	12.555969	-0.85202026
1451464057374390423	-3.9889984	15.028641	-1.6147308
1451464057382782757	-3.9568787	16.117859	-0.76135254
1451464057391175091	-3.0413055	16.45372	1.2019806
1451464057399567425	-1.0936432	14.670898	3.828827
1451464057407959759	-0.22932434	11.12941	5.445282
1451464057416352093	-0.3157959	8.809891	5.971222
1451464057424744427	-0.5130768	7.254135	6.1511536
1451464057433136761	-0.49542236	6.7350616	3.289215
1451464057441529095	-0.3235321	7.1746826	-0.6582031
1451464057449921429	-0.98358154	7.7731934	-4.2724457
1451464057458313763	-1.3897095	8.289215	-4.6091766
1451464057466706097	-1.7070465	8.867889	-4.5619507
1451464057475098431	-1.504303	9.966019	-2.6886597
1451464057483490765	-0.7706146	11.650055	-1.6984558
1451464057491883099	0.61634827	12.5525055	-2.0780792
1451464057500275433	2.0358582	12.470245	-2.4392242
1451464057508667767	3.9393768	11.852921	-2.5071259
1451464057517060101	5.226837	10.787659	-1.6315918
1451464057525452435	4.77388	9.806076	-0.19796753
1451464057533844769	3.9956665	9.270294	0.44776917
1451464057542237103	3.2926483	8.899506	0.7703552
1451464057550629437	1.8473663	8.364929	0.7510376
1451464057559021771	0.5797272	7.3111115	-0.17329407
1451464057567414105	-0.57951355	6.428192	-1.1884766
1451464057575806439	-1.075592	6.3247223	-0.9783478
1451464057584198773	-1.5444641	6.294937	-0.822525
1451464057592591107	-1.7638855	6.605835	-0.969162
1451464057600983441	-1.5733948	7.0859375	-1.0295868
1451464057609375775	-1.2336578	7.4410095	-0.6178589
1451464057617768109	-0.7587738	7.536743	-0.4302063
1451464057626160443	-0.24259949	7.8629	-0.22845459
1451464057634552777	0.41471863	8.311539	-0.032592773
1451464057642945111	1.1241608	8.4795685	-0.19729614
1451464057651337445	1.3299408	8.428848	-0.24801636
1451464057659729779	1.3755646	8.342743	-0.2107544
1451464057668122113	1.4010773	7.969208	0.10934448
1451464057676514447	1.2346344	7.5956726	0.56744385
1451464057684906781	0.91511536	7.2763824	1.1136322
1451464057693299115	0.6227417	7.314926	0.9452667
1451464057701691449	0.3844757	7.4725494	0.6859131
1451464057710083783	0.39590454	8.0048065	0.2015686
1451464057718476117	0.568161	8.519592	-0.19747925
1451464057726868451	0.6899414	8.878738	-0.5426941
1451464057735260785	0.7779846	9.070236	-0.7078552
1451464057743653119	0.93862915	9.307617	-0.78685
1451464057752045453	1.2558441	9.469849	-0.7299652
1451464057760437787	1.6304169	9.575226	-0.869812
1451464057768830121	1.5869598	9.504868	-1.0917053
1451464057777222455	1.434021	9.38855	-1.3114777
1451464057785614789	1.2487946	9.191498	-1.4786072
1451464057794007122	0.9457092	9.382629	-1.445221
1451464057802399456	0.43850708	9.818375	-1.3141785
1451464057810791790	0.1506195	10.190445	-1.3276672
1451464057819184124	-0.017211914	10.645447	-1.4343872
1451464057827576458	0.24250793	11.21106	-1.7839355
1451464057835968792	0.7545929	11.407211	-1.996933
1451464057844361126	1.3200836	11.36673	-2.0207214
1451464057852753460	2.0127258	11.24704	-1.7124023
1451464057861145794	2.4822083	11.137573	-0.9794922
1451464057869538128	2.507431	11.349472	-0.22729492
1451464057877930462	2.3473969	11.617996	0.058914185
1451464057886322796	2.1636047	11.865402	0.20863342
1451464057894715130	2.080246	12.303864	-0.38446045
1451464057903112892	2.2918549	12.649582	-1.2595062
1451464057911505226	2.4177246	13.094833	-1.6438599
1451464057919897560	2.5430298	13.021576	-1.4183044
1451464057928289894	2.4145508	12.935165	-1.0100403
1451464057936682228	1.3703918	12.91806	-0.11897278
1451464057945074562	0.24310303	13.177322	0.103256226
1451464057953466896	-0.36291504	13.311966	-0.24789429
1451464057961859230	-0.72406006	13.227142	-0.34428406
1451464057970251564	-1.2010345	12.933365	0.15896606
1451464057978643898	-1.8916321	12.877014	1.2606354
1451464057987036232	-2.8465424	13.583282	1.6557617
1451464057995428566	-3.4453583	13.949783	1.4724884
1451464058003820900	-3.934372	14.175339	1.2180176
1451464058012213234	-5.088562	14.373444	0.64138794
1451464058020605568	-5.974991	14.769913	-0.6590271
1451464058028997902	-5.7003937	14.965988	-1.4004059
1451464058037390236	-5.070648	14.793121	-0.8574066
1451464058045782570	-4.209503	14.498093	0.19065857
1451464058054174904	-2.9494324	13.838638	2.4212494
1451464058062567238	-2.192505	13.08606	3.7440033
1451464058070959572	-1.6514435	12.565613	3.6836853
1451464058079351906	-1.1360779	12.2886505	3.1798859
1451464058087744240	-0.5154114	12.008072	2.0932922
1451464058096136574	0.40397644	11.0451355	1.0183411
1451464058104528908	0.9784851	9.956772	0.18148804
1451464058112921242	1.2814789	9.439636	-0.18501282
1451464058121313576	1.5578003	9.0264435	-0.46195984
1451464058129705910	1.9023285	7.934143	-0.63868713
1451464058138098244	1.9312744	6.8647614	-0.5558624
1451464058146490578	1.2836456	6.4115295	-0.7779541
1451464058154882912	1.217453	6.3337708	-0.97525024
1451464058163275246	1.3767242	6.1659546	-1.3504181
1451464058171667580	1.6556091	5.6955414	-1.8310547
1451464058180059914	1.016037	5.205414	-1.5165405
1451464058188452248	0.2662964	4.914398	-0.99069214
1451464058196844582	-0.22079468	4.638077	-0.6552582
1451464058205236916	-0.46632385	4.042801	-0.07144165
1451464058213629250	-0.21455383	3.5992126	0.40068054
1451464058222021584	-0.01637268	3.9192352	0.9494629
1451464058230413918	-0.35578918	3.9359741	1.2065125
1451464058238806252	-0.77145386	3.8786774	1.4145813
1451464058247198586	-1.4806976	3.285965	1.7832336
1451464058255590920	-1.636261	2.7642975	2.1362457
1451464058263983254	-1.5553589	2.4698334	2.2126923
1451464058272375588	-1.4371185	2.4242096	2.2255402
1451464058280767922	-1.1751709	2.5057373	2.331787
1451464058289160256	-0.50424194	3.0228271	2.6608887
1451464058297552590	0.4030609	3.84169	3.0164185
1451464058305944924	1.1492615	4.4723206	3.1743011
1451464058314337258	1.7385254	4.9349976	3.21286
1451464058322729592	2.887268	6.053604	2.9696503
1451464058331121925	4.3843536	8.2969055	2.1253967
1451464058339514259	5.8836517	11.732666	2.3418274
1451464058347906593	7.085556	13.706924	3.7915192
1451464058356298927	8.343872	15.520172	5.429062
1451464058364691261	11.265274	17.450851	8.650177
1451464058373083595	12.032898	18.049988	9.841217
1451464058381475929	11.547165	16.82016	10.58165
1451464058389868263	10.854431	15.548447	10.654907
1451464058398260597	9.841171	13.688416	10.192596
1451464058406652931	7.7393036	10.894653	8.191605
1451464058415045265	4.0819244	7.881012	5.639206
1451464058423437599	1.0052338	6.046646	4.1397095
1451464058431829933	-1.1545715	5.1367188	3.1867218
1451464058440222267	-2.8786774	5.482376	2.879013
1451464058448614601	-3.8587036	7.8413544	2.4367828
1451464058457006935	-4.097534	10.775467	0.14372253
1451464058465399269	-3.9332733	12.577667	-0.53964233
1451464058473791603	-3.7056732	14.3871155	-0.9107971
1451464058482183937	-2.8054047	16.760284	0.94725037
1451464058490576271	-0.9559784	16.559418	2.531128
1451464058498968605	0.41635132	14.268097	3.65094
1451464058507360939	0.742157	12.232315	4.277466
1451464058515753273	0.73851013	9.4075165	4.7079773
1451464058524145607	0.488266	7.080124	3.6229248
1451464058532537941	-0.13154602	7.0310516	0.98054504
1451464058540930275	-0.8382416	7.287155	-1.4776764
1451464058549322609	-1.3381805	7.414383	-3.7036438
1451464058557714943	-1.8559723	7.743744	-5.0210876
1451464058566107277	-1.4290161	8.63623	-3.3350525
1451464058574499611	-0.97184753	10.697128	-1.9777527
1451464058582891945	-0.30784607	11.452225	-2.1058807
1451464058591284279	0.55096436	12.072601	-2.2546234
1451464058599676613	2.9456482	11.818329	-2.1885529
1451464058608068947	5.3331146	11.180511	-1.391449
1451464058616461281	5.980438	10.707474	-0.33068848
1451464058624853615	5.5659637	10.478714	0.41409302
1451464058633245949	4.53273	10.080795	1.0737
1451464058641638283	2.7572632	9.145935	1.1598358
1451464058650030617	1.3363342	7.4404755	0.40592957
1451464058658422951	0.36889648	6.4653625	-0.117874146
1451464058666815285	-0.49734497	6.006546	-0.38905334
1451464058675207619	-1.5876617	5.7064514	-0.36247253
1451464058683599953	-1.9757385	5.5264893	-0.45513916
1451464058691992287	-2.0496063	5.644562	-0.2858429
1451464058700384621	-1.8773956	5.674118	-0.3725891
1451464058708776955	-1.6252899	5.841278	-0.42274475
1451464058717169289	-0.84902954	6.792282	-0.2849121
1451464058725561623	0.14920044	7.8291473	-0.24421692
1451464058733953957	0.7823944	8.639938	-0.30941772
1451464058742346291	1.0355835	8.988876	-0.37174988
1451464058750738625	1.2631531	9.282425	-0.34284973
1451464058759130959	1.4204559	9.240219	0.028762817
1451464058767523293	1.2575989	8.756287	0.3970337
1451464058775915627	1.0018768	8.389923	0.480896
1451464058784307961	0.7756653	8.127106	0.49246216
1451464058792700295	0.46598816	8.0242	0.09202576
1451464058801092629	0.32852173	8.213715	-0.25927734
1451464058809484963	0.33268738	8.184402	-0.28640747
1451464058817877297	0.3397522	8.237091	-0.510025
1451464058826269631	0.4159546	8.304367	-0.72587585
1451464058834661965	0.78071594	8.439484	-0.8851471
1451464058843054299	1.0556946	8.543793	-0.9677887
1451464058851446633	1.193222	8.553436	-1.0301361
1451464058859838967	1.3002319	8.672852	-1.1298523
1451464058868231300	1.1434174	8.957474	-1.3254089
1451464058876623634	0.6338196	9.500412	-1.3885956
1451464058885015968	0.20663452	10.042725	-1.3320313
1451464058893408302	-0.13137817	10.513107	-1.2741852
1451464058901800636	-0.532959	11.253418	-1.6071777
1451464058910192970	-0.5851898	11.747925	-2.0674744
1451464058918585304	0.0723114	12.003967	-2.2848206
1451464058926977638	0.64294434	11.988541	-2.2096252
1451464058935369972	1.2694397	11.92952	-2.0362701
1451464058943762306	2.1463776	11.662735	-1.2547455
1451464058952154640	2.575531	11.727112	-0.21707153
1451464058960546974	2.4126587	12.248566	0.3626709
1451464058968939308	2.3561249	12.578217	0.1981659
1451464058977331642	2.3427734	12.783066	-0.6383667
1451464058985723976	2.476532	12.847168	-1.8515015
1451464058994116310	2.5388794	12.832779	-1.6009369
1451464059002508644	2.1652527	12.939026	-0.7237091
1451464059010900978	1.6473236	13.109955	0.12324524
1451464059019293312	0.874588	13.42572	0.45187378
1451464059027685646	0.1265564	13.67926	-0.33283997
1451464059036077980	-0.6068115	13.43222	-0.7467499
1451464059044470314	-0.62802124	13.159119	-0.24873352
1451464059052862648	-0.6986389	12.914871	0.30711365
1451464059061254982	-1.1919403	12.966476	0.99183655
1451464059069647316	-2.3694916	13.579025	1.1858673
1451464059078039650	-3.524887	14.164307	0.84477234
1451464059086431984	-4.4161835	14.503601	0.21951294
1451464059094824318	-5.5595856	15.057312	-0.49876404
1451464059103216652	-6.132614	15.374344	-0.71855164
1451464059111608986	-5.318054	14.785629	0.18499756
1451464059120001320	-4.5950623	14.183502	1.0403595
1451464059128393654	-4.046921	13.680359	1.7568512
1451464059136785988	-3.1722565	13.126663	2.6545105
1451464059145178322	-2.754547	12.639221	3.138092
1451464059153570656	-2.4294586	11.943115	2.870926
1451464059161962990	-2.079239	11.56012	2.2456818
1451464059170355324	-1.4777222	11.001358	1.6279297
1451464059178747658	-0.22372437	9.768326	1.1393127
1451464059187139992	0.5105438	8.717606	0.7421875
1451464059195532326	1.0128326	8.323059	0.29049683
1451464059203924660	1.3604889	7.936859	0.10864258
1451464059212316994	1.6834106	7.436569	0.0068969727
1451464059220709328	1.6761475	7.0776215	0.13653564
1451464059229101662	1.8616943	6.854706	0.07383728
1451464059237493996	1.9107056	6.623169	-0.13394165
1451464059245886330	1.8805084	6.38797	-0.34985352
1451464059254278664	1.1461945	5.688095	-0.52557373
1451464059262670998	0.38475037	5.004196	-0.4703369
1451464059271063332	-0.42510986	4.4482574	0.032409668
1451464059279455666	-0.55747986	4.292755	0.06968689
1451464059287848000	-0.58102417	3.9618835	0.1772461
1451464059296240334	-0.4272461	3.452774	0.491745
1451464059304632668	-0.6396179	3.6015167	0.84503174
1451464059313025002	-0.92453	3.7303772	1.1752777
1451464059321417336	-1.0928955	3.7592926	1.4567413
1451464059329809670	-1.0162964	3.4659119	1.6620483
1451464059338202004	-0.88941956	3.0703735	1.8223419
1451464059346594338	-0.82481384	2.7320404	2.068039
1451464059354986672	-0.532547	2.5811462	2.352295
1451464059363379006	-0.18876648	2.4712677	2.6389008
1451464059371771340	0.60569763	2.7843323	3.364273
1451464059380163674	1.5425873	3.743225	3.7593994
1451464059388556008	2.5872955	4.9609222	3.4714203
1451464059396948342	3.1778412	5.8599396	2.999115
1451464059405340675	3.8768158	7.3180847	2.4536743
1451464059413733009	4.793686	10.340958	2.4951477
1451464059422125343	6.3130035	13.829529	4.375351
1451464059430517677	8.313171	16.027832	6.2443695
1451464059438910011	9.969162	16.975037	7.419693
1451464059447302345	10.853577	17.390656	8.757645
1451464059455694679	10.400543	16.18715	9.866592
1451464059464087013	9.899399	14.159485	10.25824
1451464059472479347	9.228928	13.288757	9.660736
1451464059480871681	8.514999	12.628799	8.922379
1451464059489264015	5.919037	10.405914	6.407486
1451464059497656349	2.2806396	8.036987	4.0648804
1451464059506048683	-0.33924866	7.6209564	3.2203827
1451464059514441017	-1.172699	8.573944	2.9665527
1451464059522833351	-2.2367249	10.269058	1.9823151
1451464059531225685	-3.460434	13.040726	-0.49201965
1451464059539618019	-3.6035461	14.467072	-1.6306763
1451464059548010353	-3.0567474	14.374069	-0.7644501
1451464059556402687	-2.5362244	13.746246	0.46806335
1451464059564795021	-1.5078888	11.687607	3.1538086
1451464059573187355	-0.95944214	9.043228	4.921631
1451464059581579689	-0.95796204	7.976074	5.315689
1451464059589972023	-1.0241547	7.2454376	5.525177
1451464059598364357	-0.53596497	6.6744537	3.856079
1451464059606756691	-0.33065796	7.348419	-0.6113739
1451464059615149025	-0.6003418	8.415024	-3.6308289
1451464059623541359	-0.86894226	9.180359	-4.0806427
1451464059631933693	-1.0967255	10.032654	-3.9243317
1451464059640326027	-1.1421356	11.170288	-2.2944794
1451464059648718361	-0.438797	12.327057	-1.3909454
1451464059657110695	0.92941284	12.6931	-1.7115326
1451464059665503029	2.2152557	12.459198	-2.140152
1451464059673895363	4.276169	11.581985	-2.237915
1451464059682287697	5.647888	10.660477	-1.4993744
1451464059690680031	5.2147675	9.83667	-0.20037842
1451464059699072365	4.495163	9.367279	0.45144653
1451464059707464699	3.7889404	8.957291	0.98287964
1451464059715857033	2.447815	7.9819794	1.0327148
1451464059724249367	0.978775	7.058487	0.18571472
1451464059732641701	0.015380859	6.521805	-0.8118286
1451464059741034035	-0.5539551	6.3842926	-0.84524536
1451464059749426369	-1.0508118	6.2762146	-0.8158417
1451464059757818703	-1.2000275	6.305603	-0.7256775
1451464059766211037	-1.1058502	6.508209	-0.66259766
1451464059774603371	-0.99775696	6.6776886	-0.5251312
1451464059782995705	-0.8293915	6.768936	-0.3792572
1451464059791388039	-0.43579102	7.27092	-0.51205444
1451464059799780373	-0.113708496	7.991852	-0.3653412
1451464059808172707	0.36557007	8.552353	-0.16412354
1451464059816565041	0.62435913	8.635803	-0.2590027
1451464059824957375	0.83935547	8.653137	-0.37471008
1451464059833349709	0.66104126	8.240646	-0.12619019
1451464059841742043	0.30110168	7.7192993	0.14372253
1451464059850134377	0.109451294	7.2815704	0.28822327
1451464059858526711	-0.021652222	7.219879	0.29208374
1451464059866919045	-0.046783447	7.260269	0.24343872
1451464059875311379	0.1867981	7.61792	0.1585083
1451464059883703713	0.5015869	8.085953	0.08294678
1451464059892096047	0.63998413	8.398956	-0.17715454
1451464059900488381	0.66889954	8.6515045	-0.53315735
1451464059908880715	0.76524353	9.047745	-0.85754395
1451464059917273049	0.9403229	9.289978	-1.0587921
1451464059925665383	1.1480713	9.325882	-1.1656647
1451464059934057717	1.177597	9.36676	-1.2913666
1451464059942450050	1.1737213	9.420074	-1.4197388
1451464059950842384	0.87994385	9.660049	-1.5340729
1451464059959234718	0.38798523	10.246353	-1.4919586
1451464059967627052	-0.21789551	10.859772	-1.3906555
1451464059976019386	-0.46850586	11.103958	-1.4144287
1451464059984411720	-0.47511292	11.363068	-1.5988464
1451464059992804054	0.1357727	11.543167	-2.0101166
1451464060001196388	1.1139984	11.56102	-2.116623
1451464060009588722	1.7553558	11.524841	-1.7815399
1451464060017981056	2.1544037	11.483078	-1.3278656
1451464060026373390	2.2980347	11.705505	-0.3477173
1451464060034765724	2.20224	12.028442	0.45237732
1451464060043158058	1.9767609	12.290253	-0.18449402
1451464060051550392	1.9702606	12.410461	-0.8294983
1451464060059942726	2.002716	12.536148	-1.4033813
1451464060068335060	2.2753754	12.729874	-1.2720032
1451464060076727394	2.258728	12.878357	-0.62034607
1451464060085119728	1.7663879	13.081818	-0.5239258
1451464060093512062	1.4206543	13.164719	-0.54319763
1451464060101904396	0.96310425	13.0850525	-0.5589905
1451464060110296730	0.4234619	12.852905	-0.67549133
1451464060118689064	-0.11087036	12.624084	-0.36036682
1451464060127081398	-0.58966064	12.575989	0.22692871
1451464060135473732	-1.0234222	12.635757	0.7641449
1451464060143866066	-1.987854	13.157623	0.7834778
1451464060152258400	-3.189209	13.729797	0.54914856
1451464060160650734	-4.6713257	14.218842	0.21662903
1451464060169043068	-5.399399	14.555557	-0.1355133
1451464060177435402	-6.116806	14.908325	-0.50497437
1451464060185827736	-6.512985	15.197952	-0.7005768
1451464060194220070	-5.790436	14.692444	0.4069214
1451464060202612404	-4.86084	13.920456	1.7951508
1451464060211004738	-4.304352	13.590149	2.457672
1451464060219397072	-3.5631104	13.2229	3.1311493
1451464060227789406	-2.9842987	12.801041	3.4250488
1451464060236181740	-2.3186035	12.123886	2.9761963
1451464060244574074	-1.5327301	11.5164795	2.3505554
1451464060252966408	-0.7918091	11.003693	1.7606506
1451464060261358742	0.5992737	9.687164	1.4126129
1451464060269751076	0.7162323	8.902252	0.99261475
1451464060278143410	1.8459625	8.12999	-0.023803711
1451464060286535744	2.1492615	7.614624	-0.383667
1451464060294928078	2.3756409	7.1409454	-0.7199402
1451464060303320412	2.264267	6.8976135	-0.95155334
1451464060311712746	2.3067932	6.631729	-1.0026093
1451464060320105080	2.3960876	6.090515	-0.79533386
1451464060328497414	2.209732	5.5879974	-0.84161377
1451464060336889748	1.4392395	4.876175	-0.877121
1451464060345282082	0.4191742	4.303055	-0.71466064
1451464060353674416	-0.32470703	4.1712494	-0.25875854
1451464060362066750	-0.56707764	4.00473	0.12791443
1451464060370459084	-0.6403351	3.784958	0.45822144
1451464060378851418	-0.2534027	3.163086	1.190628
1451464060387243752	-0.924469	3.7709656	1.3044281
1451464060395636086	-1.1512604	3.9635162	1.186142
1451464060404028420	-1.198822	3.795807	1.3159485
1451464060412420754	-1.2174225	3.586319	1.4644928
1451464060420813088	-1.0822601	3.2789307	1.6988373
1451464060429205422	-0.7653198	3.1432037	2.0594025
1451464060437597756	-0.3368683	3.133789	2.5014496
1451464060445990090	0.09046936	3.215393	2.846527
1451464060454382424	0.7326355	3.6824188	3.3524628
1451464060462774758	1.6575928	4.56868	3.748703
1451464060471167092	2.5304413	5.653702	3.6845093
1451464060479559425	3.04747	6.606613	3.3700104
1451464060487951759	3.472229	7.502411	3.0217285
1451464060496344093	4.5120087	10.324112	2.8782349
1451464060504736427	6.386078	13.997589	4.095749
1451464060513128761	9.666824	16.664352	6.288391
1451464060521521095	11.164078	16.994003	6.9136353
1451464060529913429	12.175705	16.9059	7.8099365
1451464060538305763	11.630112	15.248962	9.314301
1451464060546698097	10.782913	13.165619	9.800735
1451464060555090431	9.854446	11.983734	9.09816
1451464060563482765	8.96637	11.39061	8.086044
1451464060571875099	6.5883026	9.624451	6.098648
1451464060580267433	2.7519226	6.8350983	3.4476929
1451464060588659767	0.7469177	5.306946	2.561798
1451464060597052101	-0.5145111	4.2762146	2.314392
1451464060605444435	-2.0400848	3.7692719	2.8919525
1451464060613836769	-3.345169	5.5285797	2.4100647
1451464060622229103	-3.9685059	9.099823	-0.920578
1451464060630621437	-4.473587	11.587982	-1.2881317
1451464060639013771	-5.2355347	14.702011	-1.1490021
1451464060647406105	-6.06427	19.79071	1.0542603
1451464060655798439	-3.4918823	22.445602	2.6003113
1451464060664190773	0.15164185	20.754791	2.51326
1451464060672583107	2.1115723	17.509659	3.3274384
1451464060680975441	3.118225	11.412582	3.822525
1451464060689367775	1.2018127	6.4676514	3.1785126
1451464060697760109	0.047424316	5.818283	1.077713
1451464060706152443	-0.32904053	5.545059	-0.75819397
1451464060714544777	-0.7306671	5.087509	-2.3968353
1451464060722937111	-2.0699005	4.931427	-4.551895
1451464060731329445	-2.4710236	6.821472	-4.0277405
1451464060739721779	-2.5957336	9.719788	-3.1985168
1451464060748114113	-2.106079	10.784576	-2.8650055
1451464060756506447	-0.9343109	11.775925	-2.5548859
1451464060764898781	2.414688	12.377075	-2.2754211
1451464060773291115	5.529999	12.4396515	-1.7225189
1451464060781683449	6.666687	12.174759	-0.8914032
1451464060790075783	6.595352	11.839325	-0.08622742
1451464060798468117	5.319916	10.855377	0.71318054
1451464060806860451	3.031067	9.083923	0.5636749
1451464060815252785	0.633255	7.392044	-0.40994263
1451464060823645119	-0.330307	6.700577	-0.89172363
1451464060832037453	-0.9510498	6.2263336	-1.2258759
1451464060840429787	-1.7049255	5.60141	-1.1918793
1451464060848822121	-2.526474	5.4903564	-0.9485626
1451464060857214455	-2.54953	5.7009125	-0.49964905
1451464060865606789	-2.2654877	5.931595	-0.41931152
1451464060873999123	-1.814331	6.427185	-0.25056458
1451464060882391457	-0.870224	7.511078	0.124923706
1451464060890783791	0.22550964	8.402527	0.12854004
1451464060899176125	0.9200287	8.847763	-0.2538147
1451464060907568459	1.2111206	8.964706	-0.54748535
1451464060915960793	1.3832245	8.957352	-0.37294006
1451464060924353127	1.3975525	8.610596	0.31851196
1451464060932745461	1.4092712	7.957657	0.81640625
1451464060941137795	1.3622589	7.6824646	0.7468109
1451464060949530129	1.3025055	7.4877625	0.588089
1451464060957922463	1.2408295	7.473877	0.022918701
1451464060966314797	1.1291199	7.889923	-0.39837646
1451464060974707131	1.0178986	8.472961	-0.61439514
1451464060983099465	0.9864197	8.773056	-0.72621155
1451464060991491799	1.0565033	9.121735	-0.8266754
1451464060999884133	1.3842926	9.3828125	-0.8727112
1451464061008276467	1.6118927	9.273453	-0.9928589
1451464061016668800	1.4516754	9.117706	-1.1679688
1451464061025061134	1.1284332	9.006546	-1.2695007
1451464061033453468	0.8627014	9.011658	-1.4038849
1451464061041845802	0.27409363	9.381287	-1.4617767
1451464061050238136	-0.5262451	10.321869	-1.4999847
1451464061058630470	-0.74523926	10.872971	-1.5513
1451464061067022804	-0.87779236	11.357986	-1.6057434
1451464061075415138	-0.71580505	11.899765	-1.766037
1451464061083807472	0.08407593	11.9782715	-1.9612579
1451464061092199806	0.8381195	11.763748	-1.7012024
1451464061100592140	1.3303528	11.5407715	-1.4043274
1451464061108984474	1.7422028	11.432053	-0.92845154
1451464061117376808	1.8415375	11.801926	-0.23942566
1451464061125769142	1.8355408	12.538361	-0.41366577
1451464061134161476	1.9655151	12.89415	-1.2382813
1451464061142553810	2.1081848	12.962921	-2.0055542
1451464061150946144	2.2380676	12.8216095	-2.4009857
1451464061159338478	2.3947449	12.677139	-1.7567902
1451464061167730812	1.8418427	13.173737	-0.6528168
1451464061176123146	1.4455872	13.553757	-0.1928711
1451464061184515480	1.0661163	13.901657	0.20024109
1451464061192907814	0.53523254	13.978958	0.4439087
1451464061201300148	0.04940796	13.38472	0.2341919
1451464061209692482	-0.4416504	12.369675	0.20539856
1451464061218084816	-0.62864685	11.873596	0.2947235
1451464061226477150	-1.0662689	11.4448395	0.25424194
1451464061234869484	-2.1595306	11.483673	0.038330078
1451464061243261818	-3.6005402	12.319153	-0.008407593
1451464061251654152	-4.554306	13.263733	-0.09690857
1451464061260046486	-5.1756897	14.066986	-0.29418945
1451464061268438820	-5.7774506	14.975632	-0.70751953
1451464061276831154	-5.492096	14.975983	-0.43458557
1451464061285223488	-4.889328	14.483124	0.24816895
1451464061293615822	-4.261917	13.945297	0.9820862
1451464061302008156	-3.268097	13.079773	2.5642853
1451464061310400490	-2.8577423	12.69368	3.5092773
1451464061318792824	-2.9153595	12.419586	3.4941254
1451464061327185158	-2.5786285	12.122711	3.1252747
1451464061335577492	-2.093689	11.811203	2.4769745
1451464061343969826	-0.8324127	10.945618	1.5559082
1451464061352362160	0.47235107	9.8945465	1.1381683
1451464061360754494	1.1014099	9.36615	0.91638184
1451464061369146828	1.6861725	8.864273	0.67025757
1451464061377539162	2.044693	7.947006	-0.11125183
1451464061385931496	2.1532593	7.508377	-0.419281
1451464061394323830	2.0829926	7.172394	-0.48246765
1451464061402716164	2.0944061	6.867157	-0.4477539
1451464061411108498	2.0820007	6.524994	-0.42845154
1451464061419500832	1.4746094	5.5468903	-0.7283783
1451464061427893166	0.48684692	4.7667236	-0.52586365
1451464061436285500	-0.19224548	4.205353	0.08732605
1451464061444677834	-0.46022034	3.9007568	0.40220642
1451464061453070168	-0.4011078	3.3959198	0.39805603
1451464061461462502	-0.072006226	2.9269562	0.43894958
1451464061469854836	-0.30384827	3.0710144	0.9109955
1451464061478247170	-0.5463104	3.2537537	1.1180725
1451464061486639504	-0.6214905	3.3302307	1.2343903
1451464061495031838	-0.5623779	3.293579	1.4416656
1451464061503424172	-0.31947327	3.0980988	1.6899567
1451464061511816506	-0.15290833	2.925949	2.1412659
1451464061520208840	-0.07003784	2.9555817	2.3980713
1451464061528601174	0.054122925	3.029007	2.673996
1451464061536993508	0.6548767	3.507721	3.1987
1451464061545385842	1.5463867	4.3923798	3.510727
1451464061553778175	2.402771	5.3235626	3.5797272
1451464061562170509	2.936142	6.0451965	3.5199738
1451464061570562843	3.537918	7.459854	3.3502197
1451464061578955177	4.4028015	10.26947	3.2570496
1451464061587347511	6.262207	13.613876	4.5319214
1451464061595739845	7.9131317	15.619934	6.056061
1451464061604132179	9.122513	16.880707	7.2551727
1451464061612524513	9.660599	17.677155	8.474457
1451464061620916847	9.426651	16.409393	9.719025
1451464061629309181	9.245621	14.352493	9.764465
1451464061637701515	8.911392	13.435226	8.851196
1451464061646093849	8.407028	12.343536	7.7357025
1451464061654486183	6.4339905	9.948929	5.42157
1451464061662878517	3.080536	7.6218414	3.7991943
1451464061671270851	0.6217804	7.1141357	3.2174377
1451464061679663185	-0.13198853	7.9443817	3.1647491
1451464061688055519	-1.5325775	9.990509	2.7526703
1451464061696447853	-3.132431	12.859329	0.8765106
1451464061704840187	-3.4946747	14.371902	-0.8290405
1451464061713232521	-3.240097	14.328003	-0.2622223
1451464061721624855	-2.935501	13.833191	1.0480499
1451464061730017189	-1.9950867	11.521713	4.323395
1451464061738409523	-1.3827972	8.980087	5.445099
1451464061746801857	-1.3467712	7.819641	4.8284454
1451464061755194191	-1.0357361	7.464279	4.196762
1451464061763586525	-0.68000793	7.1683655	2.963684
1451464061771978859	-0.38327026	7.363388	-1.0917358
1451464061780371193	-1.0394897	8.339233	-3.829483
1451464061788763527	-1.5561066	9.340164	-4.2410583
1451464061797155861	-1.6756439	9.810532	-3.6659393
1451464061805548195	-1.5414581	10.740219	-2.4888306
1451464061813940529	-0.63526917	12.115372	-1.6549225
1451464061822332863	1.3744507	12.497299	-1.7340088
1451464061830725197	2.9963837	12.086746	-1.8800507
1451464061839117531	4.3169403	11.576523	-1.9989471
1451464061847509865	5.825531	10.793854	-1.7477722
1451464061855902199	5.327347	9.916138	-0.30332947
1451464061864294533	4.031128	9.044388	0.87683105
1451464061872686867	3.3107758	8.661392	0.90896606
1451464061881079201	2.4395447	8.155914	0.7945404
1451464061889471535	1.0357513	7.2061615	0.016159058
1451464061897863869	-0.028930664	6.462265	-0.79782104
1451464061906256203	-0.49128723	6.122238	-0.99557495
1451464061914648537	-0.6030884	6.04834	-0.87991333
1451464061923040871	-1.0134125	6.1342926	-0.6132202
1451464061931433205	-1.1079559	6.2902985	-0.40208435
1451464061939825539	-0.7624359	6.6063995	-0.36897278
1451464061948217873	-0.44526672	6.8224792	-0.54574585
1451464061956610207	-0.1509552	6.9773407	-0.78030396
1451464061965002541	0.20429993	7.646698	-0.8176727
1451464061973394875	0.6448059	8.398544	-0.6759796
1451464061981787209	1.0782776	8.6692505	-0.42819214
1451464061990179543	1.0840607	8.675034	-0.2052002
1451464061998571877	0.9962311	8.60878	0.13484192
1451464062006964211	0.6727295	8.321625	0.7001648
1451464062015356545	0.4457245	8.065033	0.75483704
1451464062023748879	0.2482605	7.901108	0.53266907
1451464062032141213	0.1672821	7.8220673	0.3456726
1451464062040533547	-0.028808594	7.93602	-0.14041138
1451464062048925881	-0.037216187	8.256454	-0.6103058
1451464062057318215	0.11691284	8.5746765	-0.8901367
1451464062065710549	0.24217224	8.7211	-0.91612244
1451464062074102883	0.35783386	8.826477	-0.8827057
1451464062082495217	0.7941437	9.035965	-0.65309143
1451464062090887550	0.99586487	9.109924	-0.48135376
1451464062099279884	1.0748138	9.204025	-0.6017761
1451464062107672218	0.9328003	9.364029	-0.7759247
1451464062116064552	0.7355652	9.646759	-0.9974823
1451464062124456886	0.3270874	10.27301	-1.3387604
1451464062132849220	-0.18411255	10.899231	-1.5799866
1451464062141241554	-0.4365692	11.224213	-1.7210236
1451464062149633888	-0.44815063	11.291046	-1.8932343
1451464062158026222	-0.1696167	11.321106	-2.3355713
1451464062166418556	0.48158264	11.408737	-2.5710297
1451464062174810890	1.0306091	11.463745	-2.3332367
1451464062183203224	1.5196228	11.497162	-1.9984436
1451464062191595558	1.9953613	11.721039	-0.786911
1451464062199987892	1.9484863	12.26004	0.40350342
1451464062208380226	1.8018799	12.699905	0.41809082
1451464062216772560	1.8507233	12.739105	-0.31576538
1451464062225164894	1.9368134	12.762817	-1.1319733
1451464062233557228	2.2531433	12.701813	-1.8517456
1451464062241949562	2.4016418	12.619812	-1.4174652
1451464062250341896	1.8917236	12.746094	-0.5529022
1451464062258734230	1.407196	13.008926	0.08584595
1451464062267126564	0.84620667	13.358429	0.37330627
1451464062275518898	0.28263855	13.714279	0.14924622
1451464062283911232	-0.09194946	13.402679	-0.0019378662
1451464062292303566	-0.2970581	12.875366	0.16098022
1451464062300695900	-0.474411	12.354218	0.38397217
1451464062309088234	-0.94647217	11.893539	0.280365
1451464062317480568	-1.9458923	12.093033	0.3225708
1451464062325872902	-3.5442657	12.852753	0.026184082
1451464062334265236	-4.4400635	13.411163	-0.22058105
1451464062342657570	-5.41214	14.103989	-0.48713684
1451464062351049904	-6.07251	14.843185	-0.54167175
1451464062359442238	-5.431732	14.546066	0.21757507
1451464062367834572	-4.5674744	13.78479	1.1642456
1451464062376226906	-3.986557	13.235367	1.8344727
1451464062384619240	-3.3164063	12.64212	2.60318
1451464062393011574	-2.793686	12.2556305	2.9657898
1451464062401403908	-2.4476166	11.979446	2.813736
1451464062409796242	-2.073761	11.696075	2.4190674
1451464062418188576	-1.6888275	11.410751	1.9949493
1451464062426580910	0.21255493	10.006622	1.5217438
1451464062434973244	0.541275	9.242569	0.90309143
1451464062443365578	1.3161926	8.756317	0.040893555
1451464062451757912	1.7884979	8.267929	-0.28105164
1451464062460150246	2.01503	7.768173	-0.44665527
1451464062468542580	1.8862915	7.3612213	-0.49290466
1451464062476934914	2.0776825	7.0871124	-0.6216583
1451464062485327248	2.0478668	6.7713776	-0.5071564
1451464062493719582	1.7734833	6.477051	-0.4615326
1451464062502111916	0.9713135	6.0551605	-0.32276917
1451464062510504250	0.045043945	5.476013	0.07775879
1451464062518896584	-0.6209564	5.0038147	0.24664307
1451464062527288918	-0.746048	4.8461	0.4803009
1451464062535681252	-0.79693604	4.731964	0.7354126
1451464062544073586	-0.7459717	4.7845917	0.9407196
1451464062552465920	-0.36671448	4.3468475	0.6955414
1451464062560858254	-0.3672943	4.150772	1.2763214
1451464062569250588	-0.5722809	3.9991302	1.4472504
1451464062577642922	-0.763443	3.7767487	1.6793823
1451464062586035256	-0.7676697	3.3888245	2.0341187
1451464062594427590	-0.622406	2.9852905	2.3821564
1451464062602819924	-0.48046875	2.7477875	2.5988312
1451464062611212258	-0.28253174	2.6134796	2.7292786
1451464062619604592	0.28686523	2.720108	3.0181122
1451464062627996925	1.2160645	3.473236	3.3822937
1451464062636389259	2.5120087	4.741287	3.5131836
1451464062644781593	3.0876465	5.6880646	3.3774872
1451464062653173927	3.6074066	6.6621704	3.204544
1451464062661566261	4.748535	9.210205	2.8566437
1451464062669958595	6.604492	12.416809	3.8644714
1451464062678350929	9.031677	15.134445	5.8556976
1451464062686743263	9.933899	16.323257	7.0155945
1451464062695135597	10.492065	17.192032	8.281265
1451464062703527931	10.119659	16.736282	9.405594
1451464062711920265	9.3905945	15.2738495	9.540283
1451464062720312599	8.855347	14.021881	8.736511
1451464062728704933	8.387527	12.933304	7.67749
1451464062737097267	6.5517883	10.124695	5.915161
1451464062745489601	3.376831	6.974365	3.665268
1451464062753881935	0.7536926	5.7521057	3.1450653
1451464062762274269	-0.43286133	6.5531616	3.1584167
1451464062770666603	-1.6306	7.673477	3.0252838
1451464062779058937	-3.7529907	11.109711	0.8761749
1451464062787451271	-4.7675323	13.710281	-1.4552307
1451464062795843605	-4.634079	15.154541	-1.1602478
1451464062804235939	-4.0930023	15.529816	0.2810974
1451464062812628273	-2.7470398	15.180588	2.6140137
1451464062821020607	-0.729187	12.950439	4.856842
1451464062829412941	-0.12287903	9.820999	5.427902
1451464062837805275	-0.3630829	8.189514	4.9243927
1451464062846197609	-0.65097046	7.417099	3.954071
1451464062854589943	-0.5217285	7.2669067	0.7098999
1451464062862982277	-0.8957825	7.476486	-2.4132538
1451464062871374611	-2.255066	8.369003	-4.4990387
1451464062879766945	-2.373993	8.848129	-4.0221405
1451464062888159279	-2.3950348	9.440796	-3.354721
1451464062896551613	-1.70961	10.920364	-1.9891663
1451464062904943947	-0.010757446	11.840134	-2.166626
1451464062913336281	1.9937439	11.730225	-2.493515
1451464062921728615	3.4897308	11.382568	-2.550064
1451464062930120949	5.301468	10.944412	-2.193512
1451464062938513283	6.044876	10.315475	-0.880661
1451464062946905617	5.0411377	9.737656	0.5040283
1451464062955297951	4.0927277	9.351624	0.93367004
1451464062963690285	3.3293152	9.018753	1.0056305
1451464062972082619	1.8686829	7.835129	0.32437134
1451464062980474953	0.5513458	6.6680145	-0.9669647
1451464062988867287	0.023788452	6.3776093	-1.1920013
1451464062997259621	-0.47557068	6.1425476	-1.3268127
1451464063005651955	-1.1042786	5.968521	-1.1218414
1451464063014044289	-1.4223938	5.854645	-0.618515
1451464063022436623	-1.2844696	6.125534	-0.40827942
1451464063030828957	-1.1174011	6.308029	-0.44682312
1451464063039221291	-0.8124542	6.7375946	-0.32159424
1451464063047613625	-0.29910278	7.5970306	-0.036071777
1451464063056005959	0.39396667	8.445358	0.060180664
1451464063064398293	0.7571564	8.85376	0.024017334
1451464063072790627	0.86447144	9.060043	-0.030593872
1451464063081182961	0.9364319	8.939301	-0.041915894
1451464063089575295	0.755249	8.5780945	0.29873657
1451464063097967629	0.6616211	7.9940796	0.37149048
1451464063106359963	0.45889282	7.860718	0.2675171
1451464063114752297	0.26631165	7.7716827	0.14880371
1451464063123144631	0.20802307	7.9677124	-0.09602356
1451464063131536965	0.29611206	8.2569275	-0.38331604
1451464063139929299	0.34825134	8.469498	-0.3698578
1451464063148321633	0.55773926	8.577454	-0.44761658
1451464063156713967	0.8988342	8.698578	-0.536438
1451464063165106300	1.3670197	8.77092	-0.67918396
1451464063173498634	1.6381683	8.884598	-0.9160156
1451464063181890968	1.5706177	9.007477	-1.095932
1451464063190283302	1.3945313	9.103867	-1.229599
1451464063198675636	0.8912201	9.359711	-1.3559723
1451464063207067970	0.28105164	9.847275	-1.527008
1451464063215460304	-0.47883606	10.426224	-1.6496887
1451464063223852638	-0.74165344	10.822708	-1.6490326
1451464063232244972	-0.94610596	11.257874	-1.6730042
1451464063240637306	-0.7312622	11.796005	-1.8567505
1451464063249029640	-0.03465271	11.875397	-2.102417
1451464063257421974	0.8187256	11.709015	-2.121338
1451464063265814308	1.4291992	11.51239	-1.8720093
1451464063274206642	1.9842072	11.461502	-1.2312012
1451464063282598976	2.2515564	11.698395	-0.26557922
1451464063290991310	2.2355194	12.01651	-0.23051453
1451464063299383644	2.255005	12.148941	-0.89149475
1451464063307775978	2.3141327	12.211288	-1.6343384
1451464063316168312	2.3318634	12.516983	-2.7267456
1451464063324560646	2.3998566	12.894836	-1.9141693
1451464063332952980	1.8028107	13.478531	-0.13555908
1451464063341345314	1.3221436	14.054306	0.16197205
1451464063349737648	0.7691498	14.625626	0.38308716
1451464063358129982	-0.027572632	14.9561615	0.33190918
1451464063366522316	-0.625412	14.388809	0.30996704
1451464063374914650	-0.98579407	13.444962	0.14134216
1451464063383306984	-1.0866852	12.76059	0.07258606
1451464063391699318	-1.4300079	12.010162	0.350708
1451464063400091652	-2.32164	11.849289	0.51205444
1451464063408483986	-3.6202393	12.384491	0.08114624
1451464063416876320	-4.5014496	13.065735	-0.36886597
1451464063425268654	-5.2095947	13.751389	-0.7724304
1451464063433660988	-6.052887	14.826019	-0.9363556
1451464063442053322	-5.9167175	14.77356	-0.4061737
1451464063450445656	-4.9796295	13.7052	1.1760406
1451464063458837990	-4.452057	13.096008	1.9240265
1451464063467230324	-3.8819275	12.508911	2.7179565
1451464063475622658	-3.326538	12.1697235	3.5231018
1451464063484014992	-3.1238556	12.086182	3.5368347
1451464063492407326	-2.768097	11.747574	2.8226776
1451464063500799660	-2.2565918	11.419846	2.1787872
1451464063509191994	-1.0295563	10.279144	1.4241333
1451464063517584328	-0.13874817	9.230423	1.0465698
1451464063525976662	0.74790955	8.692383	0.28199768
1451464063534368996	1.3504333	8.118378	-0.20799255
1451464063542761330	1.8201752	7.520111	-0.5492096
1451464063551153664	1.8364716	7.004013	-0.5079346
1451464063559545998	2.1487732	6.7379456	-0.67970276
1451464063567938332	2.219696	6.057678	-0.40931702
1451464063576330666	2.0365448	5.753723	-0.5057068
1451464063584723000	1.6683197	5.4731445	-0.49838257
1451464063593115334	0.8932953	5.1527557	-0.21954346
1451464063601507668	0.3807068	4.620392	0.13276672
1451464063609900002	0.03137207	4.3668213	0.48876953
1451464063618292336	-0.22309875	4.4310913	0.6770477
1451464063626684670	-0.39434814	4.4372406	0.76208496
1451464063635077004	-0.032791138	4.366211	0.6275482
1451464063643469338	0.08280945	4.558319	0.9607239
1451464063651861672	-0.03427124	4.590988	1.23349
1451464063660254006	-0.16792297	4.5671997	1.4526215
1451464063668646340	-0.41331482	4.1898193	1.8179474
1451464063677038674	-0.4730835	3.6017456	2.1342926
1451464063685431008	-0.5172119	3.086319	2.572113
1451464063693823342	-0.38612366	2.8530579	2.8040924
1451464063702215675	-0.04827881	2.7382965	3.1483765
1451464063710608009	0.8421936	3.1698456	3.6484985
1451464063719000343	1.9079895	4.265518	3.7535248
1451464063727392677	2.7282257	5.389847	3.491043
1451464063735785011	3.2513123	6.293335	3.1427612
1451464063744177345	4.144577	8.402222	2.7378845
1451464063752569679	5.8638	11.52153	3.5248718
1451464063760962013	7.5510406	13.461945	4.7045746
1451464063769354347	9.162048	15.042099	5.859329
1451464063777746681	10.729736	17.2995	7.767288
1451464063786139015	10.212387	17.150879	9.085556
1451464063794531349	9.264954	15.693787	10.182068
1451464063802923683	8.955856	15.006851	9.966156
1451464063811316017	8.420425	13.949341	9.148834
1451464063819708351	6.8629	11.515427	6.6227417
1451464063828100685	4.096466	8.427277	4.1897736
1451464063836493019	1.6809845	6.5397186	3.1383514
1451464063844885353	0.31030273	5.860489	3.2212524
1451464063853277687	-1.5149078	6.427185	3.5335846
1451464063861670021	-3.4205017	8.829697	2.7676697
1451464063870062355	-4.210739	11.577927	-0.09617615
1451464063878454689	-4.081085	12.913239	-0.7489624
1451464063886847023	-3.8246918	13.952332	-0.81321716
1451464063895239357	-2.6614685	14.780197	1.5757599
1451464063903631691	-0.7390137	13.595993	4.1966553
1451464063912024025	-0.41853333	11.792496	4.772476
1451464063920416359	-0.6588745	10.691086	4.964615
1451464063928808693	-0.7147064	9.251648	4.877838
1451464063937201027	-0.38227844	7.7806396	3.0833893
1451464063945593361	-0.29595947	7.6714325	-0.5150299
1451464063953985695	-0.57728577	7.919449	-2.8170776
1451464063962378029	-0.97698975	8.350647	-3.87352
1451464063970770363	-1.5414886	9.01564	-3.717804
1451464063979162697	-1.5549622	10.082718	-2.4418945
1451464063987555031	-0.82385254	11.578888	-1.9750214
1451464063995947365	0.15727234	11.935059	-2.110733
1451464064004339699	1.1578064	12.088638	-2.3022308
1451464064012732033	3.5342407	11.320694	-2.6631317
1451464064021124367	5.1409454	10.589203	-1.8613129
1451464064029516701	5.1979523	10.083954	-0.37661743
1451464064037909035	4.8798676	9.854553	0.12910461
1451464064046301369	4.2303314	9.494003	0.6442871
1451464064054693703	2.879181	8.757385	0.91360474
1451464064063086037	1.3477325	7.7899323	0.30651855
1451464064071478371	0.41059875	7.0928345	-0.4323578
1451464064079870705	0.04109192	6.665512	-0.83654785
1451464064088263039	-0.6185608	6.4382477	-0.93026733
1451464064096655373	-1.3072052	6.4128265	-0.6173401
1451464064105047707	-1.5404358	6.408264	-0.43640137
1451464064113440041	-1.4268494	6.5557556	-0.44573975
1451464064121832375	-1.2751923	6.7325287	-0.45932007
1451464064130224709	-0.83914185	7.209671	-0.17883301
1451464064138617043	0.061065674	7.586441	-0.495224
1451464064147009377	0.6997986	8.36615	-0.21243286
1451464064155401711	1.0943604	8.700958	-0.14109802
1451464064163794045	1.4621887	8.896988	-0.05883789
1451464064172186379	1.6624603	8.653885	0.16040039
1451464064180578713	1.5573883	8.087051	0.5505676
1451464064188971047	1.3149872	7.726761	0.7313843
1451464064197363381	1.0765839	7.55455	0.74809265
1451464064205755715	0.93814087	7.5162506	0.6104126
1451464064214148049	0.7533417	7.8316803	0.18148804
1451464064222540383	0.6904144	8.28273	-0.25390625
1451464064230932717	0.667923	8.531677	-0.3414154
1451464064239325050	0.6616821	8.758316	-0.41835022
1451464064247717384	0.8431854	8.857666	-0.6695404
1451464064256109718	0.9452057	8.720459	-0.78700256
1451464064264502052	1.0662689	8.626297	-0.9519043
1451464064272894386	1.1678009	8.628876	-1.1716766
1451464064281286720	1.138794	8.725204	-1.4175568
1451464064289679054	0.81791687	8.977585	-1.6095428
1451464064298071388	0.37797546	9.399399	-1.6989746
1451464064306463722	0.052856445	9.824417	-1.7334442
1451464064314856056	-0.20031738	10.18042	-1.7373047
1451464064323248390	-0.3089447	10.848984	-1.7958527
1451464064331640724	-0.20251465	11.501175	-1.9824982
1451464064340033058	0.41099548	11.811035	-2.2751007
1451464064348425392	0.786499	11.790787	-2.1395416
1451464064356817726	1.1760559	11.74765	-1.9190979
1451464064365210060	1.6974335	11.649887	-1.0421448
1451464064373602394	1.8317719	11.899536	-0.051361084
1451464064381994728	1.8267365	12.309753	0.19720459
1451464064390387062	1.8614349	12.483261	0.04296875
1451464064398779396	2.0920105	12.6909485	-0.65541077
1451464064407171730	2.5490723	12.855408	-1.5372772
1451464064415564064	3.0783234	12.61824	-1.5233154
1451464064423956398	3.1919708	12.382263	-1.2797241
1451464064432348732	3.0595856	12.264023	-1.0811462
1451464064440741066	2.0439453	12.446686	-0.3959198
1451464064449133400	0.79241943	12.774155	0.20799255
1451464064457525734	-0.030731201	13.240814	0.42237854
1451464064465918068	-0.17852783	13.422028	0.39282227
1451464064474310402	-0.37371826	13.489685	0.3585205
1451464064482702736	-0.871933	12.871841	0.26789856
1451464064491095070	-1.508728	12.47995	0.16416931
1451464064499487404	-2.2859497	12.722549	0.2482605
1451464064507879738	-2.9523315	13.093979	0.24954224
1451464064516272072	-4.18013	13.873718	0.06921387
1451464064524664406	-5.605423	14.961533	-0.3894348
1451464064533056740	-6.088135	15.391754	-0.5382385
1451464064541449074	-6.194153	15.486206	-0.45985413
1451464064549841408	-5.4939423	14.833328	0.36541748
1451464064558233742	-4.36438	13.755386	1.784668
1451464064566626076	-3.3482056	12.9422	2.9117126
1451464064575018410	-3.176239	12.731705	3.1885376
1451464064583410744	-3.0157013	12.517334	3.353653
1451464064591803078	-2.634964	12.104965	2.7311401
1451464064600195412	-1.5335999	11.354202	1.7078094
1451464064608587746	-0.22895813	10.250565	0.87480164
1451464064616980080	0.1373291	9.797516	0.8523102
1451464064625372414	0.626297	9.185287	0.6630249
1451464064633764748	1.2341919	8.3059845	-0.024520874
1451464064642157082	1.6617432	7.51062	-0.53460693
1451464064650549416	1.7512665	7.1870728	-0.67471313
1451464064658941750	1.7223511	7.0508423	-0.78330994
1451464064667334084	1.9211731	6.4868927	-0.7258606
1451464064675726418	1.4866486	5.45076	-0.8145447
1451464064684118752	0.16885376	4.872406	-0.7007904
1451464064692511086	-0.1010437	4.7033997	-0.51571655
1451464064700903420	-0.3354187	4.491501	-0.3106537
1451464064709295754	-0.37794495	4.139496	0.0025634766
1451464064717688088	-0.4798584	4.230133	0.41523743
1451464064726080422	-0.49510193	4.273529	0.89697266
1451464064734472756	-0.36143494	4.078171	0.8854065
1451464064742865090	-0.31106567	3.959793	1.009491
1451464064751257424	-0.5406494	3.9989777	1.3555756
1451464064759649758	-0.80511475	3.971466	1.7518005
1451464064768042092	-0.7954407	3.7834015	1.9990692
1451464064776434425	-0.6971283	3.558487	2.1854248
1451464064784826759	-0.6616821	3.112152	2.5932007
1451464064793219093	-0.45933533	2.6690521	2.887207
1451464064801611427	0.3496399	2.845581	3.2863007
1451464064810003761	0.82836914	3.390503	3.4418182
1451464064818396095	1.4771118	4.0919952	3.594986
1451464064826788429	2.871811	5.600876	3.6718597
1451464064835180763	4.168991	7.6768036	3.6062164
1451464064843573097	5.2113953	9.936996	3.8200836
1451464064851965431	5.9895935	11.619339	4.29303
1451464064860357765	7.6883698	14.080292	5.68692
1451464064868750099	10.007111	16.364807	7.78537
1451464064877142433	10.890259	16.610352	8.787537
1451464064885534767	10.701981	15.755035	9.180649
1451464064893927101	10.362045	14.764786	9.537933
1451464064902319435	9.36763	13.25914	9.110077
1451464064910711769	8.214813	11.969513	7.123001
1451464064919104103	6.4149017	9.638153	4.7996063
1451464064927496437	4.8000336	8.282257	4.1197357
1451464064935888771	2.9492188	6.972351	3.5654907
1451464064944281105	0.54600525	6.607361	3.774475
1451464064952673439	-1.0621338	8.955566	3.9234467
1451464064961065773	-2.062271	11.80069	2.54747
1451464064969458107	-2.4067078	13.420059	1.1530151
1451464064977850441	-2.8902283	14.976395	-0.13278198
1451464064986242775	-2.9544678	15.39183	0.67167664
1451464064994635109	-2.4440613	13.619232	3.2368317
1451464065003027443	-1.9759979	11.77536	4.4066315
1451464065011419777	-1.5544434	10.106506	5.0865173
1451464065019812111	-1.7194214	8.182373	4.864395
1451464065028204445	-1.539505	6.9294434	4.8256836
1451464065036596779	-0.9013977	6.5226593	1.3037262
1451464065044989113	-1.0781097	6.8137665	-1.1580963
1451464065053381447	-1.3259888	7.460312	-3.5634766
1451464065061773781	-1.7298279	9.023422	-4.739197
1451464065070166115	-1.8353577	10.4210205	-3.1751404
1451464065078558449	-1.5463257	11.6223755	-1.7276611
1451464065086950783	-1.1376343	12.424988	-1.3446655
1451464065095343117	0.440094	12.826233	-1.4413147
1451464065103735451	3.1067352	12.20488	-2.217163
1451464065112127785	5.198807	11.192093	-2.20784
1451464065120520119	5.430359	10.698425	-1.4912567
1451464065128912453	5.2793427	10.330215	-0.6873627
1451464065137304787	4.265976	9.531326	0.9866638
1451464065145697121	2.9093323	8.5481415	1.4326172
1451464065154089455	1.4066467	7.6466217	0.83647156
1451464065162481789	0.93626404	7.1980896	0.084625244
1451464065170874123	0.42512512	6.6915894	-0.67207336
1451464065179266457	-0.23208618	6.1206512	-1.0737305
1451464065187658791	-0.7649994	5.861618	-0.82310486
1451464065196051125	-0.8943176	5.9204254	-0.5731354
1451464065204443459	-0.8949585	6.0643616	-0.32380676
1451464065212835793	-0.86901855	6.5166473	-0.004135132
1451464065221228127	-0.6275177	6.990082	-0.0821991
1451464065229620461	0.03907776	7.4147034	-0.26445007
1451464065238012795	0.298172	7.8721466	-0.10397339
1451464065246405129	0.46333313	8.334824	0.11581421
1451464065254797463	0.81333923	8.964539	0.18824768
1451464065263189797	0.7201843	8.9700775	0.25460815
1451464065271582131	0.48493958	8.6479645	0.5543976
1451464065279974465	0.38726807	8.443619	0.6572113
1451464065288366799	0.24163818	8.098358	0.71839905
1451464065296759133	0.040252686	7.687607	0.4805298
1451464065305151467	0.041900635	7.7366486	0.122787476
1451464065313543800	0.2019043	7.9217224	7.019043E-4
1451464065321936134	0.36462402	8.323242	-0.16018677
1451464065330328468	0.647583	8.771774	-0.3733368
1451464065338720802	1.0634918	8.884216	-0.6729584
1451464065347113136	1.6546326	8.682144	-0.8803406
1451464065355505470	1.8609314	8.524109	-0.9624481
1451464065363897804	2.0051575	8.377426	-1.0331726
1451464065372290138	1.8642578	8.18718	-1.223999
1451464065380682472	1.4934387	8.371857	-1.5088501
1451464065389074806	1.1605682	8.623749	-1.541626
1451464065397467140	0.7080841	9.045624	-1.6029816
1451464065405859474	0.077041626	9.960571	-1.7734528
1451464065414251808	-0.27052307	10.925354	-2.0623322
1451464065422644142	-0.33517456	11.481812	-2.2877502
1451464065431036476	-0.24198914	11.763916	-2.3886414
1451464065439428810	0.24313354	11.937027	-2.5031128
1451464065447821144	1.1118317	11.984131	-2.1513062
1451464065456213478	1.5783997	12.0907135	-1.1020355
1451464065464605812	1.6080017	12.204926	-0.45980835
1451464065472998146	1.5829315	12.316101	0.08319092
1451464065481390480	1.3354187	12.622955	0.7444153
1451464065489782814	1.3520508	12.8776245	-0.09284973
1451464065498175148	1.6991425	13.162567	-1.5799408
1451464065506567482	1.9067078	13.262802	-1.7271118
1451464065514959816	2.16893	13.243118	-1.6775665
1451464065523352150	2.1437378	13.004593	-1.1182404
1451464065531744484	1.3872528	13.034241	-0.4993286
1451464065540136818	0.808548	13.216949	-0.20347595
1451464065548529152	0.51293945	13.304977	-0.07946777
1451464065556921486	-0.017364502	13.330856	0.12062073
1451464065565313820	-0.67529297	13.043411	0.24980164
1451464065573706154	-1.3028564	12.465469	0.72442627
1451464065582098488	-1.7411957	12.306778	0.8636017
1451464065590490822	-2.1750946	12.219589	0.9403229
1451464065598883156	-3.4959412	12.6194	0.6706848
1451464065607275490	-4.957535	13.273636	-0.04185486
1451464065615667824	-6.0674286	14.256683	-0.754364
1451464065624060158	-6.3970795	14.824097	-0.86746216
1451464065632452492	-6.442337	15.194443	-0.52363586
1451464065640844826	-5.8058624	14.747467	0.94607544
1451464065649237160	-4.736496	13.616409	2.5603485
1451464065657629494	-3.8939667	12.956345	3.2817383
1451464065666021828	-3.353531	12.693512	3.5541992
1451464065674414162	-3.2275848	12.40184	3.7506256
1451464065682806496	-2.8235931	11.85939	2.8945465
1451464065691198830	-1.3275452	11.041321	1.6559448
1451464065699591164	-0.38790894	10.27002	1.4106445
1451464065707983498	0.45907593	9.507111	1.2471161
1451464065716375832	0.91477966	8.74646	0.97561646
1451464065724768166	1.8472137	7.8919525	0.5924835
1451464065733160500	2.2592316	7.3075104	-0.006515503
1451464065741552834	2.5773315	7.2503204	-0.6626129
1451464065749945168	2.907608	7.066818	-0.9885254
1451464065758337502	3.0517578	6.5046844	-0.69776917
1451464065766729836	2.5775757	5.8070984	-0.78842163
1451464065775122170	1.9508667	5.458725	-1.0294342
1451464065783514504	1.4374237	5.2903595	-1.0834045
1451464065791906838	0.58654785	4.68396	-0.7436218
1451464065800299172	1.373291E-4	4.294647	0.09819031
1451464065808691506	-0.28456116	4.312332	0.8922577
1451464065817083840	-0.2140503	4.367157	0.6250458
1451464065825476174	-0.12463379	4.407501	0.37724304
1451464065833868508	-0.15913391	4.3422394	0.80293274
