gyroscope_timestamp	gyroscope_x_data	gyroscope_y_data	gyroscope_z_data
339829365332509	0.10096741	-0.20448303	0.051651
339829368780995	0.10096741	0.03742981	0.051651
339829373846913	0.11685181	0.03742981	0.049209595
339829379126454	0.1302948	0.047210693	0.04676819
339829383887196	0.13761902	0.054534912	0.049209595
339829388953114	0.13394165	0.05697632	0.057769775
339829394385243	0.11805725	0.055755615	0.06877136
339829399023915	0.09364319	0.052093506	0.077316284
339829402380849	0.07041931	0.050857544	0.0821991
339829409064198	0.054534912	0.054534912	0.0821991
339829414099599	0.043548584	0.060653687	0.0846405
339829419134999	0.039871216	0.0655365	0.089538574
339829424170399	0.039871216	0.0655365	0.09564209
339829429510976	0.04232788	0.06185913	0.101745605
339829434241200	0.044769287	0.05697632	0.10664368
339829439276601	0.044769287	0.052093506	0.11274719
339829444556142	0.044769287	0.04232788	0.117630005
339829449347401	0.04232788	0.028884888	0.12007141
339829452704335	0.036209106	0.0154418945	0.1164093
339829459418202	0.027664185	0.008117676	0.10784912
339829464514638	0.020324707	0.008117676	0.09442139
339829469489003	0.016662598	0.0154418945	0.07853699
339829474524403	0.019104004	0.030090332	0.06387329
339829480017567	0.027664185	0.050857544	0.051651
339829484595204	0.039871216	0.07772827	0.044326782
339829489600087	0.044769287	0.099731445	0.038223267
339829495093251	0.028884888	0.107055664	0.033325195
339829499731923	-0.012649536	0.09484863	0.03211975
339829503058339	-0.012649536	0.075286865	0.03211975
339829509772206	-0.056625366	0.075286865	0.033325195
339829514838124	-0.07373047	0.0655365	0.037002563
339829519873524	-0.04685974	0.07041931	0.040664673
339829524878407	0.0178833	0.07772827	0.041885376
339829530371571	0.096084595	0.06918335	0.041885376
339829534979726	0.17059326	0.04232788	0.040664673
339829539984608	0.22680664	0.010559082	0.040664673
339829545813466	0.26101685	-0.01020813	0.041885376
339829550055409	0.27444458	-0.017547607	0.04310608
339829553442860	0.27322388	-0.015106201	0.04310608
339829560126210	0.26345825	-0.0053253174	0.040664673
339829565161610	0.25245667	0.011764526	0.037002563
339829570258046	0.24145508	0.038650513	0.034561157
339829575262929	0.23168945	0.07406616	0.034561157
339829581000233	0.21704102	0.11437988	0.03211975
339829585394765	0.19259644	0.1522522	0.026000977
339829590369130	0.15106201	0.1864624	0.01499939
339829596289540	0.09120178	0.21211243	0.0027923584
339829600439931	0.016662598	0.23043823	-0.0045318604
339829603766347	0.016662598	0.23899841	-0.0045318604
339829610510732	-0.12136841	0.23899841	-0.0057678223
339829615485097	-0.1531372	0.23532104	-8.8500977E-4
339829620581532	-0.15435791	0.22311401	0.007675171
339829625586415	-0.12870789	0.20478821	0.021118164
339829630896474	-0.0859375	0.1828003	0.038223267
339829635657216	-0.033416748	0.15715027	0.056549072
339829640692616	0.021560669	0.13026428	0.07853699
339829646002675	0.071640015	0.10217285	0.10296631
339829650793935	0.071640015	0.075286865	0.10296631
339829654089833	0.111968994	0.075286865	0.131073
339829660864735	0.13882446	0.050857544	0.16038513
339829665900136	0.15470886	0.030090332	0.18727112
339829670905019	0.164505	0.016662598	0.21047974
339829675970937	0.16694641	0.00932312	0.2300415
339829681372548	0.15226746	0.0044403076	0.24957275
339829686041737	0.10096741	-0.01020813	0.27033997
339829691046620	0.010559082	-0.04197693	0.28746033
339829696539784	-0.09693909	-0.08229065	0.29234314
339829701117421	-0.184906	-0.11038208	0.28134155
339829704474355	-0.23010254	-0.11529541	0.25689697
339829711188222	-0.23376465	-0.10429382	0.22636414
339829716193105	-0.21299744	-0.09573364	0.19094849
339829721259023	-0.18000793	-0.09573364	0.15550232
339829726324940	-0.14335632	-0.09941101	0.12373352
339829731543446	-0.111587524	-0.09329224	0.098083496
339829736365224	-0.083496094	-0.07130432	0.0821991
339829741400624	-0.056625366	-0.03831482	0.07243347
339829746863271	-0.028533936	7.7819824E-4	0.065093994
339829751501942	0.0044403076	0.039871216	0.061431885
339829754828358	0.0044403076	0.07652283	0.061431885
339829761542226	0.0655365	0.07652283	0.06997681
339829766547108	0.08996582	0.1351471	0.07487488
339829771643544	0.111968994	0.1559143	0.07487488
339829776617909	0.1302948	0.1717987	0.06877136
339829781958485	0.14250183	0.1852417	0.057769775
339829786719228	0.14738464	0.1999054	0.044326782
339829791785146	0.14738464	0.21455383	0.030883789
339829797064687	0.12294006	0.22433472	0.018676758
339829801825429	0.12294006	0.22679138	0.018676758
339829810339833	0.028884888	0.22679138	0.013793945
339829816901112	-0.035858154	0.2194519	0.021118164
339829821967030	-0.1006012	0.20967102	0.029678345
339829826971913	-0.15435791	0.19746399	0.0357666
339829832404042	-0.18978882	0.184021	0.03944397
339829837134267	-0.20689392	0.1681366	0.045547485
339829842108632	-0.20689392	0.14981079	0.054107666
339829847815419	-0.198349	0.13026428	0.065093994
339829852179433	-0.18000793	0.11071777	0.07487488
339829855536366	-0.15435791	0.09239197	0.07975769
339829862250233	-0.12258911	0.07652283	0.07975769
339829867316151	-0.088378906	0.06430054	0.077316284
339829872321034	-0.059066772	0.060653687	0.07609558
339829877386952	-0.039535522	0.06918335	0.07609558
339829882788564	-0.030975342	0.08505249	0.07609558
339829887427235	-0.032211304	0.10217285	0.07487488
339829892462636	-0.044418335	0.11193848	0.07487488
339829897894765	-0.06640625	0.11682129	0.0846405
339829902533437	-0.092056274	0.119262695	0.10664368
339829905859853	-0.092056274	0.12294006	0.10664368
339829912573720	-0.11526489	0.12294006	0.15550232
339829917609120	-0.10670471	0.12782288	0.16282654
339829922919179	-0.08961487	0.12049866	0.15306091
339829927954579	-0.067611694	0.103378296	0.1335144
339829933356190	-0.04685974	0.07772827	0.110305786
339829937750722	-0.04685974	0.05329895	0.09197998
339829942816640	-0.033416748	0.05329895	0.09197998
339829948218251	-0.028533936	0.0337677	0.07487488
339829952887440	-0.028533936	0.020324707	0.07487488
339829956244374	-0.032211304	0.010559082	0.07121277
339829962988759	-0.03829956	0.0032196045	0.06997681
339829967963124	-0.049301147	0.0032196045	0.07243347
339829972998524	-0.06150818	0.006881714	0.07609558
339829978064442	-0.07493591	0.013000488	0.07853699
339829983252431	-0.0859375	0.020324707	0.07853699
339829988104726	-0.09449768	0.03253174	0.07487488
339829993140126	-0.1006012	0.050857544	0.0675354
339829998419667	-0.10670471	0.07286072	0.06021118
339830003271962	-0.11282349	0.09605408	0.052886963
339830006567860	-0.116485596	0.11805725	0.04800415
339830013312245	-0.116485596	0.13638306	0.045547485
339830018378163	-0.11404419	0.1522522	0.049209595
339830023352528	-0.11404419	0.16569519	0.056549072
339830028387929	-0.118927	0.18035889	0.065093994
339830033789540	-0.12992859	0.19622803	0.073654175
339830038489247	-0.14703369	0.20845032	0.0834198
339830043555165	-0.1653595	0.2194519	0.09442139
339830048956776	-0.1824646	0.22679138	0.10664368
339830053564931	-0.19589233	0.23043823	0.117630005
339830056921864	-0.19589233	0.23043823	0.117630005
339830063635732	-0.20567322	0.23043823	0.12861633
339830068732167	-0.19467163	0.21334839	0.122528076
339830073706532	-0.17634583	0.19622803	0.11152649
339830078772450	-0.1531372	0.170578	0.1005249
339830084021474	-0.12503052	0.1400299	0.089538574
339830088843251	-0.12503052	0.10827637	0.089538574
339830093878651	-0.09815979	0.10827637	0.07975769
339830099310780	-0.076171875	0.07772827	0.07121277
339830103918935	-0.06272888	0.05329895	0.0663147
339830107275868	-0.056625366	0.038650513	0.0663147
339830113989735	-0.056625366	0.0337677	0.0663147
339830119025136	-0.057861328	0.036209106	0.065093994
339830124091054	-0.060302734	0.04109192	0.065093994
339830129095937	-0.063964844	0.050857544	0.0663147
339830134375478	-0.068847656	0.0655365	0.06877136
339830139197255	-0.076171875	0.0874939	0.06877136
339830144232655	-0.08229065	0.11682129	0.0663147
339830149725819	-0.088378906	0.1510315	0.06387329
339830154333974	-0.1006012	0.184021	0.0663147
339830157660390	-0.116485596	0.21334839	0.073654175
339830164374257	-0.1360321	0.236557	0.0821991
339830169409657	-0.15679932	0.25732422	0.089538574
339830174475575	-0.17512512	0.27685547	0.09564209
339830179449940	-0.19100952	0.29397583	0.1005249
339830184790517	-0.20567322	0.30497742	0.105407715
339830189551259	-0.21911621	0.30741882	0.10908508
339830194586659	-0.2325592	0.302536	0.11152649
339830199927235	-0.24476624	0.2976532	0.11274719
339830204687978	-0.250885	0.2952118	0.1164093
339830208044911	-0.250885	0.29397583	0.1164093
339830214758778	-0.25209045	0.29397583	0.14085388
339830219794179	-0.25209045	0.29153442	0.1616211
339830224799062	-0.250885	0.29273987	0.1823883
339830229864980	-0.250885	0.29885864	0.1823883
339830235266591	-0.23988342	0.29885864	0.21659851
339830239935780	-0.23988342	0.3184204	0.21659851
339830245001698	-0.23500061	0.3184204	0.2276001
339830250433827	-0.23132324	0.33062744	0.23736572
339830255041982	-0.22399902	0.34407043	0.24468994
339830258398915	-0.21177673	0.36483765	0.24957275
339830265112782	-0.19467163	0.39170837	0.25445557
339830270117665	-0.17512512	0.42469788	0.25813293
339830275153065	-0.15557861	0.4625702	0.26179504
339830280218983	-0.1348114	0.4980011	0.26545715
339830285468007	-0.111587524	0.5261078	0.26913452
339830290259267	-0.0859375	0.54563904	0.27033997
339830295264149	-0.056625366	0.55908203	0.27033997
339830300726796	-0.02609253	0.5700836	0.27033997
339830305365468	0.0032348633	0.5810852	0.27278137
339830308722401	0.028884888	0.59329224	0.27767944
339830315436269	0.050872803	0.61161804	0.28256226
339830320441151	0.067977905	0.6372833	0.28746033
339830325537587	0.08140564	0.6702728	0.29234314
339830330542470	0.09240723	0.7069092	0.30088806
339830335822011	0.098526	0.7545624	0.31921387
339830340613271	0.099731445	0.816864	0.34976196
339830345618153	0.098526	0.8914032	0.38885498
339830350867177	0.09484863	0.97325134	0.4291687
339830355719472	0.09120178	1.0575562	0.46949768
339830359106923	0.09120178	1.1455231	0.46949768
339830365820790	0.08630371	1.1455231	0.5672302
339830370795155	0.08630371	1.3385468	0.6307678
339830375861073	0.083862305	1.3385468	0.6307678
339830380896474	0.080200195	1.4350739	0.6979523
339830386267567	0.07775879	1.5242615	0.76148987
339830390967274	0.07896423	1.6024475	0.8140106
339830396033192	0.08630371	1.6647491	0.85310364
339830401587392	0.096084595	1.7160645	0.8775482
339830406073476	0.10340881	1.7649231	0.89463806
339830409399892	0.10952759	1.8199005	0.9117584
339830416174794	0.111968994	1.8822174	0.936203
339830422369862	0.111968994	1.9518433	0.96429443
339830426215077	0.10585022	2.022705	0.99238586
339830431280995	0.098526	2.085022	1.0168304
339830436560536	0.09364319	2.1277924	1.0375977
339830441351796	0.09240723	2.1473236	1.0571442
339830446356679	0.09484863	2.1399994	1.0766907
339830451819325	0.10217285	2.1094513	1.0925598
339830456427480	0.11317444	2.0557098	1.10112
339830459784413	0.1278534	1.984848	1.10112
339830466498280	0.14126587	1.906662	1.0901184
339830471503163	0.15594482	1.8321381	1.0717926
339830476599599	0.16815186	1.7710419	1.048584
339830481634999	0.17915344	1.7380676	1.0241547
339830486914540	0.18283081	1.7453918	0.9997101
339830491675282	0.17427063	1.7979279	0.97650146
339830496680165	0.14738464	1.8858795	0.95817566
339830502173329	0.10462952	1.9897308	0.94229126
339830506781483	0.059432983	2.0960236	0.92276
339830510138417	0.059432983	2.2047424	0.92276
339830516882802	0.024002075	2.2047424	0.8323364
339830521857167	0.0056762695	2.3110504	0.8323364
339830526892567	0.0056762695	2.381897	0.7602539
339830531958485	0.026443481	2.3843384	0.68574524
339830537176991	0.0667572	2.3147125	0.61608887
339830542029286	0.12173462	2.2084198	0.55378723
339830547034169	0.18159485	2.1045685	0.4927063
339830552344228	0.23413086	2.0178223	0.4340515
339830557166005	0.27322388	1.9481964	0.38031006
339830560461903	0.2939911	1.8968811	0.33143616
339830567236806	0.29888916	1.8614502	0.28501892
339830572211171	0.28788757	1.8394623	0.22636414
339830577246571	0.26956177	1.8309021	0.1506195
339830582312489	0.276886	1.8150177	0.06997681
339830587683583	0.3624115	1.7307129	0.0064697266
339830592413808	0.54322815	1.5486755	-0.028961182
339830597449208	0.744812	1.3348846	-0.04360962
339830602881337	0.85354614	1.2017059	-0.0521698
339830607489491	0.8278961	1.1784973	-0.05949402
339830610846425	0.7252655	1.1919403	-0.061935425
339830617560292	0.62753296	1.193161	-0.055847168
339830622626210	0.55911255	1.2078247	-0.04484558
339830627631093	0.5016937	1.2725677	-0.026519775
339830632697011	0.4381714	1.3715363	0.0040130615
339830637884999	0.368515	1.482727	0.051651
339830642737294	0.2976532	1.6122131	0.1164093
339830647772694	0.23291016	1.7600403	0.18482971
339830653174306	0.18403625	1.9017639	0.23368835
339830657812978	0.164505	1.9958496	0.24713135
339830661200429	0.164505	2.0166168	0.24713135
339830667914296	0.17303467	2.0166168	0.22636414
339830672949696	0.19381714	1.9750824	0.18847656
339830677985097	0.20848083	1.9042053	0.15184021
339830683020497	0.20480347	1.8284607	0.1298523
339830688239003	0.18771362	1.7575989	0.12617493
339830693091298	0.16694641	1.6940613	0.1347351
339830698096181	0.15715027	1.6452026	0.15306091
339830703406239	0.1620636	1.6109924	0.1799469
339830708166982	0.18647766	1.5804443	0.22392273
339830711554433	0.23046875	1.5437927	0.30210876
339830718268300	0.29154968	1.4985809	0.42304993
339830723273183	0.35142517	1.4631653	0.5635681
339830728369618	0.37219238	1.4656067	0.6661835
339830733435536	0.3257599	1.4998169	0.67962646
339830738715077	0.22068787	1.5205841	0.60632324
339830743475819	0.099731445	1.4973755	0.5061493
339830748541737	0.014221191	1.4558411	0.47314453
339830754218007	7.9345703E-4	1.4570465	0.60020447
339830758643056	0.07531738	1.5205841	0.9386444
339830761908437	0.07531738	1.6073303	0.9386444
339830768683339	0.3843994	1.6073303	1.9746552
339830773688222	0.52734375	1.7172699	2.3912659
339830778693105	0.62509155	1.7771606	2.6160736
339830783728505	0.69107056	1.8614502	2.6404877
339830789099599	0.7460327	1.9604034	2.495102
339830793799306	0.80101013	2.0605927	2.2189941
339830798895741	0.85110474	2.1680908	1.8598175
339830804663564	0.8889923	2.295166	1.4737396
339830808905507	0.8889923	2.4381104	1.4737396
339830812262440	0.91708374	2.4381104	1.1108856
339830819006825	0.9451752	2.5724945	0.8066864
339830824011708	0.97694397	2.68367	0.5806732
339830829077626	1.0148163	2.7789612	0.44137573
339830834113026	1.0514679	2.8681488	0.38763428
339830839392567	1.0844421	2.9609985	0.4181671
339830844183827	1.1040039	3.0489655	0.5146942
339830849158192	1.0978851	3.1039429	0.65153503
339830854987050	1.0477905	3.111267	0.8018036
339830859259511	0.9476166	3.1137238	0.9728546
339830862646962	0.8046875	3.1858063	1.1731873
339830869330312	0.63609314	3.343399	1.3955536
339830874365712	0.4564972	3.5254517	1.6020355
339830879431630	0.27566528	3.6585999	1.7596283
339830884436513	0.10952759	3.7306976	1.8683624
339830889746571	-0.02609253	3.772232	1.9490051
339830894507314	-0.12258911	3.8040009	2.0161896
339830899542714	-0.17512512	3.8174286	2.079712
339830904822255	-0.184906	3.8003235	2.145691
339830909644032	-0.1531372	3.745346	2.223877
339830912970448	-0.1531372	3.6696014	2.223877
339830919714833	0.0044403076	3.6696014	2.4217987
339830924689198	0.1144104	3.5327759	2.5232086
339830930670644	0.24513245	3.4570313	2.6099548
339830934759999	0.3929596	3.3470612	2.6771393
339830939947987	0.55055237	3.1992493	2.7247925
339830944891835	0.7044983	3.0245361	2.7565613
339830949957753	0.7044983	2.849823	2.7736664
339830955511952	0.96961975	2.705658	2.7785492
339830959967519	0.96961975	2.614029	2.7785492
339830963324452	1.0673523	2.614029	2.7651062
339830970007802	1.1296539	2.5761566	2.7247925
339830975104237	1.1467743	2.5639496	2.6502838
339830980109120	1.1174469	2.55661	2.5439758
339830985144521	1.0465851	2.5492706	2.416916
339830990515614	0.9451752	2.5468292	2.2788696
339830995245839	0.8254547	2.5505066	2.133484
339831000250722	0.7032776	2.5505066	1.9856567
339831006049062	0.59698486	2.5468292	1.8378143
339831010321523	0.52001953	2.5456238	1.69487
339831013678456	0.47358704	2.5541687	1.5543823
339831020361806	0.4454956	2.5724945	1.4212036
339831025427724	0.42593384	2.588379	1.3014832
339831030493642	0.40396118	2.5822754	1.2098694
339831035498524	0.3746338	2.5285034	1.1548615
339831040808583	0.33918762	2.4075623	1.1389923
339831045569325	0.29888916	2.2206268	1.1548615
339831050604726	0.26101685	1.9909363	1.1890717
339831056097890	0.22802734	1.753952	1.2269592
339831060706044	0.19992065	1.5315857	1.2574921
339831064032460	0.19992065	1.3361053	1.2574921
339831070776845	0.15838623	1.3361053	1.2684937
339831075751210	0.15470886	1.0538788	1.2526093
339831080817128	0.16815186	0.9793701	1.2306366
339831085883046	0.19871521	0.9476013	1.2123108
339831091162587	0.24635315	0.94392395	1.207428
339831095953847	0.24635315	0.94636536	1.207428
339831100958730	0.30743408	0.94636536	1.2232819
339831106329823	0.3795166	0.9341583	1.2599487
339831111090565	0.45526123	0.8926239	1.3039246
339831114386464	0.52612305	0.8229828	1.3295746
339831121161366	0.58232117	0.73747253	1.3173676
339831126196767	0.6152954	0.64949036	1.258728
339831131171132	0.6189728	0.5676422	1.1597748
339831136206532	0.59088135	0.50289917	1.0290375
339831141699696	0.53222656	0.45890808	0.8726654
339831146277333	0.4454956	0.44180298	0.7077179
339831151373769	0.33674622	0.45036316	0.54400635
339831156836415	0.21214294	0.4796753	0.3949585
339831161414052	0.0826416	0.5151062	0.26669312
339831164740468	-0.040740967	0.5444336	0.1665039
339831171454335	-0.14579773	0.5652008	0.098083496
339831176550771	-0.22399902	0.585968	0.06021118
339831181677724	-0.27285767	0.6152954	0.049209595
339831186591054	-0.29486084	0.64826965	0.056549072
339831191718007	-0.28997803	0.67759705	0.07975769
339831196661855	-0.26309204	0.69226074	0.1151886
339831201697255	-0.2166748	0.6849365	0.15917969
339831207465077	-0.15802002	0.6531677	0.20803833
339831211737538	-0.095718384	0.6055145	0.25689697
339831215094472	-0.095718384	0.5517578	0.25689697
339831221899892	0.014221191	0.5517578	0.32287598
339831226813222	0.05331421	0.45646667	0.33631897
339831232031728	0.083862305	0.41737366	0.33509827
339831236945058	0.10952759	0.38316345	0.31799316
339831242621327	0.12905884	0.35507202	0.28622437
339831246985341	0.12905884	0.33062744	0.28622437
339831252020741	0.1437378	0.33062744	0.2434845
339831257269765	0.15226746	0.30618286	0.1933899
339831262244130	0.15470886	0.27685547	0.1457367
339831265448476	0.14982605	0.24388123	0.10296631
339831272284413	0.13761902	0.21090698	0.07243347
339831277167226	0.11805725	0.1828003	0.05899048
339831282263661	0.09729004	0.16569519	0.0663147
339831287268544	0.07896423	0.16325378	0.09686279
339831292578603	0.0667572	0.17546082	0.1457367
339831297339345	0.060638428	0.19502258	0.21047974
339831302527333	0.06187439	0.21334839	0.28622437
339831307684804	0.07041931	0.22189331	0.36686707
339831312659169	0.0826416	0.21455383	0.4499359
339831315802480	0.09484863	0.19378662	0.52812195
339831322699452	0.10585022	0.16447449	0.59165955
339831327521230	0.11685181	0.13148499	0.63197327
339831332617665	0.12905884	0.09605408	0.6502991
339831337622548	0.1437378	0.05697632	0.6490936
339831343451405	0.15838623	0.010559082	0.6332092
339831347693349	0.16938782	-0.03831482	0.60266113
339831352972890	0.17182922	-0.081085205	0.56233215
339831358221913	0.16571045	-0.11405945	0.5134735
339831362952138	0.14494324	-0.13362122	0.45970154
339831366125966	0.14494324	-0.14459229	0.45970154
339831373022939	0.05697632	-0.14459229	0.34365845
339831377875233	-0.0077667236	-0.14338684	0.28746033
339831383276845	-0.076171875	-0.12750244	0.23368835
339831387976552	-0.076171875	-0.09329224	0.23368835
339831393988515	-0.20323181	-0.09329224	0.1481781
339831398047353	-0.20323181	0.02154541	0.1481781
339831403082753	-0.24720764	0.02154541	0.12741089
339831408545399	-0.26921082	0.08628845	0.12741089
339831413306142	-0.26553345	0.14370728	0.1481781
339831416541005	-0.23864746	0.18890381	0.18603516
339831423682118	-0.19589233	0.2157898	0.23980713
339831428259755	-0.14213562	0.22311401	0.29966736
339831433722401	-0.083496094	0.21211243	0.3607483
339831438330556	-0.023651123	0.18890381	0.41207886
339831444220448	0.031326294	0.1681366	0.45117188
339831448401357	0.07652283	0.15715027	0.48294067
339831453497792	0.111968994	0.15715027	0.5110321
339831458716298	0.13638306	0.16203308	0.54034424
339831463934804	0.14982605	0.1681366	0.5672302
339831466895009	0.15106201	0.17546082	0.58555603
339831474005605	0.13761902	0.1828003	0.58921814
339831478613759	0.11073303	0.19012451	0.57821655
339831484320546	0.07408142	0.19502258	0.55500793
339831488684560	0.034988403	0.2011261	0.5183563
339831494055653	-0.0065460205	0.21211243	0.46826172
339831498785878	-0.048095703	0.22799683	0.40351868
339831504218007	-0.08961487	0.2475586	0.32777405
339831509100819	-0.12626648	0.26708984	0.24836731
339831513983632	-0.15557861	0.28541565	0.17262268
339831517187978	-0.15557861	0.3000946	0.17262268
339831524542714	-0.19711304	0.3000946	0.04676819
339831528998280	-0.19711304	0.3184204	-0.003326416
339831534766103	-0.20811462	0.3184204	-0.041168213
339831539038564	-0.20811462	0.34773254	-0.041168213
339831544562245	-0.20199585	0.34773254	-0.06072998
339831549109364	-0.18734741	0.37339783	-0.053390503
339831554785634	-0.1665802	0.39904785	-0.014297485
339831559576894	-0.13847351	0.41493225	0.052886963
339831564825917	-0.10305786	0.41003418	0.13595581
339831567541982	-0.06272888	0.38804626	0.22392273
339831575018788	-0.02243042	0.35627747	0.31066895
339831579291249	0.014221191	0.32695007	0.39375305
339831585181142	0.0496521	0.302536	0.46949768
339831589362050	0.08630371	0.28297424	0.53302
339831594672108	0.124176025	0.263443	0.5806732
339831599463368	0.16571045	0.24632263	0.60754395
339831604773427	0.20480347	0.22923279	0.61364746
339831609961415	0.24145508	0.21455383	0.60266113
339831615424062	0.276886	0.2011261	0.57821655
339831617926503	0.31477356	0.19256592	0.5476837
339831625403310	0.35507202	0.19012451	0.5122528
339831629675771	0.4002838	0.19134521	0.4780426
339831635382558	0.45159912	0.19502258	0.44873047
339831639746571	0.50901794	0.19746399	0.4267273
339831645148183	0.57011414	0.19746399	0.41452026
339831649847890	0.6324158	0.19868469	0.4084015
339831655798817	0.69107056	0.2023468	0.4084015
339831660590077	0.7435913	0.20845032	0.41207886
339831665961171	0.7912445	0.20845032	0.41452026
339831676001454	0.85354614	0.19868469	0.39863586
339831680060292	0.85354614	0.1717987	0.39863586
339831685919667	0.8437805	0.1717987	0.37297058
339831690131093	0.8437805	0.1717987	0.37297058
339831695959950	0.8156738	0.1717987	0.35708618
339831700201894	0.7753601	0.1864624	0.35708618
339831706580067	0.65441895	0.20478821	0.33387756
339831711127187	0.65441895	0.25	0.33387756
339831716009999	0.57499695	0.25	0.31799316
339831718603993	0.48336792	0.2817688	0.30210876
339831726447011	0.38319397	0.32086182	0.28746033
339831730383778	0.27812195	0.36727905	0.27401733
339831736945058	0.16938782	0.41737366	0.26789856
339831740454579	0.0655365	0.4698944	0.27278137
339831746436024	-0.028533936	0.519989	0.28622437
339831750555898	-0.10305786	0.56152344	0.30578613
339831756415273	-0.15679932	0.585968	0.32409668
339831761084462	-0.19100952	0.5920868	0.33876038
339831767004872	-0.20933533	0.5835266	0.34732056
339831777045155	-0.21788025	0.5713196	0.33998108
339831780737782	-0.20933533	0.5786438	0.32287598
339831787451649	-0.19345093	0.5920868	0.29722595
339831790808583	-0.17024231	0.6067352	0.26057434
339831796790028	-0.14091492	0.6189575	0.22024536
339831800909901	-0.104263306	0.62872314	0.18115234
339831807318593	-0.060302734	0.6372833	0.14938354
339831811652089	-0.0077667236	0.64216614	0.12741089
339831817603017	0.05331421	0.64094543	0.11885071
339831827490712	0.19259644	0.62994385	0.1347351
339831831091786	0.19259644	0.5871887	0.1347351
339831837103749	0.32331848	0.5871887	0.1640625
339831841193105	0.32331848	0.5529938	0.1640625
339831848303700	0.4247284	0.5529938	0.21536255
339831851233388	0.4247284	0.56152344	0.21536255
339831857977773	0.50901794	0.56152344	0.30088806
339831861609364	0.50901794	0.5786438	0.30088806
339831867743398	0.54322815	0.5786438	0.34120178
339831876440907	0.5334625	0.50289917	0.34732056
339831881476308	0.46258545	0.4515686	0.30455017
339831886511708	0.35142517	0.43936157	0.25813293
339831891577626	0.22924805	0.47113037	0.23612976
339831897131825	0.12661743	0.5102234	0.25689697
339831901648427	0.059432983	0.519989	0.32899475
339831906622792	0.034988403	0.49554443	0.45361328
339831912573720	0.050872803	0.45401	0.60998535
339831916724110	0.10217285	0.40637207	0.7529297
339831920050526	0.10217285	0.34407043	0.7529297
339831926855946	0.30377197	0.34407043	0.8470001
339831931860829	0.44425964	0.14736938	0.7920227
339831936896230	0.587204	0.0496521	0.69062805
339831941931630	0.7106018	-0.013885498	0.5513458
339831947516347	0.7949066	-0.035873413	0.37419128
339831952002431	0.83766174	-0.028549194	0.17382813
339831958563710	0.8462219	0.0056610107	-0.021636963
339831962744618	0.83277893	0.06185913	-0.18045044
339831967108632	0.83277893	0.12904358	-0.18045044
339831970435048	0.80345154	0.12904358	-0.28674316
339831977179433	0.758255	0.19012451	-0.34172058
339831982153798	0.6849518	0.2341156	-0.35638428
339831987250233	0.55789185	0.2658844	-0.34049988
339831992255116	0.35995483	0.29273987	-0.30995178
339831997626210	0.087524414	0.33674622	-0.27697754
339832002295399	-0.23744202	0.4124756	-0.251297
339832007361317	-0.5685272	0.51142883	-0.22688293
339832012671376	-0.85440063	0.59329224	-0.18899536
339832017432118	-1.0535583	0.62872314	-0.12181091
339832020789052	-1.1586151	0.6226196	-0.030166626
339832027502919	-1.1867065	0.6067352	0.0675354
339832032507802	-1.1671753	0.59573364	0.15550232
339832037573720	-1.1170807	0.5810852	0.22515869
339832042609120	-1.037674	0.5627594	0.27523804
339832048102284	-0.9326019	0.5493164	0.30822754
339832052649403	-0.805542	0.5493164	0.32409668
339832057684804	-0.67237854	0.5517578	0.32655334
339832063025380	-0.54408264	0.5395508	0.32165527
339832067786122	-0.4280243	0.50289917	0.31555176
339832071112538	-0.4280243	0.43936157	0.31555176
339832077856923	-0.23132324	0.43936157	0.29844666
339832082892323	-0.1519165	0.28297424	0.28866577
339832087927724	-0.09449768	0.22189331	0.28256226
339832092963124	-0.052978516	0.1864624	0.27767944
339832098791982	-0.0028839111	0.17424011	0.27033997
339832103033925	0.07286072	0.18035889	0.25935364
339832108069325	0.07286072	0.1999054	0.25080872
339832113562489	0.26345825	0.1999054	0.24468994
339832118140126	0.26345825	0.28785706	0.24468994
339832121436024	0.3416443	0.28785706	0.23248291
339832128241444	0.38928223	0.35995483	0.1982727
339832133215810	0.3978424	0.4332428	0.13841248
339832138251210	0.35751343	0.47113037	0.061431885
339832143317128	0.276886	0.45401	-0.013092041
339832148657704	0.18159485	0.39660645	-0.0680542
339832153357411	0.09729004	0.34039307	-0.098587036
339832158423329	0.038650513	0.32206726	-0.10836792
339832163824940	7.9345703E-4	0.34895325	-0.11203003
339832168494130	-0.02243042	0.41371155	-0.1169281
339832171851064	-0.039535522	0.4967804	-0.12181091
339832178564931	-0.060302734	0.57496643	-0.11936951
339832183569814	-0.09449768	0.6226196	-0.10470581
339832188635732	-0.14213562	0.6311798	-0.0851593
339832193640614	-0.20199585	0.61650085	-0.07537842
339832199011708	-0.27285767	0.6006317	-0.08026123
339832203741933	-0.35472107	0.5896454	-0.09492493
339832208746815	-0.4512329	0.5847473	-0.11203003
339832214117909	-0.56240845	0.58229065	-0.12425232
339832218817616	-0.68214417	0.5810852	-0.13279724
339832222205067	-0.68214417	0.57496643	-0.13279724
339832228918935	-0.90693665	0.57496643	-0.12913513
339832233954335	-0.99858093	0.519989	-0.10470581
339832238959218	-1.0779724	0.4698944	-0.05949402
339832243994618	-1.1463928	0.41371155	0.0052337646
339832249487782	-1.2074738	0.35507202	0.085861206
339832254065419	-1.2074738	0.29885864	0.085861206
339832259100819	-1.2624512	0.29885864	0.16770935
339832264624501	-1.3125458	0.25976563	0.30210876
339832269202138	-1.3626404	0.25	0.30210876
339832272528554	-1.4237213	0.26220703	0.34732056
339832279303456	-1.5019073	0.27320862	0.37786865
339832284308339	-1.5874481	0.27320862	0.39007568
339832289343739	-1.6656342	0.27441406	0.38275146
339832294379140	-1.7255096	0.28785706	0.35098267
339832300238515	-1.775589	0.30374146	0.30088806
339832304419423	-1.8220215	0.302536	0.23492432
339832309485341	-1.867218	0.2793274	0.1640625
339832315009023	-1.9038696	0.24876404	0.08708191
339832319586659	-1.9307556	0.2194519	0.0040130615
339832322943593	-1.9490814	0.18890381	-0.0851593
339832329626942	-1.9674072	0.14859009	-0.17066956
339832334631825	-1.9869385	0.099731445	-0.24397278
339832339697743	-1.9930573	0.059417725	-0.30018616
339832344733144	-1.9490814	0.0655365	-0.34172058
339832350500966	-1.8024597	0.1693573	-0.37471008
339832354773427	-1.5300293	0.39292908	-0.40402222
339832359839345	-1.1781616	0.69226074	-0.43089294
339832365118886	-0.8482971	0.96958923	-0.4455719
339832369910146	-0.63327026	1.1357422	-0.4345703
339832373297597	-0.63327026	1.1479645	-0.4345703
339832379950429	-0.55996704	1.1479645	-0.40768433
339832385016347	-0.55996704	0.73991394	-0.46266174
339832390051747	-0.5037842	0.39048767	-0.5542908
339832395056630	-0.5037842	0.006881714	-0.62516785
339832400946523	-0.2850952	-0.37184143	-0.6361542
339832405157948	-0.2850952	-0.7163696	-0.6361542
339832410193349	-0.17634583	-0.7163696	-0.59461975
339832415503407	-0.07249451	-0.9924774	-0.5347595
339832420233632	0.028884888	-1.1769562	-0.48098755
339832423651601	0.11929321	-1.2649231	-0.43945313
339832430304433	0.17915344	-1.2795868	-0.40402222
339832435370351	0.1962738	-1.2588196	-0.3710327
339832440375233	0.16815186	-1.2380524	-0.34049988
339832445410634	0.09484863	-1.2441559	-0.32461548
339832450934315	-0.016326904	-1.2795868	-0.3282776
339832455511952	-0.15924072	-1.3247833	-0.35516357
339832460516835	-0.32418823	-1.3614349	-0.3979187
339832466406728	-0.5049896	-1.3822021	-0.45166016
339832470587636	-0.6943512	-1.3871155	-0.50787354
339832473944569	-0.88739014	-1.3834381	-0.56040955
339832480719472	-1.0743256	-1.3712311	-0.60928345
339832485693837	-1.2465668	-1.3565521	-0.6520386
339832490729237	-1.3968506	-1.3431091	-0.6850281
339832495764638	-1.5227051	-1.3394623	-0.69847107
339832501227284	-1.617981	-1.3492279	-0.6862335
339832505865956	-1.6827393	-1.3638763	-0.6446991
339832510870839	-1.7218323	-1.3822021	-0.57507324
339832516760732	-1.7511597	-1.4213104	-0.48342896
339832520972157	-1.7780457	-1.5068207	-0.3820343
339832524329091	-1.7780457	-1.6375427	-0.3820343
339832531012440	-1.8036957	-1.6375427	-0.21708679
339832536047841	-1.7890167	-1.9087677	-0.16334534
339832541113759	-1.7890167	-2.0065155	-0.11936951
339832546118642	-1.7572479	-2.0065155	-0.11936951
339832551459218	-1.7157135	-2.0859222	-0.07171631
339832556189442	-1.6692963	-2.1555786	-0.010650635
339832561255360	-1.617981	-2.2154236	0.06387329
339832566565419	-1.5642395	-2.2679596	0.1506195
339832571295644	-1.5104675	-2.3217316	0.2434845
339832574683095	-1.4616089	-2.3840332	0.33876038
339832581366444	-1.4151764	-2.454895	0.43528748
339832586432362	-1.3699799	-2.5306244	0.52812195
339832591437245	-1.3259888	-2.606369	0.6148834
339832596472646	-1.2832336	-2.6833496	0.6918335
339832601935292	-1.2441254	-2.7627563	0.76148987
339832606543446	-1.2135925	-2.848297	0.8237915
339832611578847	-1.1928253	-2.9362488	0.8812103
339832616949940	-1.1867065	-3.0254211	0.936203
339832621680165	-1.1952667	-3.1170654	0.98872375
339832624976064	-1.2160339	-3.2111359	1.0314789
339832631750966	-1.2478027	-3.3052063	1.0571442
339832636816884	-1.2930145	-3.3907318	1.0534668
339832641821767	-1.3577576	-3.4518127	1.0046082
339832646857167	-1.4457245	-3.4750366	0.89707947
339832652350331	-1.5373535	-3.4615936	0.76148987
339832656927968	-1.5923309	-3.450592	0.66986084
339832661963368	-1.5923309	-3.4689178	0.6820679
339832667792226	-1.5972137	-3.4481506	0.751709
339832672034169	-1.7096252	-3.2257996	0.71383667
339832675421620	-1.7096252	-2.6870117	0.71383667
339832682074452	-2.3388062	-2.6870117	-0.26597595
339832687140370	-2.3388062	-1.2111664	-0.26597595
339832692175771	-2.706543	-1.2111664	-1.1785889
339832697180653	-3.0388489	-0.82754517	-2.175537
339832702521230	-3.3467255	-0.8617554	-3.053955
339832707251454	-3.6472778	-1.1867371	-3.617157
339832712317372	-3.9343872	-1.5923615	-3.7796478
339832717657948	-4.201935	-1.9234467	-3.6464844
339832722357655	-4.448715	-2.1360168	-3.4314728
339832725745107	-4.6637573	-2.2642975	-3.2371979
339832732428456	-4.809128	-2.3535004	-2.9818573
339832737494374	-4.8237915	-2.4316864	-2.5530396
339832742499257	-4.6490784	-2.5257416	-1.9812622
339832747565175	-4.2764587	-2.6381378	-1.4339294
339832752875233	-3.7535553	-2.7187805	-1.0588684
339832757605458	-3.1536865	-2.6870117	-0.89515686
339832762671376	-2.5293884	-2.5245361	-0.8841553
339832767981435	-1.9075317	-2.322937	-0.9440155
339832772742177	-1.3052216	-2.2154236	-1.017334
339832776099110	-0.7578888	-2.256958	-1.083313
339832782812978	-0.30830383	-2.3864746	-1.1419373
339832787848378	0.011779785	-2.4976501	-1.1944733
339832792883778	0.19015503	-2.528183	-1.2323608
339832797919179	0.23901367	-2.48909	-1.2470093
339832803412343	0.18891907	-2.4341278	-1.2384796
339832807989980	0.07408142	-2.4096832	-1.2189178
339832813025380	-0.07373047	-2.4267883	-1.1993561
339832818488026	-0.22766113	-2.467102	-1.1859436
339832823096181	-0.36816406	-2.4988708	-1.174942
339832826422597	-0.36816406	-2.493988	-1.174942
339832833166982	-0.48544312	-2.493988	-1.1602631
339832838171864	-0.56973267	-2.4390106	-1.1370544
339832843237782	-0.61616516	-2.3437042	-1.1040802
339832848273183	-0.62472534	-2.2288666	-1.0613098
339832854102040	-0.60150146	-2.1128082	-0.9574585
339832858343983	-0.5587616	-1.9979706	-0.9574585
339832863348866	-0.5062256	-1.8843536	-0.9049225
339832868842030	-0.4512329	-1.7695007	-0.86338806
339832873450185	-0.40237427	-1.6632233	-0.8328552
339832876776601	-0.3644867	-1.5740356	-0.80963135
339832883520985	-0.34251404	-1.5056152	-0.7852173
339832888556386	-0.3327179	-1.4616241	-0.7522125
339832893561269	-0.3302765	-1.4371948	-0.70944214
339832898596669	-0.32662964	-1.4262085	-0.6557007
339832903937245	-0.31074524	-1.4225311	-0.588501
339832908667470	-0.27285767	-1.413971	-0.5005493
339832913733388	-0.20443726	-1.3895569	-0.3869171
339832919012929	-0.1006012	-1.347992	-0.24885559
339832923773671	0.031326294	-1.2918091	-0.099823
339832927130605	0.031326294	-1.235611	0.041885376
339832933844472	0.3257599	-1.235611	0.15673828
339832939581776	0.46138	-1.1342163	0.2276001
339832943945790	0.58110046	-1.0950928	0.25080872
339832948950673	0.6825104	-1.0731201	0.23980713
339832954810048	0.76924133	-1.0694427	0.2141571
339832959021474	0.83399963	-1.0743256	0.19703674
339832964056874	0.8755493	-1.076767	0.20191956
339832969397450	0.89263916	-1.0718842	0.23248291
339832974127675	0.89263916	-1.0645599	0.28256226
339832977484608	0.8889923	-1.0645599	0.28256226
339832984228993	0.8681946	-1.0535583	0.3424225
339832989294911	0.8413391	-1.0352325	0.40472412
339832994269276	0.81811523	-1.0144653	0.46217346
339832999335194	0.81811523	-1.0059204	0.50735474
339833004797841	0.85354614	-1.0144653	0.5354614
339833009375478	0.92684937	-1.0340271	0.54034424
339833014410878	1.0331421	-1.0572357	0.5220337
339833019904042	1.1675415	-1.0828857	0.48658752
339833024481679	1.3238983	-1.1048889	0.4474945
339833027899648	1.4949493	-1.1146545	0.4096222
339833034552480	1.6708832	-1.1207733	0.36198425
339833039618398	1.8431396	-1.1451874	0.29234314
339833044623280	2.011734	-1.1842957	0.20071411
339833049658681	2.1876678	-1.2026215	0.09197998
339833055151845	2.3990326	-1.1598663	-0.033843994
339833059759999	2.6824646	-1.0816803	-0.18534851
339833064795399	3.0599823	-1.0486755	-0.3710327
339833070471669	3.4998016	-1.1366577	-0.58361816
339833074835683	3.913971	-1.3345795	-0.79130554
339833078253651	3.913971	-1.532486	-0.79130554
339833084906483	4.270706	-1.532486	-1.0258789
339833089941884	4.136322	-1.5434723	-1.0271149
339833095007802	3.8357697	-1.3907623	-0.97213745
339833100012685	3.4350586	-1.2380524	-0.87316895
339833105749989	2.9940033	-1.129303	-0.72779846
339833110114003	2.5590668	-1.0718842	-0.53964233
339833115118886	2.1620178	-1.0633545	-0.33683777
339833120825673	1.8126068	-1.0926514	-0.17190552
339833125189687	1.8126068	-1.1378632	-0.17190552
339833128607655	1.5035095	-1.1378632	-0.0839386
339833135260487	1.2261658	-1.1757507	-0.0851593
339833140326405	0.97572327	-1.1891937	-0.14990234
339833145331288	0.7570343	-1.1733093	-0.251297
339833150397206	0.56033325	-1.1280975	-0.3685913
339833155829335	0.3770752	-1.0670013	-0.49443054
339833160468007	0.20603943	-1.0046997	-0.6263733
339833165472890	0.052093506	-0.9436188	-0.7619934
339833170935536	-0.08105469	-0.87275696	-0.90371704
339833175543690	-0.198349	-0.7811279	-1.0527649
339833178900624	-0.30706787	-0.6772766	-1.2103577
339833185645009	-0.4096985	-0.57344055	-1.3643036
339833190680409	-0.5049896	-0.47813416	-1.4962616
339833195685292	-0.58929443	-0.39260864	-1.5903168
339833200720692	-0.65649414	-0.32174683	-1.636734
339833206641103	-0.70903015	-0.2631073	-1.6342926
339833210822011	-0.74568176	-0.20812988	-1.5890961
339833215857411	-0.77253723	-0.14706421	-1.5072327
339833221777821	-0.7810974	-0.0786438	-1.3960724
339833225928212	-0.72979736	-0.0077667236	-1.2494507
339833229285146	-0.72979736	0.0496521	-1.2494507
339833236029530	-0.10305786	0.0496521	-0.79374695
339833241034413	0.54444885	0.020324707	-0.48466492
339833246100331	1.2640533	-0.109176636	-0.16334534
339833251105214	1.86026	-0.3070984	0.12007141
339833256873036	2.208435	-0.52822876	0.34365845
339833261145497	2.3074036	-0.7224884	0.5134735
339833266211415	2.3074036	-0.858078	0.5134735
339833271918202	2.0667114	-0.858078	0.6979523
339833276282216	2.0667114	-0.9289551	0.6979523
339833279608632	1.833374	-0.9289551	0.67962646
339833286322499	1.5462646	-0.8764343	0.57089233
339833291357899	1.2115173	-0.7603607	0.38885498
339833296423817	0.8596649	-0.59664917	0.17506409
339833301428700	0.52978516	-0.43170166	-0.031402588
339833306769276	0.24879456	-0.32174683	-0.20611572
339833311530019	0.024002075	-0.2973175	-0.34049988
339833316534901	-0.15435791	-0.35107422	-0.42845154
339833321875478	-0.29362488	-0.45980835	-0.4748993
339833326636220	-0.40725708	-0.59176636	-0.5091095
339833329993153	-0.50131226	-0.70292664	-0.5701752
339833336676503	-0.56973267	-0.7481384	-0.68258667
339833341742421	-0.58561707	-0.6956024	-0.8291931
339833346747304	-0.5159912	-0.5379944	-0.9806671
339833351782704	-0.35350037	-0.30221558	-1.1150665
339833357306386	-0.107940674	-0.05908203	-1.2225952
339833361884023	0.19136047	0.10093689	-1.2983398
339833366888905	0.50779724	0.13026428	-1.3300934
339833372382069	0.80833435	0.059417725	-1.3093262
339833376990224	1.0685577	-0.0309906	-1.2384796
339833380530263	1.0685577	-0.07008362	-1.2384796
339833387061024	1.4692993	-0.07008362	-1.0063477
339833392065907	1.6220093	0.0496521	-0.87072754
339833397101308	1.7393036	0.14492798	-0.7192383
339833402136708	1.8089294	0.22923279	-0.54208374
339833407629872	1.8284912	0.30497742	-0.3356018
339833412207509	1.8284912	0.38560486	-0.3356018
339833417273427	1.8126068	0.38560486	-0.110809326
339833422583485	1.7881622	0.46868896	0.10296631
339833427313710	1.7747192	0.54319763	0.28378296
339833430701161	1.7735138	0.60917664	0.42549133
339833437415028	1.7686157	0.68370056	0.5317993
339833442419911	1.7490692	0.77656555	0.60266113
339833447455312	1.7050934	0.8779602	0.63565063
339833452490712	1.6330109	0.9744873	0.64053345
339833457800771	1.5352631	1.0599976	0.6368561
339833462622548	1.4302063	1.1455231	0.6490936
339833467657948	1.3434601	1.2444763	0.6845093
339833473395253	1.3043671	1.3666534	0.73828125
339833477728749	1.3300171	1.5205841	0.7969055
339833481055165	1.4179993	1.713623	0.85310364
339833487769032	1.5462646	1.944519	0.9019928
339833492773915	1.6831055	2.1815338	0.94473267
339833497839833	1.794281	2.36969	0.99238586
339833502936269	1.8480225	2.4576416	1.0608063
339833508765126	1.807724	2.4454346	1.1573334
339833512946034	1.6452179	2.4173431	1.2782745
339833517981435	1.3495789	2.499176	1.410202
339833523688222	0.950058	2.7435455	1.5372772
339833528052235	0.5163574	3.0440826	1.6582184
339833531378651	0.5163574	3.1748047	1.6582184
339833538123036	-0.15435791	3.1748047	1.8964691
339833543158437	-0.31195068	2.3782349	2.0149689
339833548163319	-0.35838318	1.6268768	2.1261597
339833553229237	-0.35838318	0.9194946	2.2141113
339833558722401	-0.20933533	0.9194946	2.2654266
339833563300038	-0.20933533	0.10093689	2.2654266
339833568304921	-0.059066772	0.10093689	2.2556458
339833573798085	0.108291626	-0.021209717	2.167694
339833578375722	0.26101685	-0.051757813	1.9942017
339833582251454	0.36486816	-0.07130432	1.7425232
339833588477040	0.39907837	-0.12138367	1.4322052
339833593481923	0.35507202	-0.19348145	1.0864563
339833598547841	0.24145508	-0.2447815	0.7394867
339833603552724	0.0826416	-0.24234009	0.43284607
339833608923817	-0.09082031	-0.19104004	0.20071411
339833613654042	-0.25332642	-0.12870789	0.051651
339833623389149	-0.48054504	-0.096969604	-0.07171631
339833628729726	-0.5391998	-0.15803528	-0.090042114
339833632361317	-0.56973267	-0.21669006	-0.09738159
339833638800526	-0.5819702	-0.26678467	-0.10470581
339833643835927	-0.586853	-0.30586243	-0.114471436
339833648901845	-0.58807373	-0.3486328	-0.12425232
339833653937245	-0.58317566	-0.4121704	-0.123031616
339833659277821	-0.5636444	-0.50502014	-0.10958862
339833664069081	-0.52211	-0.627182	-0.08149719
339833669012929	-0.45613098	-0.77012634	-0.042404175
339833674750233	-0.37426758	-0.91552734	-0.002090454
339833679114247	-0.29486084	-1.0462341	0.03211975
339833682684804	-0.29486084	-1.1390991	0.03211975
339833689154530	-0.20933533	-1.1390991	0.051651
339833694220448	-0.2142334	-1.1525421	0.029678345
339833699255849	-0.2142334	-1.0547943	0.029678345
339833704321767	-0.23864746	-1.0547943	-0.009414673
339833709753896	-0.27409363	-0.89964294	-0.08026123
339833714331532	-0.31318665	-0.7139282	-0.08026123
339833719366933	-0.34739685	-0.52822876	-0.086380005
339833724829579	-0.36694336	-0.36328125	-0.0692749
339833729468251	-0.35838318	-0.23745728	-0.033843994
339833733557607	-0.30706787	-0.17027283	0.010116577
339833739539052	-0.21177673	-0.16783142	0.051651
339833744604970	-0.063964844	-0.23013306	0.077316284
339833749579335	0.13882446	-0.35595703	0.07487488
339833754614735	0.39416504	-0.5526581	0.04310608
339833760107899	0.6690674	-0.83610535	-0.013092041
339833764685536	0.89875793	-1.1855164	-0.079055786
339833769751454	1.0099335	-1.5153809	-0.14379883
339833775000478	0.95983887	-1.7047577	-0.20123291
339833779791737	0.7667999	-1.6607666	-0.24520874
339833784064198	0.49313354	-1.3761139	-0.27209473
339833789893056	0.21948242	-0.9423828	-0.27818298
339833794897939	0.0019989014	-0.49523926	-0.26229858
339833799933339	-0.14335632	-0.14706421	-0.23544312
339833804968739	-0.23500061	0.054534912	-0.21588135
339833810309315	-0.2985077	0.1217041	-0.22200012
339833815070058	-0.35105896	0.09361267	-0.25621033
339833820074940	-0.3938141	0.020324707	-0.30873108
339833825537587	-0.4206848	-0.052978516	-0.3661499
339833830176259	-0.4280243	-0.09817505	-0.41256714
339833833990956	-0.4280243	-0.10673523	-0.41256714
339833840247060	-0.4133606	-0.10673523	-0.4504547
339833845251942	-0.4133606	-0.065200806	-0.4504547
339833850287343	-0.40725708	-0.065200806	-0.45166016
339833855383778	-0.40481567	-0.035873413	-0.44921875
339833860632802	-0.3999176	0.0032196045	-0.4431305
339833865393544	-0.3828125	0.06309509	-0.4272461
339833870459462	-0.35350037	0.14492798	-0.3979187
339833875677968	-0.31684875	0.236557	-0.3600464
339833880560780	-0.28141785	0.32574463	-0.3356018
339833884405995	-0.25209045	0.41003418	-0.3514862
339833890601064	-0.23010254	0.494339	-0.4113617
339833895605946	-0.2166748	0.5762024	-0.4956665
339833900641347	-0.20567322	0.6372833	-0.5701752
339833905676747	-0.18612671	0.66171265	-0.6202698
339833911108876	-0.1494751	0.64704895	-0.6446991
339833915717030	-0.10549927	0.59817505	-0.6508179
339833920752431	-0.0700531	0.51142883	-0.6446991
339833926154042	-0.060302734	0.38804626	-0.6361542
339833930884267	-0.08229065	0.25120544	-0.63249207
339833937964345	-0.13725281	0.1400299	-0.63249207
339833940924550	-0.21911621	0.083847046	-0.641037
339833945959950	-0.32174683	0.082611084	-0.6679077
339833950995351	-0.429245	0.11805725	-0.7204437
339833956030751	-0.5294342	0.16203308	-0.8023071
339833961493398	-0.61006165	0.19012451	-0.9147186
339833966071034	-0.66381836	0.1864624	-1.0588684
339833971136952	-0.6919098	0.1534729	-1.2323608
339833976416493	-0.69314575	0.10827637	-1.4217224
339833981207753	-0.6711426	0.07896423	-1.6062012
339833985388661	-0.6711426	0.08016968	-1.6062012
339833991309071	-0.62960815	0.08016968	-1.7711334
339833996283437	-0.5770874	0.10949707	-1.9153137
339834001349355	-0.5196686	0.15835571	-2.039917
339834006384755	-0.4585724	0.21334839	-2.1510925
339834011664296	-0.3828125	0.2707672	-2.2488403
339834016455556	-0.27774048	0.33795166	-2.3343506
339834021521474	-0.14579773	0.42591858	-2.406433
339834028601552	0.050872803	0.521225	-2.5200653
339834031531239	0.050872803	0.51878357	-2.5200653
339834036139394	0.010559082	0.51878357	-2.5628204
339834041632558	-0.1482544	0.3343048	-2.5921326
339834046698476	-0.38160706	0.060653687	-2.6067963
339834051703358	-0.6039429	-0.20324707	-2.6177979
339834056769276	-0.7285614	-0.35839844	-2.637329
339834062201405	-0.712677	-0.34375	-2.669098
339834066809560	-0.56729126	-0.16783142	-2.7143097
339834071844960	-0.34127808	0.09849548	-2.7790527
339834077185536	-0.0859375	0.36239624	-2.870697
339834081946278	0.16815186	0.54563904	-2.9891968
339834086798573	0.41496277	0.6213989	-3.1260376
339834092017079	0.65197754	0.6018524	-3.267746
339834097266103	0.884079	0.5261078	-3.399704
339834102087880	1.1125641	0.4332428	-3.5121002
339834107092763	1.3373413	0.35139465	-3.6098328
339834112646962	1.5462646	0.27685547	-3.7051392
339834117194081	1.7234192	0.1828003	-3.8089752
339834122229482	1.845581	0.04109192	-3.9262695
339834127570058	1.8785858	-0.16659546	-4.0484314
339834132269765	1.8785858	-0.44638062	-4.159607
339834135657216	1.7832794	-0.44638062	-4.159607
339834142371083	1.5438232	-0.77745056	-4.242691
339834147406483	1.1980743	-1.0877686	-4.286667
339834152411366	0.82666016	-1.2343903	-4.2878876
339834157446767	0.5016937	-1.0853271	-4.247574
339834162787343	0.25611877	-0.62597656	-4.1571655
339834167609120	0.096084595	-0.024871826	-3.9763489
339834172583485	-0.012649536	0.41737366	-3.6330414
339834178015614	-0.16290283	0.45401	-3.0710602
339834182654286	-0.48910522	0.05697632	-2.301361
339834187628651	-1.049881	-0.54533386	-1.4156036
339834192694569	-1.7377167	-1.0315857	-0.5298767
339834197943593	-2.357132	-1.1940765	0.27157593
339834202765370	-2.7700806	-1.0120239	0.95085144
339834207800771	-2.977768	-0.5722046	1.5006256
339834213110829	-3.0376282	0.0154418945	1.9453278
339834217932607	-2.9826508	0.61650085	2.3277283
339834222906972	-2.8030548	1.0734406	2.695465
339834228552724	-2.5098572	1.2957916	3.0632172
339834232977773	-2.1445465	1.3581085	3.4163055
339834236334706	-2.1445465	1.4839325	3.4163055
339834243048573	-1.3797455	1.4839325	4.286148
339834248083974	-1.009552	2.9536743	5.1780243
339834253119374	-0.70047	4.5687866	6.591568
339834258215810	-0.58807373	6.5895233	8.365509
339834263525868	-0.78842163	8.611481	10.052704
339834268225575	-1.128067	10.264465	11.14859
339834273291493	-1.1586151	11.212524	11.253662
339834278723622	-0.5844116	11.108688	10.057587
339834283362294	-0.5844116	9.800232	10.057587
339834286719228	0.33918762	9.800232	7.447983
339834293433095	1.0258179	7.6414185	3.850006
339834298407460	1.1382141	5.3470306	0.27401733
339834303473378	0.8462219	3.4435883	-2.23172
339834308478261	0.5187988	1.9872894	-3.2787476
339834313940907	0.37219238	0.8193054	-3.2176666
339834318549062	0.408844	-0.14094543	-2.6214447
339834323645497	0.55789185	-0.90208435	-1.8493347
339834329077626	0.7350464	-1.5178223	-1.0381012
339834333716298	0.8889923	-2.0211792	-0.28186035
339834337012196	1.0001526	-2.4084625	0.31066895
339834343787099	1.0661163	-2.6613617	0.65885925
339834348761464	1.0856781	-2.773758	0.7553711
339834353827382	1.0563507	-2.7566528	0.6661835
339834358832265	0.97572327	-2.62471	0.48902893
339834364172841	0.8437805	-2.3999176	0.31311035
339834368964101	0.67518616	-2.0993652	0.1933899
339834373999501	0.49435425	-1.7352905	0.1481781
339834379523183	0.3318634	-1.3211365	0.15306091
339834384039784	0.21948242	-0.8800812	0.17262268
339834387396718	0.21948242	-0.44514465	0.17262268
339834394141103	0.23657227	-0.44514465	0.17138672
339834399145985	0.35386658	0.2316742	0.15673828
339834404181386	0.48825073	0.38682556	0.14938354
339834409247304	0.587204	0.37704468	0.15550232
339834414526845	0.6165314	0.19502258	0.17138672
339834419287587	0.6165314	-0.12994385	0.19094849
339834424353505	0.57621765	-0.5343323	0.19094849
339834429663564	0.48825073	-0.5343323	0.22024536
339834434393788	0.3770752	-0.9375	0.22024536
339834437750722	0.25367737	-1.274704	0.22268677
339834444495107	0.11317444	-1.5227051	0.2117157
339834449499989	-0.055419922	-1.7035217	0.18359375
339834454535390	-0.23988342	-1.8415833	0.1457367
339834459540273	-0.3644867	-1.9527588	0.117630005
339834465094472	-0.31930542	-2.0993652	0.10418701
339834469641591	-0.07249451	-2.388916	0.08097839
339834474738026	0.26467896	-2.8287354	-0.003326416
339834480475331	0.52856445	-3.2209015	-0.18534851
339834484747792	0.65441895	-3.2819977	-0.4480133
339834488104726	0.7069397	-2.891037	-0.72532654
339834494849110	0.7802429	-2.1848907	-0.9366913
339834499823476	0.9134064	-1.4103241	-1.0332184
339834504889394	1.1015625	-0.76524353	-1.0075531
339834509924794	1.3202515	-0.3645172	-0.8841553
339834515387440	1.5267181	-0.2814331	-0.7082367
339834520087148	1.6769867	-0.5563202	-0.52864075
339834525061513	1.7478485	-1.1598663	-0.39059448
339834530920888	1.7380829	-1.9723053	-0.32217407
339834535132314	1.6598969	-2.8067322	-0.3123932
339834538458730	1.6598969	-3.4811401	-0.3123932
339834545172597	1.3715515	-3.4811401	-0.30506897
339834550207997	1.2249603	-4.038254	-0.251297
339834555243398	1.1345367	-3.931961	-0.16946411
339834560278798	1.1284485	-3.6155243	-0.079055786
339834566077138	1.2176208	-3.1304932	0.0064697266
339834570380116	1.2176208	-2.5257416	0.0064697266
339834575415517	1.3911133	-2.5257416	0.08097839
339834581122304	1.8675842	-1.859909	0.1982727
339834585455800	1.8675842	-0.6112976	0.1982727
339834588843251	2.0948334	-0.6112976	0.24468994
339834595618153	2.2780762	-0.12994385	0.28866577
339834600592519	2.4087982	0.24143982	0.33509827
339834605627919	2.489441	0.5248718	0.38519287
339834610846425	2.5334167	0.7362366	0.4401703
339834616125966	2.5505219	0.88772583	0.4951477
339834620795155	2.5578613	0.98301697	0.5452423
339834625739003	2.5749512	1.0319061	0.5831146
339834631140614	2.6128387	1.0453491	0.60998535
339834635840321	2.6714783	1.0441132	0.62586975
339834639197255	2.7386627	1.048996	0.6368561
339834645911122	2.799759	1.075882	0.6417389
339834650977040	2.8412933	1.1271973	0.6392975
339834655951405	2.8535004	1.1943817	0.62953186
339834661017323	2.8302917	1.2664795	0.61242676
339834666571523	2.7667694	1.3275452	0.59043884
339834671332265	2.6665802	1.3544312	0.5647888
339834676123524	2.5346527	1.3300018	0.54034424
339834682227040	2.3794708	1.2481537	0.5183563
339834686194325	2.2059937	1.1210785	0.5012665
339834689520741	2.2059937	0.97203064	0.5012665
339834696295644	1.8260498	0.97203064	0.4792633
339834701300526	1.6244507	0.70814514	0.46949768
339834706305409	1.4204407	0.6213989	0.4584961
339834711432362	1.4204407	0.5664215	0.4426117
339834716681386	1.0258179	0.5371094	0.4242859
339834721960927	0.84010315	0.51878357	0.40107727
339834726477528	0.84010315	0.4857788	0.40107727
339834732001210	0.6641846	0.4857788	0.37174988
339834736548329	0.5029144	0.41493225	0.33509827
339834739905263	0.3611908	0.30741882	0.29234314
339834746588612	0.23780823	0.1876831	0.24224854
339834751715565	0.1278534	0.08505249	0.18971252
339834756689931	0.022766113	0.0178833	0.14085388
339834762518788	-0.08105469	-0.013885498	0.0993042
339834767401601	-0.184906	-0.02609253	0.0675354
339834771918202	-0.2850952	-0.037094116	0.044326782
339834776801015	-0.3791504	-0.065200806	0.021118164
339834782812978	-0.4671173	-0.116500854	-0.0045318604
339834786871815	-0.54776	-0.18736267	-0.031402588
339834790259267	-0.62228394	-0.26678467	-0.053390503
339834796942616	-0.6919098	-0.3461914	-0.0680542
339834802161122	-0.75912476	-0.41461182	-0.079055786
339834807043935	-0.8238678	-0.46470642	-0.09248352
339834812964345	-0.88739014	-0.48791504	-0.10958862
339834817938710	-0.94725037	-0.48423767	-0.123031616
339834822882558	-1.0083466	-0.462265	-0.12547302
339834827185536	-1.0694427	-0.43170166	-0.11936951
339834832465077	-1.1329651	-0.40361023	-0.11569214
339834837256337	-1.194046	-0.3865204	-0.11936951
339834840552235	-1.194046	-0.38284302	-0.11936951
339834847357655	-1.3101044	-0.38284302	-0.13769531
339834852637196	-1.3626404	-0.41705322	-0.14868164
339834857367421	-1.3626404	-0.44270325	-0.14868164
339834862738515	-1.4078522	-0.44270325	-0.18289185
339834867926503	-1.4359589	-0.43782043	-0.20732117
339834873297597	-1.4273987	-0.43782043	-0.23176575
339834877539540	-1.4273987	-0.3144226	-0.23176575
339834883276845	-1.3883057	-0.3144226	-0.25253296
339834887579823	-1.3174438	-0.2472229	-0.26963806
339834890936757	-1.2013855	-0.20080566	-0.28186035
339834897681142	-1.0339966	-0.17391968	-0.28430176
339834903418446	-0.81166077	-0.15682983	-0.27574158
339834907721425	-0.534317	-0.13482666	-0.25497437
339834913458730	-0.21177673	-0.09817505	-0.22320557
339834918097401	0.13150024	-0.063964844	-0.18167114
339834923834706	0.4797058	-0.065200806	-0.13769531
339834927893544	0.82421875	-0.14459229	-0.10348511
339834935797597	1.1614227	-0.31930542	-0.090042114
339834941321278	1.7087555	-0.83122253	-0.10348511
339834948035146	1.806488	-1.0340271	-0.1169281
339834953894521	1.7368469	-1.0987701	-0.12059021
339834958105946	1.5328217	-0.9704895	-0.10592651
339834964117909	1.2811584	-0.6296234	-0.074157715
339834968451405	1.0673523	-0.11161804	-0.037521362
339834974005605	0.9341736	0.49310303	-0.0155181885
339834978247548	0.88287354	1.0465546	-0.017959595
339834984656239	0.8816376	1.4130707	-0.042404175
339834988287831	0.88531494	1.5193787	-0.09126282
339834991644765	0.88531494	1.3837585	-0.09126282
339834998389149	0.85110474	1.3837585	-0.23788452
339835003912831	0.62020874	0.71302795	-0.30262756
339835008520985	0.62020874	0.35871887	-0.30262756
339835014288808	0.2927704	0.35871887	-0.34049988
339835019324208	0.13394165	-0.14950562	-0.30995178
339835024786855	-0.019973755	-0.291214	-0.25376892
339835028601552	-0.019973755	-0.37428284	-0.25376892
339835034582997	-0.17878723	-0.37428284	-0.17922974
339835038672353	-0.35350037	-0.42926025	-0.099823
339835041998769	-0.54652405	-0.50990295	-0.031402588
339835048773671	-0.7578888	-0.6748352	0.010116577
339835054510976	-0.97901917	-0.9399414	0.026000977
339835058783437	-1.2001495	-1.2637024	0.03211975
339835064642812	-1.3980713	-1.5642395	0.050445557
339835069189931	-1.5361176	-1.7621613	0.09564209
339835074988271	-1.5776672	-1.8293762	0.16526794
339835078955556	-1.5068207	-1.7890472	0.25201416
339835086035634	-1.3308716	-1.6839905	0.34854126
339835088995839	-1.0804291	-1.5373688	0.4426117
339835092352773	-0.8031006	-1.347992	0.5146942
339835099066640	-0.5538635	-1.1073303	0.55744934
339835104987050	-0.38648987	-0.8373108	0.57821655
339835109167958	-0.32418823	-0.574646	0.598999
339835115759755	-0.36694336	-0.34495544	0.62220764
339835119910146	-0.5025482	-0.14215088	0.6344147
339835125861073	-0.71147156	0.04597473	0.62831116
339835129279042	-0.9680176	0.2011261	0.60998535
339835135291005	-1.2380371	0.27197266	0.58799744
339835139349843	-1.4848175	0.19622803	0.55744934
339835142737294	-1.4848175	-0.049316406	0.55744934
339835149420644	-1.6973877	-0.049316406	0.5024719
339835155920888	-2.0663605	-0.43537903	0.25445557
339835159491444	-2.0663605	-1.2893677	0.25445557
339835166174794	-2.4206696	-1.2893677	-0.1352539
339835170050526	-2.4206696	-1.8171387	-0.1352539
339835174658681	-2.5770416	-1.8171387	-0.32705688
339835179633046	-2.7028656	-1.9234467	-0.4932251
339835185675526	-2.7835236	-1.9368744	-0.6263733
339835189734364	-2.8054962	-1.8623505	-0.72532654
339835193030263	-2.7627563	-1.7071991	-0.798645
339835199805165	-2.6735535	-1.493393	-0.85728455
339835205969716	-2.5648193	-1.261261	-0.90859985
339835209875966	-2.4597626	-1.0535583	-0.94892883
339835216345692	-2.3730164	-0.89108276	-0.9660187
339835220343495	-2.3070374	-0.7628021	-0.9525757
339835224982167	-2.2581635	-0.64186096	-0.9049225
339835230048085	-2.217865	-0.52090454	-0.82307434
339835235541249	-2.177536	-0.409729	-0.7131195
339835240057851	-2.1347656	-0.32054138	-0.58239746
339835243414784	-2.1347656	-0.2582245	-0.58239746
339835250159169	-2.0333862	-0.2582245	-0.3123932
339835256689931	-1.9747314	-0.19224548	-0.20123291
339835260199452	-1.9160767	-0.20448303	-0.12181091
339835266699696	-1.8635559	-0.27166748	-0.07171631
339835270605946	-1.8073425	-0.39260864	-0.038726807
339835275336171	-1.7328339	-0.53067017	-0.009414673
339835280371571	-1.6338654	-0.6198578	0.01499939
339835285864735	-1.5141449	-0.6088562	0.02355957
339835290411855	-1.5141449	-0.49157715	0.02355957
339835293768788	-1.3883057	-0.49157715	0.01499939
339835300482655	-1.2648926	-0.29977417	0.007675171
339835307104970	-1.0278778	-0.06764221	0.024780273
339835310583974	-1.0278778	0.42225647	0.024780273
339835315619374	-0.91793823	0.42225647	0.029678345
339835320959950	-0.8238678	0.6189575	0.017440796
339835325690175	-0.7493286	0.7460022	-0.019195557
339835330725575	-0.70658875	0.8009796	-0.09370422
339835336035634	-0.7077942	0.8009796	-0.20855713
339835340765858	-0.7542114	0.7680054	-0.34294128
339835344183827	-0.8336334	0.7227936	-0.45533752
339835350867177	-0.92404175	0.68370056	-0.5213165
339835355933095	-1.0120239	0.651947	-0.5384064
339835360937978	-1.0865326	0.61650085	-0.51275635
339835365973378	-1.14151	0.5676422	-0.45410156
339835371832753	-1.1757202	0.4992218	-0.3673706
339835376044179	-1.1855011	0.41859436	-0.26229858
339835381049062	-1.1683807	0.33795166	-0.14746094
339835386542226	-1.1268463	0.28053284	-0.033843994
339835391119862	-1.0694427	0.2658844	0.07243347
339835394476796	-1.0694427	0.30374146	0.07243347
339835401221181	-0.94725037	0.30374146	0.22392273
339835406287099	-0.8947296	0.5089874	0.24957275
339835411291982	-0.8654022	0.6543884	0.25080872
339835416327382	-0.8996124	0.777771	0.28746033
339835421820546	-1.0291138	0.7960968	0.44628906
339835426398183	-1.2319183	0.64216614	0.74316406
339835431433583	-1.4286194	0.34527588	1.0595856
339835437292958	-1.5422363	0.026443481	1.218399
339835441473866	-1.5422363	-0.20568848	1.218399
339835444830800	-1.5556793	-0.20568848	1.15242
339835451605702	-1.5043793	-0.3315277	0.9410858
339835456580067	-1.4335022	-0.396286	0.71995544
339835461615468	-1.3638611	-0.4439392	0.5513458
339835466681386	-1.2930145	-0.49401855	0.42304993
339835471991444	-1.2099152	-0.54167175	0.30699158
339835476721669	-1.1146393	-0.57344055	0.20315552
339835481757069	-1.022995	-0.574646	0.12741089
339835487128163	-0.94725037	-0.54411316	0.08831787
339835491858388	-0.8947296	-0.5001221	0.07975769
339835495184804	-0.8617401	-0.47325134	0.08097839
339835501929189	-0.8336334	-0.48547363	0.07853699
339835506934071	-0.7994232	-0.54533386	0.07121277
339835511999989	-0.7493286	-0.640625	0.06387329
339835517035390	-0.6760254	-0.7383728	0.061431885
339835522894765	-0.57585144	-0.7970123	0.0663147
339835527106190	-0.4512329	-0.78601074	0.073654175
339835532111073	-0.30830383	-0.7017212	0.0846405
339835537848378	-0.16168213	-0.5661011	0.09686279
339835542212392	-0.021209717	-0.4121704	0.10908508
339835545538808	-0.021209717	-0.27166748	0.10908508
339835552313710	0.21824646	-0.27166748	0.105407715
339835557349110	0.31721497	-0.09573364	0.07975769
339835562353993	0.41496277	-0.056640625	0.0357666
339835567389394	0.5346832	-0.023651123	-0.026519775
339835573309804	0.6983948	0.036209106	-0.10836792
339835577460194	0.6983948	0.14370728	-0.21220398
339835582465077	0.9122009	0.14370728	-0.21220398
339835588446523	1.4155426	0.302536	-0.5005493
339835592566396	1.4155426	0.67271423	-0.5005493
339835595953847	1.655014	0.67271423	-0.6630249
339835602667714	1.8614655	0.8400879	-0.8010864
339835607672597	2.021515	0.9854584	-0.9073639
339835612707997	2.118042	1.0978699	-0.9965515
339835617712880	2.1351318	1.1443024	-1.0845337
339835623236562	2.0752716	1.0783234	-1.1627045
339835627814198	1.9701996	0.8779602	-1.2017975
339835632849599	1.8663483	0.5713196	-1.1859436
339835638739491	1.8138123	0.2206726	-1.12117
339835642920399	1.8480225	-0.10549927	-1.0246735
339835646277333	1.9812012	-0.36572266	-0.9073639
339835652991200	2.1925507	-0.54411316	-0.7766571
339835657996083	2.4356842	-0.640625	-0.641037
339835663062001	2.6543732	-0.6772766	-0.5091095
339835668097401	2.8022003	-0.68704224	-0.3820343
339835673437978	2.8559418	-0.7102661	-0.25741577
339835678137685	2.8205261	-0.77134705	-0.13891602
339835683173085	2.7178955	-0.8764343	-0.035079956
339835688605214	2.5822754	-1.0095825	0.049209595
339835693243886	2.4527893	-1.1403046	0.11152649
339835696600819	2.4527893	-1.2380524	0.11152649
339835703345204	2.308609	-1.2380524	0.18482971
339835708319569	2.3061676	-1.2722626	0.21292114
339835713416005	2.3403778	-1.2197266	0.2434845
339835718420888	2.3977966	-1.1415405	0.28378296
339835723944569	2.466217	-1.0486755	0.33753967
339835728522206	2.466217	-0.93873596	0.33753967
339835733527089	2.5309753	-0.93873596	0.40472412
339835738898183	2.5713043	-0.80555725	0.4817047
339835743628407	2.5773926	-0.6430664	0.55867004
339835746924306	2.5456238	-0.45980835	0.6344147
339835753699208	2.484558	-0.27288818	0.70162964
339835758734608	2.4051514	-0.09451294	0.7529297
339835763739491	2.3147278	0.075286865	0.7736969
339835768774892	2.2243195	0.24511719	0.75660706
339835774237538	2.1498108	0.41371155	0.7028351
339835778876210	2.1058044	0.56396484	0.6185303
339835783881093	2.1009216	0.67515564	0.5207977
339835789679433	2.130249	0.73747253	0.41940308
339835793982411	2.1730194	0.752121	0.32777405
339835797339345	2.218216	0.7227936	0.25325012
339835804053212	2.269516	0.66537476	0.19703674
339835809058095	2.336731	0.612854	0.15306091
339835814093495	2.418579	0.6018524	0.113967896
339835819128896	2.5004272	0.65805054	0.07243347
339835824408437	2.5615082	0.7728882	0.024780273
339835829199696	2.5896301	0.9182739	-0.033843994
339835834235097	2.5835114	1.0648804	-0.10348511
339835839697743	2.5444183	1.1833801	-0.17555237
339835844366933	2.4723358	1.2566833	-0.23544312
339835847662831	2.4723358	1.2774506	-0.23544312
339835854376698	2.2267609	1.2774506	-0.25985718
339835859412099	2.055725	1.1687317	-0.23176575
339835864478017	1.8541412	1.0697632	-0.19511414
339835869482899	1.8541412	0.9659271	-0.19511414
339835874792958	1.628128	0.9659271	-0.1169281
339835879584218	1.3947601	0.8596344	-0.1169281
339835884589101	1.168747	0.73501587	-0.07537842
339835889899159	0.95617676	0.5786438	-0.041168213
339835894690419	0.7533722	0.41981506	-0.02772522
339835898016835	0.56033325	0.30741882	-0.037521362
339835904761220	0.3905182	0.2683258	-0.06072998
339835909766103	0.25611877	0.27197266	-0.0851593
339835914801503	0.15470886	0.263443	-0.10592651
339835919836903	0.067977905	0.21211243	-0.12791443
339835925269032	-0.019973755	0.13270569	-0.15478516
339835929938222	-0.1177063	0.048416138	-0.18289185
339835934973622	-0.22399902	-0.021209717	-0.20855713
339835940405751	-0.33639526	-0.076187134	-0.23176575
339835944983388	-0.45368958	-0.12017822	-0.25865173
339835948370839	-0.57341003	-0.15803528	-0.29040527
339835955115224	-0.6919098	-0.19224548	-0.32461548
339835960181142	-0.805542	-0.21913147	-0.3600464
339835965155507	-0.90693665	-0.23623657	-0.3954773
339835970221425	-0.99246216	-0.2447815	-0.4321289
339835975623036	-1.0645447	-0.2472229	-0.46998596
339835980261708	-1.1256256	-0.24601746	-0.50665283
339835985327626	-1.180603	-0.23867798	-0.5347595
339835990790273	-1.2294769	-0.22769165	-0.54574585
339835995367909	-1.2722473	-0.21180725	-0.5372009
339835998755360	-1.2722473	-0.19224548	-0.5372009
339836005438710	-1.3565369	-0.19224548	-0.50419617
339836010474110	-1.3565369	-0.12138367	-0.48954773
339836015509511	-1.4005127	-0.07374573	-0.48954773
339836020544911	-1.4444885	-0.07374573	-0.47366333
339836025854970	-1.4738159	-0.029769897	-0.45289612
339836030646230	-1.4713745	0.0019989014	-0.4248047
339836035651112	-1.4151764	0.016662598	-0.383255
339836041022206	-1.2832336	0.016662598	-0.31973267
339836045721913	-1.0694427	0.00932312	-0.23052979
339836049109364	-0.77989197	0.008117676	-0.123031616
339836055823232	-0.4475708	0.027648926	-0.010650635
339836060828114	-0.107940674	0.083847046	0.089538574
339836065894032	0.20115662	0.18035889	0.15306091
339836070898915	0.4564972	0.29397583	0.16894531
339836076788808	0.64341736	0.39416504	0.1347351
339836081000233	0.7631378	0.4650116	0.0663147
339836086005116	0.82177734	0.5151062	-0.017959595
339836091345692	0.8388977	0.5627594	-0.09738159
339836096106435	0.83644104	0.6189575	-0.16334534
339836099402333	0.83766174	0.68003845	-0.21343994
339836106177235	0.86698914	0.7362366	-0.25497437
339836111212636	0.9341736	0.77168274	-0.29286194
339836116217519	1.0343628	0.77412415	-0.32461548
339836121276367	1.1406555	0.7460022	-0.344162
339836126739013	1.2164001	0.7032623	-0.34172058
339836131377685	1.2164001	0.65560913	-0.31973267
339836136382568	1.1040039	0.59085083	-0.2806244
339836142089355	0.8681946	0.47477722	-0.22444153
339836146453369	0.52246094	0.25976563	-0.14624023
339836149810303	0.52246094	-0.08229065	-0.14624023
339836156554687	0.09364319	-0.08229065	0.1298523
339836161529053	-0.39137268	-0.53067017	0.1298523
339836166594971	-0.88739014	-0.9973755	0.33265686
339836171630371	-1.3101044	-1.3467865	0.5342407
339836176909912	-1.5300293	-1.4640656	0.68330383
339836181701172	-1.4371643	-1.313797	0.7529297
339836186736572	-1.0449982	-0.9533844	0.7675934
339836192199219	-0.5269928	-0.49645996	0.7700348
339836196807373	-0.11526489	-0.055419922	0.7810211
339836200194824	0.038650513	0.28909302	0.790802
339836206847656	-0.059066772	0.507782	0.7798157
339836211913574	-0.30218506	0.638504	0.74072266
339836216979492	-0.57585144	0.74967957	0.6808319
339836221984375	-0.8141022	0.8755188	0.60876465
339836227324951	-1.009552	0.9903717	0.5342407
339836232055176	-1.1879425	1.0257874	0.4584961
339836237090576	-1.3956299	0.9280548	0.37419128
339836242339599	-1.6802979	0.6885834	0.27401733
339836247161377	-2.0602417	0.34162903	0.15673828
339836250518310	-2.5122986	-0.05908203	0.029678345
339836257232178	-2.9740906	-0.46714783	-0.08882141
339836262237060	-3.3772583	-0.86299133	-0.18289185
339836267302978	-3.6692505	-1.2404938	-0.24641418
339836272338379	-3.8134308	-1.5874481	-0.2855072
339836277739990	-3.7975464	-1.8806763	-0.317276
339836282409180	-3.6313934	-2.0932465	-0.35638428
339836287414062	-3.3479462	-2.2068787	-0.4113617
339836292693603	-3.0009766	-2.2068787	-0.4773407
339836297484863	-2.6491241	-2.0700378	-0.5384064
339836300872314	-2.6491241	-1.781723	-0.5384064
339836307586181	-2.3412476	-1.781723	-0.57629395
339836312652099	-2.107895	-1.3663177	-0.57873535
339836317656982	-1.9612885	-0.8898468	-0.54452515
339836322722900	-1.8989868	-0.44882202	-0.4907837
339836328093994	-1.9087524	-0.12261963	-0.43823242
339836332763183	-1.9710541	0.039871216	-0.40524292
339836337798584	-2.0590363	0.02520752	-0.3979187
339836343261230	-2.1494446	-0.14459229	-0.4162445
339836347869385	-2.2239532	-0.4280548	-0.4504547
339836351195801	-2.2777252	-0.76768494	-0.48587036
339836357909668	-2.3119354	-1.1146545	-0.50419617
339836362945068	-2.333908	-1.4322968	-0.4907837
339836368010986	-2.3534698	-1.6925354	-0.4431305
339836373046387	-2.3754578	-1.8782349	-0.369812
339836378264892	-2.3986664	-1.9808655	-0.28186035
339836383117187	-2.418213	-2.004074	-0.19267273
339836388152588	-2.4291992	-1.9576416	-0.11203003
339836393584717	-2.4206696	-1.8562317	-0.04850769
339836398253906	-2.382782	-1.7181854	-0.0069732666
339836401580322	-2.382782	-1.5654755	-0.0069732666
339836408263672	-2.1934204	-1.5654755	0.03211975
339836413299072	-2.0431519	-1.2563782	0.041885376
339836418334472	-1.8647766	-1.0950928	0.051651
339836423400390	-1.670517	-0.91552734	0.06387329
339836428618896	-1.4701691	-0.7090454	0.07975769
339836433471191	-1.2746887	-0.47080994	0.098083496
339836438506592	-1.0950928	-0.21424866	0.1151886
339836443755615	-0.94480896	0.03742981	0.12741089
339836448577392	-0.94480896	0.25976563	0.12741089
339836451934326	-0.8360748	0.25976563	0.1347351
339836458648193	-0.7823334	0.43692017	0.13961792
339836463683594	-0.7872162	0.5578766	0.14205933
339836468718994	-0.8482971	0.6152954	0.14085388
339836473754394	-0.9545746	0.59817505	0.131073
339836479156006	-1.0926514	0.4992218	0.113967896
339836483855713	-1.2392426	0.32450867	0.09442139
339836488860596	-1.3724213	0.09729004	0.073654175
339836494323242	-1.4701691	-0.15194702	0.049209595
339836498931396	-1.5239105	-0.39260864	0.022338867
339836502288330	-1.5312347	-0.600296	3.5095215E-4
339836508971680	-1.4958191	-0.75180054	-0.0082092285
339836514068115	-1.4273987	-0.82754517	0.0027923584
339836519042480	-1.3394318	-0.8141022	0.034561157
339836524108398	-1.2429199	-0.7102661	0.07853699
339836529357422	-1.1500549	-0.52944946	0.12861633
339836534179199	-1.0730896	-0.30342102	0.18727112
339836539184082	-1.0156708	-0.068847656	0.25689697
339836544677246	-0.97901917	0.14492798	0.33753967
339836549285400	-0.9545746	0.31718445	0.41696167
339836552611816	-0.9545746	0.4332428	0.41696167
339836559325683	-0.90815735	0.4332428	0.5317993
339836564361084	-0.8825073	0.46624756	0.56111145
339836569427002	-0.8531952	0.38438416	0.57455444
339836574431885	-0.82263184	0.26220703	0.57211304
339836579711426	-0.792099	0.12414551	0.55867004
339836584563721	-0.7603302	-0.0041046143	0.53912354
339836589568603	-0.7603302	-0.10673523	0.5171356
339836594848144	-0.7224579	-0.10673523	0.4927063
339836599639404	-0.68214417	-0.20692444	0.4927063
339836602996338	-0.64549255	-0.20692444	0.46217346
339836609710205	-0.6186218	-0.21424866	0.42304993
339836614715088	-0.600296	-0.21424866	0.3790741
339836619781006	-0.58561707	-0.21913147	0.33631897
339836624816406	-0.5636444	-0.23379517	0.29478455
339836630218017	-0.52575684	-0.25578308	0.25445557
339836634887207	-0.4634552	-0.2826538	0.21536255
339836639892090	-0.3779297	-0.3083191	0.1775055
339836645202148	-0.28018188	-0.3327484	0.13961792
339836649993408	-0.18367004	-0.35231018	0.10296631
339836653319824	-0.09693909	-0.36819458	0.06265259
339836660064209	-0.019973755	-0.38528442	0.016235352
339836665099609	0.0496521	-0.409729	-0.033843994
339836670135010	0.11805725	-0.4439392	-0.0839386
339836675170410	0.18647766	-0.48791504	-0.13035583
339836680572021	0.25611877	-0.54289246	-0.17066956
339836685271728	0.3318634	-0.60520935	-0.19999695
339836690337646	0.42593384	-0.65774536	-0.22200012
339836696013916	0.56155396	-0.680954	-0.23788452
339836700347412	0.7606964	-0.6516266	-0.25497437
339836703704346	0.7606964	-0.5661011	-0.25497437
339836710418213	1.3410187	-0.5661011	-0.34049988
339836715423096	1.6659851	-0.26800537	-0.43823242
339836720458496	1.9653168	-0.096969604	-0.5701752
339836725524414	2.2108765	0.07041931	-0.7192383
339836730773437	2.3977966	0.22555542	-0.85850525
339836735595215	2.3977966	0.35139465	-0.9819031
339836740630615	2.5334167	0.35139465	-0.9819031
339836746093262	2.618927	0.42836	-1.1847076
339836750701416	2.6494904	0.4466858	-1.1847076
339836754058349	2.6299286	0.41737366	-1.2433624
339836760741699	2.5859528	0.36849976	-1.240921
339836765807617	2.5590668	0.32206726	-1.1663818
339836770843017	2.5773926	0.30374146	-1.0319977
339836775878418	2.647049	0.32940674	-0.85972595
339836781127441	2.750885	0.38926697	-0.68014526
339836785949219	2.865738	0.4332428	-0.5188751
339836790984619	2.9683533	0.39416504	-0.3954773
339836796294678	3.039215	0.2316742	-0.3111725
339836801055420	3.0734253	-0.03831482	-0.24765015
339836804412353	3.0734253	-0.35107422	-0.17922974
339836811156738	3.0477753	-0.6357422	-0.090042114
339836816161621	3.0074463	-0.83122253	0.013793945
339836821166504	2.956131	-0.90452576	0.113967896
339836826232422	2.8975067	-0.8531952	0.19947815
339836831603515	2.8290863	-0.6956024	0.27157593
339836836303222	2.7460022	-0.47203064	0.33509827
339836841369140	2.6494904	-0.22401428	0.39375305
339836847045410	2.5444183	0.011764526	0.4426117
339836851378906	2.4466858	0.2157898	0.4780426
339836854766357	2.4466858	0.37704468	0.4780426
339836861480224	2.313507	0.37704468	0.50491333
339836866515625	2.2768555	0.5554352	0.5061493
339836871520508	2.2377625	0.5627594	0.5061493
339836876616943	2.1840057	0.5224304	0.5061493
339836881835449	2.1131592	0.4650116	0.5000305
339836886657226	2.1131592	0.4308014	0.5000305
339836891662109	2.0312958	0.4308014	0.4780426
339836897124756	1.951889	0.45401	0.43649292
339836901763428	1.8846741	0.546875	0.37786865
339836905120361	1.833374	0.7032623	0.31921387
339836911864746	1.7991638	0.8987274	0.27157593
339836916869629	1.7845001	1.1100922	0.23857117
339836921935547	1.7906036	1.3165741	0.21903992
339836926940430	1.8162537	1.5059357	0.20803833
339836932464111	1.86026	1.6818542	0.20071411
339836937041748	1.925003	1.8541107	0.19094849
339836942046631	2.0178528	2.023941	0.17382813
339836947539795	2.142456	2.1717682	0.1506195
339836952117431	2.2951813	2.269516	0.122528076
339836955535400	2.4613342	2.2976074	0.09320068
339836962218750	2.6274872	2.2487488	0.06387329
339836967193115	2.7801971	2.1314545	0.034561157
339836972259033	2.9023895	1.9640808	0.0040130615
339836977294433	2.9744568	1.7698059	-0.04360962
339836982604492	2.9805756	1.5767975	-0.11936951
339836987395752	2.9121552	1.4057465	-0.21708679
339836992400635	2.764328	1.2640381	-0.3123932
339836998137939	2.532196	1.1491852	-0.3783722
339837002532471	2.2145538	1.0636749	-0.40524292
339837005828369	2.2145538	1.0147858	-0.40524292
339837012603271	1.3959961	1.0147858	-0.35516357
339837017638672	0.9818268	0.96224976	-0.30018616
339837022613037	0.9818268	0.8816223	-0.24276733
339837027648437	0.626297	0.73501587	-0.24276733
339837033080566	0.13394165	0.73501587	-0.14868164
339837037719238	0.13394165	0.36727905	-0.14868164
339837042754638	-0.030975342	0.36727905	-0.11936951
339837048217285	-0.16168213	0.2316742	-0.10348511
339837052825439	-0.26553345	0.1510315	-0.099823
339837056212890	-0.34983826	0.10949707	-0.10470581
339837062896240	-0.4206848	0.08140564	-0.1169281
339837067901123	-0.49154663	0.048416138	-0.13279724
339837072936523	-0.5685272	0.0056610107	-0.15234375
339837078002441	-0.65893555	-0.046875	-0.17678833
339837083281982	-0.76156616	-0.10549927	-0.20487976
339837088103760	-0.8739624	-0.16659546	-0.23420715
339837093108642	-0.98757935	-0.23013306	-0.26353455
339837098601806	-1.0975342	-0.29977417	-0.29040527
339837103179443	-1.1952667	-0.3730774	-0.3111725
339837106536377	-1.2771301	-0.44638062	-0.32461548
339837113219726	-1.3394318	-0.51478577	-0.3331604
339837118255127	-1.3821869	-0.57099915	-0.3453827
339837123351562	-1.4078522	-0.6039734	-0.3612671
339837128386963	-1.4139557	-0.60765076	-0.383255
339837133605469	-1.3980713	-0.5770874	-0.40524292
339837138457763	-1.3504333	-0.51356506	-0.4272461
339837143462646	-1.2600098	-0.42193604	-0.43823242
339837148742187	-1.1183014	-0.3070984	-0.4248047
339837153533447	-0.92037964	-0.17515564	-0.3685913
339837156890381	-0.92037964	-0.011444092	-0.3685913
339837163604248	-0.40115356	-0.011444092	-0.09370422
339837168609131	-0.40115356	0.48945618	-0.09370422
339837173675049	-0.12626648	0.48945618	0.09686279
339837178710449	0.12905884	0.804657	0.27278137
339837184081543	0.35263062	1.089325	0.39619446
339837188781250	0.5346832	1.2823639	0.4499359
339837193816650	0.6739502	1.3605499	0.43772888
339837199096191	0.7729187	1.3324432	0.37297058
339837203887451	0.8437805	1.2163849	0.26301575
339837207244385	0.8999634	1.0379944	0.1164093
339837213988769	0.95739746	0.8400879	-0.057052612
339837218993652	1.0282593	0.66781616	-0.23664856
339837223998535	1.1198883	0.55055237	-0.3930359
339837229094971	1.2310638	0.48945618	-0.50787354
339837234343994	1.3569031	0.4625702	-0.57385254
339837239135254	1.4803009	0.43447876	-0.59339905
339837244201172	1.5609131	0.36483765	-0.5726166
339837249602783	1.5389404	0.23043823	-0.5139923
339837254241455	1.3544617	0.030090332	-0.4003601
339837257598388	0.97572327	-0.23379517	-0.21099854
339837264312256	0.43572998	-0.57344055	0.05899048
339837269347656	-0.1690216	-0.990036	0.35954285
339837274474609	-0.6858063	-1.4164124	0.60876465
339837279540527	-0.9802551	-1.7084198	0.74072266
339837285338867	-1.0083466	-1.7377319	0.7700348
339837289580810	-0.8434143	-1.4775085	0.7675934
339837294524658	-0.62350464	-1.0303497	0.7956848
339837300353515	-0.47322083	-0.548996	0.85798645
339837304595459	-0.4524536	-0.14826965	0.9178467
339837307952392	-0.4524536	0.1546936	0.9178467
339837314727295	-0.55752563	0.1546936	0.9154053
339837319701660	-0.74324036	0.40881348	0.9154053
339837324737060	-0.9521332	0.6702728	0.8396759
339837329772461	-1.1390686	0.9280548	0.72727966
339837335021484	-1.2893372	1.102768	0.59165955
339837339873779	-1.4322815	1.0844421	0.44628906
339837344878662	-1.6289825	0.7985382	0.30088806
339837350188721	-1.9295197	0.25732422	0.16282654
339837355010498	-2.3510132	-0.44026184	0.04676819
339837358275879	-2.8580322	-1.1501007	-0.026519775
339837365050781	-3.3809357	-1.7389526	-0.04360962
339837370055664	-3.8439636	-2.131134	-0.0069732666
339837375060547	-4.1799316	-2.324173	0.0663147
339837380126465	-4.3485413	-2.3730316	0.1457367
339837385497558	-4.3338776	-2.3437042	0.1958313
339837390197265	-4.138397	-2.283844	0.18603516
339837395293701	-3.7865448	-2.1946564	0.105407715
339837400512207	-3.3235168	-2.0333862	-0.028961182
339837405303467	-2.815277	-1.7377319	-0.18289185
339837408629883	-2.815277	-1.2795868	-0.3123932
339837415374267	-1.958847	-1.2795868	-0.38935852
339837420409668	-1.7096252	-0.081085205	-0.40647888
339837425414551	-1.5935516	0.43814087	-0.3844757
339837430480469	-1.5923309	0.7618866	-0.35516357
339837435698974	-1.6790619	0.8400879	-0.3466034
339837440551269	-1.8195801	0.6885834	-0.3637085
339837445586670	-1.9808502	0.36849976	-0.39424133
339837451049316	-2.1335602	-0.045639038	-0.42356873
339837455657471	-2.1335602	-0.49157715	-0.43823242
339837459014404	-2.2581635	-0.92285156	-0.43823242
339837465697754	-2.347351	-0.92285156	-0.4296875
339837470733154	-2.4059906	-1.3076935	-0.38935852
339837475799072	-2.4389954	-1.6290131	-0.3148346
339837480834472	-2.4463196	-1.8757935	-0.21464539
339837486052978	-2.423111	-2.0321808	-0.10836792
339837490905273	-2.3644562	-2.0822754	-0.0155181885
339837495940674	-2.2618408	-2.0187378	0.04800415
339837501372803	-2.111557	-1.847702	0.07609558
339837506011474	-1.9173126	-1.5948029	0.073654175
339837509398926	-1.6888428	-1.2954712	0.06021118
339837516112793	-1.4432831	-0.9753876	0.05532837
339837521117676	-1.1928253	-0.65527344	0.06265259
339837526153076	-0.9484863	-0.34495544	0.07487488
339837531188476	-0.72612	-0.046875	0.0821991
339837536468017	-0.5453186	0.236557	0.0821991
339837541289795	-0.429245	0.50045776	0.077316284
339837546294678	-0.3962555	0.73135376	0.06997681
339837552031982	-0.4646759	0.8987274	0.061431885
339837556426513	-0.63571167	0.97813416	0.05532837
339837559722412	-0.63571167	0.9476013	0.05532837
339837566497314	-1.1964874	0.9476013	0.033325195
339837571532715	-1.5129089	0.5566406	0.013793945
339837576537597	-1.8097992	0.24388123	-0.011856079
339837581572998	-2.0688019	-0.08596802	-0.0362854
339837587035644	-2.2764893	-0.39016724	-0.055847168
339837591643799	-2.423111	-0.640625	-0.06561279
339837596709717	-2.4988556	-0.82754517	-0.0680542
339837602141846	-2.4902954	-0.9423828	-0.06561279
339837606719482	-2.4902954	-0.976593	-0.06561279
339837610076416	-2.3913422	-0.976593	-0.050949097
339837616790283	-2.2093048	-0.92285156	-0.0082092285
339837621825683	-1.9674072	-0.7786865	0.065093994
339837626891601	-1.6986237	-0.54655457	0.15428162
339837631896484	-1.4420471	-0.24234009	0.24224854
339837637267578	-1.2343597	0.09729004	0.32533264
339837641997803	-1.0987549	0.41371155	0.40472412
339837647002685	-1.0339966	0.64338684	0.47558594
339837652862060	-1.0193481	0.738678	0.5317993
339837657073486	-1.0315552	0.69470215	0.5660095
339837660491455	-1.0535583	0.54319763	0.5831146
339837667174805	-1.0730896	0.34283447	0.5843353
339837672179687	-1.0792084	0.14859009	0.57333374
339837677276123	-1.0645447	-0.0041046143	0.5476837
339837682281006	-1.0278778	-0.10305786	0.50735474
339837688018310	-0.97657776	-0.15927124	0.45237732
339837692351806	-0.92404175	-0.19348145	0.38885498
339837697356689	-0.87516785	-0.22279358	0.32165527
339837703063476	-0.832428	-0.2582245	0.25935364
339837707488525	-0.79333496	-0.2973175	0.21292114
339837710814941	-0.79333496	-0.33398438	0.21292114
339837717559326	-0.7029114	-0.33398438	0.1799469
339837722533691	-0.6369324	-0.36572266	0.19215393
339837727569092	-0.54776	-0.3486328	0.2117157
339837732635010	-0.44024658	-0.31809998	0.22880554
339837738067138	-0.32295227	-0.2814331	0.23124695
339837742705810	-0.20689392	-0.24356079	0.21292114
339837747771728	-0.20689392	-0.20692444	0.17138672
339837753417480	-0.013885498	-0.20692444	0.10908508
339837757812012	-0.013885498	-0.14459229	0.10908508
339837761168945	0.055755615	-0.14459229	0.03211975
339837767882812	0.115615845	-0.12017822	-0.049728394
339837772948730	0.17671204	-0.10185242	-0.123031616
339837777923096	0.25733948	-0.09329224	-0.18289185
339837782989013	0.3795166	-0.088409424	-0.23544312
339837788390625	0.56277466	-0.065200806	-0.29162598
339837793090332	0.80345154	0.0032196045	-0.3612671
339837798125732	1.0722351	0.13026428	-0.4480133
339837803954590	1.3324585	0.30862427	-0.55184937
339837808166015	1.5597076	0.5102234	-0.6740265
339837811522949	1.7515106	0.7032623	-0.8181915
339837818206299	1.912796	0.8559723	-0.9782257
339837823241699	2.0496216	0.95370483	-1.1370544
339837828338135	2.1717834	0.98913574	-1.2592468
339837833343017	2.2927399	0.96224976	-1.3068848
339837839080322	2.4197998	0.882843	-1.2616882
339837843413818	2.5431824	0.7692108	-1.1456146
339837848449219	2.6446075	0.64460754	-1.0026703
339837854339111	2.7044678	0.51878357	-0.86338806
339837858520019	2.725235	0.39416504	-0.7351227
339837861846435	2.725235	0.2817688	-0.7351227
339837868590820	2.7667694	0.2817688	-0.48587036
339837873595703	2.8486176	0.19622803	-0.3661499
339837878661621	2.969574	0.2658844	-0.25497437
339837883666504	3.0990753	0.39048767	-0.15968323
339837888976562	3.2029266	0.5224304	-0.08149719
339837893767822	3.2029266	0.60795593	-0.08149719
339837898772705	3.2676697	0.60795593	-0.022842407
339837904143799	3.30188	0.612854	0.021118164
339837908904541	3.3312073	0.5407562	0.06265259
339837912200439	3.3739777	0.41493225	0.105407715
339837918944824	3.441162	0.2658844	0.1506195
339837923980224	3.5254517	0.12660217	0.19215393
339837930388916	3.6048737	0.03742981	0.25080872
339837934112060	3.632965	0.03742981	0.25080872
339837939452637	3.5584564	0.115615845	0.28866577
339837944121826	3.354416	0.18035889	0.35342407
339837949157226	3.0734253	0.119262695	0.44137573
339837954619873	2.8156433	-0.057861328	0.5183563
339837959197510	2.6543732	-0.21669006	0.54156494
339837962554443	2.568863	-0.2582245	0.5000305
339837969268310	2.4906616	-0.24601746	0.41452026
339837974364746	2.3807068	-0.31930542	0.32899475
339837979308594	2.2524261	-0.5001221	0.27278137
339837984405029	2.142456	-0.66018677	0.25080872
339837989898193	2.078949	-0.6455078	0.25080872
339837994475830	2.0630646	-0.41705322	0.25201416
339837999511230	2.0813904	-0.052978516	0.24102783
339838005340088	2.1204834	0.31718445	0.20683289
339838009582031	2.1681366	0.5945282	0.1481781
339838012877930	2.1681366	0.74235535	0.1481781
339838019744385	2.274414	0.74235535	-0.017959595
339838024657715	2.322052	0.7960968	-0.1169281
339838029845703	2.3635864	0.8327484	-0.21955872
339838034759033	2.40271	0.9243927	-0.31607056
339838040618408	2.4430084	1.0563202	-0.3954773
339838044829834	2.4430084	1.2053833	-0.3954773
339838049865234	2.4808807	1.2053833	-0.4565735
339838055785644	2.5114288	1.350769	-0.5188751
339838059997070	2.5114288	1.5352631	-0.5188751
339838063292969	2.4882202	1.5352631	-0.52375793
339838070189941	2.4344635	1.5315857	-0.5213165
339838075011719	2.3428192	1.4521637	-0.522522
339838080138672	2.2023315	1.3080139	-0.5298767
339838085113037	2.003189	1.1125336	-0.54696655
339838091033447	1.7478485	0.8901825	-0.57995605
339838095214355	1.4546356	0.66293335	-0.62760925
339838100371826	1.1479797	0.43692017	-0.6789093
339838105895508	0.86087036	0.1864624	-0.7326813
339838110503662	0.6336212	-0.10305786	-0.8475189
339838113616455	0.48703003	-0.38407898	-1.1175232
339838120574463	0.39907837	-0.5563202	-1.5561218
339838125396240	0.30255127	-0.57099915	-2.0240326
339838130492676	0.14126587	-0.47203064	-2.3135834
339838135467041	-0.09326172	-0.3315277	-2.328247
339838141448486	-0.37060547	-0.17636108	-2.131546
339838145507324	-0.65037537	-0.0065460205	-1.8395538
339838150817383	-0.90083313	0.15835571	-1.5231171
339838156066406	-1.0999756	0.27565002	-1.2067108
339838160735596	-1.2392426	0.32450867	-0.9049225
339838163970459	-1.2392426	0.3135376	-0.9049225
339838170836914	-1.3809662	0.3135376	-0.40647888
339838175689209	-1.4041901	0.19868469	-0.22444153
339838181121338	-1.4029541	0.1669159	-0.08760071
339838185821045	-1.4029541	0.17546082	-0.08760071
339838191131103	-1.3797455	0.17546082	0.0064697266
339838195891846	-1.3369904	0.2157898	0.0663147
339838200927246	-1.2758942	0.2842102	0.101745605
339838206450928	-1.1989441	0.37704468	0.121292114
339838211181152	-1.1134186	0.48457336	0.12861633
339838214354980	-1.0388794	0.59085083	0.12861633
339838221404541	-0.99002075	0.69104004	0.12373352
339838226073730	-0.96681213	0.7960968	0.11885071
339838231536377	-0.9521332	0.9170532	0.11885071
339838236175049	-0.9167175	1.0538788	0.13717651
339838242156494	-0.8348694	1.2005005	0.1933899
339838246215332	-0.6894684	1.3483276	0.30455017
339838251281250	-0.48666382	1.4936981	0.4609375
339838256560791	-0.25209045	1.6317596	0.63197327
339838261748779	-0.015090942	1.7490387	0.7761383
339838264708984	0.20480347	1.8162537	0.86776733
339838271819580	0.40516663	1.7869263	0.9019928
339838276427734	0.58232117	1.6280975	0.88487244
339838281768310	0.7277069	1.3422241	0.8103485
339838286498535	0.81933594	0.97203064	0.66986084
339838291625488	0.8498688	0.57984924	0.46949768
339838296569336	0.83399963	0.23776245	0.23124695
339838302123535	0.80345154	0.014221191	-0.0082092285
339838306914795	0.7778015	-0.03831482	-0.21708679
339838311767090	0.76924133	0.07772827	-0.3673706
339838315001953	0.76924133	0.29885864	-0.3673706
339838322448242	0.83399963	0.29885864	-0.4174652
339838326842773	0.83399963	0.68370056	-0.32217407
339838332580078	1.0087128	0.68370056	-0.19023132
339838336852539	1.0087128	0.67393494	-0.19023132
339838342437256	1.0930023	0.67393494	-0.07171631
339838346923340	1.1308899	0.5383148	-8.8500977E-4
339838352843750	1.0783539	0.32818604	0.017440796
339838357482422	0.8865204	0.024002075	-0.0082092285
339838362731445	0.53956604	-0.39993286	-0.074157715
339838365355957	0.07408142	-0.9313965	-0.18534851
339838372985351	-0.42314148	-1.4787292	-0.33927917
339838377135742	-0.8482971	-1.900238	-0.522522
339838383117187	-1.1183014	-2.0675964	-0.70944214
339838387206543	-1.2245941	-1.9662018	-0.8670654
339838392486084	-1.2306824	-1.7084198	-0.9660187
339838397307861	-1.2233582	-1.4530792	-0.99290466
339838402556885	-1.2575684	-1.2905731	-0.9598999
339838408172119	-1.3296661	-1.20018	-0.88539124
339838413329590	-1.4139557	-1.1097717	-0.7876587
339838423339355	-1.552002	-0.8348694	-0.56407166
339838427489746	-1.6130981	-0.71881104	-0.4638977
339838433318603	-1.6864014	-0.6772766	-0.3783722
339838437591064	-1.7926941	-0.73347473	-0.30262756
339838442901123	-1.945404	-0.884964	-0.23664856
339838447692383	-2.146988	-1.1097717	-0.18167114
339838453612793	-2.3803406	-1.3589935	-0.13401794
339838458434570	-2.6161346	-1.5801239	-0.086380005
339838463683594	-2.8164978	-1.7365112	-0.038726807
339838473784912	-3.0144196	-1.820816	0.02355957
339838477904785	-3.0144196	-1.8330231	0.02355957
339838483703125	-2.9716492	-1.8330231	-0.030166626
339838487945068	-2.9716492	-1.7059631	-0.030166626
339838493712890	-2.9166718	-1.7059631	-0.09738159
339838498015869	-2.872696	-1.5935669	-0.17678833
339838504027832	-2.8519287	-1.4506226	-0.26841736
339838508941162	-2.859253	-1.2856903	-0.37347412
339838513946045	-2.8934631	-1.1158905	-0.4956665
339838524047363	-3.0009766	-0.8507538	-0.7852173
339838528197754	-3.0473938	-0.7811279	-0.9476929
339838534301269	-3.0767212	-0.745697	-1.1028442
339838538299072	-3.0877228	-0.7224884	-1.2225952
339838544127930	-3.081604	-0.68460083	-1.2690125
339838548369873	-3.0522919	-0.6088562	-1.2189178
339838554198730	-2.9936523	-0.49401855	-1.0857544
339838559264648	-2.899582	-0.370636	-0.9256897
339838564696777	-2.7700806	-0.2948761	-0.8023071
339838574889648	-2.4499664	-0.40605164	-0.7033539
339838578521240	-2.2984924	-0.54655457	-0.6227112
339838585021484	-2.1763	-0.679718	-0.46510315
339838588653076	-2.0920105	-0.7945709	-0.24765015
339838594420898	-2.0431519	-0.90696716	-0.014297485
339838598693359	-2.0187073	-1.0291443	0.21047974
339838604491699	-2.0052643	-1.1451874	0.42060852
339838609069336	-1.9979401	-1.2294922	0.6148834
339838615325439	-1.9967346	-1.2710419	0.7798157
339838625091064	-1.9942627	-1.2759247	0.93740845
339838628905762	-1.9942627	-1.1818542	0.93740845
339838634826172	-1.9295197	-1.1818542	0.9068756
339838638976562	-1.9295197	-0.9289551	0.9068756
339838644591797	-1.8586578	-0.9289551	0.8726654
339838649077881	-1.7597198	-0.7420349	0.8408966
339838655578125	-1.6387482	-0.50746155	0.7724762
339838659362305	-1.5104675	0.099731445	0.7724762
339838665679443	-1.3834076	0.099731445	0.72483826
339838675506103	-1.1305237	0.75335693	0.60998535
339838679320801	-0.997345	1.0563202	0.5660095
339838685607422	-0.8605194	1.320221	0.54400635
339838689361084	-0.7212372	1.5230255	0.5489044
339838695373047	-0.5770874	1.6452026	0.5818939
339838699401367	-0.4341278	1.6671906	0.64053345
339838705932129	-0.30462646	1.5743561	0.7187195
339838709929931	-0.20933533	1.364212	0.7993469
339838715880859	-0.16290283	1.0465546	0.86898804
339838725799072	-0.22888184	0.64216614	0.9154053
339838729644287	-0.33517456	-0.2582245	0.86898804
339838736236084	-0.46957397	-0.613739	0.77737427
339838739715088	-0.59906006	-0.81166077	0.66741943
339838745849121	-0.6882477	-0.81777954	0.57333374
339838749755371	-0.712677	-0.6455078	0.519577
339838756103027	-0.66259766	-0.357193	0.5085907
339838760314453	-0.5526428	-0.033432007	0.5244751
339838766448486	-0.415802	0.24266052	0.5513458
339838776336181	-0.22520447	0.40881348	0.59410095
339838779967773	-0.22520447	0.34895325	0.59410095
339838786712158	-0.25941467	0.34895325	0.54034424
339838790069092	-0.25941467	-0.05419922	0.54034424
339838796050537	-0.3461609	-0.05419922	0.47314453
339838800139892	-0.468338	-0.31930542	0.40716553
339838806731689	-0.61494446	-0.59420776	0.3631897
339838810821045	-0.75665283	-0.83122253	0.33509827
339838816863525	-0.8592987	-0.9729309	0.30699158
339838825316894	-0.87516785	-0.884964	0.23857117
339838830321777	-0.805542	-0.7444763	0.21536255
339838836394775	-0.70903015	-0.640625	0.19947815
339838840392578	-0.5978546	-0.6161804	0.1799469
339838845458496	-0.47566223	-0.666275	0.15428162
339838850493896	-0.34007263	-0.75668335	0.12496948
339838855498779	-0.198349	-0.84342957	0.09197998
339838860869873	-0.056625366	-0.89720154	0.054107666
339838866942871	0.07896423	-0.9081726	0.0052337646
339838875670898	0.3318634	-0.88131714	-0.098587036
339838880706299	0.45281982	-0.78356934	-0.14135742
339838885741699	0.5713196	-0.7469177	-0.17311096
339838890746582	0.68006897	-0.732254	-0.19511414
339838896239746	0.7753601	-0.7469177	-0.21220398
339838900817383	0.85354614	-0.78845215	-0.23176575
339838907378662	0.9317322	-0.83366394	-0.2671814
339838911284912	1.0355835	-0.8397522	-0.32705688
339838915954101	1.0355835	-0.76890564	-0.32705688
339838919250000	1.1907501	-0.76890564	-0.4089203
339838926024902	1.4033203	-0.62597656	-0.49931335
339838931090820	1.6525574	-0.44514465	-0.5909424
339838936065185	1.9066772	-0.2594452	-0.6789093
339838941131103	2.1473694	-0.063964844	-0.75953674
339838946441162	2.3721466	0.1717987	-0.8328552
339838951171387	2.5822754	0.47233582	-0.9049225
339838957702148	2.750885	0.803421	-0.9892273
339838961486328	2.8327332	1.088089	-1.083313
339838966308105	2.798523	1.2432404	-1.161499
339838969634521	2.6751404	1.240799	-1.187149
339838976409424	2.5309753	1.1161957	-1.1419373
339838981414306	2.4344635	0.93659973	-1.0319977
339838986510742	2.4308014	0.7680054	-0.87927246
339838991485107	2.5297546	0.651947	-0.6996765
339838996917236	2.7178955	0.6055145	-0.5091095
339839001525390	2.9536896	0.60917664	-0.32461548
339839006621826	3.188263	0.6189575	-0.16822815
339839011901367	3.3813019	0.57984924	-0.070495605
339839016692627	3.5132446	0.46012878	-0.041168213
339839020019043	3.5132446	0.25732422	-0.041168213
339839026763428	3.6403046	0.25732422	-0.09738159
339839031798828	3.6745148	-0.2753296	-0.10958862
339839036834228	3.7099457	-0.51234436	-0.086380005
339839041839111	3.7527008	-0.6736145	-0.0362854
339839047332275	3.8027954	-0.73591614	0.026000977
339839051879394	3.8027954	-0.7017212	0.026000977
339839056914795	3.8492126	-0.7017212	0.089538574
339839062407959	3.8675385	-0.57344055	0.15306091
339839067016113	3.8321228	-0.34985352	0.22636414
339839070342529	3.7197113	-0.027313232	0.32165527
339839077086914	3.5254517	0.38682556	0.4474945
339839082152832	3.2676697	0.8632965	0.59043884
339839087157715	2.9805756	1.3519897	0.7236023
339839092193115	2.7032318	1.7942505	0.817688
339839098083008	2.4613342	2.1448822	0.8518982
339839102263916	2.274414	2.3928986	0.817688
339839107299316	2.1522522	2.5627136	0.7187195
339839112792480	2.0935974	2.693451	0.56967163
339839117400635	2.0874786	2.8217316	0.39375305
339839120666015	2.1156006	2.9744415	0.22024536
339839127471435	2.1730194	3.156479	0.06877136
339839132445801	2.2597504	3.3519592	-0.049728394
339839137481201	2.3721466	3.522995	-0.13645935
339839142547119	2.5004272	3.6305084	-0.20487976
339839147887695	2.6287231	3.6573944	-0.26109314
339839152587402	2.7386627	3.6048584	-0.30018616
339839157653320	2.8192902	3.4900055	-0.31362915
339839163085449	2.8596191	3.326294	-0.29040527
339839167724121	2.8559418	3.129593	-0.23176575
339839171111572	2.8559418	2.9084625	-0.23176575
339839177764404	2.7350006	2.9084625	-0.07171631
339839182799805	2.6250458	2.42099	-0.02407837
339839187865722	2.4747772	2.163208	-0.025283813
339839192870605	2.4747772	1.9152069	-0.08149719
339839198760498	2.050827	1.9152069	-0.18045044
339839202971924	2.050827	1.5389099	-0.18045044
339839207976806	1.7918396	1.5389099	-0.30018616
339839213317383	1.5279388	1.4497223	-0.4186859
339839218078125	1.2762604	1.4240723	-0.5164337
339839221465576	1.0465851	1.4411774	-0.57995605
339839228148926	0.8413391	1.469284	-0.6043854
339839233184326	0.653183	1.4814911	-0.59461975
339839238189209	0.48091125	1.4546051	-0.56285095
339839243255127	0.3184204	1.3825378	-0.5298767
339839248748291	0.164505	1.2750092	-0.50665283
339839253325928	0.014221191	1.1455231	-0.4981079
339839258330810	-0.12992859	1.0074615	-0.49931335
339839263823974	-0.2667694	0.8669586	-0.50665283
339839268401611	-0.3962555	0.72891235	-0.52008057
339839271758545	-0.51475525	0.6006317	-0.54330444
339839278502930	-0.62228394	0.480896	-0.57629395
339839283507812	-0.71635437	0.36116028	-0.61294556
339839288543213	-0.7982178	0.2316742	-0.64593506
339839293609131	-0.86906433	0.091171265	-0.6752472
339839299102295	-0.93504333	-0.055419922	-0.6996765
339839303679931	-0.9997864	-0.1971283	-0.7167969
339839308715332	-1.0657654	-0.3254242	-0.72288513
339839314574707	-1.128067	-0.43904114	-0.7167969
339839318786133	-1.189148	-0.53678894	-0.6972351
339839322143066	-1.189148	-0.62353516	-0.6972351
339839328856933	-1.2978973	-0.62353516	-0.6422577
339839333861816	-1.3406525	-0.7579193	-0.60928345
339839338927734	-1.3406525	-0.80311584	-0.60928345
339839343963135	-1.3687592	-0.80311584	-0.56529236
339839349303711	-1.3724213	-0.83122253	-0.5054321
339839354033935	-1.3418732	-0.8373108	-0.43089294
339839359069336	-1.2636871	-0.8104553	-0.33805847
339839364379394	-1.1317444	-0.7273712	-0.22688293
339839369109619	-0.9496918	-0.56243896	-0.09248352
339839372497070	-0.7371216	-0.29977417	0.0663147
339839379302490	-0.5233154	0.06674194	0.23736572
339839384215820	-0.33151245	0.5126648	0.40107727
339839389281738	-0.17146301	0.96958923	0.5269165
339839394317138	-0.03465271	1.3361053	0.6014404
339839400176513	0.08140564	1.5413513	0.62220764
339839404387939	0.177948	1.5780029	0.59532166
339839409484375	0.25733948	1.4985809	0.52812195
339839415313232	0.33798218	1.3556519	0.41940308
339839419494140	0.45281982	1.1760559	0.2642517
339839422820556	0.6311798	0.97569275	0.073654175
339839429564941	0.8816376	0.77412415	-0.123031616
339839434630859	1.1919556	0.6006317	-0.29162598
339839439605224	1.5193787	0.4796753	-0.4028015
339839444640625	1.8126068	0.39537048	-0.45166016
339839450164306	2.0190735	0.29397583	-0.4431305
339839454741943	2.0972748	0.12294006	-0.3759308
339839459746826	2.0154114	-0.112854004	-0.24397278
339839465270508	1.7368469	-0.3645172	-0.041168213
339839469848144	1.2420502	-0.614975	0.22024536
339839473174560	1.2420502	-0.89720154	0.22024536
339839479918945	-0.107940674	-0.89720154	0.7236023
339839484923828	-0.107940674	-1.4286499	0.7236023
339839489959228	-0.62960815	-1.4286499	0.856781
339839495025146	-0.8629608	-1.4078827	0.8934326
339839500335205	-0.831192	-1.103653	0.87875366
339839505095947	-0.673584	-0.6296234	0.8653259
339839510131347	-0.54776	-0.16171265	0.86776733
339839515593994	-0.5294342	0.1828003	0.8653259
339839520202148	-0.600296	0.38072205	0.83721924
339839523559082	-0.6967926	0.46868896	0.7785797
339839530272949	-0.766449	0.4980011	0.6942749
339839535277832	-0.792099	0.49310303	0.59288025
339839540343750	-0.792099	0.45280457	0.4792633
339839545379150	-0.8153076	0.35139465	0.36686707
339839550719726	-0.92892456	0.14614868	0.26179504
339839555449951	-1.1867065	-0.19104004	0.1665039
339839560485351	-1.5935516	-0.6381836	0.07121277
339839565795410	-2.0956879	-1.1183319	-0.028961182
339839570525635	-2.605133	-1.5300446	-0.12669373
339839573913086	-3.0449524	-1.8244629	-0.20367432
339839580596435	-3.3601685	-2.013855	-0.24153137
339839585662353	-3.515335	-2.1372528	-0.23420715
339839590697754	-3.4908905	-2.20932	-0.19387817
339839595702637	-3.2954102	-2.2105408	-0.14135742
339839601195801	-2.9753265	-2.1152496	-0.09614563
339839605773437	-2.5978088	-1.9087677	-0.07293701
339839610808838	-2.228836	-1.6033325	-0.07537842
339839616332519	-1.9185181	-1.2331696	-0.099823
339839620910156	-1.6986237	-0.8422241	-0.14257813
339839624236572	-1.6986237	-0.46958923	-0.14257813
339839631011474	-1.5837708	-0.46958923	-0.19999695
339839635985840	-1.5740051	-0.13970947	-0.26963806
339839641021240	-1.6595306	0.1217041	-0.34172058
339839646087158	-1.8183441	0.28297424	-0.41012573
339839651580322	-2.0223846	0.3000946	-0.47366333
339839656127441	-2.228836	0.1400299	-0.5323181
339839661193359	-2.399887	-0.18371582	-0.58117676
339839666717041	-2.5098572	-0.61253357	-0.61172485
339839671294678	-2.5587158	-1.0608978	-0.61172485
339839674621094	-2.5611572	-1.4567413	-0.57629395
339839681334961	-2.5391693	-1.7560577	-0.5029907
339839686339844	-2.5086212	-1.9454346	-0.3954773
339839691405762	-2.4719696	-2.0333862	-0.25985718
339839696471680	-2.4304352	-2.0321808	-0.11325073
339839702147949	-2.3852234	-1.9613037	0.026000977
339839706481445	-2.3400269	-1.8403473	0.1347351
339839711547363	-2.294815	-1.6839905	0.1982727
339839716887939	-2.2483978	-1.5092773	0.21659851
339839721587646	-2.1946259	-1.3333435	0.20191956
339839724975097	-2.1946259	-1.1733093	0.20191956
339839731658447	-2.076126	-1.1733093	0.12617493
339839736724365	-2.02359	-0.92041016	0.085861206
339839741759765	-1.9869385	-0.82022095	0.052886963
339839746795166	-1.9710541	-0.73347473	0.028442383
339839752654541	-1.9796143	-0.6589508	0.012557983
339839756865967	-2.0125885	-0.59420776	-0.003326416
339839761870849	-2.0602417	-0.5379944	-0.02407837
339839767241943	-2.1066742	-0.49645996	-0.04850769
339839771972168	-2.1066742	-0.47569275	-0.0692749
339839775298584	-2.1372223	-0.47569275	-0.0692749
339839782042969	-2.1433258	-0.48057556	-0.08026123
339839787078369	-2.1225586	-0.5013428	-0.082717896
339839792083252	-2.076126	-0.5331116	-0.079055786
339839797149170	-2.010147	-0.5661011	-0.070495605
339839802642334	-1.931961	-0.59176636	-0.055847168
339839807189453	-1.8501129	-0.601532	-0.035079956
339839812224853	-1.7682495	-0.5868683	-0.0069732666
339839817718017	-1.6912994	-0.5514374	0.024780273
339839822326172	-1.6216431	-0.50379944	0.05899048
339839825652588	-1.5581207	-0.45370483	0.09075928
339839832427490	-1.4958191	-0.41461182	0.11885071
339839837401855	-1.4237213	-0.40361023	0.13841248
339839842467773	-1.3357697	-0.43537903	0.1506195
339839847533691	-1.2380371	-0.51600647	0.15917969
339839853332031	-1.1427307	-0.6345062	0.16770935
339839857543457	-1.0596466	-0.76646423	0.1823883
339839862609375	-0.99490356	-0.88375854	0.20315552
339839868072021	-0.9496918	-0.9619446	0.2276001
339839872680176	-0.91793823	-0.9814911	0.25201416
339839876037109	-0.91793823	-0.93873596	0.25201416
339839882750976	-0.858078	-0.93873596	0.29356384
339839887755859	-0.8165436	-0.6894989	0.31555176
339839892821777	-0.7713318	-0.51112366	0.34365845
339839897857178	-0.7236786	-0.3119812	0.375412
339839903197754	-0.67848206	-0.112854004	0.4096222
339839907927978	-0.63571167	0.05697632	0.4401703
339839912963379	-0.59906006	0.16447449	0.45970154
339839918303955	-0.561203	0.1876831	0.45970154
339839923003662	-0.561203	0.1217041	0.45970154
339839926421631	-0.5184326	0.1217041	0.44137573
339839933104980	-0.468338	-0.0077667236	0.4084015
339839938354004	-0.415802	-0.15559387	0.36930847
339839943175781	-0.36816406	-0.2741089	0.32655334
339839948180664	-0.33151245	-0.33518982	0.28501892
339839953673828	-0.31318665	-0.33398438	0.24836731
339839958251465	-0.31318665	-0.28633118	0.2141571
339839963286865	-0.32295227	-0.21669006	0.17871094
339839968627441	-0.32418823	-0.14338684	0.1347351
339839973388183	-0.30342102	-0.08229065	0.08097839
339839976684082	-0.26065063	-0.04319763	0.016235352
339839983458984	-0.21177673	-0.032211304	-0.054611206
339839988494385	-0.17268372	-0.051757813	-0.12791443
339839993499267	-0.14703369	-0.09941101	-0.20123291
339839998565185	-0.12503052	-0.17271423	-0.27085876
339840004058349	-0.092056274	-0.26800537	-0.330719
339840008635986	-0.03465271	-0.3779602	-0.37226868
339840013671387	0.054534912	-0.48303223	-0.39424133
339840019134033	0.18283081	-0.5563202	-0.40402222
339840023711670	0.35751343	-0.57099915	-0.41990662
339840027129638	0.35751343	-0.50990295	-0.41990662
339840033812988	0.83277893	-0.50990295	-0.5323181
339840038848388	1.0881195	-0.18492126	-0.63249207
339840043853271	1.3153687	0.0337677	-0.7497711
339840048888672	1.509613	0.26220703	-0.85972595
339840054198730	1.6953125	0.49554443	-0.9415741
339840058989990	1.6953125	0.73257446	-0.99290466
339840063994873	1.8969116	0.9512634	-0.99290466
339840069732178	2.2951813	0.9512634	-1.082077
339840074065674	2.2951813	1.1552887	-1.082077
339840077422607	2.4124756	1.1552887	-1.1529388
339840084136474	2.4478912	1.101532	-1.2250366
339840089171875	2.427124	0.97813416	-1.2641296
339840094237793	2.4002533	0.8193054	-1.2482452
339840099242676	2.414917	0.64338684	-1.1700592
339840104583252	2.4967651	0.4698944	-1.0381012
339840109343994	2.6433716	0.3318634	-0.87561035
339840114379394	2.8327332	0.25364685	-0.7131195
339840119719971	3.0355377	0.2194519	-0.5872803
339840124450195	3.2236938	0.16569519	-0.5139923
339840127776611	3.3739777	0.027648926	-0.47854614
339840134490478	3.4753723	-0.20812988	-0.44189453
339840139525879	3.5364532	-0.48669434	-0.3685913
339840144561279	3.5755463	-0.720047	-0.24885559
339840149627197	3.607315	-0.83122253	-0.099823
339840155059326	3.6305237	-0.7921295	0.05532837
339840159728515	3.632965	-0.627182	0.1933899
339840164672363	3.598755	-0.3914032	0.30578613
339840170592773	3.5193634	-0.12870789	0.39007568
339840174773681	3.3947449	0.1351471	0.45361328
339840178130615	3.3947449	0.39660645	0.45361328
339840184875000	3.0624237	0.39660645	0.56233215
339840189910400	2.8975067	0.9182739	0.61608887
339840194915283	2.7655487	1.1479645	0.664978
339840199950683	2.6788025	1.3190155	0.7028351
339840205413330	2.6360474	1.4057465	0.7260437
339840210052002	2.6360474	1.4057465	0.7260437
339840215087402	2.6274872	1.4057465	0.7419281
339840220550049	2.6311646	1.3434296	0.751709
339840225158203	2.6262817	1.2701263	0.7602539
339840228484619	2.5981598	1.2469177	0.7626953
339840235198486	2.5431824	1.3263397	0.7504883
339840240233887	2.4698944	1.5254669	0.7126007
339840245269287	2.3977966	1.8247986	0.64297485
339840250335205	2.3428192	2.1925354	0.5452423
339840255645263	2.3244934	2.592041	0.4340515
339840260406006	2.362381	2.9707642	0.33265686
339840265441406	2.462555	3.2591095	0.26179504
339840270720947	2.6164856	3.3934937	0.23368835
339840275481689	2.7973175	3.3482819	0.2434845
339840278869140	2.9683533	3.1454773	0.28134155
339840285552490	3.1039581	2.8424988	0.33021545
339840290587890	3.179718	2.4967346	0.37419128
339840295653808	3.176056	2.1534424	0.38763428
339840300658691	3.079544	1.8467865	0.34609985
339840306029785	2.890152	1.6122131	0.23857117
339840310760010	2.6262817	1.4741669	0.0846405
339840315795410	2.3122864	1.4399567	-0.07171631
339840321105469	1.9701996	1.4790497	-0.18411255
339840325835693	1.628128	1.5437927	-0.22688293
339840329223144	1.628128	1.5853424	-0.22688293
339840335937012	1.0502472	1.5853424	-0.15602112
339840340972412	0.83399963	1.4814911	-0.10592651
339840345977295	0.65686035	1.3397827	-0.07171631
339840351043213	0.65686035	1.1699524	-0.07171631
339840356475342	0.37095642	1.1699524	-0.050949097
339840361083496	0.37095642	0.8193054	-0.050949097
339840366088379	0.24757385	0.8193054	-0.061935425
339840371612060	0.1278534	0.64460754	-0.0851593
339840376189697	0.0044403076	0.47477722	-0.11569214
339840379607666	-0.12992859	0.315979	-0.14746094
339840386260498	-0.28018188	0.17791748	-0.18045044
339840391326416	-0.4463501	0.060653687	-0.21220398
339840396331299	-0.6198273	-0.035873413	-0.24520874
339840401397217	-0.792099	-0.11405945	-0.27941895
339840406859863	-0.95581055	-0.17636108	-0.31362915
339840411437500	-1.1036377	-0.23257446	-0.3490448
339840416472900	-1.2380371	-0.2899933	-0.3808136
339840421813476	-1.360199	-0.35107422	-0.4089203
339840426543701	-1.4762573	-0.4072876	-0.43333435
339840429900635	-1.5837708	-0.45126343	-0.45533752
339840436614502	-1.675415	-0.48179626	-0.47610474
339840441649902	-1.7462769	-0.5001221	-0.49687195
339840446715820	-1.7975769	-0.51112366	-0.5188751
339840451751221	-1.8330078	-0.52090454	-0.53964233
339840457396972	-1.8501129	-0.54167175	-0.55918884
339840461822021	-1.8403473	-0.5856476	-0.57995605
339840466826904	-1.7926941	-0.6516266	-0.60072327
339840472136963	-1.6900635	-0.7285919	-0.61172485
339840476897705	-1.5190277	-0.7921295	-0.59706116
339840480224121	-1.5190277	-0.82388306	-0.59706116
339840486999023	-0.97657776	-0.82388306	-0.4138031
339840492003906	-0.97657776	-0.6723938	-0.23052979
339840497069824	-0.65649414	-0.4207306	-0.23052979
339840502074707	-0.35716248	-0.4207306	-0.002090454
339840507506836	-0.10549927	-0.05908203	0.23980713
339840512114990	0.09729004	0.33062744	0.4560547
339840517180908	0.25857544	0.64338684	0.6148834
339840522399414	0.38807678	0.80833435	0.7028351
339840527221191	0.48458862	0.82910156	0.7162781
339840530578125	0.5529938	0.7618866	0.6551819
339840537322510	0.6030884	0.67515564	0.52568054
339840542357910	0.65441895	0.6104126	0.33998108
339840547393310	0.7289276	0.5896454	0.121292114
339840552428711	0.84742737	0.61650085	-0.102264404
339840557830322	1.0099335	0.67759705	-0.30018616
339840562468994	1.1980743	0.73991394	-0.4406891
339840567534912	1.3837891	0.7594452	-0.50787354
339840572875488	1.5413818	0.69592285	-0.51275635
339840577636230	1.6464539	0.5358734	-0.48587036
339840580962646	1.655014	0.2952118	-0.4504547
339840587676513	1.5132751	-0.0053253174	-0.3979187
339840592711914	1.1748657	-0.35231018	-0.29774475
339840597747314	0.63974	-0.7444763	-0.12913513
339840602782715	-0.028533936	-1.1598663	0.10418701
339840608092773	-0.7102356	-1.5178223	0.36442566
339840612822998	-1.2478027	-1.7047577	0.60510254
339840617888916	-1.4872589	-1.6338959	0.7859192
339840623107422	-1.3589783	-1.3064575	0.8934326
339840627959717	-0.95336914	-0.8128967	0.9410858
339840631316650	-0.95336914	-0.2973175	0.9410858
339840638030517	-0.5025482	-0.2973175	0.9630585
339840643065918	-0.23376465	0.10461426	0.9630585
339840648131836	-0.2325592	0.33306885	0.95085144
339840653136719	-0.4182434	0.41493225	0.91664124
339840658446777	-0.6552582	0.4454651	0.8604431
339840663207519	-0.8531952	0.4992218	0.7981415
339840668242920	-0.983902	0.57740784	0.74072266
339840673491943	-1.0682068	0.61405945	0.6893921
339840678313721	-1.1476135	0.53466797	0.62831116
339840681701172	-1.2783356	0.30374146	0.53790283
339840688415039	-1.5129089	-0.0627594	0.4096222
339840693389404	-1.8696594	-0.51356506	0.24836731
339840698455322	-2.3204803	-0.976593	0.07243347
339840703490722	-2.7969513	-1.3834381	-0.09248352
339840708922851	-3.222107	-1.6937561	-0.21955872
339840713531006	-3.5299835	-1.9026794	-0.29286194
339840718627441	-3.681488	-2.0358276	-0.31362915
339840723968017	-3.6570435	-2.118927	-0.2989502
339840728698242	-3.462799	-2.1470184	-0.27941895
339840732024658	-3.130478	-2.0871582	-0.27818298
339840738738525	-2.7151031	-1.9075623	-0.30384827
339840743773926	-2.2789307	-1.6155701	-0.3502655
339840748839844	-1.8879852	-1.2527161	-0.40524292
339840753844726	-1.595993	-0.87519836	-0.45777893
339840759612549	-1.4420471	-0.53923035	-0.4981079
339840763915527	-1.4347229	-0.2948761	-0.52742004
339840768981445	-1.5471191	-0.17880249	-0.54574585
339840774322021	-1.7291565	-0.20692444	-0.5567322
339840779052246	-1.9246368	-0.3755188	-0.56163025
339840782378662	-1.9246368	-0.66018677	-0.56163025
339840789092529	-2.0920105	-0.66018677	-0.56163025
339840794097412	-2.2105103	-1.0181427	-0.5542908
339840799163330	-2.2789307	-1.3980865	-0.5347595
339840804198730	-2.3070374	-1.7523956	-0.49687195
339840809447754	-2.3119354	-2.043167	-0.43823242
339840814269531	-2.3094788	-2.2533112	-0.3600464
339840819304931	-2.3106995	-2.375473	-0.2671814
339840824553955	-2.3168182	-2.4182434	-0.16212463
339840829406250	-2.3204803	-2.3913574	-0.0521698
339840832732666	-2.3180237	-2.3058472	0.052886963
339840839446533	-2.3058167	-2.1677856	0.14450073
339840844451416	-2.281372	-1.986969	0.21659851
339840849547851	-2.242279	-1.7707214	0.26545715
339840854552734	-2.189743	-1.532486	0.28746033
339840860290039	-2.1298828	-1.2795868	0.28866577
339840864623535	-2.0712433	-1.0205841	0.26913452
339840869658935	-2.0199432	-0.76524353	0.23492432
339840874907959	-1.9820557	-0.52578735	0.18971252
339840879729736	-1.9576111	-0.3083191	0.14205933
339840883056152	-1.9576111	-0.11529541	0.14205933
339840889800537	-1.9515228	-0.11529541	0.054107666
339840894866455	-1.9600525	0.17546082	0.017440796
339840899871338	-1.9698486	0.25	-0.011856079
339840904906738	-1.9771729	0.27320862	-0.03262329
339840910430420	-1.9820557	0.25732422	-0.04850769
339840914977539	-1.9844971	0.21699524	-0.054611206
339840920012939	-1.9832916	0.16325378	-0.053390503
339840925445068	-1.9734955	0.099731445	-0.042404175
339840930114258	-1.9734955	0.02520752	-0.042404175
339840935943115	-1.9160767	0.02520752	0.0040130615
339840940185058	-1.9160767	-0.11894226	0.0040130615
339840945220459	-1.867218	-0.11894226	0.03211975
339840950225342	-1.8049011	-0.16539001	0.061431885
339840955291260	-1.727951	-0.18492126	0.09442139
339840960784424	-1.6338654	-0.18125916	0.1322937
339840965331543	-1.5263519	-0.16783142	0.1775055
339840970397461	-1.4151764	-0.16291809	0.2276001
339840975707519	-1.3101044	-0.18615723	0.28012085
339840980437744	-1.2172699	-0.25090027	0.33387756
339840983886230	-1.1427307	-0.34985352	0.38763428
339840990539062	-1.0877533	-0.462265	0.43649292
339840995543945	-1.0486755	-0.5563202	0.4780426
339841000609863	-1.0169067	-0.6064148	0.5061493
339841005614746	-0.9802551	-0.5978546	0.52323914
339841010985840	-0.9338074	-0.5343323	0.5305786
339841015777099	-0.8739624	-0.43049622	0.5317993
339841020720947	-0.8079834	-0.30465698	0.5293579
339841026488769	-0.74079895	-0.17271423	0.519577
339841030822265	-0.67970276	-0.051757813	0.5012665
339841034270752	-0.67970276	0.031326294	0.5012665
339841040862549	-0.58317566	0.031326294	0.4267273
339841045928467	-0.54896545	0.0178833	0.375412
339841050933349	-0.520874	-0.07740784	0.31555176
339841056029785	-0.49398804	-0.19958496	0.25445557
339841061858642	-0.468338	-0.3107605	0.20191956
339841066070068	-0.43901062	-0.37428284	0.16770935
339841071074951	-0.43901062	-0.36819458	0.15184021
339841076446045	-0.3620453	-0.2960968	0.1481781
339841081206787	-0.3620453	-0.18492126	0.1481781
339841084624756	-0.31074524	-0.18492126	0.14205933
339841091247070	-0.250885	-0.072525024	0.12373352
339841096282471	-0.18367004	0.013000488	0.08708191
339841101317871	-0.11404419	0.06185913	0.027236938
339841106353271	-0.048095703	0.08140564	-0.049728394
339841112182129	0.010559082	0.07772827	-0.13645935
339841116424072	0.0655365	0.059417725	-0.22200012
339841121459472	0.13638306	0.026443481	-0.3013916
339841126891601	0.24391174	-0.0077667236	-0.3771515
339841131530273	0.408844	-0.029769897	-0.4504547
339841135222900	0.62997437	-0.023651123	-0.52375793
339841141601074	0.88775635	0.0154418945	-0.59584045
339841146605957	1.1479797	0.09239197	-0.6715851
339841151671875	1.3886719	0.20600891	-0.7497711
339841156707275	1.5963593	0.34162903	-0.8340759
339841162414062	1.7637329	0.48213196	-0.92448425
339841166808594	1.8846741	0.61161804	-1.0136719
339841171813476	1.9628754	0.71058655	-1.082077
339841177215088	2.0300598	0.7594452	-1.1077423
339841181884277	2.1290436	0.7460022	-1.0784149
339841185576904	2.1290436	0.67759705	-1.0784149
339841191924560	2.5163116	0.67759705	-0.88783264
339841196959961	2.7692108	0.50289917	-0.7607727
339841202056396	3.0160065	0.4454651	-0.6288147
339841207061279	3.2359161	0.41737366	-0.49931335
339841212645996	3.4191742	0.41737366	-0.3771515
339841217101562	3.4191742	0.44424438	-0.26353455
339841222167480	3.5584564	0.44424438	-0.26353455
339841227385986	3.6439667	0.48945618	-0.15968323
339841232207763	3.664734	0.5407562	-0.066833496
339841236205566	3.619522	0.572525	0.0015563965
339841242248047	3.5132446	0.55908203	0.033325195
339841247283447	3.3568573	0.47357178	0.027236938
339841252349365	3.1687164	0.30374146	0.0015563965
339841257445801	2.9781342	0.067977905	-0.017959595
339841262816894	2.8205261	-0.18371582	-0.0155181885
339841267425049	2.7215729	-0.3889618	0.008911133
339841272490967	2.6873627	-0.47691345	0.044326782
339841277831543	2.7044678	-0.4024048	0.085861206
339841282561767	2.747223	-0.15559387	0.13841248
339841286681640	2.7924347	0.22311401	0.20683289
339841292632568	2.8217316	0.66415405	0.29600525
339841297667969	2.8290863	1.0917664	0.3998413
339841302733887	2.811966	1.4399567	0.5037079
339841307738769	2.7716522	1.6635284	0.59532166
339841313231933	2.7044678	1.7514801	0.6686249
339841317779053	2.6164856	1.7233887	0.71995544
339841322844971	2.5126495	1.6207733	0.74560547
339841328093994	2.4002533	1.4912567	0.7419281
339841332946289	2.2927399	1.3813171	0.7003937
339841337005127	2.2927399	1.3287811	0.7003937
339841342986572	2.1339264	1.3287811	0.46949768
339841347991455	2.1107178	1.4570465	0.28746033
339841353057373	2.1339264	1.6097717	0.09564209
339841358062256	2.204773	1.7734833	-0.07537842
339841363402832	2.313507	1.9139862	-0.20732117
339841368194092	2.313507	2.0007324	-0.20732117
339841373198974	2.4442444	2.0007324	-0.2989502
339841378447998	2.5749512	2.0178223	-0.35394287
339841383269775	2.6885834	1.9665222	-0.38935852
339841387298096	2.76799	1.8699951	-0.41990662
339841393340576	2.8070831	1.7649231	-0.45410156
339841398345459	2.8009644	1.6806335	-0.48954773
339841403411377	2.7460022	1.6256561	-0.5188751
339841408477295	2.6506958	1.5816803	-0.5384064
339841413878906	2.5224152	1.5291443	-0.54818726
339841418487060	2.3684998	1.464386	-0.54452515
339841423552978	2.1913452	1.4008636	-0.5213165
339841428771484	1.9958649	1.3532104	-0.47854614
339841433623779	1.793045	1.3116608	-0.42356873
339841437652099	1.5926819	1.2530365	-0.3600464
339841443694580	1.4021149	1.1565094	-0.29286194
339841448760498	1.2286224	1.0282288	-0.22444153
339841453765381	1.0697937	0.88772583	-0.16090393
339841458800781	0.9256439	0.7570038	-0.10958862
339841464263428	0.7924652	0.64582825	-0.07171631
339841468871582	0.6690674	0.5517578	-0.04360962
339841473906982	0.55422974	0.4625702	-0.019195557
339841479278076	0.4454956	0.36972046	0.0040130615
339841484008301	0.3343048	0.26708984	0.027236938
339841488708008	0.21458435	0.16203308	0.049209595
339841494048584	0.087524414	0.07286072	0.0663147
339841499053467	-0.045654297	0.013000488	0.07487488
339841504119385	-0.045654297	-0.019989014	0.07121277
339841509124267	-0.17878723	-0.035873413	0.07121277
339841514617431	-0.42192078	-0.035873413	0.030883789
339841519225586	-0.42192078	-0.068847656	0.030883789
339841524291504	-0.53308105	-0.068847656	-0.002090454
339841529510010	-0.6381531	-0.08352661	-0.037521362
339841534362305	-0.738327	-0.09085083	-0.07661438
339841538390625	-0.8360748	-0.088409424	-0.12059021
339841544433105	-0.9326019	-0.07984924	-0.17311096
339841549437988	-1.0278778	-0.06640625	-0.22808838
339841554503906	-1.1256256	-0.05419922	-0.27697754
339841559478271	-1.2319183	-0.048080444	-0.3111725
339841564849365	-1.3406525	-0.04319763	-0.3331604
339841569579590	-1.4408417	-0.032211304	-0.34172058
339841574614990	-1.5129089	-0.0077667236	-0.33683777
339841579864013	-1.5422363	0.02154541	-0.31607056
339841584716308	-1.5141449	0.05329895	-0.27941895
339841589324463	-1.4200745	0.09361267	-0.23420715
339841594756592	-1.2526855	0.16325378	-0.17799377
339841599791992	-1.0156708	0.27441406	-0.110809326
339841604857910	-0.7212372	0.42836	-0.0362854
339841609923828	-0.3999176	0.6042938	0.033325195
339841615386474	-0.0859375	0.7594452	0.08097839
339841619964111	0.18891907	0.8413086	0.09686279
339841624968994	0.40760803	0.81077576	0.08097839
339841630279053	0.56033325	0.66537476	0.038223267
339841635039795	0.6483002	0.4491272	-0.020401001
339841638427246	0.6483002	0.22799683	-0.020401001
339841645141113	0.705719	0.22799683	-0.16456604
339841650176513	0.705719	-0.01020813	-0.26109314
339841655181396	0.7362671	0.010559082	-0.26109314
339841660216797	0.8071289	0.010559082	-0.3820343
339841665740478	0.9341736	0.1058197	-0.51763916
339841670287597	1.1113281	0.24143982	-0.64593506
339841675322998	1.3153687	0.38438416	-0.73023987
339841680694092	1.5035095	0.4992218	-0.7473297
339841685393799	1.6244507	0.5395508	-0.69358826
339841688750732	1.6330109	0.44792175	-0.5860596
339841695495117	1.5022888	0.20722961	-0.4431305
339841700500000	1.2298431	-0.11773682	-0.26597595
339841705626953	0.82055664	-0.4256134	-0.047286987
339841710601318	0.30133057	-0.66871643	0.22148132
339841716460693	-0.25453186	-0.87519836	0.5269165
339841720702637	-0.7029114	-1.0486755	0.8396759
339841725738037	-0.8812866	-1.1158905	1.1108856
339841731139648	-0.71147156	-0.976593	1.2929382
339841735839355	-0.29118347	-0.62841797	1.358902
339841739135254	0.13882446	-0.18736267	1.3283691
339841745849121	0.34654236	0.18035889	1.2416229
339841750854004	0.25245667	0.36605835	1.1353302
339841755889404	-0.06272888	0.36849976	1.0290375
339841760955322	-0.4500122	0.28053284	0.9252014
339841766234863	-0.79086304	0.21211243	0.8213501
339841770995605	-1.024231	0.21090698	0.7150421
339841776031006	-1.1439514	0.25120544	0.60388184
339841781280029	-1.189148	0.26220703	0.48658752
339841786101806	-1.2380371	0.18157959	0.3656311
339841789458740	-1.2380371	-0.017547607	0.3656311
