gyroscope_timestamp	gyroscope_x_data	gyroscope_y_data	gyroscope_z_data
254416413227081	0.38589478	0.08959961	0.17781067
254416416797638	0.38589478	-0.27079773	0.17781067
254416421894073	0.39201355	-0.27079773	0.20101929
254416426929474	0.42378235	-0.28544617	0.19734192
254416430225372	0.5007324	-0.27934265	0.15704346
254416437000274	0.6155853	-0.25735474	0.09106445
254416441974640	0.7316437	-0.24880981	0.026306152
254416447071075	0.8073883	-0.28056335	-0.007904053
254416452075958	0.8232727	-0.35754395	-0.011550903
254416457477569	0.7939453	-0.4540558	-0.0054626465
254416462146759	0.74386597	-0.5334625	-0.011550903
254416467182159	0.690094	-0.57255554	-0.039657593
254416472461700	0.637558	-0.57499695	-0.08239746
254416477283477	0.5899353	-0.55545044	-0.13371277
254416480579376	0.5483856	-0.5261383	-0.18502808
254416487354278	0.5178375	-0.4809265	-0.22657776
254416492389679	0.4958496	-0.4137268	-0.25099182
254416497394561	0.4750824	-0.329422	-0.2546692
254416502429962	0.4555359	-0.23658752	-0.24002075
254416507831573	0.4384308	-0.13885498	-0.21069336
254416512500763	0.42134094	-0.03866577	-0.17280579
254416517627716	0.3956604	0.051742554	-0.13371277
254416522998809	0.3590088	0.11891174	-0.09461975
254416527606964	0.31259155	0.16168213	-0.056747437
254416530963897	0.31259155	0.18977356	-0.056747437
254416537677765	0.21362305	0.18977356	0.015319824
254416542713165	0.16964722	0.23376465	0.04586792
254416547748565	0.1329956	0.24353027	0.06539917
254416552783966	0.1329956	0.23742676	0.07273865
254416558063507	0.096343994	0.23742676	0.06539917
254416562824249	0.096343994	0.18367004	0.06539917
254416567920684	0.09146118	0.18367004	0.047073364
254416573322296	0.09390259	0.15190125	0.025100708
254416577960968	0.10122681	0.13113403	-5.645752E-4
254416581348419	0.11100769	0.12258911	-0.022537231
254416588031768	0.12322998	0.123809814	-0.043304443
254416593036651	0.13787842	0.12991333	-0.060424805
254416598102569	0.15132141	0.14213562	-0.07507324
254416603137970	0.15988159	0.16534424	-0.08363342
254416608448028	0.162323	0.20443726	-0.08483887
254416613208770	0.15988159	0.25697327	-0.08119202
254416618244171	0.15499878	0.31318665	-0.07385254
254416623523712	0.14520264	0.35836792	-0.06286621
254416628314972	0.12567139	0.3815918	-0.049423218
254416631732940	0.0987854	0.3876953	-0.0262146
254416638416290	0.064575195	0.3815918	0.0030975342
254416643451690	0.025482178	0.3718109	0.038528442
254416648456573	-0.013595581	0.363266	0.07029724
254416653461456	-0.049041748	0.35716248	0.095947266
254416658954620	-0.07223511	0.34983826	0.11427307
254416663562774	-0.07835388	0.3376007	0.1240387
254416668598175	-0.06855774	0.3143921	0.13015747
254416674030304	-0.044158936	0.2740631	0.13015747
254416678668975	-0.013595581	0.21665955	0.12771606
254416681995392	-0.013595581	0.15190125	0.12771606
254416688739776	0.030380249	0.15190125	0.11061096
254416693805694	0.031600952	0.024856567	0.09472656
254416698810577	0.031600952	-0.021560669	0.09472656
254416703845977	0.023040771	-0.021560669	0.07395935
254416709308624	0.010818481	-0.048431396	0.026306152
254416713916778	-0.0013885498	-0.053329468	0.026306152
254416718952179	-0.012390137	-0.03744507	0.009216309
254416724445343	-0.024597168	-0.010559082	-5.645752E-4
254416729053497	-0.036819458	0.023651123	-5.645752E-4
254416732379913	-0.04536438	0.06274414	0.0055389404
254416739093780	-0.047805786	0.09938049	0.011657715
254416744098663	-0.042922974	0.12747192	0.015319824
254416749195099	-0.02947998	0.14213562	0.01776123
254416754169464	-0.008712769	0.14579773	0.020202637
254416759510040	0.0132751465	0.14335632	0.025100708
254416764270782	0.031600952	0.13723755	0.032424927
254416769306183	0.04258728	0.12258911	0.039749146
254416774799347	0.045028687	0.09693909	0.04219055
254416779407501	0.041366577	0.06639099	0.039749146
254416782733917	0.03526306	0.035858154	0.032424927
254416789478302	0.029144287	0.012649536	0.023864746
254416794452667	0.020599365	-7.9345703E-4	0.012863159
254416799549102	0.005935669	-0.0068969727	-5.645752E-4
254416804523468	-0.01727295	-0.010559082	-0.01399231
254416809864044	-0.04536438	-0.011795044	-0.024978638
254416814655304	-0.06855774	-0.0032348633	-0.031097412
254416819660186	-0.083236694	0.016311646	-0.028656006
254416824970245	-0.083236694	0.04562378	-0.018875122
254416829730987	-0.07223511	0.07493591	-0.0042266846
254416833087921	-0.07223511	0.095703125	-0.0042266846
254416839832306	-0.022155762	0.095703125	0.028747559
254416844867706	-0.022155762	0.10548401	0.028747559
254416849872589	0.004714966	0.10548401	0.03730774
254416854938507	0.02670288	0.09938049	0.04096985
254416860309600	0.04748535	0.092056274	0.039749146
254416865009308	0.07435608	0.083496094	0.034866333
254416870075225	0.1134491	0.07249451	0.026306152
254416875476837	0.16720581	0.052963257	0.016540527
254416880084991	0.228302	0.023651123	0.0055389404
254416883441925	0.29060364	-0.013000488	-0.006668091
254416890155792	0.3431244	-0.05455017	-0.018875122
254416895221710	0.37245178	-0.0973053	-0.032302856
254416900226593	0.366333	-0.13641357	-0.044540405
254416905261993	0.31871033	-0.16694641	-0.05430603
254416910694122	0.228302	-0.18650818	-0.060424805
254416915454864	0.10610962	-0.19015503	-0.06286621
254416920368194	-0.030715942	-0.17306519	-0.06286621
254416926380157	-0.16142273	-0.1302948	-0.056747437
254416930438995	-0.26159668	-0.060653687	-0.04574585
254416933826446	-0.31047058	0.024856567	-0.031097412
254416940509796	-0.29704285	0.10670471	-0.0152282715
254416945514679	-0.22738647	0.17022705	-0.0054626465
254416950641632	-0.119888306	0.20199585	6.5612793E-4
254416955585479	-1.6784668E-4	0.20443726	0.0030975342
254416960956573	0.10978699	0.18489075	0.007980347
254416965686798	0.20019531	0.15679932	0.01776123
254416971576690	0.26615906	0.12625122	0.034866333
254416975757599	0.30648804	0.09693909	0.05807495
254416980731964	0.32115173	0.06518555	0.08496094
254416984180450	0.32115173	0.032196045	0.08496094
254416990863800	0.30892944	0.032196045	0.10939026
254416995868683	0.26983643	-0.0020141602	0.12771606
254417000965118	0.18920898	-0.041107178	0.13871765
254417005970001	0.05480957	-0.09120178	0.1399231
254417011432647	-0.119888306	-0.14129639	0.12771606
254417016040802	-0.28848267	-0.15962219	0.10083008
254417021076202	-0.40820313	-0.11808777	0.06539917
254417026386261	-0.4631958	-0.028884888	0.032424927
254417031147003	-0.46684265	0.06274414	0.0067749023
254417034503936	-0.43997192	0.11891174	-0.011550903
254417041217804	-0.3996582	0.13479614	-0.0262146
254417046253204	-0.35446167	0.1335907	-0.039657593
254417051288604	-0.30924988	0.13113403	-0.051864624
254417056324005	-0.26283264	0.1335907	-0.060424805
254417061756134	-0.21517944	0.1360321	-0.064071655
254417066394806	-0.16386414	0.12869263	-0.064071655
254417071460724	-0.11010742	0.10914612	-0.060424805
254417076892852	-0.0526886	0.07861328	-0.05430603
254417081501007	0.004714966	0.04197693	-0.04698181
254417084857940	0.004714966	0.0065307617	-0.04698181
254417091602325	0.09390259	0.0065307617	-0.03353882
254417096576690	0.10978699	-0.03010559	-0.032302856
254417101642608	0.096343994	-0.03378296	-0.040863037
254417106708526	0.056030273	-0.03010559	-0.059188843
254417111927032	-0.007507324	-0.01789856	-0.08239746
254417116748809	-0.0856781	0.0077667236	-0.09950256
254417121784210	-0.16142273	0.04685974	-0.11050415
254417127246856	-0.22128296	0.08959961	-0.12272644
254417138172149	-0.26283264	0.12991333	-0.1593628
254417141925811	-0.26283264	0.20687866	-0.1593628
254417146961212	-0.25671387	0.20687866	-0.17404175
254417151996612	-0.24938965	0.2508545	-0.17892456
254417157062530	-0.2505951	0.29606628	-0.17648315
254417162342071	-0.26527405	0.33883667	-0.17160034
254417167102813	-0.2896881	0.37548828	-0.16670227
254417172138214	-0.32389832	0.4035797	-0.1593628
254417177478790	-0.3642273	0.42678833	-0.14959717
254417182270050	-0.40576172	0.44877625	-0.13615417
254417185535431	-0.44607544	0.46954346	-0.12272644
254417192340850	-0.4815216	0.48786926	-0.108062744
254417197345733	-0.5047302	0.50131226	-0.092178345
254417202350616	-0.51205444	0.5110779	-0.07873535
254417207355499	-0.4998474	0.5159912	-0.06895447
254417212757110	-0.46684265	0.51475525	-0.064071655
254417217456817	-0.417984	0.50743103	-0.060424805
254417222522735	-0.3642273	0.49887085	-0.053085327
254417227924347	-0.3141327	0.49154663	-0.043304443
254417232532501	-0.27871704	0.49275208	-0.037200928
254417235919952	-0.27871704	0.5001068	-0.037200928
254417242603302	-0.24450684	0.5001068	-0.02986145
254417247669220	-0.24571228	0.53552246	-0.021331787
254417252674102	-0.25915527	0.5587311	-0.007904053
254417257770538	-0.2799225	0.58439636	0.010421753
254417262928009	-0.3031311	0.61006165	0.02998352
254417267810821	-0.32025146	0.63449097	0.04953003
254417272846222	-0.32633972	0.6576996	0.06539917
254417278247833	-0.32269287	0.6772461	0.08250427
254417282917022	-0.32269287	0.6919098	0.08250427
254417286273956	-0.31169128	0.6919098	0.10450745
254417292987823	-0.29580688	0.7016754	0.13383484
254417297992706	-0.27503967	0.7065582	0.17292786
254417303058624	-0.2530365	0.7053528	0.21446228
254417308063507	-0.22738647	0.699234	0.25231934
254417313312530	-0.19805908	0.6845856	0.2828827
254417318164825	-0.16386414	0.6638031	0.3060913
254417323200225	-0.13087463	0.6430359	0.3244171
254417328601837	-0.1015625	0.63204956	0.34028625
254417333240509	-0.07711792	0.63449097	0.35250854
254417336627960	-0.058792114	0.6430359	0.36105347
254417345478058	-0.04536438	0.6479187	0.36228943
254417348316192	-0.035598755	0.6442566	0.3549652
254417353382110	-0.027038574	0.6393738	0.3390808
254417358417511	-0.020935059	0.63571167	0.31341553
254417363666534	-0.013595581	0.63327026	0.2828827
254417368518829	-0.0062713623	0.63571167	0.24987793
254417373523712	-1.6784668E-4	0.6418152	0.2193451
254417378803253	0.0034942627	0.65159607	0.19490051
254417383625030	0.0034942627	0.6625824	0.18025208
254417386951446	0.0034942627	0.66748047	0.18025208
254417393726349	-0.0062713623	0.66748047	0.16680908
254417398731231	-0.013595581	0.6687012	0.16436768
254417403736114	-0.022155762	0.6784668	0.16804504
254417408802032	-0.031921387	0.6980133	0.17781067
254417414203643	-0.040481567	0.72732544	0.19369507
254417418872833	-0.040481567	0.76153564	0.21446228
254417423938751	-0.04536438	0.79330444	0.21446228
254417429340362	-0.04171753	0.79330444	0.26087952
254417433948517	-0.04171753	0.8421936	0.26087952
254417437335968	-0.02947998	0.8421936	0.28408813
254417444049835	-0.0099487305	0.85440063	0.3036499
254417449054718	0.015716553	0.85317993	0.31951904
254417454090118	0.03892517	0.83729553	0.33052063
254417459156036	0.057250977	0.8104248	0.33418274
254417464466095	0.07069397	0.778656	0.33052063
254417469257354	0.080459595	0.74809265	0.3219757
254417474231720	0.08413696	0.7175598	0.31219482
254417479999542	0.080459595	0.6845856	0.30241394
254417484302520	0.07069397	0.6442566	0.29753113
254417487689972	0.059692383	0.60272217	0.29753113
254417494373321	0.053588867	0.56729126	0.3036499
254417499408722	0.056030273	0.5404053	0.31707764
254417504474640	0.06825256	0.520874	0.33784485
254417509510040	0.08534241	0.50375366	0.36351013
254417514789581	0.10246277	0.4842224	0.38671875
254417519580841	0.11590576	0.46221924	0.4025879
254417524616241	0.120788574	0.4451294	0.40870667
254417529895782	0.120788574	0.44267273	0.40750122
254417534687042	0.1134491	0.46221924	0.40382385
254417538074493	0.1134491	0.50619507	0.40382385
254417544788360	0.07923889	0.50619507	0.40138245
254417549762725	0.05480957	0.6381531	0.41238403
254417554859161	0.032821655	0.7077942	0.43070984
254417559925079	0.018157959	0.7676544	0.44903564
254417565326690	0.012054443	0.80918884	0.4661255
254417569934845	0.012054443	0.82507324	0.4661255
254417575031280	0.010818481	0.82507324	0.47836304
254417580677032	0.005935669	0.8238678	0.4844513
254417585041046	0.005935669	0.81651306	0.4844513
254417588397979	-1.6784668E-4	0.81651306	0.47956848
254417595111847	-0.0099487305	0.80918884	0.47468567
254417600208282	-0.023391724	0.7835388	0.46980286
254417605182647	-0.040481567	0.739563	0.46736145
254417610218048	-0.055130005	0.685791	0.4661255
254417615558624	-0.067352295	0.6271515	0.4710083
254417620288849	-0.07711792	0.56484985	0.48324585
254417625385284	-0.086883545	0.49887085	0.50401306
254417630817413	-0.09788513	0.4316864	0.5308838
254417635395050	-0.11010742	0.3840332	0.5504303
254417638751983	-0.11254883	0.4011383	0.5418854
254417645465850	-0.09788513	0.5294342	0.4868927
254417650501251	-0.050247192	0.753006	0.37449646
254417655597686	0.043807983	0.97413635	0.21690369
254417660572052	0.19041443	1.0975189	0.051971436
254417666278839	0.366333	1.1085205	-0.07751465
254417670642852	0.5263977	1.049881	-0.15081787
254417675678253	0.63879395	0.95581055	-0.16914368
254417681201934	0.69377136	0.8287506	-0.14959717
254417685749054	0.70477295	0.6955719	-0.10684204
254417689105987	0.70477295	0.59906006	-0.10684204
254417695819854	0.6485596	0.59906006	0.0055389404
254417700824737	0.6155853	0.52819824	0.043426514
254417705890655	0.6009064	0.49275208	0.050750732
254417710956573	0.6009064	0.44267273	0.022659302
254417716175079	0.60946655	0.44267273	-0.032302856
254417720966339	0.63023376	0.39257813	-0.032302856
254417726032257	0.64367676	0.3534851	-0.09339905
254417731311798	0.6326752	0.3351593	-0.13737488
254417736133575	0.5899353	0.33395386	-0.15571594
254417739429474	0.52027893	0.3376007	-0.15815735
254417751300811	0.36512756	0.34248352	-0.16670227
254417756275177	0.29670715	0.44877625	-0.18136597
254417761280059	0.22096252	0.58929443	-0.20581055
254417766773224	0.1281128	0.7603302	-0.25834656
254417771381378	0.023040771	0.917923	-0.35484314
254417776416778	-0.07345581	1.0474396	-0.49900818
254417781879425	-0.14309692	1.1610565	-0.6773834
254417786426544	-0.17240906	1.2783356	-0.85697937
254417789783477	-0.16020203	1.4017334	-0.99380493
254417796497345	-0.107666016	1.4970245	-1.0500183
254417801563263	-0.013595581	1.5239105	-0.9925995
254417806568145	0.117111206	1.4786987	-0.81910706
254417811634063	0.26861572	1.3931732	-0.5747528
254417816883087	0.4091034	1.2978973	-0.33285522
254417821704864	0.5166168	1.1879272	-0.14103699
254417826709747	0.60336304	1.0743103	0.02998352
254417832202911	0.7243042	1.0022278	0.26820374
254417836780548	0.9344635	1.0119934	0.61763
254417840167999	0.9344635	1.0816498	0.61763
254417846851349	1.5563049	1.0816498	1.3970947
254417851886749	1.5563049	1.1989136	1.6451111
254417856983184	1.8556366	1.240448	1.6451111
254417862018585	2.0999756	1.240448	1.7623901
254417867267608	2.282013	1.3101044	1.77948
254417872058868	2.4017334	1.4176178	1.7330627
254417877094268	2.4591675	1.5471191	1.6548767
254417882556915	2.4579468	1.6802826	1.5656891
254417887195587	2.4066315	1.8000183	1.4752808
254417890522003	2.3149872	1.901413	1.3897705
254417897266388	2.1928253	1.9747314	1.3079071
254417902240753	2.0449982	2.0162659	1.2309418
254417907276153	1.8764038	2.024826	1.1564026
254417912342071	1.691925	2.0187073	1.0843353
254417917560577	1.4976654	2.0174713	1.019577
254417922412872	1.3009644	2.0345917	0.968277
254417927448272	1.1067047	2.0700073	0.9340668
254417932697296	0.91734314	2.1262207	0.91574097
254417937549591	0.72309875	2.1934204	0.902298
254417940845489	0.5092926	2.2349548	0.8705292
254417947620392	0.27227783	2.243515	0.81311035
254417952625274	0.045028687	2.2740479	0.7581177
254417957630157	-0.12721252	2.3986664	0.7422333
254417962726593	-0.22250366	2.6259003	0.78134155
254417968311309	-0.25671387	2.8861237	0.8631897
254417972766876	-0.2530365	3.1097107	0.97680664
254417979297638	-0.2188263	3.2673187	1.1270752
254417983203888	-0.14920044	3.3442688	1.3274536
254417988178253	-0.047805786	3.317398	1.5901184
254417991230011	-0.047805786	3.1878967	1.5901184
254417997943878	0.07557678	3.1878967	2.260849
254418002979278	0.20019531	2.806717	2.260849
254418008045196	0.31015015	2.806717	2.6139374
254418013050079	0.393219	2.654007	2.9242554
254418018604278	0.4433136	2.5428314	3.15271
254418023151397	0.46652222	2.4548492	3.2626648
254418028156280	0.472641	2.3705597	3.2406769
254418033985138	0.47019958	2.2850494	3.0891724
254418038227081	0.46287537	2.206833	2.8240662
254418041584015	0.44699097	2.146988	2.4661102
254418048358917	0.4225464	2.1103363	2.0409393
254418053333282	0.3956604	2.1017761	1.5852356
254418058429718	0.38101196	2.1274414	1.146637
254418063434600	0.379776	2.1848602	0.76911926
254418069141388	0.38345337	2.2532806	0.48080444
254418073444366	0.36878967	2.2923737	0.2914276
254418078510284	0.32603455	2.267929	0.19857788
254418083789825	0.25517273	2.177536	0.18637085
254418088611602	0.17332458	2.0455933	0.23278809
254418091938018	0.096343994	1.8977509	0.30975342
254418098651886	0.04258728	1.7438049	0.39161682
254418103687286	0.020599365	1.5886536	0.45759583
254418108722686	0.032821655	1.4347229	0.49545288
254418113758087	0.07923889	1.2929993	0.50401306
254418119251251	0.15132141	1.1696014	0.48324585
254418123828888	0.23562622	1.0694122	0.43927002
254418128925323	0.32359314	0.9887848	0.37937927
254418134571075	0.406662	0.92770386	0.31219482
254418138904571	0.48608398	0.8849335	0.2535553
254418142261505	0.48608398	0.85684204	0.2535553
254418149005890	0.5581665	0.85684204	0.21322632
254418154041290	0.62535095	0.83851624	0.19369507
254418159076690	0.68400574	0.8201904	0.19490051
254418164112091	0.7316437	0.79330444	0.21202087
254418169635772	0.7682953	0.753006	0.23399353
254418174182892	0.7927246	0.7053528	0.25231934
254418179218292	0.8073883	0.6552582	0.2559967
254418184680938	0.8159485	0.6088257	0.2401123
254418189258575	0.8147125	0.56362915	0.2034607
254418192615509	0.8061676	0.51719666	0.15336609
254418199359893	0.7890625	0.468338	0.095947266
254418204395294	0.7634125	0.42556763	0.044631958
254418209522247	0.7316437	0.39257813	0.0030975342
254418214466095	0.6986542	0.3681488	-0.023773193
254418220172882	0.66567993	0.3400421	-0.03842163
254418224536895	0.63879395	0.3009491	-0.04574585
254418229572296	0.6192322	0.24841309	-0.05430603
254418235065460	0.60458374	0.18733215	-0.06651306
254418239643097	0.58747864	0.12625122	-0.08483887
254418243030548	0.58747864	0.07373047	-0.08483887
254418249774933	0.52149963	0.07373047	-0.12882996
254418254718780	0.4763031	4.272461E-4	-0.15203857
254418259784698	0.42866516	-0.027664185	-0.17892456
254418264820099	0.38589478	-0.059432983	-0.20457458
254418270099640	0.34680176	-0.09364319	-0.22657776
254418274890899	0.31381226	-0.12905884	-0.24002075
254418279895782	0.28450012	-0.16082764	-0.24246216
254418285205841	0.25639343	-0.18894958	-0.22901917
254418290180206	0.22706604	-0.21336365	-0.20213318
254418293323517	0.22706604	-0.23902893	-0.20213318
254418300251007	0.20019531	-0.23902893	-0.16548157
254418305133819	0.17576599	-0.26957703	-0.12516785
254418310169220	0.15744019	-0.30133057	-0.08729553
254418315143585	0.15132141	-0.33554077	-0.055526733
254418320697784	0.15744019	-0.368515	-0.028656006
254418325244903	0.17332458	-0.40272522	-0.011550903
254418330493927	0.19041443	-0.4381714	-0.0030212402
254418335773468	0.20385742	-0.4736023	-0.006668091
254418340503692	0.21485901	-0.50535583	-0.021331787
254418343677520	0.22462463	-0.5310211	-0.048187256
254418350727081	0.23074341	-0.5481262	-0.08363342
254418355457306	0.23194885	-0.55667114	-0.11904907
254418360919952	0.2258606	-0.5579071	-0.14837646
254418365558624	0.21852112	-0.55300903	-0.16426086
254418370960235	0.21485901	-0.5444641	-0.16914368
254418375629425	0.21852112	-0.5310211	-0.16548157
254418380695343	0.228302	-0.5151367	-0.15447998
254418386493683	0.24295044	-0.4943695	-0.14227295
254418390705108	0.25517273	-0.46870422	-0.13249207
254418394062042	0.25517273	-0.43693542	-0.13249207
254418401691436	0.26739502	-0.43693542	-0.12516785
254418405780792	0.26983643	-0.3660736	-0.12394714
254418411365509	0.26983643	-0.33798218	-0.120269775
254418415882110	0.26861572	-0.31599426	-0.11050415
254418421253204	0.26005554	-0.29522705	-0.092178345
254418425952911	0.24662781	-0.27201843	-0.06895447
254418431049347	0.22950745	-0.25125122	-0.044540405
254418436328888	0.21118164	-0.23780823	-0.024978638
254418441608429	0.18797302	-0.22924805	-0.012786865
254418444416046	0.18797302	-0.22192383	-0.012786865
254418452075958	0.12199402	-0.22192383	-0.012786865
254418456165313	0.12199402	-0.20727539	-0.012786865
254418461322784	0.082901	-0.20727539	-0.0262146
254418466236114	0.04748535	-0.20603943	-0.04698181
254418472248077	0.016937256	-0.20237732	-0.076293945
254418476306915	-0.0099487305	-0.18527222	-0.11050415
254418482257843	-0.034362793	-0.15350342	-0.14837646
254418486652374	-0.06123352	-0.111968994	-0.18257141
254418492298126	-0.08444214	-0.07043457	-0.20701599
254418494800567	-0.10032654	-0.03378296	-0.22045898
254418502460479	-0.107666016	-0.0044555664	-0.22166443
254418506580352	-0.104003906	0.018753052	-0.20701599
254418512256622	-0.09300232	0.03829956	-0.18257141
254418516590118	-0.075912476	0.055419922	-0.15081787
254418522205352	-0.05392456	0.0712738	-0.11782837
254418526660919	-0.027038574	0.08470154	-0.08363342
254418532642364	0.004714966	0.095703125	-0.051864624
254418537158966	0.041366577	0.103027344	-0.023773193
254418542469024	0.08534241	0.10670471	-0.0054626465
254418545093536	0.08534241	0.107925415	-0.0054626465
254418552570343	0.18185425	0.107925415	0.0055389404
254418556842804	0.228302	0.11282349	0.0067749023
254418562793731	0.27227783	0.11647034	0.012863159
254418566974640	0.31503296	0.1177063	0.027542114
254418572681427	0.35656738	0.11402893	0.056854248
254418577045440	0.35656738	0.10670471	0.099609375
254418582416534	0.43721008	0.09693909	0.15216064
254418587940216	0.4750824	0.083496094	0.2059021
254418592975616	0.5105133	0.06639099	0.25231934
254418595508575	0.5105133	0.044418335	0.25231934
254418603199005	0.5520477	0.044418335	0.3060913
254418607227325	0.5520477	0.008972168	0.3060913
254418613330841	0.55937195	0.008972168	0.31219482
254418617298126	0.5581665	-7.9345703E-4	0.3048706
254418622913360	0.5520477	-0.009338379	0.2853241
254418627399444	0.5410614	-0.020339966	0.25231934
254418633197784	0.5276184	-0.03378296	0.2083435
254418638172149	0.5166168	-0.048431396	0.15704346
254418643482208	0.5068512	-0.06555176	0.103271484
254418653583526	0.48120117	-0.0973053	0.009216309
254418657550811	0.4640808	-0.10708618	-0.027420044
254418663501739	0.44699097	-0.111968994	-0.05430603
254418667682647	0.432312	-0.11564636	-0.07141113
254418673114776	0.4225464	-0.11564636	-0.08363342
254418677753448	0.4139862	-0.11073303	-0.092178345
254418683765411	0.40789795	-0.10220337	-0.10316467
254418688098907	0.40301514	-0.08996582	-0.11538696
254418693653106	0.4005432	-0.07531738	-0.12882996
254418696155548	0.4005432	-0.05455017	-0.12882996
254418703937530	0.4115448	-0.05455017	-0.14103699
254418707935333	0.43110657	4.272461E-4	-0.13737488
254418714374542	0.459198	0.030975342	-0.12516785
254418718036651	0.4958496	0.06150818	-0.104400635
254418723896026	0.5398407	0.08470154	-0.07507324
254418728107452	0.5398407	0.09938049	-0.07507324
254418733905792	0.64367676	0.09938049	-0.0152282715
254418738666534	0.64367676	0.09938049	-0.0152282715
254418744525909	0.74508667	0.09938049	0.026306152
254418754535675	0.7902832	0.07493591	0.06663513
254418758289337	0.7902832	0.049301147	0.06663513
254418765003204	0.756073	0.049301147	0.115493774
254418768360138	0.756073	0.08226013	0.115493774
254418774219513	0.72065735	0.08226013	0.14115906
254418778430938	0.68032837	0.1177063	0.16557312
254418784351349	0.63879395	0.15312195	0.18513489
254418788806915	0.5948181	0.18122864	0.19369507
254418795215606	0.5447235	0.20687866	0.18881226
254418805103302	0.4225464	0.25697327	0.13259888
254418808673858	0.35656738	0.28018188	0.08128357
254418815113067	0.29182434	0.29974365	0.020202637
254418818744659	0.23074341	0.3192749	-0.04698181
254418824359893	0.1806488	0.3400421	-0.11172485
254418828784942	0.14031982	0.3669281	-0.16792297
254418835407257	0.1134491	0.3986969	-0.20825195
254418839130401	0.10002136	0.43778992	-0.2277832
254418845508575	0.10246277	0.48054504	-0.22657776
254418855365753	0.14888	0.520874	-0.18013
254418859058380	0.17941284	0.5660858	-0.13615417
254418865528106	0.20629883	0.56362915	-0.07385254
254418869068145	0.20629883	0.5428467	-0.07385254
254418875232696	0.25151062	0.5428467	0.095947266
254418879138946	0.25151062	0.47198486	0.095947266
254418885822296	0.26983643	0.47198486	0.2914276
254418889698028	0.26983643	0.3974762	0.2914276
254418895771026	0.24295044	0.3974762	0.45635986
254418904346466	0.21974182	0.34127808	0.5101166
254418909412384	0.19529724	0.32783508	0.5443268
254418916065216	0.17332458	0.32661438	0.5602112
254418919422149	0.15376282	0.3376007	0.5638733
254418925617218	0.13787842	0.3559265	0.5565338
254418929462433	0.12687683	0.3815918	0.5394287
254418935718536	0.120788574	0.40968323	0.5149994
254418939960479	0.120788574	0.44023132	0.4893341
254418946002960	0.12687683	0.47077942	0.47592163
254418955982208	0.14888	0.5269623	0.5088959
254418959674835	0.15376282	0.54652405	0.5492096
254418964740753	0.15376282	0.55140686	0.5931854
254418969776153	0.14888	0.5367584	0.62983704
254418976673126	0.14031982	0.5086365	0.64328
254418979816436	0.12567139	0.47198486	0.6225128
254418986865997	0.10610962	0.429245	0.565094
254418990131378	0.07923889	0.3803711	0.48080444
254418994953155	0.05847168	0.32539368	0.37817383
254418998279571	0.05847168	0.26553345	0.37817383
254419005023956	0.14399719	0.26553345	0.15216064
254419010028839	0.14399719	0.13235474	0.056854248
254419015125274	0.25517273	0.07006836	0.056854248
254419020130157	0.35046387	0.07006836	-0.0042266846
254419025440216	0.38345337	0.030975342	-0.022537231
254419030200958	0.35412598	0.024856567	-0.0030212402
254419035236358	0.30892944	0.043182373	0.03364563
254419040485382	0.29670715	0.059066772	0.06663513
254419046833038	0.4091034	0.049301147	0.06173706
254419055377960	0.48608398	-0.025222778	0.03364563
254419060413360	0.5471649	-0.043548584	0.007980347
254419065448761	0.59602356	-0.03744507	-0.0030212402
254419070484161	0.65223694	-0.024002075	6.5612793E-4
254419075977325	0.72798157	-0.024002075	0.004333496
254419080585479	0.8159485	-0.048431396	-0.0054626465
254419085651397	0.89045715	-0.08508301	-0.03353882
254419091388702	0.9320221	-0.1144104	-0.072631836
254419095661163	0.93078613	-0.12297058	-0.11050415
254419098987579	0.88801575	-0.1144104	-0.13859558
254419105762481	0.8110657	-0.098526	-0.15571594
254419110736847	0.70965576	-0.08508301	-0.16304016
254419115802765	0.5972595	-0.07775879	-0.16426086
254419120838165	0.4909668	-0.07287598	-0.16426086
254419126361847	0.406662	-0.0667572	-0.17036438
254419130939483	0.35046387	-0.06187439	-0.18380737
254419135974884	0.31625366	-0.06309509	-0.19845581
254419141407013	0.29426575	-0.071640015	-0.20581055
254419146015167	0.26983643	-0.07897949	-0.19969177
254419149341583	0.26983643	-0.07897949	-0.19969177
254419156147003	0.23806763	-0.07897949	-0.14593506
254419161121368	0.19773865	-0.035003662	-0.14593506
254419166187286	0.15255737	-0.035003662	-0.10072327
254419171192169	0.0987854	-0.0056762695	-0.042099
254419176502227	0.027938843	0.015090942	0.032424927
254419181262970	-0.067352295	0.02609253	0.12527466
254419186267852	-0.18463135	0.037078857	0.2401123
254419191577911	-0.31169128	0.05418396	0.35984802
254419196369171	-0.42652893	0.076171875	0.46003723
254419199726104	-0.5157318	0.09449768	0.5149994
254419206439972	-0.56947327	0.10058594	0.512558
254419211444854	-0.59147644	0.09693909	0.46003723
254419216510772	-0.58535767	0.0859375	0.37329102
254419221546173	-0.5609131	0.07006836	0.2706604
254419226917267	-0.5242615	0.05050659	0.17048645
254419231616974	-0.47660828	0.030975342	0.08618164
254419236652374	-0.42042542	0.0077667236	0.016540527
254419241931915	-0.35446167	-0.019119263	-0.043304443
254419246753692	-0.28115845	-0.053329468	-0.09828186
254419250049591	-0.20417786	-0.08996582	-0.15447998
254419256824493	-0.12599182	-0.1278534	-0.21313477
254419261859893	-0.049041748	-0.164505	-0.2742157
254419266864776	0.027938843	-0.19503784	-0.33529663
254419271900177	0.10122681	-0.21704102	-0.39517212
254419277820587	0.16600037	-0.23048401	-0.4562378
254419281970977	0.21362305	-0.23536682	-0.51368713
254419287036895	0.23440552	-0.23536682	-0.5625458
254419292407989	0.22950745	-0.23292542	-0.596756
254419297107696	0.20629883	-0.23168945	-0.6187439
254419300434112	0.20629883	-0.22924805	-0.6187439
254419307209015	0.1806488	-0.22924805	-0.6370697
254419312152862	0.162323	-0.22558594	-0.6578369
254419317249298	0.15620422	-0.22070313	-0.68348694
254419322223663	0.16108704	-0.21826172	-0.7103729
254419327869415	0.1806488	-0.22070313	-0.73114014
254419332324981	0.21606445	-0.22680664	-0.7397003
254419337360382	0.26615906	-0.23168945	-0.7372589
254419342761993	0.33457947	-0.23536682	-0.72257996
254419347431183	0.42378235	-0.23902893	-0.70181274
254419350757599	0.5337219	-0.24757385	-0.67248535
254419357501983	0.6583557	-0.27079773	-0.63339233
254419362506866	0.7817383	-0.31721497	-0.5808716
254419367572784	0.8916931	-0.3905182	-0.51856995
254419372608184	0.98088074	-0.48336792	-0.45991516
254419377918243	1.0456238	-0.5811157	-0.41593933
254419382678985	1.0822906	-0.6690674	-0.39027405
254419387714386	1.0786133	-0.7509308	-0.37438965
254419392963409	1.0175323	-0.84254456	-0.35484314
254419397785186	0.8916931	-0.95617676	-0.3279724
254419401111602	0.8916931	-1.082016	-0.3279724
254419407917022	0.5227356	-1.082016	-0.24734497
254419412891388	0.34068298	-1.2774963	-0.20213318
254419417957306	0.19041443	-1.2933655	-0.16426086
254419422962188	0.07557678	-1.2286224	-0.14103699
254419428394317	-0.0099487305	-1.0832367	-0.13615417
254419433002472	-0.079559326	-0.8779907	-0.15081787
254419438068390	-0.14675903	-0.6263275	-0.18257141
254419443470001	-0.23106384	-0.3269806	-0.2277832
254419448169708	-0.23106384	0.016311646	-0.2277832
254419451465606	-0.352005	0.016311646	-0.28399658
254419458240509	-0.5206146	0.37304688	-0.3450775
254419463245392	-0.7380676	0.6638031	-0.40615845
254419468280792	-0.9885254	0.7872162	-0.46723938
254419473346710	-1.2499847	0.6748047	-0.5332184
254419478839874	-1.4955292	0.3486023	-0.6077423
254419483417511	-1.7117767	-0.08143616	-0.6871643
254419488452911	-1.8962708	-0.46870422	-0.7641144
254419494281768	-2.057541	-0.7240448	-0.83499146
254419498523712	-2.205368	-0.83766174	-0.90341187
254419501850128	-2.344635	-0.85110474	-0.9754791
254419508563995	-2.4790344	-0.8205719	-1.0536652
254419513629913	-2.6085358	-0.7826996	-1.1391907
254419518634796	-2.7368164	-0.758255	-1.2308197
254419523700714	-2.861435	-0.7472687	-1.3261261
254419528980255	-2.9775085	-0.7448273	-1.4287415
254419533740997	-3.0789032	-0.7399292	-1.5386963
254419538806915	-3.1656342	-0.7313843	-1.6498718
254419544055938	-3.236496	-0.7338257	-1.7512817
254419548847198	-3.2975922	-0.7668152	-1.838028
254419552234649	-3.2975922	-0.84010315	-1.838028
254419558917999	-3.389206	-0.84010315	-1.9992828
254419563953399	-3.4185333	-1.02948	-2.0884705
254419569019317	-3.4319763	-1.1064453	-2.1764374
254419574024200	-3.4234161	-1.1565399	-2.253418
254419579486847	-3.3867645	-1.1724243	-2.309616
254419584095001	-3.3183594	-1.1528931	-2.3425903
254419589130401	-3.3183594	-1.1113281	-2.3499146
254419594470977	-3.105774	-1.1113281	-2.3328247
254419599201202	-3.105774	-1.0368195	-2.3328247
254419602558136	-2.9725952	-1.0368195	-2.2973938
254419609272003	-2.826004	-1.020935	-2.252182
254419614307403	-2.668396	-1.0172577	-2.200882
254419619342804	-2.5059204	-1.0184937	-2.148346
254419624408722	-2.3397522	-1.0221558	-2.0933685
254419629901886	-2.1674805	-1.0307007	-2.0408325
254419634479522	-1.9891205	-1.0490265	-1.995636
254419639453888	-1.8058624	-1.0856781	-1.9601898
254419644977569	-1.6213837	-1.1443329	-1.9382172
254419649555206	-1.4393463	-1.2225189	-1.9259796
254419652881622	-1.2609863	-1.3165894	-1.9186554
254419659656524	-1.0825958	-1.4143219	-1.9052124
254419664661407	-0.9005585	-1.5010681	-1.877121
254419669696808	-0.7124176	-1.5658264	-1.8319092
254419674762725	-0.5206146	-1.6000366	-1.7708282
254419680225372	-0.3300171	-1.6000366	-1.7024078
254419684803009	-0.14309692	-1.562149	-1.6339874
254419689838409	0.032821655	-1.4900818	-1.5692444
254419695301056	0.1940918	-1.3923492	-1.5106049
254419699909210	0.33824158	-1.2823792	-1.4568329
254419703296661	0.33824158	-1.1785431	-1.4568329
254419709980011	0.57159424	-1.1785431	-1.3725433
254419715015411	0.6607971	-1.0527039	-1.3432312
254419720050811	0.7340851	-1.042923	-1.3248901
254419725086212	0.7939453	-1.0612488	-1.3139038
254419730335235	0.8452759	-1.0930023	-1.3065643
254419735157013	0.8452759	-1.1296539	-1.2992401
254419740192413	0.8941345	-1.1296539	-1.2992401
254419745441436	0.94299316	-1.1651001	-1.2894745
254419750293731	0.99064636	-1.1919861	-1.2748108
254419753650665	1.0358582	-1.2102966	-1.2564697
254419760334015	1.0773926	-1.2212982	-1.2332611
254419765338897	1.1091461	-1.2188568	-1.2002869
254419770404815	1.1213837	-1.187088	-1.1477509
254419775409698	1.1067047	-1.1015625	-1.0744476
254419780841827	1.0688477	-0.9598541	-0.9925995
254419785541534	1.0346375	-0.810791	-0.9131775
254419790546417	1.0248566	-0.72283936	-0.8447571
254419795856475	1.0554047	-0.7399292	-0.78245544
254419800647735	1.1238251	-0.8498993	-0.72013855
254419803943634	1.223999	-1.0001678	-0.6590576
254419810688018	1.3461609	-1.1406555	-0.596756
254419815753936	1.481781	-1.2457275	-0.53933716
254419820758819	1.6210632	-1.3153687	-0.48680115
254419825794220	1.753006	-1.3642273	-0.44526672
254419831287384	1.870285	-1.4045563	-0.41714478
254419835865020	1.9692535	-1.4436493	-0.40615845
254419840900421	2.049881	-1.483963	-0.41470337
254419846363067	2.117096	-1.5352783	-0.44403076
254419850971222	2.1757202	-1.6049194	-0.490448
254419854358673	2.1757202	-1.7002106	-0.490448
254419861042022	2.2905731	-1.7002106	-0.6175232
254419866077423	2.3577576	-1.9298859	-0.68592834
254419871112823	2.443283	-2.0227356	-0.74334717
254419876148224	2.5287933	-2.077713	-0.78733826
254419881397247	2.5068054	-2.0545044	-0.83499146
254419886188507	2.5068054	-1.8797913	-0.83499146
254419891223907	2.2026062	-1.8797913	-0.9229431
254419896503448	1.54776	-1.5218353	-1.0622253
254419901325225	0.72065735	-1.0624695	-1.2222595
254419904651642	0.048706055	-0.6825104	-1.348114
254419911396026	-0.26283264	-0.55178833	-1.414093
254419916400909	-0.24938965	-0.7350464	-1.4336243
254419921466827	-0.075912476	-1.1883087	-1.427536
254419926471710	0.1305542	-1.7747345	-1.412857
254419931751251	0.31747437	-2.297638	-1.4042969
254419936603546	0.46652222	-2.5749512	-1.4152985
254419941638946	0.5838165	-2.5407562	-1.4495087
254419946887970	0.69377136	-2.253662	-1.4983978
254419951679229	0.8281555	-1.8223724	-1.5484772
254419955036163	0.9955292	-1.31781	-1.580246
254419961750030	1.1702423	-0.7765808	-1.5753479
254419966754913	1.3193054	-0.24757385	-1.5240479
254419971820831	1.4329071	0.21176147	-1.4470673
254419976856231	1.5233154	0.56484985	-1.373764
254419983997345	1.59906	0.8104248	-1.3224487
254419986927032	1.666275	0.9680176	-1.309021
254419991962433	1.744461	1.0535278	-1.3676605
254419997394561	1.8519592	1.087738	-1.5252533
254420002063751	1.9900208	1.0950775	-1.7598267
254420005359649	1.9900208	1.0938568	-1.7598267
254420012134552	2.2710114	1.0938568	-2.1581116
254420017139434	2.385849	1.0608826	-2.2253113
254420022174835	2.385849	1.022995	-2.2167664
254420027179718	2.4811554	0.97657776	-2.2167664
254420032703399	2.6069794	0.97657776	-2.1031342
254420037311554	2.6069794	0.87028503	-2.1031342
254420042316436	2.631424	0.87028503	-2.0481567
254420047779083	2.6289825	0.8104248	-2.0225067
254420052387237	2.5984497	0.7346802	-2.0371704
254420055744171	2.548355	0.6222687	-2.0872498
254420062458038	2.4884796	0.46099854	-2.1532288
254420067462921	2.426178	0.25941467	-2.214325
254420072528839	2.3675232	0.044418335	-2.2497406
254420077564239	2.3162231	-0.15473938	-2.2546234
254420082874298	2.2673492	-0.32453918	-2.2424164
254420087635040	2.2087097	-0.4736023	-2.2375336
254420092639923	2.128067	-0.62265015	-2.2546234
254420097919464	2.024231	-0.7765808	-2.2949524
254420102741241	1.9130554	-0.91464233	-2.3450317
254420106098175	1.8092041	-0.98916626	-2.3963623
254420112812042	1.7151337	-0.96473694	-2.4488983
254420117816925	1.6332703	-0.85354614	-2.5136414
254420122852325	1.5697479	-0.7374878	-2.597931
254420127887725	1.5330963	-0.7387085	-2.6968842
254420133258819	1.5172119	-0.91952515	-2.7921906
254420137958526	1.5123291	-1.2274017	-2.864273
254420143024444	1.5147705	-1.5462646	-2.9009247
254420148242950	1.5306549	-1.8052826	-2.904602
254420153095245	1.5624084	-2.0056458	-2.8801575
254420156452179	1.5624084	-2.1620178	-2.8801575
254420163166046	1.6442719	-2.1620178	-2.7702026
254420168201446	1.6442719	-2.2670898	-2.6932373
254420173236847	1.6821594	-2.2670898	-2.6932373
254420178272247	1.7126923	-2.1889038	-2.6138153
254420183734893	1.7322388	-2.0484009	-2.5356293
254420188312530	1.7359009	-1.8675842	-2.4562225
254420193378448	1.7236938	-1.6660156	-2.365799
254420198749542	1.6968079	-1.4326477	-2.2558594
254420203449249	1.6613922	-1.1333313	-2.12146
254420206806183	1.6308289	-0.7448273	-1.9833984
254420213520050	1.6112976	-0.31721497	-1.8795624
254420218555450	1.5831757	0.03463745	-1.8343506
254420223590850	1.5220947	0.21543884	-1.8319092
254420228626251	1.4133759	0.22764587	-1.8319092
254420234088897	1.2679749	0.14335632	-1.8099213
254420238666534	1.1165009	0.023651123	-1.7781525
254420243701934	0.97720337	-0.11317444	-1.7573853
254420248950958	0.8599243	-0.26712036	-1.7512817
254420253803253	0.769516	-0.4271698	-1.7439423
254420257160186	0.71209717	-0.57011414	-1.7207336
254420263843536	0.69132996	-0.67274475	-1.6816406
254420268909454	0.70477295	-0.72528076	-1.6339874
254420273944854	0.74386597	-0.7387085	-1.5851288
254420278980255	0.8000641	-0.72528076	-1.5435791
254420284259796	0.8648071	-0.6983948	-1.5106049
254420289081573	0.9369049	-0.6690674	-1.4873962
254420294086456	1.0114136	-0.6483002	-1.4715118
254420299396515	1.0834961	-0.6556244	-1.4617462
254420304157257	1.1519165	-0.705719	-1.4556274
254420307514190	1.1519165	-0.7973633	-1.4556274
254420314228058	1.2130127	-0.7973633	-1.4470673
254420319263458	1.2667542	-0.88775635	-1.4263
254420324298858	1.3131866	-0.9207611	-1.3896484
254420329334259	1.3535156	-0.86698914	-1.3395538
254420334735870	1.3901672	-0.74360657	-1.2870331
254420339374542	1.4243774	-0.5970001	-1.2393799
254420344409942	1.4524689	-0.46138	-1.1990509
254420349689483	1.4683533	-0.35998535	-1.1611938
254420354511261	1.4646759	-0.30744934	-1.1245422
254420357837677	1.4402466	-0.3086548	-1.0842133
254420364582061	1.3999329	-0.36242676	-1.037796
254420369647979	1.3498383	-0.4564972	-0.97792053
254420374652862	1.3009644	-0.5652313	-0.8960724
254420379718780	1.2569885	-0.6507416	-0.7934418
254420385211944	1.2227783	-0.6715088	-0.67492676
254420389789581	1.2068939	-0.60676575	-0.5478821
254420394794464	1.2105713	-0.4577179	-0.41714478
254420400257110	1.2276611	-0.24757385	-0.28520203
254420404865265	1.2423248	-0.0044555664	-0.15815735
254420408252716	1.2423248	0.2349701	-0.049423218
254420414936065	1.1983337	0.4145813	0.031188965
254420419971466	1.1433563	0.47444153	0.09106445
254420425006866	1.0871735	0.4011383	0.15216064
254420430042267	1.040741	0.2716217	0.23890686
254420435352325	0.99432373	0.19099426	0.35250854
254420440082550	0.93566895	0.19833374	0.46736145
254420445148468	0.8636017	0.24841309	0.5553131
254420450428009	0.7939453	0.27897644	0.6017456
254420455219268	0.74386597	0.2875061	0.604187
254420458606720	0.74386597	0.3009491	0.604187
254420465320587	0.730423	0.3009491	0.5479889
254420470325470	0.7658539	0.32539368	0.4209137
254420475391388	0.8550415	0.34248352	0.2376709
254420480365753	0.98820496	0.3302765	0.06173706
254420485740701	1.1482391	0.29118347	-0.02986145
254420490470925	1.3058624	0.23132324	0.010421753
254420495506326	1.4390259	0.15924072	0.1716919
254420500755349	1.5416412	0.08226013	0.40014648
254420505577126	1.6076202	0.013870239	0.6225128
254420508964578	1.6345062	-0.03378296	0.79356384
254420515647927	1.6222687	-0.056991577	0.9047394
254420520683328	1.5844116	-0.053329468	0.96336365
254420525718728	1.5440826	-0.024002075	0.9829254
254420530754128	1.5220947	0.021209717	0.9658203
254420536216775	1.5269928	0.076171875	0.914505
254420540824929	1.5538635	0.12258911	0.8375397
254420545860329	1.5880585	0.14335632	0.74713135
254420551322976	1.6161804	0.13479614	0.6604004
254420555931130	1.6308289	0.11036682	0.5968628
254420559288064	1.6308289	0.095703125	0.5968628
254420566001931	1.6296234	0.095703125	0.5528717
254420571037331	1.6296234	0.20199585	0.5540924
254420576072732	1.6320648	0.34371948	0.5540924
254420581108132	1.6332703	0.53552246	0.5455475
254420586631814	1.6308289	0.7505646	0.5333252
254420591178933	1.6210632	0.957016	0.5247803
254420596214333	1.6015015	1.1256256	0.5296631
254420601554910	1.5721893	1.2392426	0.5504303
254420606285134	1.5721893	1.2929993	0.5504303
254420609672585	1.5355377	1.2929993	0.5931854
254420616386453	1.5001068	1.2966614	0.65792847
254420621360818	1.4732361	1.2697754	0.74102783
254420626426736	1.456131	1.2355652	0.83143616
254420631462136	1.4463501	1.2050323	0.91574097
254420636772195	1.4390259	1.1781464	0.97680664
254420641532937	1.4304657	1.1476135	1.0110168
254420646568337	1.4158173	1.1060638	1.019577
254420651878396	1.3938141	1.0523224	1.0036926
254420656639138	1.3632813	0.9997864	0.9658203
254420659996072	1.3217468	0.9643402	0.9071808
254420666709939	1.2704315	0.9545746	0.83143616
254420671745339	1.2142181	0.9680176	0.74591064
254420676780740	1.1555939	0.997345	0.65792847
254420681816140	1.0981598	1.0327606	0.5699768
254420687278787	1.0395203	1.0694122	0.48812866
254420691886941	0.97720337	1.1060638	0.41970825
254420696922341	0.90878296	1.1390533	0.37817383
254420702232400	0.83547974	1.1696014	0.36717224
254420706993142	0.7621918	1.1928253	0.38427734
254420710441628	0.7621918	1.2099152	0.38427734
254420717063943	0.637558	1.2099152	0.43803406
254420722129861	0.5789337	1.2087097	0.45391846
254420727104226	0.5153961	1.1781464	0.46124268
254420732170144	0.4408722	1.1182861	0.46736145
254420737632790	0.35780334	1.0327606	0.47956848
254420742240945	0.26739502	0.92892456	0.50401306
254420747276345	0.26739502	0.8153076	0.5394287
254420752769509	0.076797485	0.8153076	0.578537
254420757347146	0.076797485	0.5746155	0.578537
254420761589089	-0.016052246	0.5746155	0.6151886
254420767417947	-0.099121094	0.46221924	0.64328
254420772453347	-0.16752625	0.363266	0.6628418
254420777458230	-0.21638489	0.28141785	0.6726074
254420782524148	-0.24206543	0.21299744	0.66893005
254420788017312	-0.24815369	0.15924072	0.644516
254420792594949	-0.23838806	0.11647034	0.6005249
254420797660867	-0.21762085	0.08470154	0.5418854
254420802970925	-0.19317627	0.057861328	0.4820099
254420807701150	-0.16996765	0.03463745	0.42947388
254420811302224	-0.15286255	0.018753052	0.38427734
254420817771951	-0.14797974	0.012649536	0.34762573
254420822807351	-0.15776062	0.016311646	0.31463623
254420827842751	-0.18341064	0.024856567	0.2877655
254420832878152	-0.22006226	0.030975342	0.26455688
254420838218728	-0.26159668	0.030975342	0.24623108
254420843009988	-0.30192566	0.023651123	0.23155212
254420847984353	-0.3373413	0.0077667236	0.22058105
254420853721658	-0.3617859	-0.011795044	0.21566772
254420858055154	-0.37522888	-0.031341553	0.21810913
254420861686746	-0.37522888	-0.048431396	0.21810913
254420868156472	-0.3776703	-0.048431396	0.23399353
254420873161355	-0.37522888	-0.07409668	0.24134827
254420878196755	-0.3715515	-0.07043457	0.24378967
254420883293191	-0.3630066	-0.048431396	0.2376709
254420888694802	-0.3471222	-0.009338379	0.2242279
254420893302956	-0.3471222	0.037078857	0.2242279
254420898307839	-0.3287964	0.037078857	0.2083435
254420903617898	-0.30801392	0.08470154	0.18637085
254420908439675	-0.2896881	0.13235474	0.15336609
254420912559548	-0.27627563	0.19223022	0.108169556
254420918510476	-0.27503967	0.27041626	0.05319214
254420923515359	-0.2896881	0.3693695	-0.0030212402
254420928550759	-0.3214569	0.4842224	-0.05796814
254420933586160	-0.365448	0.61250305	-0.11050415
254420939079324	-0.4167633	0.7554474	-0.16059875
254420943656960	-0.46928406	0.90815735	-0.20333862
254420948692361	-0.5206146	1.0584412	-0.23510742
254420954032937	-0.56703186	1.1854858	-0.25222778
254420958763162	-0.6073456	1.280777	-0.2619934
254420963188210	-0.6378937	1.3516388	-0.27175903
254420968864480	-0.6574402	1.411499	-0.28399658
254420973869363	-0.6684418	1.4664917	-0.29988098
254420978904763	-0.6769867	1.5129089	-0.3206482
254420984947244	-0.6830902	1.5434418	-0.34629822
254420989280740	-0.6830902	1.5556793	-0.37928772
254420994041482	-0.6635437	1.552002	-0.41470337
254420999046365	-0.609787	1.5324707	-0.45259094
254421004447976	-0.5157318	1.4970245	-0.490448
254421009117165	-0.38865662	1.4396057	-0.5246582
254421013298074	-0.38865662	1.346756	-0.5246582
254421019187966	-0.12843323	1.346756	-0.55766296
254421024223367	-0.024597168	1.024231	-0.55522156
254421029258767	0.060913086	0.82263184	-0.5478821
254421034355203	0.12567139	0.6295929	-0.54177856
254421039634744	0.16600037	0.46221924	-0.54177856
254421044395486	0.16600037	0.32539368	-0.54177856
254421049400369	0.17941284	0.32539368	-0.5515442
254421054710427	0.16844177	0.21788025	-0.5747528
254421059471169	0.14399719	0.13969421	-0.6126251
254421063682595	0.11590576	0.08959961	-0.6627197
254421069572488	0.08169556	0.06762695	-0.7213745
254421074607888	0.040145874	0.0688324	-0.78245544
254421079643288	-0.0062713623	0.0859375	-0.8435364
254421084648171	-0.05392456	0.111587524	-0.8985138
254421090477029	-0.09422302	0.14335632	-0.9437103
254421094718972	-0.123550415	0.17756653	-0.97792053
254421099723855	-0.14065552	0.20932007	-0.9950409
254421105155984	-0.14553833	0.23252869	-0.9950409
254421109825173	-0.14309692	0.23864746	-0.9791565
254421114769021	-0.14065552	0.22520447	-0.95350647
254421119895974	-0.14431763	0.19223022	-0.9253845
254421125053445	-0.15652466	0.14457703	-0.8985138
254421129966775	-0.17118835	0.087142944	-0.8704071
254421135032693	-0.18341064	0.032196045	-0.83499146
254421140525857	-0.18951416	-0.0068969727	-0.7922363
254421145103494	-0.19197083	-0.020339966	-0.74702454
254421150108376	-0.19561768	-0.008117676	-0.7054901
254421155448953	-0.20539856	0.02973938	-0.6712799
254421160179177	-0.22128296	0.0859375	-0.6468353
254421164299050	-0.22128296	0.14579773	-0.6468353
254421170249978	-0.27627563	0.14579773	-0.6297455
254421175285378	-0.31047058	0.24964905	-0.6260681
254421180320779	-0.31047058	0.28630066	-0.6101837
254421185356179	-0.34101868	0.28630066	-0.6101837
254421190635720	-0.35446167	0.31074524	-0.5674286
254421195457497	-0.34222412	0.31806946	-0.50268555
254421200462380	-0.30436707	0.30827332	-0.43914795
254421205772439	-0.24815369	0.28141785	-0.40005493
254421210533181	-0.18341064	0.23864746	-0.39637756
254421214714089	-0.12109375	0.18244934	-0.41226196
254421220603982	-0.0697937	0.12258911	-0.42570496
254421225639382	-0.03804016	0.0712738	-0.42082214
254421230674783	-0.035598755	0.04197693	-0.38783264
254421235740701	-0.06611633	0.052963257	-0.3267517
254421241233865	-0.12721252	0.11282349	-0.24734497
254421245780984	-0.20539856	0.21176147	-0.17404175
254421250816384	-0.28359985	0.31806946	-0.12272644
254421256095925	-0.3507843	0.3999176	-0.10072327
254421260887185	-0.3996582	0.44877625	-0.09828186
254421265129128	-0.4289856	0.47322083	-0.108062744
254421270988503	-0.43507385	0.47688293	-0.12516785
254421276023904	-0.4155426	0.46099854	-0.14227295
254421281059304	-0.37643433	0.429245	-0.15325928
254421286064187	-0.32757568	0.39257813	-0.15325928
254421291954079	-0.2823639	0.3620453	-0.14471436
254421296134988	-0.2579193	0.3449402	-0.13005066
254421301170388	-0.25671387	0.33395386	-0.11050415
254421306633035	-0.2664795	0.31318665	-0.095840454
254421311241189	-0.2554779	0.2557373	-0.095840454
254421316368142	-0.20417786	0.1360321	-0.120269775
254421321311990	-0.12477112	-0.039886475	-0.16914368
254421327049294	-0.058792114	-0.22314453	-0.23146057
254421331382790	-0.058792114	-0.3501892	-0.23146057
254421336418191	-0.039276123	-0.3501892	-0.2962036
254421341728249	-0.067352295	-0.39663696	-0.34629822
254421346550027	-0.119888306	-0.3905182	-0.37805176
254421351524392	-0.17852783	-0.381958	-0.38905334
254421356956521	-0.24206543	-0.40519714	-0.38294983
254421361595193	-0.30801392	-0.4589386	-0.36706543
254421364952126	-0.37522888	-0.5236969	-0.3438568
254421371696511	-0.43507385	-0.58232117	-0.31697083
254421376701394	-0.48516846	-0.6214142	-0.29008484
254421381767312	-0.536499	-0.6348572	-0.2644348
254421386772195	-0.61590576	-0.62509155	-0.24855042
254421392448464	-0.74295044	-0.5994415	-0.24855042
254421396904031	-0.90545654	-0.55300903	-0.26567078
254421401878396	-1.065506	-0.47114563	-0.29988098
254421407615701	-1.1888885	-0.34165955	-0.3426361
254421411949197	-1.257309	-0.17062378	-0.38783264
254421415336648	-1.2658691	0.018753052	-0.42938232
254421422019997	-1.2059784	0.20687866	-0.46847534
254421427055398	-1.0850372	0.37425232	-0.50512695
254421432090798	-0.9274292	0.50619507	-0.542984
254421437156716	-0.7698364	0.5880585	-0.5784302
254421442619363	-0.63423157	0.6112671	-0.6077423
254421447196999	-0.52305603	0.58561707	-0.6309509
254421452201882	-0.43263245	0.53063965	-0.6468353
254421457634011	-0.35934448	0.4658966	-0.6578369
254421462303201	-0.29948425	0.4035797	-0.66516113
254421465660134	-0.29948425	0.3461609	-0.66516113
254421472404519	-0.25183105	0.3461609	-0.67004395
254421477439919	-0.21273804	0.29606628	-0.68104553
254421482444802	-0.18218994	0.24841309	-0.70425415
254421487480203	-0.15776062	0.20199585	-0.7421417
254421493003884	-0.13821411	0.15435791	-0.7897949
254421497551003	-0.12232971	0.10914612	-0.83987427
254421502586404	-0.107666016	0.0688324	-0.8887329
254421508201638	-0.09667969	0.03829956	-0.93518066
254421512687722	-0.08811951	0.023651123	-0.98280334
254421515983621	-0.08444214	0.028533936	-1.037796
254421522758523	-0.083236694	0.051742554	-1.1000977
254421527763406	-0.083236694	0.08959961	-1.1672821
254421532798806	-0.08444214	0.1360321	-1.2283783
254421537834206	-0.091781616	0.18489075	-1.2748108
254421544273415	-0.11254883	0.23376465	-1.2980194
254421547935525	-0.15776062	0.27897644	-1.3004608
254421552970925	-0.22738647	0.3217163	-1.2821503
254421558525124	-0.3165741	0.3681488	-1.2442627
254421563041726	-0.41430664	0.42556763	-1.1892853
254421566398660	-0.41430664	0.4976654	-1.1221008
254421573082009	-0.5767975	0.4976654	-1.0475769
254421578117410	-0.59635925	0.646698	-0.96939087
254421583152810	-0.54870605	0.699234	-0.88508606
254421588279763	-0.43263245	0.72732544	-0.79711914
254421593559304	-0.2713623	0.7285614	-0.71281433
254421598289529	-0.10888672	0.699234	-0.6382904
254421603324929	0.007171631	0.646698	-0.5784302
254421608665505	0.05480957	0.59417725	-0.52589417
254421613365212	0.05480957	0.5587311	-0.4721222
254421616752663	0.060913086	0.54408264	-0.4721222
254421623466531	0.080459595	0.54408264	-0.41349792
254421628471413	0.15499878	0.53308105	-0.34629822
254421633506814	0.28082275	0.5086365	-0.26567078
254421638542214	0.4164276	0.47077942	-0.17404175
254421644004861	0.5276184	0.4341278	-0.08239746
254421648613015	0.5972595	0.4170227	-0.007904053
254421653617898	0.6290283	0.42434692	0.034866333
254421659233132	0.61802673	0.45733643	0.039749146
254421663719216	0.5581665	0.5184326	0.009216309
254421667076150	0.45187378	0.61616516	-0.040863037
254421673820535	0.32359314	0.7444458	-0.092178345
254421678794900	0.20509338	0.88127136	-0.12882996
254421683860818	0.1134491	0.9997864	-0.13983154
254421688896218	0.043807983	1.0816498	-0.11538696
254421694389382	-0.005065918	1.1231842	-0.050628662
254421699211160	-0.02583313	1.1244049	0.051971436
254421704002419	-0.012390137	1.0840912	0.1765747
254421710044900	0.025482178	1.009552	0.3085327
254421714103738	0.07191467	0.91426086	0.43315125
254421717430154	0.07191467	0.81651306	0.43315125
254421724144021	0.13423157	0.81651306	0.6188507
254421729179421	0.14520264	0.6589203	0.67993164
254421734214822	0.15011597	0.61006165	0.73246765
254421739311257	0.15376282	0.57829285	0.7911072
254421744560281	0.162323	0.55384827	0.8583069
254421749687234	0.17941284	0.5159912	0.93162537
254421754386941	0.21118164	0.44877625	1.0049133
254421760276833	0.2649536	0.3449402	1.072113
254421764457742	0.2649536	0.22032166	1.072113
254421767784158	0.34436035	0.22032166	1.1307526
254421774498025	0.4408722	0.09326172	1.184494
254421779686013	0.5398407	-0.011795044	1.2345886
254421784568826	0.6314697	-0.07897949	1.2859192
254421790000954	0.7145386	-0.096084595	1.3359985
254421795097390	0.7841797	-0.064315796	1.3885345
254421799949685	0.8403778	0.0065307617	1.4423065
254421804710427	0.8794861	0.09938049	1.4984894
254421809837380	0.90390015	0.19467163	1.5473633
254421814811746	0.91734314	0.27285767	1.5803375
254421818107644	0.91734314	0.32661438	1.5840149
254421824913064	0.90145874	0.35716248	1.5534668
254421830009499	0.86724854	0.3693695	1.4936066
254421834953347	0.8159485	0.3681488	1.4129791
254421840049783	0.7487488	0.3534851	1.3188934
254421845787087	0.66812134	0.3302765	1.2187042
254421850364724	0.58013916	0.3033905	1.119751
254421855094949	0.4885254	0.2826233	1.031784
254421861686746	0.4005432	0.27774048	0.9597168
254421865135232	0.32359314	0.29606628	0.901062
254421868492165	0.32359314	0.3351593	0.901062
254421875236550	0.21362305	0.3351593	0.81677246
254421880363503	0.17697144	0.42190552	0.79600525
254421885276833	0.15011597	0.45367432	0.7886658
254421890495339	0.13667297	0.48542786	0.7886658
254421895622292	0.13787842	0.5184326	0.7923279
254421901237527	0.15499878	0.5428467	0.79844666
254421905448953	0.15499878	0.5428467	0.79844666
254421911064187	0.22096252	0.5428467	0.84732056
254421915519753	0.22096252	0.46466064	0.84732056
254421918907204	0.26249695	0.46466064	0.888855
254421925560037	0.30648804	0.40480042	0.93162537
254421930809060	0.34680176	0.34127808	0.9658203
254421935630837	0.37368774	0.2691803	0.9853668
254421941581765	0.379776	0.18855286	0.9865875
254421946006814	0.3614502	0.09938049	0.9719238
254421951652566	0.31871033	0.0065307617	0.94503784
254421955772439	0.25395203	-0.0826416	0.91082764
254421961387673	0.17208862	-0.17062378	0.8705292
254421965843240	0.07923889	-0.26345825	0.8240967
254421969261208	-0.01727295	-0.37098694	0.77156067
254421975914040	-0.11376953	-0.4943695	0.71414185
254421981346169	-0.20906067	-0.62753296	0.65792847
254421986015359	-0.29580688	-0.7570343	0.6066284
254421991966287	-0.3630066	-0.88531494	0.5565338
254421996543923	-0.3959961	-1.0184937	0.5027771
254422001945535	-0.3947754	-1.1320953	0.44535828
254422006126443	-0.3666687	-1.1687622	0.39282227
254422011802712	-0.32025146	-1.0759125	0.35006714
254422016227761	-0.26283264	-0.8706665	0.31097412
254422019584695	-0.26283264	-0.6263275	0.31097412
254422026298562	-0.14553833	-0.6263275	0.2364502
254422031730691	-0.102767944	-0.24147034	0.20957947
254422036338845	-0.07345581	-0.11929321	0.19490051
254422042167703	-0.058792114	-0.041107178	0.19125366
254422046867410	-0.060028076	0.0053253174	0.19490051
254422052757302	-0.07711792	0.043182373	0.20713806
254422056480447	-0.07711792	0.0859375	0.20713806
254422062400857	-0.12721252	0.0859375	0.2376709
254422066551247	-0.12721252	0.12503052	0.2376709
254422069908181	-0.14553833	0.12503052	0.23522949
254422076622048	-0.15652466	0.07737732	0.20957947
254422082420388	-0.16264343	-0.0068969727	0.16436768
254422086692849	-0.16630554	-0.10096741	0.11305237
254422092552224	-0.16874695	-0.18159485	0.06663513
254422097068826	-0.17608643	-0.24269104	0.034866333
254422103294412	-0.19073486	-0.28912354	0.012863159
254422106834451	-0.21638489	-0.33187866	-0.011550903
254422112846413	-0.25183105	-0.381958	-0.048187256
254422116935769	-0.29212952	-0.4430542	-0.108062744
254422120262185	-0.32389832	-0.500473	-0.18992615
254422126976052	-0.3312378	-0.5175781	-0.286438
254422133018533	-0.3141327	-0.46138	-0.38294983
254422137046853	-0.2896881	-0.34042358	-0.4586792
254422149253884	-0.3055725	-0.20359802	-0.45135498
254422152824441	-0.3483429	-0.048431396	-0.36340332
254422157218972	-0.38987732	-0.03378296	-0.24246216
254422164238015	-0.41064453	-0.032562256	-0.11294556
254422167259255	-0.4020996	-0.01789856	0.016540527
254422170616189	-0.4020996	0.035858154	0.016540527
254422177360574	-0.3214569	0.035858154	0.26455688
254422183433572	-0.27015686	0.28141785	0.37937927
254422187400857	-0.22738647	0.4121399	0.49423218
254422193717996	-0.21394348	0.48298645	0.61763
254422197959939	-0.24082947	0.46221924	0.7520294
254422204002419	-0.3031311	0.35472107	0.887619
254422207572976	-0.3031311	0.18489075	0.887619
254422213737527	-0.3862152	0.18489075	1.0989838
254422217613259	-0.3862152	-0.18771362	1.0989838
254422220970193	-0.3459015	-0.18771362	1.1686096
254422227684060	-0.25183105	-0.31355286	1.2285004
254422234062234	-0.12843323	-0.3587494	1.2956848
254422237754861	-1.6784668E-4	-0.31965637	1.3812103
254422244102517	0.11590576	-0.21580505	1.4789429
254422248100320	0.2099762	-0.071640015	1.5693512
254422252861062	0.27716064	0.08105469	1.6365509
254422257896462	0.31259155	0.20565796	1.6732025
254422263450662	0.31625366	0.2716217	1.6768494
254422267997781	0.29182434	0.2642975	1.6463165
254422271354714	0.24906921	0.18977356	1.5827789
254422278038064	0.20385742	0.07249451	1.5009308
254422284538308	0.16600037	-0.05455017	1.4129791
254422288139382	0.14155579	-0.164505	1.324997
254422293144265	0.13911438	-0.24513245	1.2358246
254422298515359	0.1647644	-0.29522705	1.1356354
254422303245583	0.22462463	-0.329422	1.0220184
254422308250466	0.31015015	-0.35998535	0.888855
254422313591042	0.41033936	-0.3978424	0.7385864
254422318321267	0.5092926	-0.4381714	0.5711975
254422321678201	0.5092926	-0.46138	0.5711975
254422328392068	0.62290955	-0.46138	0.19369507
254422335075417	0.59358215	-0.4064026	0.027542114
254422338462869	0.59358215	-0.33554077	0.027542114
254422343498269	0.5044098	-0.33554077	-0.072631836
254422348991433	0.38345337	-0.25369263	0.022659302
254422353569070	0.27349854	-0.08631897	0.022659302
254422358604470	0.20629883	-0.08631897	0.20101929
254422363945046	0.18185425	-0.016677856	0.43315125
254422368675271	0.17208862	0.028533936	0.68725586
254422372032204	0.14155579	0.044418335	0.9303894
254422378776589	0.07069397	0.043182373	1.1380768
254422383781472	-0.02947998	0.044418335	1.2956848
254422388816872	-0.13331604	0.05418396	1.4007416
254422393852273	-0.22250366	0.0688324	1.4667206
254422399284402	-0.29336548	0.0712738	1.509491
254422403953591	-0.352005	0.055419922	1.5388031
254422408958474	-0.3984375	0.02609253	1.5498047
254422414451638	-0.4363098	-0.0032348633	1.5388031
254422419059792	-0.47540283	-0.016677856	1.5107117
254422422355691	-0.5267029	4.272461E-4	1.482605
254422429100076	-0.59880066	0.059066772	1.4728394
254422434104958	-0.6940918	0.15679932	1.4936066
254422439201394	-0.8016052	0.27285767	1.5437012
254422444206277	-0.90789795	0.3669281	1.6084442
254422449668923	-0.99220276	0.3876953	1.6658783
254422454277078	-1.037384	0.31074524	1.7061768
254422459312478	-1.025177	0.15679932	1.7306213
254422464836160	-0.9518738	-0.011795044	1.7416229
254422469383279	-0.82969666	-0.120529175	1.7440643
254422472740212	-0.82969666	-0.12905884	1.7440643
254422479484597	-0.57559204	-0.12905884	1.7110596
254422484458962	-0.57559204	0.08226013	1.7110596
254422489555398	-0.49128723	0.08226013	1.6756439
254422494560281	-0.44241333	0.22888184	1.6292267
254422499900857	-0.431427	0.3657074	1.5791321
254422504661599	-0.4631958	0.47688293	1.5290375
254422509666482	-0.5340576	0.5404053	1.483841
254422515312234	-0.6195679	0.5428467	1.4447479
254422519737283	-0.6940918	0.4842224	1.4178619
254422523094216	-0.74050903	0.3876953	1.3983002
254422529808083	-0.755188	0.2899475	1.3812103
254422534874001	-0.73194885	0.22888184	1.36409
254422539909402	-0.6647644	0.22520447	1.3580017
254422544914285	-0.5548248	0.27653503	1.377533
254422550376931	-0.41064453	0.3534851	1.430069
254422554954568	-0.25183105	0.42312622	1.5131531
254422560020486	-0.1015625	0.45977783	1.6206665
254422565422097	0.018157959	0.45121765	1.7501678
254422570091287	0.089019775	0.3852539	1.8918915
254422573448220	0.10366821	0.25697327	2.0311584
254422580223122	0.06947327	0.083496094	2.147232
254422585197488	0.01449585	-0.09120178	2.2266388
254422590232888	-0.018493652	-0.22192383	2.2620697
254422595298806	0.0034942627	-0.29644775	2.2596283
254422600700417	0.08534241	-0.33065796	2.2229767
254422605339089	0.1965332	-0.3477478	2.1496735
254422610405007	0.29426575	-0.35754395	2.038498
254422615898171	0.35168457	-0.36486816	1.8906555
254422620445290	0.3638916	-0.3795166	1.7208557
254422623802224	0.3638916	-0.40396118	1.7208557
254422630546609	0.34191895	-0.40396118	1.5424805
254422635551492	0.29670715	-0.4320526	1.368988
254422640617410	0.23562622	-0.44429016	1.2052917
254422645652810	0.1647644	-0.4320526	1.0574493
254422651390115	0.08534241	-0.38807678	0.9352722
254422655693093	0.0022735596	-0.31721497	0.8375397
254422660759011	-0.0856781	-0.22558594	0.75691223
254422666069070	-0.17118835	-0.12297058	0.68237305
254422670799294	-0.24938965	-0.019119263	0.6103058
254422674217263	-0.30924988	0.06762695	0.5406647
254422680900613	-0.3483429	0.1335907	0.47956848
254422685905496	-0.3678894	0.17756653	0.42703247
254422690940896	-0.37399292	0.20687866	0.37937927
254422695976296	-0.37277222	0.22399902	0.33540344
254422701316872	-0.3666687	0.23008728	0.29753113
254422706077615	-0.3556671	0.22399902	0.2706604
254422711113015	-0.3373413	0.20077515	0.2584381
254422716850320	-0.3141327	0.15679932	0.254776
254422721153298	-0.2848053	0.092056274	0.24743652
254422724540749	-0.2848053	0.023651123	0.24743652
254422731254617	-0.22618103	0.023651123	0.19369507
254422736290017	-0.20295715	-0.04598999	0.15092468
254422741294900	-0.18218994	-0.031341553	0.11427307
254422746330300	-0.16020203	0.01020813	0.10206604
254422751853982	-0.14065552	0.0688324	0.12893677
254422756431619	-0.13453674	0.13479614	0.18881226
254422761467019	-0.15042114	0.20443726	0.24987793
254422767326394	-0.18218994	0.27285767	0.2755432
254422771507302	-0.18218994	0.3400421	0.26087952
254422774864236	-0.22250366	0.3400421	0.26087952
254422781608621	-0.2640381	0.40968323	0.22666931
254422786644021	-0.2982483	0.4842224	0.19734192
254422791648904	-0.3165741	0.55752563	0.18513489
254422796684304	-0.31536865	0.61616516	0.18269348
254422802207986	-0.29580688	0.6528168	0.18269348
254422806785622	-0.2640381	0.673584	0.17781067
254422811821023	-0.22862244	0.685791	0.16680908
254422817680398	-0.19685364	0.6882477	0.15092468
254422821861306	-0.17240906	0.66625977	0.13383484
254422825248757	-0.15776062	0.621048	0.12159729
254422831962624	-0.15286255	0.5685272	0.11795044
254422836936990	-0.15898132	0.53308105	0.13015747
254422842033425	-0.17852783	0.5318756	0.15704346
254422847068826	-0.21029663	0.5611725	0.19613647
254422852775613	-0.25915527	0.61860657	0.24255371
254422857109109	-0.34101868	0.7138977	0.3036499
254422862175027	-0.45095825	0.88005066	0.38427734
254422867515603	-0.54382324	1.1182861	0.4685669
254422872215310	-0.5609131	1.333313	0.5137787
254422875572244	-0.5609131	1.3919525	0.5137787
254422882316628	-0.40942383	1.3919525	0.42826843
254422887290994	-0.3532257	0.96069336	0.37449646
254422892356912	-0.3287964	0.6894684	0.36228943
254422897392312	-0.31169128	0.5025482	0.38549805
254422902885476	-0.2896881	0.38891602	0.41970825
254422907463113	-0.27503967	0.3143921	0.4502411
254422912498513	-0.27627563	0.26065063	0.46980286
254422917839089	-0.28604126	0.23008728	0.47592163
254422922569314	-0.28604126	0.22399902	0.47592163
254422925926247	-0.29092407	0.22399902	0.4685669
254422932670632	-0.28359985	0.23132324	0.45759583
254422937706033	-0.2689209	0.23376465	0.44659424
254422942741433	-0.25915527	0.21910095	0.43927002
254422947746316	-0.2554779	0.20199585	0.44047546
254422953269997	-0.25427246	0.20321655	0.45147705
254422957878152	-0.24571228	0.22888184	0.4661255
254422962883035	-0.22738647	0.2642975	0.47224426
254422968803445	-0.20051575	0.27285767	0.46247864
254422972923318	-0.17608643	0.22888184	0.4526825
254422976280251	-0.16020203	0.12503052	0.46003723
254422983085671	-0.15286255	-0.016677856	0.49179077
254422988029519	-0.16386414	-0.15838623	0.5431061
254422993095437	-0.20785522	-0.24757385	0.6090698
254422998130837	-0.29580688	-0.22070313	0.69581604
254423003440896	-0.3972168	-0.044769287	0.80332947
254423008171121	-0.45095825	0.22032166	0.9218292
254423013237038	-0.417984	0.4316864	1.0342407
254423018760720	-0.32025146	0.46099854	1.1246338
254423023307839	-0.21273804	0.29486084	1.1930542
254423026634255	-0.21273804	0.027297974	1.1930542
254423033348122	-0.07467651	0.027297974	1.2859192
254423038353005	-0.027038574	-0.37342834	1.3152313
254423043449441	0.016937256	-0.40519714	1.3408813
254423048484841	0.052368164	-0.32821655	1.3738861
254423054283181	0.07801819	-0.18650818	1.4178619
254423058555642	0.092681885	-0.022781372	1.470398
254423063560525	0.092681885	0.1335907	1.470398
254423068931619	0.09512329	0.1335907	1.5681305
254423073631326	0.09024048	0.26553345	1.5681305
254423076988259	0.08778381	0.35836792	1.6060028
254423083732644	0.0987854	0.40724182	1.6401978
254423088768044	0.11834717	0.4329071	1.674408
254423093803445	0.13543701	0.47688293	1.7074127
254423098808328	0.1464386	0.56973267	1.7342834
254423104728738	0.15864563	0.6943512	1.7501678
254423108909646	0.1806488	0.8018646	1.7623901
254423113945046	0.21118164	0.8519592	1.7770386
254423119773904	0.23440552	0.83851624	1.8051453
254423123985329	0.24050903	0.7847748	1.850357
254423127342263	0.22950745	0.71635437	1.9065399
254423134056130	0.2124176	0.6528168	1.9651947
254423139091531	0.19897461	0.60150146	2.0152893
254423144126931	0.19285583	0.55996704	2.050705
254423149162331	0.1965332	0.51963806	2.064148
254423154563943	0.20629883	0.45977783	2.0470428
254423159202615	0.21852112	0.3620453	1.9945221
254423164268533	0.22950745	0.21420288	1.9040985
254423169731179	0.23684692	0.02609253	1.784378
254423174339333	0.23928833	-0.18405151	1.6475525
254423177696267	0.23928833	-0.38687134	1.6475525
254423184410134	0.2124176	-0.38687134	1.3433228
254423189384499	0.17697144	-0.67030334	1.184494
254423194450417	0.12931824	-0.7350464	1.0305786
254423199516335	0.07435608	-0.7655945	0.8851776
254423204734841	0.015716553	-0.7729187	0.75079346
254423209587136	0.015716553	-0.7619324	0.75079346
254423214622537	-0.04536438	-0.7619324	0.6237335
254423219871560	-0.11254883	-0.7313843	0.50645447
254423224693337	-0.18096924	-0.68862915	0.4025879
254423228050271	-0.24082947	-0.6422119	0.31097412
254423234764138	-0.28115845	-0.59332275	0.22790527
254423239738503	-0.30192566	-0.5322418	0.14970398
254423244834939	-0.31292725	-0.4552765	0.08128357
254423249870339	-0.32269287	-0.37342834	0.02998352
254423255119363	-0.3373413	-0.30377197	-0.0042266846
254423259941140	-0.35810852	-0.25247192	-0.023773193
254423264946023	-0.3825531	-0.21704102	-0.034744263
254423270256081	-0.40942383	-0.19015503	-0.03842163
254423275047341	-0.43019104	-0.17550659	-0.037200928
254423278404275	-0.43875122	-0.17306519	-0.032302856
254423285118142	-0.431427	-0.1803894	-0.0262146
254423290184060	-0.41064453	-0.19503784	-0.0152282715
254423295158425	-0.3801117	-0.22314453	-0.0030212402
254423300254861	-0.34346008	-0.26835632	0.011657715
254423305625954	-0.29948425	-0.32577515	0.023864746
254423310295144	-0.25183105	-0.3843994	0.036087036
254423315361062	-0.20417786	-0.4418335	0.04953003
254423320793191	-0.16020203	-0.49925232	0.06295776
254423325370828	-0.12109375	-0.55178833	0.07518005
254423328758279	-0.12109375	-0.5945587	0.07518005
254423335502663	-0.06491089	-0.5945587	0.07762146
254423340477029	-0.051483154	-0.6214142	0.06539917
254423345542947	-0.047805786	-0.6080017	0.043426514
254423350547829	-0.047805786	-0.5811157	0.043426514
254423355827371	-0.047805786	-0.5811157	-0.042099
254423360649148	-0.04536438	-0.5469055	-0.042099
254423365684548	-0.03315735	-0.5065918	-0.10195923
254423371116677	-0.013595581	-0.4601593	-0.1593628
254423375755349	0.007171631	-0.4112854	-0.20457458
254423379112283	0.024261475	-0.36242676	-0.2412262
254423385826150	0.04258728	-0.31965637	-0.2754364
254423390831033	0.0670166	-0.29156494	-0.312088
254423395896951	0.0987854	-0.29278564	-0.34873962
254423400901833	0.13423157	-0.33677673	-0.38417053
254423406150857	0.16844177	-0.42352295	-0.41226196
254423411003152	0.19773865	-0.5420227	-0.43426514
254423416038552	0.22341919	-0.67640686	-0.45014954
254423421318093	0.24662781	-0.8132477	-0.46115112
254423426109353	0.26861572	-0.93785095	-0.46359253
254423429466287	0.29304504	-1.0368195	-0.45503235
254423436180154	0.31747437	-1.0991211	-0.44158936
254423441185037	0.34191895	-1.1284485	-0.43058777
254423446250954	0.366333	-1.1418915	-0.42694092
254423451286355	0.39445496	-1.1589813	-0.42204285
254423456718484	0.4249878	-1.1883087	-0.40493774
254423461357156	0.44943237	-1.2176361	-0.36706543
254423466362038	0.46287537	-1.2225189	-0.31330872
254423471702615	0.4640808	-1.1785431	-0.25222778
254423476463357	0.4555359	-1.0869141	-0.1960144
254423479850808	0.4555359	-0.963501	-0.1960144
254423486534158	0.432312	-0.963501	-0.10928345
254423491600076	0.43110657	-0.7216034	-0.08239746
254423496604958	0.43110657	-0.6372986	-0.08239746
254423501640359	0.44943237	-0.6372986	-0.060424805
254423507041970	0.4958496	-0.58843994	-0.03842163
254423511711160	0.5618286	-0.57011414	-0.011550903
254423516746560	0.6314697	-0.57133484	0.015319824
254423522209206	0.68400574	-0.57743835	0.036087036
254423526817361	0.7133179	-0.566452	0.048309326
254423530174294	0.7243042	-0.52246094	0.05319214
254423536888162	0.72676086	-0.43449402	0.050750732
254423541923562	0.7292023	-0.31233215	0.036087036
254423546958962	0.7401886	-0.18771362	0.004333496
254423551963845	0.7670746	-0.0973053	-0.039657593
254423557243386	0.8147125	-0.06919861	-0.08729553
254423562095681	0.8733673	-0.10220337	-0.13859558
254423567100564	0.9283447	-0.177948	-0.193573
254423572593728	0.96865845	-0.26957703	-0.259552
254423577171365	0.98820496	-0.35998535	-0.33529663
254423580528298	0.99064636	-0.4430542	-0.40371704
254423587211648	0.9759979	-0.52001953	-0.44526672
254423592277566	0.94667053	-0.5945587	-0.44770813
254423597312966	0.9161377	-0.66786194	-0.41838074
254423602348367	0.90878296	-0.7362671	-0.36462402
254423607566872	0.94667053	-0.7936859	-0.28399658
254423612419167	1.0370789	-0.83522034	-0.18013
254423617454568	1.1653595	-0.8731079	-0.07507324
254423622703591	1.3144073	-0.92684937	-0.0054626465
254423627525369	1.4756775	-1.0013885	0.014099121
254423630882302	1.4756775	-1.0759125	0.014099121
254423637596169	1.6515961	-1.0759125	-0.040863037
254423642631570	1.845871	-1.1308899	-0.040863037
254423647636453	2.0523224	-1.1308899	-0.07873535
254423652702371	2.246582	-1.1186829	-0.11050415
254423658103982	2.4090881	-1.1223297	-0.13859558
254423662803689	2.5324707	-1.1565399	-0.16792297
254423667839089	2.6167755	-1.1907501	-0.20581055
254423673301736	2.6534271	-1.1699829	-0.26078796
254423677848855	2.6424255	-1.0697937	-0.33651733
254423681236306	2.5947723	-0.91708374	-0.42326355
254423687950173	2.541031	-0.7484894	-0.50268555
254423692985574	2.5019226	-0.57499695	-0.5491028
254423698020974	2.4811554	-0.40396118	-0.5539856
254423703056374	2.4579468	-0.26835632	-0.5222168
254423708335915	2.4115295	-0.20481873	-0.46723938
254423713127175	2.333313	-0.20481873	-0.40249634
254423718162576	2.2258148	-0.21948242	-0.33529663
254423723625222	2.0975342	-0.21459961	-0.272995
254423728233376	1.9558105	-0.19871521	-0.2277832
254423731590310	1.8043213	-0.18527222	-0.2094574
254423738304177	1.652832	-0.16818237	-0.2253418
254423743309060	1.5159912	-0.14006042	-0.28276062
254423748374978	1.4060516	-0.10340881	-0.38050842
254423753410378	1.3253937	-0.055770874	-0.5087738
254423758659402	1.2728729	0.024856567	-0.6431732
254423763511697	1.2472076	0.15802002	-0.7580261
254423768516579	1.2447662	0.33395386	-0.841095
254423773796121	1.2606506	0.5135498	-0.8985138
254423778587380	1.2863007	0.6625824	-0.9376221
254423781944314	1.2863007	0.7700958	-0.9376221
254423788627663	1.3131866	0.7700958	-0.9547119
254423793663064	1.3363953	0.8495178	-0.9339447
254423798698464	1.3583984	0.91426086	-0.8679657
254423803764382	1.3803711	0.9680176	-0.7641144
254423808982888	1.3986969	0.9985504	-0.6468353
254423813835183	1.3999329	0.99002075	-0.5405426
254423818870583	1.3730469	0.9386902	-0.45135498
254423824119607	1.3107452	0.86050415	-0.37194824
254423828941384	1.2166595	0.77742004	-0.29743958
254423832298318	1.0932617	0.6967926	-0.22413635
254423839012185	0.95033264	0.6088257	-0.1593628
254423844047585	0.8012848	0.5025482	-0.108062744
254423849082986	0.6632385	0.3803711	-0.07751465
254423854087869	0.5447235	0.26065063	-0.06651306
254423859550515	0.445755	0.16656494	-0.07019043
254423864219704	0.36268616	0.11402893	-0.08239746
254423869224587	0.29670715	0.1018219	-0.095840454
254423874992410	0.24539185	0.1177063	-0.10928345
254423879295388	0.1965332	0.14823914	-0.11904907
254423882652322	0.1965332	0.18489075	-0.11904907
254423889366189	0.057250977	0.18489075	-0.14103699
254423894371072	-0.04171753	0.26185608	-0.1618042
254423899436990	-0.14797974	0.28874207	-0.18746948
254423904472390	-0.2505951	0.30827332	-0.21069336
254423909721413	-0.3446808	0.3351593	-0.22657776
254423914543191	-0.43507385	0.3803711	-0.23510742
254423919609109	-0.52305603	0.44145203	-0.24490356
254423925071755	-0.60246277	0.5001068	-0.26322937
254423929618874	-0.60246277	0.54164124	-0.26322937
254423933006326	-0.6684418	0.54164124	-0.29008484
254423939689675	-0.7185364	0.5611725	-0.31330872
254423944725076	-0.76371765	0.5709686	-0.31330872
254423949790994	-0.8101654	0.57829285	-0.2705536
254423954826394	-0.85658264	0.5929413	-0.16548157
254423960075417	-0.90789795	0.6222687	0.011657715
254423964897195	-0.9689636	0.6784668	0.24867249
254423969902078	-1.050827	0.7676544	0.50645447
254423976829568	-1.2743988	0.87272644	0.9047394
254423979972878	-1.2743988	1.0071106	0.9047394
254423983360329	-1.3990173	1.0071106	0.9988098
254423990104714	-1.5224152	1.0291138	1.0305786
254423995079079	-1.6384888	1.063324	1.0122528
254424000114480	-1.7362213	1.1366119	0.94747925
254424005180398	-1.7997589	1.2368011	0.8253174
254424010551492	-1.8217468	1.3223114	0.6420593
254424015281716	-1.7997589	1.3565216	0.40994263
254424020317117	-1.7398987	1.3320923	0.16313171
254424026023904	-1.6433716	1.2648926	-0.06163025
254424030357400	-1.5102081	1.175705	-0.2412262
254424033714333	-1.5102081	1.0718536	-0.2412262
254424040428201	-1.1326904	1.0718536	-0.46847534
254424045463601	-0.920105	0.7627716	-0.53445435
254424050499001	-0.72950745	0.5502014	-0.5747528
254424055564919	-0.5719147	0.3192749	-0.5894165
254424060783425	-0.44119263	0.092056274	-0.5784302
254424065605203	-0.3190155	-0.13150024	-0.54177856
254424070640603	-0.3190155	-0.37098694	-0.48312378
254424076103249	-0.018493652	-0.6641846	-0.40737915
254424080711404	-0.018493652	-1.0319366	-0.40737915
254424084068337	0.18309021	-1.0319366	-0.325531
254424090782204	0.40422058	-1.4387665	-0.24978638
254424095817605	0.61190796	-1.768631	-0.18992615
254424100853005	0.7707367	-1.8956757	-0.14593506
254424105888406	0.8574829	-1.7869568	-0.10195923
254424111137429	0.8648071	-1.549942	-0.023773193
254424115959206	0.7976227	-1.3617859	0.11671448
254424120994607	0.6717682	-1.3373718	0.3012085
254424126457253	0.5190582	-1.4619751	0.48568726
254424131065408	0.366333	-1.6256866	0.63227844
254424134422341	0.21606445	-1.6879883	0.7385864
254424141166726	0.045028687	-1.5450592	0.8302002
254424146141091	-0.15286255	-1.1638641	0.9377136
254424151207009	-0.34222412	-0.58721924	1.0867767
254424156242410	-0.45584106	0.092056274	1.2871246
254424161460915	-0.43875122	0.75909424	1.5314789
254424166313210	-0.30192566	1.29422	1.780716
254424171348611	-0.123550415	1.5874329	1.9737549
254424176628152	-0.016052246	1.5507965	2.0617065
254424181449929	-0.070999146	1.1696014	2.0360565
254424184745828	-0.070999146	0.54164124	2.0360565
254424191520730	-0.70874023	0.54164124	1.7990417
254424196556130	-1.1669006	-0.7900238	1.6732025
254424201530496	-1.6091614	-1.2591705	1.5571289
254424206596413	-1.9781189	-1.5670319	1.4398346
254424211998025	-2.243225	-1.7270813	1.3127899
254424216697732	-2.243225	-1.7283173	1.1661682
254424221702615	-2.3898468	-1.5413818	1.1661682
254424227165261	-2.3238678	-1.5413818	0.81555176
254424231742898	-2.3238678	-0.63853455	0.81555176
254424235130349	-2.1418304	-0.63853455	0.6335144
254424241844216	-1.9011536	-0.0826416	0.46736145
254424246879617	-1.6274872	0.4035797	0.33174133
254424251884499	-1.3318329	0.76641846	0.2401123
254424256950417	-1.0239716	1.0059052	0.19369507
254424262290994	-0.7380676	1.1488342	0.18637085
254424267021218	-0.53038025	1.2160339	0.2034607
254424272026101	-0.44363403	1.2160339	0.23890686
254424277519265	-0.48272705	1.1622772	0.2914276
254424282127419	-0.6110077	1.0706482	0.36839294
254424285514871	-0.7857208	0.9545746	0.46736145
254424292198220	-0.9689636	0.81163025	0.5895233
254424297203103	-1.1290283	0.6295929	0.736145
254424302269021	-1.24263	0.3974762	0.914505
254424307304421	-1.296402	0.11036682	1.1270752
254424312522927	-1.2927246	-0.21948242	1.3677673
254424317375222	-1.24263	-0.56399536	1.6182251
254424322410622	-1.1583557	-0.8938751	1.8491211
254424327720681	-1.050827	-1.1858673	2.0348358
254424332481423	-0.9274292	-1.4326477	2.1496735
254424335838357	-0.9274292	-1.6220093	2.1496735
254424342521706	-0.6721039	-1.6220093	2.020172
254424347557107	-0.54626465	-1.7307587	1.7025299
254424352623025	-0.4167633	-1.5951538	1.2052917
254424357688943	-0.2738037	-1.3569031	0.5834198
254424363060037	-0.104003906	-1.1162109	-0.076293945
254424367729226	-0.104003906	-0.99772644	-0.076293945
254424372764626	0.092681885	-0.99772644	-0.67248535
254424378074685	0.29914856	-1.0893555	-1.1269836
254424382865945	0.472641	-1.3849945	-1.4042969
254424386192361	0.57037354	-1.780838	-1.5081635
254424392936746	0.57037354	-2.144928	-1.4641876
254424398002663	0.4934082	-2.3831482	-1.3102417
254424402977029	0.38101196	-2.4723358	-1.1037598
254424408042947	0.26249695	-2.432022	-0.9058533
254424413383523	0.13667297	-2.2793121	-0.77023315
254424418113747	-0.011154175	-2.0276337	-0.72502136
254424423179665	-0.17118835	-1.7246399	-0.77023315
254424428642312	-0.31169128	-1.4387665	-0.8655243
254424433189431	-0.3996582	-1.2029724	-0.9547119
254424436546365	-0.4289856	-0.99282837	-0.9913635
254424443260232	-0.41430664	-0.7668152	-0.9608307
254424448265115	-0.3801117	-0.4894867	-0.8753052
254424453392068	-0.35690308	-0.15718079	-0.7714691
254424458396951	-0.35810852	0.17022705	-0.69325256
254424463798562	-0.37399292	0.3840332	-0.67248535
254424468437234	-0.3825531	0.4035797	-0.7006073
254424473472634	-0.3801117	0.2667389	-0.73358154
254424478996316	-0.3862152	0.09814453	-0.73358154
254424483543435	-0.42042542	-0.0056762695	-0.70181274
254424486930886	-0.42042542	-0.039886475	-0.70181274
254424493644753	-0.5548248	-0.039886475	-0.6272888
254424498619119	-0.6207886	-0.067993164	-0.59552
254424503715554	-0.662323	-0.08996582	-0.5332184
254424508750954	-0.662323	-0.08508301	-0.5332184
254424514457742	-0.6598816	-0.08508301	-0.18992615
254424518791238	-0.6598816	0.13847351	-0.18992615
254424523826638	-0.6464386	0.13847351	0.06539917
254424529136697	-0.65133667	0.3534851	0.29997253
254424533897439	-0.6745453	0.5746155	0.46124268
254424537254372	-0.7038574	0.7346802	0.5321045
254424544029275	-0.72950745	0.79818726	0.5369873
254424549064675	-0.75639343	0.79086304	0.5101166
254424554008523	-0.79304504	0.78230286	0.47956848
254424559104958	-0.83213806	0.8348541	0.45880127
254424564506570	-0.86512756	0.9533539	0.45759583
254424569175759	-0.8858948	1.0987396	0.47592163
254424574272195	-0.90545654	1.2343597	0.50645447
254424580101052	-0.933548	1.3455353	0.5369873
254424584281960	-0.9653168	1.4261627	0.551651
254424587638894	-0.9872894	1.4554901	0.5394287
254424594352761	-0.98976135	1.4151611	0.49301147
254424599418679	-0.9653168	1.3027802	0.41726685
254424604393044	-0.91156006	1.1341705	0.33174133
254424609428445	-0.833374	0.93136597	0.2535553
254424614799538	-0.7356262	0.7236786	0.19613647
254424619529763	-0.6281128	0.5318756	0.15948486
254424624534646	-0.51937866	0.3681488	0.13748169
254424630058328	-0.417984	0.23008728	0.1240387
254424634635964	-0.3312378	0.11036682	0.10694885
254424637962380	-0.3312378	0.0077667236	0.10694885
254424644676247	-0.23106384	0.0077667236	0.025100708
254424649711648	-0.23106384	-0.1327362	-0.04698181
254424654808083	-0.19929504	-0.16082764	-0.04698181
254424659812966	-0.16020203	-0.16082764	-0.13127136
254424665519753	-0.039276123	-0.16571045	-0.2925415
254424669853249	-0.039276123	-0.11685181	-0.2925415
254424674919167	0.041366577	-0.11685181	-0.3597412
254424680412331	0.13423157	-0.052108765	-0.41714478
254424684959451	0.23194885	0.040740967	-0.4586792
254424688346902	0.33213806	0.14335632	-0.48191833
254424695091287	0.43475342	0.2349701	-0.490448
254424700065652	0.5422821	0.3192749	-0.49780273
254424705131570	0.6485596	0.4194641	-0.52101135
254424710136453	0.7377472	0.54408264	-0.56987
254424715415994	0.7939453	0.6723633	-0.6382904
254424720237771	0.8122711	0.7676544	-0.69569397
254424725212136	0.8196106	0.7994232	-0.6822815
254424730583230	0.8489227	0.75177	-0.5478821
254424735374490	0.9259033	0.6369324	-0.29008484
254424738670388	1.0529633	0.4793396	0.032424927
254424745445290	1.2093353	0.31074524	0.32807922
254424750419656	1.3608398	0.14213562	0.5076752
254424755455056	1.4707947	-0.03744507	0.5088959
254424760490456	1.5159912	-0.26223755	0.3060913
254424765953103	1.5062256	-0.5676727	-0.072631836
254424770561257	1.4781189	-0.9451752	-0.5515442
254424775627175	1.4744568	-1.331253	-1.0365753
254424781089822	1.5123291	-1.629364	-1.4543915
254424785697976	1.586853	-1.7649536	-1.763504
254424788993874	1.586853	-1.7063141	-1.763504
254424795738259	1.6760406	-1.7063141	-2.0884705
254424800773660	1.7566681	-1.4705353	-2.0884705
254424805839578	1.818985	-1.0930023	-2.1642303
254424810844460	1.8654022	-0.61776733	-2.2118835
254424816398660	1.9069366	-0.08387756	-2.2314148
254424820945779	1.9533691	0.46099854	-2.2192078
254424825950662	2.0071259	0.9618988	-2.1764374
254424831810037	2.0645447	1.3565216	-2.1104584
254424836021462	2.1109772	1.5947723	-2.0237274
254424839378396	2.1341858	1.6509705	-1.9113312
254424846122781	2.1231842	1.5373535	-1.7696075
254424851097146	2.0682068	1.3003387	-1.5961151
254424856193581	1.9607086	1.0059052	-1.4018555
254424861228982	1.792099	0.72488403	-1.1990509
254424866539040	1.5624084	0.5391998	-0.9950409
254424871269265	1.2875366	0.53063965	-0.7983246
254424876304665	0.99064636	0.753006	-0.6211853
254424881645242	0.70233154	1.1854858	-0.47091675
254424886436501	0.45063782	1.7352753	-0.34996033
254424889732400	0.25883484	2.2886963	-0.25222778
254424896476785	0.13787842	2.7761688	-0.16792297
254424901481667	0.09512329	3.195221	-0.095840454
254424906517068	0.14399719	3.5874023	-0.04574585
254424911552468	0.30526733	3.9832458	-0.02986145
254424917045632	0.58747864	4.370529	-0.04574585
254424921653787	0.96255493	4.684494	-0.07019043
254424926750222	1.3767242	4.834778	-0.07141113
254424931999246	1.7676697	4.751709	-0.044540405
254424936851540	2.09021	4.427948	-0.009109497
254424940116921	2.09021	3.9184723	-0.009109497
254424946891824	2.3272247	3.9184723	0.011657715
254424951866189	2.4860382	3.3198395	0.020202637
254424956901589	2.5813293	2.7358704	0.031188965
254424961906472	2.6204224	2.243515	0.060516357
254424967918435	2.600891	1.8733215	0.1716919
254424971977273	2.5165863	1.6167603	0.1716919
254424978935281	2.1476288	1.4469299	0.34152222
254424982505837	2.1476288	1.306427	0.34152222
254424987785378	1.8861694	1.306427	0.44415283
254424990440408	1.6051788	1.3174286	0.5540924
254424997215310	1.3327332	1.3540802	0.66404724
254425002189675	1.0944977	1.3907318	0.76301575
254425007469216	0.90145874	1.4127197	0.8387604
254425012260476	0.756073	1.4151611	0.8802948
254425017509499	0.6534424	1.3943939	0.88153076
254425022331277	0.5899353	1.3443146	0.8436432
254425027366677	0.55448914	1.2648926	0.77156067
254425032829324	0.5410614	1.1573792	0.6787262
254425037498513	0.53738403	1.0266724	0.5821991
254425040824929	0.53738403	0.883728	0.5821991
254425047721902	0.5288391	0.883728	0.41970825
254425052543679	0.511734	0.6271515	0.35861206
254425057701150	0.48364258	0.54164124	0.3060913
254425062614480	0.44210815	0.48542786	0.26455688
254425068412820	0.38957214	0.4475708	0.23399353
254425072685281	0.32359314	0.4121399	0.21690369
254425077720681	0.24906921	0.37548828	0.21202087
254425083000222	0.16720581	0.34248352	0.2083435
254425088005105	0.08169556	0.31806946	0.20225525
254425091148415	0.08169556	0.29730225	0.20225525
254425098075906	-0.003829956	0.29730225	0.18881226
254425102897683	-0.08811951	0.2716217	0.1716919
254425107994119	-0.16996765	0.23620605	0.1558075
254425112968484	-0.24938965	0.19343567	0.13871765
254425118522683	-0.3312378	0.14457703	0.11671448
254425123039285	-0.42042542	0.083496094	0.08984375
254425128349343	-0.52305603	0.0077667236	0.06173706
254425133384744	-0.6403351	-0.07897949	0.034866333
254425138145486	-0.768631	-0.17182922	0.0055389404
254425141532937	-0.89811707	-0.27079773	-0.024978638
254425148338357	-1.0214996	-0.3770752	-0.055526733
254425153282204	-1.1339111	-0.4919281	-0.08483887
254425158592263	-1.2341003	-0.61776733	-0.10684204
254425163322488	-1.3171692	-0.7545929	-0.11904907
254425169303933	-1.3794861	-0.8999939	-0.12394714
254425173393288	-1.4222412	-1.0453644	-0.12516785
254425178611794	-1.4515533	-1.1785431	-0.12516785
254425183921853	-1.4649963	-1.2933655	-0.12150574
254425188682595	-1.4491119	-1.3886719	-0.09950256
254425191825906	-1.4491119	-1.4754181	-0.09950256
254425198905984	-1.256073	-1.4754181	0.02998352
254425203575173	-1.0740509	-1.6330109	0.120391846
254425209068337	-0.86024475	-1.6904297	0.20225525
254425213676492	-0.6464386	-1.7099915	0.25967407
254425219535867	-0.45829773	-1.6757813	0.2853241
254425223747292	-0.30924988	-1.5707092	0.2718811
254425228843728	-0.19561768	-1.3874359	0.2193451
254425234275857	-0.10644531	-1.1272125	0.13871765
254425239219704	-0.10644531	-0.8034668	0.05441284
254425242179910	-0.028274536	-0.42352295	0.05441284
254425249351540	0.05847168	-0.42352295	-0.0042266846
254425253929177	0.17576599	0.011428833	-0.007904053
254425259086648	0.33824158	0.47688293	0.047073364
254425264030496	0.5581665	0.9228058	0.1399231
254425269798318	0.8232727	1.29422	0.23522949
254425274101296	1.0908203	1.552002	0.3085327
254425279869119	1.2924194	1.6643982	0.3549652
254425284416238	1.3486023	1.5959778	0.38549805
254425290000954	1.2117767	1.3259888	0.41238403
254425292564431	0.8978119	0.88861084	0.44535828
254425299797097	0.4934082	0.3864746	0.4893341
254425304344216	0.14520264	-0.039886475	0.5504303
254425309989968	-0.023391724	-0.27690125	0.6261902
254425314384499	0.007171631	-0.31233215	0.7019348
254425319999734	0.117111206	-0.26589966	0.7581177
254425324455300	0.14155579	-0.31721497	0.7886658
254425330284158	-0.013595581	-0.57133484	0.80332947
254425334953347	-0.31292725	-0.96717834	0.81311035
254425340232888	-0.6305542	-1.3348999	0.8204346
254425342887917	-0.6305542	-1.5401611	0.8204346
254425350242654	-0.88957214	-1.5401611	0.822876
254425354637185	-0.79304504	-1.4741974	0.83387756
254425360588113	-0.6207886	-1.3789063	0.8607483
254425364738503	-0.45707703	-1.3642273	0.901062
254425370384255	-0.365448	-1.4778595	0.953598
254425374839822	-0.365448	-1.7112122	1.019577
254425380607644	-0.52182007	-1.7112122	1.1051025
254425385398904	-0.7490692	-2.2768707	1.2101746
254425390586892	-1.0227356	-2.4442444	1.3213348
254425393272439	-1.0227356	-2.4564514	1.3213348
254425400901833	-1.2902832	-2.4564514	1.4215088
254425405021706	-1.5053253	-2.2903137	1.482605
254425411003152	-1.6311493	-1.9531097	1.4850464
254425415092507	-1.659256	-1.4998474	1.4203033
254425420677224	-1.6042786	-1.0319366	1.3005676
254425425132790	-1.5065308	-0.67030334	1.1527557
254425430839578	-1.4234619	-0.4907074	0.9988098
254425435447732	-1.4002533	-0.4955902	0.8509674
254425441185037	-1.4552307	-0.62509155	0.7202606
254425451225320	-1.7191315	-0.97084045	0.5479889
254425455345193	-1.855957	-1.1113281	0.5186615
254425461204568	-1.9427032	-1.234726	0.5137787
254425465446511	-1.9182587	-1.2933655	0.49913025
254425471794167	-1.7301025	-1.1113281	0.44291687
254425475517312	-1.3941345	-0.46138	0.34028625
254425481468240	-1.0447388	0.6845856	0.22790527
254425485801736	-0.89079285	1.9551697	0.15948486
254425491600076	-1.0496216	2.654007	0.1716919
254425501487771	-1.7521057	2.2386017	0.37329102
254425505760232	-1.851059	-0.98062134	0.44415283
254425511985818	-1.7252197	-2.2780762	0.44659424
254425515769997	-1.5346527	-2.76799	0.40382385
254425521690408	-1.4136963	-2.629959	0.3549652
254425525871316	-1.4136963	-2.2243347	0.3549652
254425532280007	-1.4112396	-2.2243347	0.254776
254425536338845	-1.4112396	-1.5035095	0.254776
254425542228738	-1.4479065	-1.5035095	0.16313171
254425552299538	-1.4491119	-1.3630219	0.13748169
254425556083718	-1.4539948	-1.44487	0.13748169
254425562583962	-1.4674377	-1.44487	0.13627625
254425566185037	-1.4943237	-1.4241028	0.13383484
254425572013894	-1.532196	-1.3679047	0.12771606
254425576194802	-1.5737305	-1.3116913	0.120391846
254425582115212	-1.6140442	-1.2811584	0.115493774
254425586692849	-1.6482544	-1.2884827	0.11427307
254425592979470	-1.6775665	-1.3361359	0.11671448
254425602867165	-1.6971283	-1.4986267	0.11671448
254425606437722	-1.6726837	-1.5585022	0.10694885
254425613029519	-1.6177216	-1.5719147	0.092285156
254425616478005	-1.5309753	-1.5426178	0.08128357
254425622489968	-1.4124603	-1.4937439	0.08128357
254425626609841	-1.2743988	-1.4387665	0.09716797
254425633262673	-1.1314697	-1.3654633	0.12283325
254425636955300	-0.999527	-1.2457275	0.15092468
254425643363992	-0.88957214	-1.0685883	0.17536926
254425653221169	-0.72950745	-0.8572235	0.19613647
254425656822244	-0.6769867	-0.49803162	0.19125366
254425661827126	-0.6769867	-0.38687134	0.1765747
254425666862527	-0.6403351	-0.32089233	0.1765747
254425672355691	-0.59880066	-0.32089233	0.14604187
254425676933328	-0.59880066	-0.30989075	0.14604187
254425681968728	-0.58413696	-0.30989075	0.14848328
254425687461892	-0.5743561	-0.35264587	0.16804504
254425692039529	-0.5707092	-0.4112854	0.2059021
254425695396462	-0.5792389	-0.4772644	0.254776
254425702171365	-0.60246277	-0.5334625	0.29997253
254425707206765	-0.6403351	-0.55911255	0.32929993
254425712211648	-0.6867676	-0.53712463	0.33418274
254425717247048	-0.7258606	-0.4540558	0.307312
254425722770730	-0.7441864	-0.29522705	0.24987793
254425727317849	-0.7380676	-0.059432983	0.18025208
254425733757058	-0.7160797	0.23132324	0.12893677
254425737815896	-0.687973	0.5452881	0.119155884
254425742424050	-0.6635437	0.86906433	0.1582489
254425745750466	-0.65133667	1.1977081	0.23399353
254425752525369	-0.6696472	1.5092316	0.32685852
254425757499734	-0.7258606	1.7596893	0.4184723
254425762565652	-0.81993103	1.9075165	0.49913025
254425767601052	-0.9494324	1.9356232	0.565094
254425772941628	-1.116806	1.8452148	0.61763
254425777641335	-1.3208466	1.630188	0.6591644
254425784202615	-1.5456238	1.2832184	0.683609
254425788414040	-1.7508698	0.8263092	0.67993164
254425792778054	-1.8901672	0.3376007	0.63471985
254425796104470	-1.8901672	-0.07409668	0.63471985
254425802879372	-1.8730621	-0.07409668	0.44171143
254425807853738	-1.8730621	-0.38075256	0.32807922
254425812950173	-1.7178955	-0.38075256	0.32807922
254425817924538	-1.4967651	-0.29644775	0.2217865
254425823326150	-1.2511902	-0.13885498	0.13015747
254425828025857	-1.0239716	0.013870239	0.056854248
254425833030740	-0.84558105	0.09938049	0.004333496
254425838401833	-0.7258606	0.087142944	-0.024978638
254425843132058	-0.6464386	-0.016677856	-0.032302856
254425846519509	-0.5792389	-0.17306519	-0.022537231
254425853172341	-0.49249268	-0.33677673	-5.645752E-4
254425858207742	-0.3703308	-0.4736023	0.026306152
254425863273660	-0.22006226	-0.5737915	0.04953003
254425868309060	-0.060028076	-0.63365173	0.060516357
254425873832742	0.089019775	-0.65441895	0.056854248
254425878379861	0.21485901	-0.64585876	0.038528442
254425883384744	0.30892944	-0.6287689	0.011657715
254425888908425	0.37124634	-0.62509155	-0.0152282715
254425893486062	0.40177917	-0.64341736	-0.03353882
254425896812478	0.40422058	-0.6849518	-0.043304443
254425903556863	0.3822174	-0.7374878	-0.044540405
254425908561746	0.33824158	-0.7888031	-0.035980225
254425913627663	0.27471924	-0.8315735	-0.016433716
254425918663064	0.19285583	-0.8645477	0.015319824
254425924522439	0.09512329	-0.88775635	0.05319214
254425928703347	-0.012390137	-0.8999939	0.08862305
254425933769265	-0.119888306	-0.89508057	0.115493774
254425939323464	-0.21273804	-0.86943054	0.13015747
254425943901101	-0.28359985	-0.8291321	0.12771606
254425947196999	-0.28359985	-0.7888031	0.12771606
254425953941384	-0.3312378	-0.7888031	0.051971436
254425958915749	-0.35934448	-0.76071167	0.051971436
254425964012185	-0.37277222	-0.7594757	-0.031097412
254425969017068	-0.3691101	-0.7912445	-0.13737488
254425976432839	-0.28359985	-0.85354614	-0.33407593
254425979148904	-0.28359985	-0.99772644	-0.33407593
254425984123269	-0.19317627	-0.99772644	-0.39027405
254425989921609	-0.07711792	-1.0685883	-0.41470337
254425994224587	0.053588867	-1.1540985	-0.41714478
254425997551003	0.18920898	-1.2555084	-0.41105652
254426004264871	0.32359314	-1.3593445	-0.40493774
254426009300271	0.4543152	-1.4473114	-0.40249634
254426014335671	0.57525635	-1.5047302	-0.40493774
254426019371072	0.6791229	-1.5218353	-0.41470337
254426025291482	0.76097107	-1.4949646	-0.42938232
254426029411355	0.8257141	-1.4290009	-0.45014954
254426034477273	0.87701416	-1.3324585	-0.47703552
254426039787331	0.92466736	-1.2151947	-0.5063324
254426044548074	0.9735565	-1.0771179	-0.5332184
254426047874490	0.9735565	-0.9207611	-0.5515442
254426054588357	1.0932617	-0.9207611	-0.55522156
254426059684792	1.1751251	-0.55667114	-0.54177856
254426064689675	1.2801971	-0.3660736	-0.50756836
254426069725076	1.4109344	-0.19015503	-0.4586792
254426075614968	1.5636444	-0.048431396	-0.40249634
254426079765359	1.7285767	0.049301147	-0.35240173
254426084831277	1.8934937	0.103027344	-0.31575012
254426090293923	2.0474396	0.12625122	-0.2925415
254426094902078	2.181839	0.12747192	-0.2778778
254426098228494	2.181839	0.11526489	-0.2778778
254426104972878	2.2917786	0.11526489	-0.26687622
254426109977761	2.374878	0.10548401	-0.25587463
254426115013162	2.4310608	0.120147705	-0.24855042
254426120079079	2.4579468	0.18000793	-0.2436676
254426125389138	2.456726	0.2899475	-0.24002075
254426130119363	2.4273987	0.4365692	-0.23634338
254426135185281	2.3797607	0.61006165	-0.23510742
254426140647927	2.333313	0.8104248	-0.23878479
254426145256081	2.304016	1.0303192	-0.25099182
254426148613015	2.2978973	1.2648926	-0.2803192
254426155357400	2.3174286	1.5153503	-0.33651733
254426160331765	2.3663177	1.8049011	-0.42326355
254426165397683	2.456726	2.1543121	-0.53445435
254426170433083	2.6033325	2.5721436	-0.6627197
254426175773660	2.797577	3.0669403	-0.80566406
254426180503884	2.9747314	3.6374817	-0.9547119
254426185508767	3.0052795	4.188492	-1.0952148
254426191307107	2.784134	4.4707184	-1.2161713
254426195579568	2.3528748	4.214142	-1.3248901
254426198936501	2.3528748	3.3943634	-1.3248901
254426205680886	1.5135498	3.3943634	-1.5276947
254426210685769	1.2997437	1.4444885	-1.5753479
254426215751687	1.1873627	0.9655762	-1.5619049
254426220787087	1.1397095	0.8519592	-1.5032806
254426226249734	1.1543579	0.94725037	-1.4263
254426230857888	1.2313385	1.1329498	-1.348114
254426235862771	1.3473969	1.3443146	-1.2699127
254426241386453	1.4768982	1.5434418	-1.1941681
254426245933572	1.4768982	1.7010651	-1.1941681
254426249290505	1.5978546	1.7010651	-1.129425
254426256034890	1.6980286	1.8012238	-1.0817719
254426261070290	1.7713318	1.8391113	-1.0475769
254426266075173	1.817749	1.8183441	-1.0219116
254426271141091	1.8360748	1.7499237	-0.9999237
254426276603738	1.8336334	1.6509705	-0.9767151
254426281181374	1.8141022	1.552002	-0.9547119
254426286247292	1.7823334	1.4799347	-0.93270874
254426291679421	1.7383423	1.4530487	-0.9082947
254426296318093	1.6882477	1.4676971	-0.8777466
254426299705544	1.6369476	1.5067902	-0.83743286
254426306358376	1.5905151	1.552002	-0.79100037
254426311424294	1.54776	1.5935364	-0.74823
254426316459695	1.5037689	1.6228638	-0.7140198
254426321495095	1.4622345	1.6387482	-0.6896057
254426327171365	1.4280243	1.6521759	-0.66760254
254426331535378	1.4048157	1.6692963	-0.6443939
254426336601296	1.3926086	1.6912689	-0.6187439
254426341880837	1.3877258	1.7071533	-0.5930786
254426346672097	1.3828125	1.7035065	-0.5674286
254426350029031	1.3828125	1.6741791	-0.5674286
254426356742898	1.3596039	1.6741791	-0.53445435
254426361778298	1.3327332	1.5752106	-0.5222168
254426366813699	1.2911987	1.538559	-0.50512695
254426371849099	1.2301025	1.5153503	-0.48312378
254426377738992	1.1543579	1.4872589	-0.4586792
254426381889382	1.0700531	1.4420471	-0.42694092
254426386955300	1.0700531	1.3870697	-0.38050842
254426392295876	0.8978119	1.3870697	-0.31941223
254426397026101	0.8978119	1.2795715	-0.31941223
254426400383035	0.8147125	1.2795715	-0.24978638
254426407096902	0.74142456	1.2306824	-0.17892456
254426412101785	0.6827698	1.1915894	-0.11172485
254426417167703	0.63023376	1.1647186	-0.05430603
254426422203103	0.57037354	1.1292877	-0.0152282715
254426428031960	0.4921875	1.0535278	6.5612793E-4
254426432243386	0.39933777	0.93014526	6.5612793E-4
254426437278787	0.30036926	0.79330444	0.004333496
254426442771951	0.20141602	0.687027	0.016540527
254426447349587	0.0987854	0.6247101	0.03730774
254426450706521	-0.011154175	0.58317566	0.05807495
254426457481423	-0.12721252	0.53796387	0.07762146
254426462455788	-0.24327087	0.48298645	0.095947266
254426467521706	-0.3556671	0.4182434	0.11427307
254426472526589	-0.46684265	0.34371948	0.12893677
254426478416482	-0.57559204	0.25941467	0.13748169
254426482627908	-0.675766	0.16900635	0.13627625
254426487663308	-0.76615906	0.087142944	0.12649536
254426493125954	-0.84436035	0.02973938	0.11061096
254426497734109	-0.91522217	0.0040893555	0.08862305
254426501091042	-0.91522217	0.0040893555	0.08862305
254426507804910	-1.0593872	0.0040893555	0.03730774
254426512809792	-1.1375732	0.0077667236	0.011657715
254426517875710	-1.21698	-0.010559082	-0.009109497
254426522911111	-1.2939606	-0.035003662	-0.022537231
254426528648415	-1.3636017	-0.052108765	-0.032302856
254426532981912	-1.3636017	-0.07043457	-0.032302856
254426538017312	-1.4222412	-0.07043457	-0.044540405
254426543327371	-1.4649963	-0.10952759	-0.064071655
254426548057595	-1.4869995	-0.16694641	-0.09095764
254426551475564	-1.4857635	-0.2097168	-0.12150574
254426558158913	-1.4637909	-0.20727539	-0.15571594
254426563163796	-1.4210205	-0.15473938	-0.19236755
254426568260232	-1.362381	-0.076538086	-0.2277832
254426573234597	-1.2927246	4.272461E-4	-0.25834656
254426579124490	-1.218216	0.06150818	-0.2754364
254426583305398	-1.138794	0.09814453	-0.2803192
254426588371316	-1.0459442	0.10670471	-0.2778778
254426593711892	-0.92622375	0.09693909	-0.2742157
254426598442117	-0.77227783	0.08470154	-0.2742157
254426601738015	-0.59147644	0.06518555	-0.26811218
254426608543435	-0.3996582	0.017532349	-0.24855042
254426613578835	-0.20417786	-0.06919861	-0.22166443
254426618583718	-0.007507324	-0.16818237	-0.20457458
254426623619119	0.18432617	-0.23780823	-0.2118988
254426629478494	0.35536194	-0.25125122	-0.23634338
254426633659402	0.48728943	-0.22436523	-0.26322937
254426638725320	0.5630493	-0.18894958	-0.28155518
254426644157449	0.57769775	-0.17062378	-0.2937622
254426648796121	0.5349426	-0.17306519	-0.29988098
254426652092019	0.5349426	-0.18283081	-0.29988098
254426658866921	0.34802246	-0.18283081	-0.26811218
254426663871804	0.24783325	-0.0973053	-0.21922302
254426668907204	0.15988159	0.060302734	-0.14715576
254426673942605	0.08534241	0.29974365	-0.064071655
254426679283181	0.023040771	0.5794983	0.010421753
254426684043923	0.023040771	0.8348541	0.010421753
254426689079324	-0.027038574	0.8348541	0.048309326
254426694786111	-0.06367493	0.99490356	-0.055526733
254426699150124	-0.091781616	1.0217896	-0.055526733
254426702476540	-0.12232971	0.92892456	-0.18502808
254426709190408	-0.16996765	0.77986145	-0.3243103
254426714225808	-0.24694824	0.65037537	-0.43302917
254426719261208	-0.35690308	0.5904999	-0.48924255
254426724296609	-0.49861145	0.60150146	-0.48435974
254426729637185	-0.6635437	0.646698	-0.42448425
254426734397927	-0.84069824	0.68214417	-0.33041382
254426739402810	-1.0166168	0.68214417	-0.23022461
254426744743386	-1.1717834	0.6430359	-0.14471436
254426749473611	-1.2878418	0.57829285	-0.07873535
254426752830544	-1.3513794	0.50375366	-0.02986145
254426759544412	-1.3648224	0.4206848	0.0030975342
254426764610329	-1.3452759	0.30950928	0.01776123
254426769615212	-1.3147278	0.13235474	0.018981934
254426774681130	-1.2988434	-0.1486206	0.016540527
254426780113259	-1.3135071	-0.5481262	0.007980347
254426784721413	-1.3550415	-1.0282593	-0.020095825
254426789756814	-1.401474	-1.4937439	-0.08119202
254426795219460	-1.427124	-1.8236084	-0.16548157
254426799827615	-1.4210205	-1.9372253	-0.25222778
254426803154031	-1.4210205	-1.8419342	-0.25222778
254426809928933	-1.3697052	-1.8419342	-0.37438965
254426814933816	-1.3648224	-1.305603	-0.40615845
254426819969216	-1.3648224	-0.98672485	-0.41349792
254426825004617	-1.3782501	-0.98672485	-0.41349792
254426830497781	-1.4026947	-0.67274475	-0.34017944
254426835105935	-1.4026947	-0.11317444	-0.34017944
254426840110818	-1.3819275	-0.11317444	-0.272995
254426845603982	-1.3318329	0.11526489	-0.2094574
254426850212136	-1.2548676	0.31195068	-0.16914368
254426853569070	-1.1620026	0.47077942	-0.15325928
254426860252419	-1.065506	0.56484985	-0.15447998
254426865287820	-0.9812012	0.55752563	-0.16548157
254426870323220	-0.9176636	0.44023132	-0.1776886
254426875358621	-0.8846741	0.23620605	-0.18502808
254426880607644	-0.87979126	-0.008117676	-0.17648315
254426885398904	-0.89567566	-0.24757385	-0.14593506
254426890464822	-0.9225464	-0.447937	-0.09095764
254426895713845	-0.9481964	-0.59088135	-0.012786865
254426900535622	-0.9665222	-0.6715088	0.08618164
254426903862038	-0.972641	-0.69595337	0.2034607
254426910606423	-0.9677582	-0.6788635	0.33540344
254426915611306	-0.95555115	-0.63609314	0.47468567
254426920646706	-0.9433136	-0.58232117	0.6078491
254426925682107	-0.9249878	-0.5395813	0.71170044
254426930931130	-0.89445496	-0.5346832	0.76179504
254426935752908	-0.85658264	-0.59088135	0.74468994
254426940788308	-0.8309326	-0.7179413	0.68237305
254426946037331	-0.8309326	-0.9097595	0.61763
254426950889626	-0.85658264	-1.1516571	0.5858612
254426954246560	-0.85658264	-1.4143219	0.5858612
254426960960427	-0.9518738	-1.4143219	0.65548706
254426965965310	-0.9518738	-1.8223724	0.65548706
254426971031228	-1.0068512	-1.8223724	0.7263489
254426976066628	-1.0679474	-1.8712616	0.79356384
254426983116189	-1.204773	-1.7771759	0.8460846
254426986106912	-1.204773	-1.1993103	0.8460846
254426991142312	-1.2743988	-1.1993103	0.81799316
254426996574441	-1.3306122	-0.7680359	0.7605591
254427001274148	-1.3648224	-0.29400635	0.6909332
254427004600564	-1.3660431	0.16656494	0.62983704
254427011314431	-1.3306122	0.56729126	0.5931854
254427016349831	-1.2621918	0.88005066	0.59198
254427021354714	-1.1717834	1.0987396	0.61763
254427026420632	-1.0740509	1.2270355	0.64328
254427031822244	-0.9836426	1.267334	0.63227844
254427036491433	-0.91156006	1.2172394	0.5565338
254427041526833	-0.86390686	1.088974	0.4184723
254427046806374	-0.83825684	0.90571594	0.25231934
254427051628152	-0.8187103	0.6955719	0.103271484
254427054954568	-0.7869568	0.47810364	0.0018920898
254427061668435	-0.73194885	0.2740631	-0.03842163
254427066703835	-0.65011597	0.09693909	-0.023773193
254427071739236	-0.549942	-0.041107178	0.028747559
254427076774636	-0.44363403	-0.13641357	0.10450745
254427082084695	-0.34222412	-0.19871521	0.18389893
254427086845437	-0.25183105	-0.23780823	0.2584381
254427091880837	-0.18341064	-0.25735474	0.31463623
254427097129861	-0.14431763	-0.26223755	0.34396362
254427101982156	-0.15164185	-0.26101685	0.34028625
254427105308572	-0.15164185	-0.26957703	0.34028625
254427112022439	-0.22128296	-0.26957703	0.29875183
254427117057839	-0.365448	-0.30256653	0.23155212
254427122093240	-0.57315063	-0.36242676	0.16069031
254427127128640	-0.81381226	-0.4320526	0.10083008
254427132560769	-1.0435028	-0.48582458	0.06295776
254427137199441	-1.2255402	-0.5016937	0.044631958
254427142234841	-1.335495	-0.4723816	0.047073364
254427147483865	-1.3660431	-0.39663696	0.06173706
254427152275124	-1.3269348	-0.27812195	0.08496094
254427155632058	-1.2353058	-0.1302948	0.10572815
254427162406960	-1.1155853	0.027297974	0.12159729
254427167411843	-0.9909668	0.17266846	0.12893677
254427172477761	-0.87979126	0.28385925	0.13015747
254427177482644	-0.79060364	0.3486023	0.12893677
254427182945290	-0.72950745	0.3644867	0.13137817
254427187553445	-0.6940918	0.33395386	0.13504028
254427192588845	-0.6843262	0.25820923	0.13504028
254427197959939	-0.6940918	0.14091492	0.12527466
254427202690163	-0.714859	-0.01423645	0.10572815
254427206077615	-0.714859	-0.20359802	0.08128357
254427212699929	-0.7393036	-0.422287	0.059295654
254427217765847	-0.7185364	-0.65930176	0.050750732
254427222770730	-0.66600037	-0.89019775	0.060516357
254427227806130	-0.57803345	-1.0832367	0.09106445
254427233055154	-0.45584106	-1.2041931	0.13627625
254427237907449	-0.30801392	-1.234726	0.1924591
254427242942849	-0.14553833	-1.1675415	0.254776
254427248161355	0.020599365	-1.0135956	0.3219757
254427253013650	0.020599365	-0.7875824	0.38671875
254427256370583	0.1782074	-0.5126953	0.38671875
254427263084451	0.31871033	-0.5126953	0.43927002
254427268089333	0.42866516	-0.22192383	0.4526825
254427273216287	0.49951172	0.03463745	0.38182068
254427278221169	0.5300598	0.18977356	0.18389893
254427283988992	0.5398407	0.20321655	-0.12638855
254427288291970	0.5618286	0.09326172	-0.4537964
254427293327371	0.6131439	-0.07287598	-0.6822815
254427298637429	0.6876526	-0.23536682	-0.7421417
254427303367654	0.7487488	-0.38807678	-0.6529541
254427306785622	0.76097107	-0.55545044	-0.4855652
254427313438454	0.70843506	-0.7533722	-0.3108673
254427318473855	0.60214233	-0.95373535	-0.16914368
254427323570290	0.4640808	-1.1162109	-0.072631836
254427328605691	0.32725525	-1.2115173	-0.0054626465
254427334434548	0.21606445	-1.234726	0.056854248
254427338645974	0.14888	-1.1907501	0.12649536
254427343681374	0.1305542	-1.0978851	0.20101929
254427349144021	0.15499878	-0.98184204	0.26211548
254427353782693	0.2124176	-0.8779907	0.29631042
254427357109109	0.2124176	-0.80101013	0.29631042
254427363884011	0.40422058	-0.80101013	0.3231964
254427368888894	0.52027893	-0.68862915	0.34028625
254427373924294	0.63023376	-0.62753296	0.35740662
254427378929177	0.72065735	-0.56155396	0.36717224
254427384819070	0.7854004	-0.4894867	0.36717224
254427388969460	0.8281555	-0.4064026	0.36351013
254427394035378	0.85380554	-0.30744934	0.36228943
254427399375954	0.8709259	-0.19259644	0.36473083
254427404106179	0.8709259	-0.07531738	0.36473083
254427407737771	0.8843689	-0.07531738	0.36717224
254427414176980	0.8965759	0.02973938	0.37573242
254427419181863	0.90634155	0.09693909	0.39405823
254427424247781	0.91490173	0.11036682	0.42214966
254427429252663	0.92710876	0.07006836	0.44779968
254427435020486	0.9552307	-0.0068969727	0.46736145
254427439353982	1.0089722	-0.09120178	0.4820099
254427444358865	1.0944977	-0.14985657	0.48812866
254427449729958	1.2227783	-0.15718079	0.46980286
254427454460183	1.3999329	-0.0973053	0.41238403
254427458030740	1.6357117	0.04685974	0.31219482
254427464530984	1.9252625	0.28630066	0.18513489
254427469535867	2.2441406	0.621048	0.06173706
254427474571267	2.5605621	1.0144348	-0.028656006
254427479606667	2.8415527	1.4078369	-0.06895447
254427484916726	3.0443573	1.7315979	-0.05430603
254427489677468	3.1127777	1.9026337	0.0067749023
254427494712869	3.0126038	1.8329926	0.10083008
254427500083962	2.7829285	1.4774628	0.20469666
254427504783669	2.526352	0.90449524	0.29875183
254427508506814	2.526352	0.27041626	0.29875183
254427514884988	2.2258148	0.27041626	0.41238403
254427519920388	2.1769562	-0.6556244	0.42703247
254427524955788	2.154953	-0.90608215	0.41726685
254427529991189	2.1451874	-1.0527039	0.39161682
254427535850564	2.1329498	-1.1150055	0.3549652
254427540061990	2.1048584	-1.0991211	0.3060913
254427545066872	2.1048584	-1.0184937	0.3060913
254427550590554	1.9582672	-1.0184937	0.13627625
254427555168191	1.9582672	-0.7949219	0.13627625
254427559379617	1.8421936	-0.7949219	0.018981934
254427565238992	1.7151337	-0.758255	-0.09950256
254427570243874	1.5844116	-0.8181305	-0.20825195
254427575279275	1.4549103	-0.9574127	-0.3096466
254427580345193	1.3241882	-1.1320953	-0.42448425
254427586265603	1.1971283	-1.2994843	-0.5662079
254427590415994	1.0859375	-1.4290009	-0.72502136
254427595451394	1.0126343	-1.4937439	-0.8777466
254427600883523	0.98820496	-1.4607544	-1.0084839
254427605552712	1.0089722	-1.3043671	-1.115982
254427609733621	1.0578461	-1.0184937	-1.2039337
254427615654031	1.1201477	-0.6324158	-1.2674713
254427620628396	1.1824493	-0.19871521	-1.3029175
254427625663796	1.2398834	0.22764587	-1.3114624
254427630668679	1.2838593	0.60150146	-1.2992401
254427636405984	1.311966	0.9008179	-1.2735901
254427640831033	1.3229523	1.1121826	-1.2430573
254427645774880	1.3217468	1.2368011	-1.2014923
254427651542703	1.3253937	1.2795715	-1.1306458
254427655876199	1.3535156	1.2526855	-1.0060425
254427660026589	1.4109344	1.1696014	-0.8288727
254427665946999	1.4866791	1.0425568	-0.6309509
254427670951882	1.5514221	0.89959717	-0.45991516
254427676017800	1.5807343	0.778656	-0.33773804
254427681083718	1.559967	0.7053528	-0.2571106
254427686454812	1.4891205	0.6833496	-0.19725037
254427691062966	1.4891205	0.6980133	-0.19725037
254427696098367	1.3791656	0.6980133	-0.14349365
254427701347390	1.2447662	0.7310028	-0.09095764
254427706199685	1.1067047	0.77253723	-0.042099
254427710685769	0.9796448	0.8189697	-5.645752E-4
254427716270486	0.86724854	0.8629608	0.031188965
254427721305886	0.7719574	0.89593506	0.056854248
254427726371804	0.69255066	0.91548157	0.07762146
254427731376687	0.6326752	0.92404175	0.08862305
254427737144509	0.58869934	0.9228058	0.083740234
254427741416970	0.5520477	0.90327454	0.06295776
254427746482888	0.5190582	0.8629608	0.036087036
254427751915017	0.48608398	0.8104248	0.01776123
254427756553689	0.4555359	0.7578888	0.015319824
254427761344949	0.42378235	0.71635437	0.028747559
254427766624490	0.3907776	0.6845856	0.048309326
254427771659890	0.35536194	0.6528168	0.067855835
254427776695290	0.31747437	0.60762024	0.08496094
254427781730691	0.27471924	0.54776	0.099609375
254427787040749	0.2258606	0.48298645	0.11795044
254427791862527	0.17088318	0.42312622	0.1423645
254427796836892	0.10610962	0.37425232	0.1716919
254427802238503	0.030380249	0.33395386	0.20713806
254427806907693	-0.05758667	0.29974365	0.24499512
254427811515847	-0.15530396	0.2642975	0.2877655
254427816978494	-0.26039124	0.22032166	0.32807922
254427822013894	-0.3666687	0.16656494	0.35617065
254427827079812	-0.47296143	0.11891174	0.37205505
254427832115212	-0.47296143	0.09814453	0.38671875
254427837394753	-0.6843262	0.11526489	0.39770508
254427842186013	-0.6843262	0.15679932	0.39770508
254427847190896	-0.7735138	0.15679932	0.39038086
254427852470437	-0.84558105	0.18367004	0.34884644
254427857231179	-0.90911865	0.15802002	0.2755432
254427861869851	-0.9799652	0.07861328	0.19369507
254427867332497	-1.0630646	-0.016677856	0.12159729
254427872459451	-1.1546783	-0.087524414	0.067855835
254427877372781	-1.2487488	-0.124176025	0.025100708
254427882499734	-1.3379364	-0.14738464	-0.012786865
254427887901345	-1.4197845	-0.18771362	-0.053085327
254427892478982	-1.4857635	-0.26589966	-0.09461975
254427897514382	-1.5260925	-0.37831116	-0.13127136
254427902915994	-1.5395355	-0.50413513	-0.15325928
254427907615701	-1.5309753	-0.61408997	-0.15447998
254427910972634	-1.515091	-0.6983948	-0.13737488
254427917717019	-1.5004425	-0.7655945	-0.10684204
254427922752419	-1.4796448	-0.8230133	-0.06774902
254427927726785	-1.4381104	-0.86698914	-0.027420044
254427932792703	-1.3709259	-0.88287354	0.0067749023
254427938194314	-1.2756348	-0.8657837	0.026306152
254427942832986	-1.155899	-0.8303375	0.026306152
254427947868386	-1.011734	-0.7912445	0.004333496
254427953117410	-0.84558105	-0.7472687	-0.032302856
254427957969704	-0.6635437	-0.68374634	-0.07751465
254427962699929	-0.47660828	-0.59088135	-0.13005066
254427968040505	-0.28848267	-0.4589386	-0.18502808
254427973045388	-0.10520935	-0.28912354	-0.23510742
254427978111306	-0.10520935	-0.09486389	-0.23510742
254427984611550	0.20385742	-0.09486389	-0.286438
254427988395730	0.20385742	0.23986816	-0.286438
254427993186990	0.31625366	0.23986816	-0.286438
254427998252908	0.40301514	0.3473816	-0.27911377
254428003471413	0.46896362	0.4341278	-0.26931763
254428008323708	0.5178375	0.5135498	-0.26078796
254428011711160	0.5557251	0.58317566	-0.25587463
254428018425027	0.58869934	0.6430359	-0.2571106
254428023429910	0.6131439	0.6931305	-0.259552
254428028495828	0.6216736	0.72488403	-0.259552
254428033500710	0.60214233	0.712677	-0.25587463
254428038810769	0.5557251	0.64915466	-0.25834656
254428043571511	0.4787445	0.5660858	-0.2742157
254428048606912	0.37245178	0.5086365	-0.3023224
254428053825417	0.23684692	0.49887085	-0.3279724
254428058677712	0.076797485	0.520874	-0.33773804
254428062034646	-0.10032654	0.55140686	-0.3267517
254428068779031	-0.29092407	0.58195496	-0.3108673
254428073753396	-0.48884583	0.61006165	-0.3072052
254428078819314	-0.6830902	0.6222687	-0.33041382
254428083854714	-0.86146545	0.6039429	-0.38417053
254428089347878	-1.0214996	0.5550842	-0.45991516
254428093894997	-1.1742249	0.4842224	-0.5454407
254428098960915	-1.3293915	0.402359	-0.6248474
254428104332009	-1.4955292	0.31195068	-0.68836975
254428109062234	-1.6702423	0.20199585	-0.72869873
254428112388650	-1.6702423	0.059066772	-0.72869873
254428119133035	-2.012329	0.059066772	-0.74090576
254428124107400	-2.012329	-0.36730957	-0.74090576
254428129203835	-2.1442719	-0.36730957	-0.72013855
254428134208718	-2.2285767	-0.64341736	-0.68104553
254428139976540	-2.2554626	-0.95251465	-0.51856995
254428144279519	-2.2554626	-1.6378937	-0.51856995
254428149314919	-2.2065735	-1.6378937	-0.39761353
254428154838601	-2.125946	-1.9885406	-0.26811218
254428159385720	-2.017212	-2.3061981	-0.14837646
254428162742654	-1.8840485	-2.5517426	-0.051864624
254428169456521	-1.7264557	-2.6959229	0.012863159
254428174491921	-1.5431824	-2.738678	0.04953003
254428179527322	-1.323288	-2.7069092	0.06295776
254428184532204	-1.0618286	-2.6372833	0.06173706
254428189842263	-0.76127625	-2.5615387	0.05441284
254428194664040	-0.45339966	-2.4821167	0.051971436
254428199699441	-0.18829346	-2.37706	0.06663513
254428204917947	-0.014831543	-2.2133331	0.10083008
254428209770242	0.041366577	-1.965332	0.1558075
254428213096658	-0.013595581	-1.6354523	0.22546387
254428219810525	-0.15530396	-1.2457275	0.30975342
254428224845925	-0.3556671	-0.8230133	0.4025879
254428229850808	-0.58535767	-0.3978424	0.49545288
254428234916726	-0.8150482	-0.0020141602	0.5736389
254428240348855	-1.0214996	0.33395386	0.6249542
254428244957009	-1.1937714	0.58317566	0.6383972
254428249992410	-1.3367157	0.72488403	0.61151123
254428255790749	-1.4686737	0.74320984	0.5431061
254428260093728	-1.6006165	0.6271515	0.42947388
254428263450662	-1.6006165	0.37670898	0.42947388
254428270164529	-1.7288971	0.37670898	0.27798462
254428275230447	-1.8339691	0.0065307617	0.10939026
254428280265847	-1.8962708	-0.4577179	-0.034744263
254428285270730	-1.9011536	-0.98428345	-0.116607666
254428290733376	-1.8486176	-1.536499	-0.10928345
254428295311013	-1.7423401	-2.0801544	-0.018875122
254428300376931	-1.5957184	-2.5749512	0.120391846
254428306266824	-1.435669	-2.9671478	0.2694397
254428310447732	-1.2951813	-3.2078247	0.40504456
254428313804665	-1.1986542	-3.2701263	0.5113373
254428320549050	-1.1534576	-3.171173	0.5748596
254428325523415	-1.1473541	-2.9561462	0.5846405
254428330589333	-1.155899	-2.6702576	0.5406647
254428335624734	-1.1485748	-2.3416138	0.46003723
254428340873757	-1.1107025	-1.9934235	0.36839294
254428345909158	-1.0435028	-1.6488953	0.2853241
254428350730935	-0.95799255	-1.331253	0.2193451
254428356468240	-0.86512756	-1.0539093	0.16925049
254428360832253	-0.76615906	-0.8144531	0.12527466
254428364128152	-0.76615906	-0.5970001	0.12527466
254428370872537	-0.5609131	-0.5970001	0.004333496
254428375877419	-0.47906494	-0.22680664	-0.07751465
254428380973855	-0.43263245	-0.12173462	-0.16548157
254428386192361	-0.42530823	-0.12173462	-0.25222778
254428391563454	-0.4497528	-0.25247192	-0.3267517
254428396049538	-0.48760986	-0.5078125	-0.38783264
254428401084939	-0.52182007	-0.8474579	-0.43426514
254428406791726	-0.53770447	-1.2176361	-0.46479797
254428411155740	-0.53770447	-1.5645905	-0.47824097
254428414482156	-0.53770447	-1.5645905	-0.47824097
254428421226540	-0.5291443	-1.8541412	-0.47335815
254428426261941	-0.5206146	-2.077713	-0.45135498
254428431297341	-0.51693726	-2.2414398	-0.41349792
254428436668435	-0.5206146	-2.3562927	-0.36218262
254428441703835	-0.53038025	-2.4308014	-0.3047638
254428446586648	-0.5450287	-2.4601288	-0.24490356
254428451438943	-0.56214905	-2.4381256	-0.18380737
254428457328835	-0.58535767	-2.350174	-0.120269775
254428461509744	-0.6195679	-2.1852264	-0.048187256
254428464897195	-0.66600037	-1.9347839	0.027542114
254428471611062	-0.7221832	-1.6000366	0.10083008
254428476646462	-0.780838	-1.1931915	0.16436768
254428481651345	-0.8284912	-0.74360657	0.21322632
254428486747781	-0.85658264	-0.28668213	0.24499512
254428492149392	-0.86268616	0.13235474	0.26087952
254428497032204	-0.846817	0.48054504	0.26087952
254428501792947	-0.81381226	0.7297821	0.24867249
254428507896462	-0.76615906	0.86172485	0.22546387
254428511833230	-0.71118164	0.86906433	0.19734192
254428515220681	-0.71118164	0.7554474	0.19734192
254428521934548	-0.61468506	0.7554474	0.13383484
254428527061501	-0.59635925	0.2691803	0.103271484
254428531974831	-0.6061249	-0.03010559	0.080062866
254428537193337	-0.6452179	-0.31233215	0.067855835
254428542350808	-0.7075348	-0.5456848	0.071517944
254428547874490	-0.780838	-0.7154999	0.087402344
254428552177468	-0.85658264	-0.8205719	0.108169556
254428557579079	-0.9274292	-0.8645477	0.13015747
254428562217751	-0.9274292	-0.8645477	0.13015747
254428565574685	-0.99464417	-0.8645477	0.15336609
254428572288552	-1.0618286	-0.8413391	0.17901611
254428577659646	-1.1265869	-0.8144531	0.2083435
254428582359353	-1.1840057	-0.7924652	0.2376709
254428588188210	-1.2292175	-0.7680359	0.26820374
254428592643777	-1.256073	-0.7338257	0.29753113
254428597740212	-1.2634277	-0.68130493	0.32807922
254428602470437	-1.2475433	-0.61408997	0.35861206
254428608818093	-1.203537	-0.5346832	0.38793945
254428612571755	-1.1339111	-0.4430542	0.41358948
254428615928689	-1.0422974	-0.342865	0.43803406
254428622673074	-0.933548	-0.24024963	0.45880127
254428627983132	-0.8126068	-0.15106201	0.47712708
254428632713357	-0.6806488	-0.09976196	0.4893341
254428638389626	-0.54382324	-0.10220337	0.49913025
254428643211404	-0.40942383	-0.16326904	0.50645447
254428648490945	-0.28115845	-0.27445984	0.5101166
254428652824441	-0.16996765	-0.4161682	0.5052185
254428659172097	-0.08079529	-0.56155396	0.4893341
254428662956277	-0.028274536	-0.6825104	0.46124268
254428666313210	-0.028274536	-0.7594757	0.46124268
254428673027078	-0.05392456	-0.7594757	0.34518433
254428678672829	-0.12599182	-0.771698	0.2535553
254428683067361	-0.21273804	-0.7374878	0.14604187
254428688743630	-0.29092407	-0.71061707	0.03730774
254428693382302	-0.34222412	-0.71061707	-0.05430603
254428699180642	-0.352005	-0.7448273	-0.116607666
254428703208962	-0.352005	-0.80101013	-0.116607666
254428708976785	-0.25427246	-0.80101013	-0.16670227
254428713279763	-0.25427246	-0.88531494	-0.16670227
254428716636697	-0.17240906	-0.88531494	-0.16914368
254428723350564	-0.08811951	-0.8841095	-0.16548157
254428729087869	-0.0099487305	-0.85598755	-0.15692139
254428733451882	0.057250977	-0.8120117	-0.15081787
254428739646951	0.117111206	-0.76071167	-0.15081787
254428743766824	0.17332458	-0.70207214	-0.15692139
254428749504128	0.23562622	-0.6324158	-0.1618042
254428753562966	0.32235718	-0.54322815	-0.1593628
254428759269753	0.45063782	-0.43693542	-0.14959717
