accelerometer_timestamp	accelerometer_x_data	accelerometer_y_data	accelerometer_z_data
440772645707804	-0.34237084	-2.4281695	-0.55485624
440772662615093	-0.004189853	-2.0474913	0.3453636
440772785070426	6.5307837	-18.776976	-11.347319
440772902691926	-4.8775873	-5.174917	-1.4562732
440773030383718	-1.401805	-8.395119	-2.7341783
440773455530493	0.3657143	-12.68493	-0.6147113
440773460530711	1.5023615	-12.349143	-1.6059108
440773470531322	3.4464533	-11.8200245	-2.8413188
440773475531568	4.431069	-11.734431	-3.4973302
440773480531496	5.410896	-11.475858	-3.6415808
440773490531068	6.22672	-11.19035	-3.7002387
440773495530883	5.895123	-11.178378	-3.5093012
440773500530754	5.295376	-11.140071	-3.2980127
440773510530724	3.9031472	-10.731859	-2.9993362
440773515530839	3.1465795	-10.479271	-2.9107506
440773520531042	2.3349452	-10.166828	-2.7030537
440773525531330	1.5927427	-9.8298435	-2.504335
440773530531752	1.0672154	-9.442582	-2.3451207
440773535532232	0.7942764	-9.084649	-2.405574
440773540532801	0.50876784	-8.653692	-2.15957
440773545533440	0.36391866	-8.189218	-1.9458874
440773550534151	0.4141969	-7.7295303	-1.8387469
440773555534965	0.34237084	-7.2764277	-1.5957354
440773560535846	0.3657143	-6.955006	-1.3982137
440773565536791	0.5734113	-6.661118	-1.3281834
440773570537806	0.7170634	-6.2960024	-1.2210429
440773575538890	0.9127894	-6.1038675	-1.0923545
440773580540044	1.079785	-5.9883475	-1.1019313
440773585541270	1.1552023	-5.8429	-1.2677298
440773590542568	1.1833342	-5.7561097	-1.4790181
440773595543938	1.1569979	-5.5154924	-1.5544355
440773600545409	1.1180922	-5.2916346	-1.4975731
440773605546931	0.93254155	-4.94687	-1.5197195
440773610548514	0.8194155	-4.6529813	-1.4999673
440773615550164	0.86610246	-4.359093	-1.4574703
440773620551888	0.87089086	-4.098724	-1.3575124
440773625553670	0.7667431	-3.8599021	-1.2611457
440773630555523	0.39324763	-3.6432269	-1.0672154
440773635557439	0.18674773	-3.461866	-0.91219085
440773640559418	0.07182605	-3.3050458	-0.760159
440773645561470	-0.12449849	-3.194314	-0.6392518
440773650563587	-0.20231004	-3.0458734	-0.5069722
440773655565742	-0.11851298	-2.941127	-0.3693056
440773660567941	-0.29867667	-2.8142345	-0.22146365
440773665570199	-0.55844754	-2.7465982	0.12509704
440773670572504	-0.56563014	-2.5275288	0.338181
440773675574861	-0.5243302	-2.318036	0.504578
440773680577276	-0.6159084	-2.137274	0.7104794
440773685579759	-0.6356605	-2.021155	0.82360536
440773690582299	-0.60812724	-1.960103	0.9451111
440773735607428	-1.7136499	-4.969016	-2.8287494
440773740610463	-1.857302	-6.002114	-3.8869865
440773755619868	-1.7465701	-10.352379	-7.277775
440773760623114	-0.84694886	-11.82182	-8.637083
440773765626367	0.8283938	-12.977621	-10.359711
440773775632948	4.4418426	-15.013889	-13.342287
440773780636292	5.617396	-16.201414	-14.529812
440773785639655	6.1285577	-17.554735	-15.038579
440773790643060	6.0770826	-18.845211	-14.992491
440773795646510	6.06571	-19.376722	-15.456966
440773805653536	5.2768207	-19.376722	-16.44218
440773810657081	4.581305	-19.106178	-15.573684
440773815660659	3.7600937	-16.756868	-13.523648
440773820664284	2.8293478	-14.226795	-11.081563
440773825667932	1.6873137	-12.089372	-8.695741
440773830671609	0.30945057	-10.661829	-6.3889275
440773835675314	-0.80205756	-9.679009	-4.830302
440773840679070	-1.7926586	-9.346215	-3.0969
440773845682854	-2.4289176	-10.162638	-2.404377
440773850686694	-2.493561	-11.722461	-2.3008277
440773855690551	-2.2762873	-13.722218	-2.2517467
440773860694424	-2.1470003	-15.732748	-0.9552865
440773865698315	-2.2176294	-17.181839	1.2551602
440773870702228	-2.4929626	-17.761835	3.4823663
440773875706171	-3.0370448	-18.038963	3.968988
440773880710140	-3.364452	-17.648708	2.3062148
440773885714136	-3.2561142	-16.114025	-0.53330845
440773890718171	-2.8054059	-13.398401	-3.3859997
440773895722228	-2.554613	-10.730063	-4.559159
440773900726328	-1.6250644	-7.6301713	-2.4438813
440773905730443	-0.025737667	-4.6302366	1.4149733
440773910734592	1.5095441	-2.677765	4.173094
440773915738769	2.1218612	-2.1217117	4.602853
440773920742970	1.903989	-2.5287259	3.2704794
440773925747220	1.2958617	-3.4810197	1.6741456
440773930751536	0.60453594	-4.6422076	1.1133038
440773935755830	0.25498247	-5.6358013	1.9674352
440773940760143	0.48362875	-6.3648357	3.8947675
440773945764470	1.2240356	-6.904728	6.311714
440773950768807	2.2936451	-7.564929	7.6009917
440773955773171	3.228581	-8.738687	7.33763
440773960777550	4.3299136	-10.115353	6.351817
440773965781942	5.076905	-11.559655	5.6425347
440773970786376	5.076905	-12.802844	5.430648
440773975790825	4.5016975	-13.461848	5.6042275
440773980795286	3.8205473	-13.833548	5.2959743
440773985799763	3.015497	-14.131626	4.7680526
440773990804254	2.7365725	-14.185495	4.0025067
440773995808763	2.7820623	-14.171729	2.795829
440774000813325	3.406949	-14.399178	0.23343466
440774005817893	3.4560301	-14.393791	-1.6579847
440774010822483	2.4510639	-14.017901	-2.255338
440774015827100	2.0362685	-13.922731	-4.51307
440774020831753	1.3084313	-13.443892	-5.499481
440774025836412	0.2908955	-12.643629	-5.471948
440774030841085	-1.2036849	-11.51177	-4.6806645
440774035845771	-1.4293385	-10.992827	-5.885546
440774040850465	-2.2164323	-10.470293	-5.2798133
440774045855181	-2.4396915	-10.439767	-5.5964465
440774050859935	-2.4426842	-10.318261	-5.365406
440774055864688	-2.4624364	-9.999234	-4.3897686
440774060869450	-2.472612	-9.465925	-3.1429882
440774065874216	-3.1974564	-8.457368	-0.6596026
440774070879018	-2.6072857	-8.244883	-1.4281414
440774075883828	-1.7256209	-7.7804074	-1.8088194
440774080888644	-1.1450269	-7.2842093	-1.5089456
440774085893469	-1.0139444	-6.6940384	-0.52073884
440774090898320	-0.89064306	-6.10686	0.43155485
440774095903190	-0.5267244	-5.604078	1.0498575
440774100908074	0.08319851	-5.270685	1.4628572
440774105912984	0.705691	-5.153968	1.9405005
440774110917907	0.20709845	-4.924723	4.220379
440774115922829	1.8908207	-5.820753	1.8489223
440774120927772	3.1956608	-6.105065	1.1767502
440774125932718	3.0711622	-6.3756094	2.3732524
440774130937700	2.9706059	-6.844873	2.7168205
440774135942680	3.283049	-7.188441	2.4199393
440774140947664	3.639785	-7.533206	1.7788919
440774145952656	3.7936125	-7.8564234	1.2695254
440774150957659	3.7960067	-8.127566	0.6733692
440774155962690	3.6128504	-8.337658	0.089782566
440774160967755	3.371036	-8.430433	-0.7230489
440774165972820	3.0334535	-8.463353	-1.3174095
440774170977898	2.6342204	-8.438813	-1.8070238
440774175982971	2.2254105	-8.388535	-1.9608512
440774180988043	1.8698715	-8.370578	-1.9656396
440774185993118	1.5729905	-8.356812	-1.79206
440774190998236	1.4107834	-8.349628	-1.5520413
440774196003346	1.2982559	-8.402301	-1.3563153
440774201008457	0.20051439	-7.918074	1.4981717
440774206013576	1.0600328	-8.733299	-1.3790601
440774211018717	1.5478514	-9.023597	-2.8927941
440774216023884	1.1420342	-8.95596	-2.2541409
440774221029053	0.88286185	-8.926631	-1.6567876
440774226034224	0.78290397	-8.952968	-1.5562311
440774231039444	0.8086416	-8.901492	-1.8501194
440774236044646	0.9403227	-8.801535	-2.2643163
440774241049847	1.0672154	-8.732701	-2.5689783
440774246055056	1.2569559	-8.680029	-2.7665
440774251060283	0.6817489	-8.016835	0.020949265
440774256065510	1.5705963	-8.782979	-2.586935
440774261070742	2.5797524	-9.198373	-4.494515
440774266075974	2.4953568	-9.30312	-2.9059622
440774271081216	2.4779987	-9.502437	-1.7477672
440774276086484	2.846706	-9.692178	-1.3664906
440774281091763	3.3955765	-9.8220625	-1.3365631
440774286097047	3.858256	-9.859772	-1.2719196
440774291102349	4.2718544	-9.801712	-1.3186066
440774296107641	4.72376	-9.683798	-1.4927847
440774301112934	5.2564697	-9.594614	-1.7298107
440774306118230	5.831078	-9.54673	-2.0398598
440774311123531	6.425439	-9.518598	-2.504335
440774316128848	6.8085113	-9.555708	-2.6503813
440774321134193	7.3029137	-9.680206	-3.6721067
440774326139539	7.387908	-9.924415	-3.98874
440774331144883	7.2029557	-10.352379	-4.1138372
440774336150236	7.001843	-10.8569565	-4.2131963
440774341155602	6.861782	-11.4058275	-4.264672
440774346160975	6.8288617	-11.985224	-4.1940427
440774351166354	6.8731546	-12.522722	-3.964798
440774356171729	6.851607	-12.878262	-3.3423057
440774361177111	7.2328835	-12.944102	-3.8313212
440774366182492	7.297527	-12.614899	-3.6768951
440774371187878	6.857592	-12.11092	-3.4985273
440774376193269	6.066907	-11.46688	-3.7325604
440774381198683	5.129577	-10.923994	-4.1425676
440774386204106	4.0958805	-10.8886795	-4.7560816
440774391209567	3.1741128	-11.24781	-5.3384714
440774396215015	2.307412	-12.009166	-5.704784
440774401220464	1.5286977	-13.024906	-5.635352
440774406225915	0.6769605	-14.42731	-5.3043537
440774411231402	-0.2789245	-16.195427	-4.529231
440774416236862	-1.6017209	-18.078468	-2.9771898
440774421242314	-2.9017725	-19.376722	-1.067814
440774426247779	-4.109049	-19.376722	0.9247604
440774431253247	-5.032612	-19.376722	2.5659857
440774436258717	-5.6628857	-19.376722	3.517681
440774441264218	-5.893926	-19.376722	3.8510735
440774446269707	-5.6551046	-19.376722	3.426701
440774451275192	-4.8482585	-19.309685	2.5929205
440774456280684	-3.66672	-17.625963	1.8788497
440774461286172	-2.1242554	-16.007483	0.9911995
440774466291659	-0.61770403	-14.882208	0.27473465
440774471297152	0.93493575	-14.013113	-0.2100912
440774476302655	2.3169887	-13.551032	-0.7751228
440774481308158	3.6379895	-13.241581	-1.4915876
440774486313660	5.0140567	-12.984204	-2.0500352
440774491319166	6.3105173	-12.694507	-2.1505916
440774496324674	7.337031	-12.471846	-1.8992004
440774501330197	7.904457	-12.388647	-1.8070238
440774506335724	7.9104424	-12.41199	-1.83336
440774511341258	7.309498	-12.400618	-1.8992004
440774516346796	6.4846954	-12.356924	-2.0733786
440774521352338	5.333683	-12.329391	-2.1380222
440774526357883	3.9187095	-12.392239	-2.2505496
440774531363432	2.5001452	-12.222849	-2.259528
440774536368981	1.2988545	-11.776929	-2.1990743
440774541374535	0.3573346	-11.186159	-2.1380222
440774546380086	-0.24660277	-10.480469	-2.1643584
440774551385644	-0.46148238	-9.808296	-2.2571337
440774556391205	-0.6889315	-9.20795	-1.8130093
440774561396767	-0.8146271	-8.714745	-1.3772645
440774566402327	-0.7906851	-8.341249	-1.0887632
440774571407898	-0.6290765	-8.021624	-0.9355343
440774576413497	-0.19572599	-7.6523175	-0.93254155
440774581419087	-0.055066638	-7.4434233	-0.5117606
440774586424668	0.19093758	-7.226748	-0.2681506
440774591430249	0.41838676	-6.939444	-0.17357962
440774596435837	0.57760113	-6.640767	-0.051475335
440774601441427	0.61890113	-6.2744546	0.02813187
440774606447032	0.55126494	-5.8722286	0.19812019
440774611452635	0.3549404	-5.5113025	0.28431144
440774616458242	0.19093758	-5.06239	0.25857377
440774621463851	0.093373865	-4.5979147	0.2112883
440774626469462	-0.08738836	-4.12087	0.22804771
440774631475072	-0.3705027	-3.6905122	0.08499416
440774636480695	-0.61291564	-3.2948704	0.04369418
440774641486336	-0.79966336	-2.8992286	0.15322891
440774646491970	-0.98341835	-2.6065376	0.25617957
440774651497598	-1.0881647	-2.2875102	0.4381389
440774656503220	-1.0055647	-2.0301335	0.47046062
440774661508850	-0.997185	-1.8188452	0.5859809
440774666514478	-1.1845313	-1.7452234	0.83018947
440774671520122	-1.228824	-1.6991351	0.76554596
440774676525761	-1.1546037	-1.6075568	0.7673417
440774681531399	-1.0827777	-1.5351322	0.7272388
440774686537043	-1.0217255	-1.4836569	0.8882488
440774691542688	-1.1815386	-1.5842134	1.423353
440774696548343	-1.311424	-1.7063177	1.6543933
440774701553995	-1.3329718	-1.7583915	1.5813702
440774706559660	-1.3090298	-1.7548002	1.115698
440774711565322	-1.5460558	-1.8385973	1.3245921
440774716570977	-1.9015948	-2.066645	1.3856442
440774721576628	-2.1799207	-2.3790884	1.1671734
440774726582287	-2.4259248	-2.7884967	0.6123171
440774731587944	-2.6126726	-3.2104747	0.17058687
440774736593605	-2.6378117	-3.7527616	0.06284779
440774741599277	-2.509722	-4.5422497	-0.32561144
440774746604954	-2.2439656	-5.5274634	-0.95109665
440774766627700	-0.4997896	-12.5317	-5.5760956
440774776639097	3.9983168	-16.026037	-9.238028
440774786650471	7.6811976	-18.31669	-13.085509
440774791656158	8.328231	-19.376722	-14.307151
440774796661845	8.366538	-19.376722	-15.295956
440774801667546	8.01459	-19.376722	-17.002424
440774806673252	7.4615297	-19.376722	-18.81603
440774811678955	7.48607	-19.376722	-18.571224
440774816684668	7.171831	-19.376722	-15.9417925
440774821690376	6.009446	-17.278805	-13.403938
440774826696081	4.26946	-14.549414	-9.654019
440774831701785	2.5629928	-11.857733	-6.291962
440774836707488	0.9516952	-9.3761425	-4.0857053
440774841713200	-0.3728969	-7.029825	-2.3822308
440774846718914	-1.2485762	-4.994155	-1.0941502
440774851724628	-1.8052281	-3.5755906	0.14065935
440774856730342	-2.2625206	-3.7419877	1.1695676
440774861736059	-2.3642743	-5.3000145	1.7076644
440774866741784	-2.248754	-7.749283	2.0087352
440774871747505	-2.7491422	-11.091588	1.8620903
440774876753237	-4.0001125	-15.03843	1.8297687
440774881758965	-5.1050367	-18.453758	1.9812019
440774886764688	-5.45878	-19.376722	1.5514427
440774891770410	-5.346851	-19.376722	0.12629414
440774896776129	-5.231331	-18.989462	-2.3157916
440774901781878	-4.477157	-16.436045	-4.860828
440774906787635	-2.746748	-13.229012	-6.640917
440774911793384	-0.24241292	-9.947759	-6.2644286
440774916799123	2.7461493	-6.8903627	-2.885013
440774921804864	5.2504845	-4.80621	0.9828198
440774926810597	6.613384	-4.098125	3.007716
440774931816329	6.8103065	-4.432715	2.765303
440774936822076	5.9801173	-5.2958245	1.9428947
440774941827853	4.7285485	-6.181081	2.0470424
440774946833622	3.6194344	-6.9322615	3.153762
440774951839376	2.7090392	-7.803152	4.2197804
440774956845120	2.054225	-8.722526	4.4963107
440774961850861	1.8052281	-9.541343	4.2299557
440774966856599	1.8686744	-10.076447	4.134786
440774971862369	1.8722657	-10.317064	4.3837833
440774976868124	1.6023195	-10.30629	4.593276
440774981873872	1.3138182	-10.188375	4.2281604
440774986879616	1.4730326	-10.11236	3.1561563
440774991885360	1.8070238	-10.10817	2.304419
440774996891127	1.6035166	-10.089016	2.743755
440775001896911	2.384625	-10.802488	0.57400984
440775006902677	3.3303347	-11.482442	-0.801459
440775011908433	3.7427359	-12.042685	-0.90979666
440775016914185	3.5380316	-12.521525	-0.260968
440775021919935	3.0119057	-12.765734	0.13946225
440775026925684	2.4390929	-12.78788	-0.022744916
440775031931432	1.0432734	-12.053459	0.89543146
440775036937178	0.96187055	-11.855937	-0.83378077
440775041942925	0.97862995	-11.559056	-1.857302
440775046948676	0.66259533	-11.158626	-2.31639
440775051954429	0.08379706	-10.674398	-2.2439656
440775056960202	-0.35314476	-10.168025	-2.2361844
440775061965973	-0.682946	-9.664045	-2.1134815
440775066971740	-0.7757214	-9.297134	-2.204461
440775071977502	-1.067814	-8.863185	-1.5915456
440775076983259	-1.4808137	-8.4029	-0.74639237
440775081989022	-1.9470845	-8.0784855	0.01436521
440775086994784	-2.2840683	-7.7600565	0.5770026
440775092000548	-3.7762547	-7.0860887	2.707842
440775097006309	-3.1854854	-7.478738	0.9391256
440775102012066	-2.1733365	-7.577499	-0.20530279
440775107017828	-1.6741456	-7.500884	0.073621705
440775112023589	-1.7782934	-7.4847236	1.4323312
440775117029374	-1.6424223	-7.6176014	2.2278047
440775122035148	-1.1593921	-7.830087	2.3277626
440775127040911	-0.5410896	-8.17186	2.1481974
440775132046680	0.065242	-8.599823	2.0512323
440775137052446	0.6793547	-9.007436	1.9835961
440775142058211	1.2425907	-9.33185	1.9434932
440775147063984	1.7369933	-9.506028	1.8644845
440775152069834	2.2008698	-9.499444	1.7040731
440775157075638	2.581548	-9.395296	1.4401124
440775162081420	2.814384	-9.198373	1.0779893
440775167087202	2.926313	-8.940996	0.623091
440775172092984	2.8461072	-8.665664	0.15741876
440775177098770	2.5725696	-8.448988	-0.2621651
440775182104546	2.1643584	-8.286781	-0.46746787
440775187110319	0.8242039	-7.8905406	0.76075757
440775192116090	1.8267759	-8.577078	-2.0787656
440775197121865	1.939902	-8.502259	-1.9183542
440775202127654	1.3862427	-8.520814	-0.6374562
440775207133437	1.2605472	-8.615385	-0.13706805
440775212139210	1.3611037	-8.808717	-0.14065935
440775217144977	1.4748282	-9.052327	-0.29328972
440775222150744	1.453879	-9.261221	-0.35075054
440775227156508	1.3521254	-9.456348	-0.47884035
440775232162298	1.353921	-9.553313	-0.7517793
440775237168106	1.4036007	-9.655665	-0.9911995
440775242173899	1.4041992	-9.771186	-1.2533646
440775247179680	1.3281834	-9.820866	-1.412579
440775252185468	1.3192052	-9.831041	-1.6867151
440775257191246	1.3742718	-9.788544	-2.0189106
440775262197025	1.4269443	-9.733478	-2.3415294
440775267202802	1.560421	-9.647884	-2.6210523
440775272208578	1.6328455	-9.461137	-2.6449943
440775277214353	1.4323312	-9.147496	-1.2234371
440775282220132	2.8808231	-10.024373	-4.722563
440775287225909	3.1609447	-10.169821	-4.3478703
440775292231701	3.1794999	-10.270377	-2.6312277
440775297237511	3.5715504	-10.510994	-1.8201919
440775302243301	4.019266	-10.877906	-1.7196354
440775307249097	4.43466	-11.158626	-1.6460136
440775312254887	4.745308	-11.304073	-1.4951789
440775317260674	5.04997	-11.295095	-1.2892777
440775322266456	5.3540335	-11.225663	-1.0241197
440775327272247	5.691616	-11.066449	-0.664391
440775332278043	6.015432	-10.810868	-0.41120413
440775337283832	6.295553	-10.552893	-0.2645593
440775342289617	6.481104	-10.288932	-0.3453636
440775347295400	6.6445084	-10.157849	-0.62608373
440775352301180	6.8641763	-10.079439	-1.1827357
440775357306972	6.9348054	-10.238055	-1.6172832
440775362312764	6.8103065	-10.55828	-2.0655975
440775367318555	6.518214	-10.998813	-2.3582888
440775372324338	5.185242	-10.918607	-0.08200141
440775377330117	4.876989	-11.998991	-1.192911
440775382335898	6.540959	-13.115886	-5.8292828
440775387341679	6.356007	-13.400197	-4.71119
440775392347464	5.5162406	-13.56839	-2.2038627
440775397353251	4.8733974	-13.649793	-1.050456
440775402359036	4.253299	-13.633034	-0.8110358
440775407364840	3.4440591	-13.62645	-1.1001357
440775412370640	2.3876176	-13.741371	-1.6927006
440775417376454	1.5717934	-13.864074	-2.4277205
440775422382261	1.2216414	-13.745561	-2.9233203
440775427388060	1.2336124	-13.45706	-2.9520507
440775432393861	1.377863	-12.946496	-2.9017725
440775437399660	1.4395138	-12.39164	-2.9107506
440775442405458	1.4856021	-11.853543	-2.9592333
440775447411255	1.4544775	-11.488427	-3.1334114
440775452417053	1.4443022	-11.281329	-3.4075475
440775457422849	1.2348095	-11.40463	-3.630807
440775462428644	0.7433996	-11.852944	-3.846285
440775467434445	0.0688333	-12.453889	-3.9151182
440775472440241	-0.7332243	-13.211056	-3.6565444
440775477446044	-1.5885528	-14.097508	-3.0723593
440775482451838	-2.4378958	-15.027656	-2.0518308
440775487457635	-3.1789012	-15.860838	-0.74519527
440775492463427	-3.8145618	-16.485725	0.57640404
440775497469216	-4.4322658	-16.83887	1.7806876
440775502475008	-4.9242744	-16.920872	2.7335799
440775507480799	-5.2606597	-16.679056	3.3135753
440775512486594	-5.3779755	-16.211588	3.4398694
440775517492391	-5.2798133	-15.596279	3.2632968
440775522498248	-4.8123455	-14.583531	3.0855274
440775527504068	-4.283227	-13.820379	2.3295584
440775532509871	-3.8043866	-13.540258	1.4969746
440775537515680	-2.7754784	-12.7914715	0.92057055
440775542521479	-1.8315643	-12.303653	0.107739076
440775547527272	-0.8343793	-11.966669	-0.6560113
440775552533062	0.42796355	-11.649437	-1.5987282
440775557538852	1.6478093	-11.481843	-2.5570073
440775562544652	2.8401217	-11.218481	-3.2225955
440775567550455	3.6254199	-10.986842	-3.513491
440775572556251	3.7403417	-10.941352	-3.4566288
440775577562043	3.502717	-10.985046	-3.457826
440775582567833	3.0148985	-10.9126215	-2.9939492
440775587573625	2.6300306	-10.779145	-2.9640217
440775592579417	2.1930888	-10.429591	-2.4791958
440775597585222	1.9087774	-10.057293	-2.2002714
440775602591016	1.8668787	-9.799318	-2.2505496
440775607596804	1.6861166	-9.480889	-1.9081788
440775612602595	1.6519991	-9.134329	-1.5095441
440775617608385	1.7609353	-8.777593	-1.3754689
440775622614174	1.5358804	-8.490887	-1.2072762
440775627619963	1.3994108	-8.30354	-1.0899603
440775632625752	1.4838065	-8.018032	-0.93852705
440775637631546	1.4993688	-7.611616	-0.81402856
440775642637348	1.2719196	-7.302764	-0.65541273
440775647643141	1.1097125	-6.9747586	-0.47285482
440775652648939	1.1587936	-6.5641527	-0.33518824
440775657654745	1.2425907	-6.0057054	-0.4357447
440775662660543	0.94331545	-5.561581	-0.43514615
440775667666335	0.7308301	-5.1731215	-0.4890157
440775672672129	0.66139823	-4.7756844	-0.6428431
440775677677925	0.7164649	-4.430919	-0.6727707
440775682683716	0.545878	-4.043657	-0.6667852
440775687689505	0.11372458	-3.7509658	-0.5835867
440775692695299	0.015562311	-3.4241574	-0.6147113
440775697701092	-0.051475335	-3.1009402	-0.6596026
440775702706898	-0.14784196	-2.8495488	-0.664391
440775707712700	-0.30466217	-2.6095302	-0.65242
440775712718497	-0.19572599	-2.5640404	-0.7990648
440775717724312	-0.4369418	-2.5125651	-0.7350199
440775722730116	-0.7206547	-2.6729765	-0.6476316
440775727735914	-0.7428011	-2.7035027	-0.6087258
440775732741709	-0.6979098	-2.7783215	-0.64823014
440775737747514	-0.62129533	-2.920178	-0.61650693
440775742753317	-0.56323594	-3.0362966	-0.49799395
440775747759116	-0.46387658	-3.1625907	-0.5554548
440775752764933	-0.3693056	-3.2272344	-0.5758055
440775757770756	-0.3537433	-3.2739213	-0.43514615
440775762776574	-0.33159694	-3.2577603	-0.362123
440775767782392	-0.38965634	-3.2631474	-0.39085343
440775772788207	-0.50757074	-3.2619503	-0.45489833
440775777794032	-0.6051345	-3.2930748	-0.66139823
440775782799843	-0.6302736	-3.3888428	-1.0085574
440775787805657	-0.70509243	-3.6025255	-1.3305776
440775792811469	-0.6961141	-3.814412	-1.560421
440775797817273	-0.7302315	-4.146009	-2.0248961
440775802823069	-0.7697359	-4.5063367	-2.3050177
440775807828866	-0.7870938	-4.997148	-2.7156234
440775812834663	-0.6775591	-5.6244287	-3.3159695
440775817840457	-0.39264908	-6.4737716	-4.051588
440775822846250	0.08499416	-7.430854	-4.708796
440775827852046	0.6751649	-8.669853	-5.473145
440775832857840	1.5460558	-10.087221	-6.3607955
440775837863644	2.8808231	-11.640459	-7.7608047
440775842869445	4.6244006	-13.281086	-9.55047
440775847875245	6.4607534	-14.93129	-11.151593
440775852881044	7.976283	-16.65691	-11.867459
440775857886850	8.856153	-18.334646	-11.725603
440775862892657	9.075222	-19.376722	-11.657368
440775867898454	9.166202	-19.376722	-12.553997
440775872904246	9.546281	-19.376722	-13.408727
440775877910037	9.464279	-19.376722	-13.480553
440775882915831	8.367735	-18.900276	-12.051214
440775887921634	6.661866	-16.589273	-10.283695
440775892927433	4.778228	-14.137611	-9.148843
440775897933243	3.1609447	-11.566238	-8.468291
440775902939042	1.7956513	-8.932617	-7.6943655
440775907944845	0.5734113	-6.9125094	-7.302315
440775912950638	-1.0133458	-4.9259205	-6.3697734
440775917956426	-2.4049757	-3.758747	-5.2786164
440775922962216	-3.6870706	-3.6144965	-4.0719385
440775927968002	-4.674679	-4.5997105	-3.1256304
440775932973787	-5.099051	-6.410924	-1.99437
440775937979571	-5.345055	-8.772804	-0.27234045
440775942985358	-5.2810106	-11.262176	1.7280151
440775947991411	-5.470751	-13.712042	3.942053
440775952997622	-5.7808	-15.999104	5.469554
440775958003930	-5.4671597	-17.636139	5.7029886
440775963010242	-4.867412	-18.6016	4.422689
440775968016523	-4.5447936	-19.234867	1.6436194
440775973022791	-4.5783124	-19.376722	-2.484583
440775978029069	-4.8841715	-19.376722	-7.3232646
440775983035354	-3.5859156	-17.749863	-10.724228
440775988041700	-0.66738373	-14.18789	-10.730812
440775993048022	2.5390508	-10.464906	-6.534375
440775998054295	5.0703206	-7.683442	-0.4830302
440776003060552	6.503849	-6.401347	3.6523547
440776008066765	6.6864066	-6.44145	4.3299136
440776013072744	6.2542534	-6.9777513	2.96881
440776033095830	1.9734207	-9.012823	2.8060043
440776043107885	0.81761986	-7.984513	4.903325
440776048114058	0.54767364	-7.271041	5.221155
440776053120253	0.31244332	-6.72636	5.2941785
440776058126458	0.24600422	-6.5408096	4.95899
440776063132659	-0.24301147	-6.4234934	5.7215433
440776068138847	-0.0676362	-6.9262757	5.039196
440776073145038	0.7565677	-7.8043494	3.4877534
440776078151230	1.726818	-8.79914	2.6755204
440776083157410	2.3983915	-9.898079	2.6276364
440776088163584	2.8778305	-11.150247	2.4791958
440776093169776	2.9496565	-12.264149	2.7263973
440776098175958	2.593519	-13.126061	2.8275523
440776103181868	1.2264298	-13.226019	3.4009635
440776108187642	1.9243397	-13.574974	0.5069722
440776113193345	1.5227122	-12.838757	0.42676646
440776118199010	1.863886	-12.384458	-1.3718776
440776123204657	2.0494366	-11.738622	-2.553416
440776128210296	1.8788497	-11.177779	-3.3566709
440776133215943	1.364695	-10.609157	-3.330933
440776138221605	0.6440403	-10.071658	-2.9352913
440776143227268	0.0077811554	-9.611373	-2.554613
440776148232920	-0.5033809	-9.265411	-2.172738
440776153238568	-0.8870517	-8.853608	-1.6921021
440776158244216	-1.7806876	-8.289774	-0.42317516
440776163249868	-2.7814639	-7.727136	0.42197806
440776168255521	-2.0189106	-7.7379103	-1.1330559
440776173261179	-1.4909891	-7.4607816	-1.2958617
440776178266836	-1.79206	-7.157316	-0.051475335
440776183272491	-2.0811598	-6.9202905	1.0426749
440776188278145	-2.0033484	-6.75509	1.555034
440776193283800	-1.702876	-6.6683006	1.8100165
440776198289469	-1.2749124	-6.7844195	1.9033904
440776203295136	-0.7823054	-7.064541	2.0620062
440776208300807	-0.18136078	-7.4966946	2.1428106
440776213306479	0.43394905	-8.004265	2.134431
440776218312148	1.0235212	-8.521413	2.143409
440776223317816	0.48602295	-8.480113	3.6924577
440776228323489	2.397793	-9.682601	0.21188685
440776233329183	2.4019828	-9.682601	0.49919105
440776238334907	2.168548	-9.717916	0.5895722
440776243340609	2.247557	-9.689783	0.08259996
440776248346300	2.2996306	-9.588628	-0.4854244
440776253351991	2.2349873	-9.412056	-1.067814
440776258357694	2.078167	-9.20376	-1.3455414
440776263363385	1.9207484	-9.107992	-1.5269021
440776268369071	1.7256209	-9.046342	-1.477821
440776273374754	1.5316905	-9.086444	-1.299453
440776278380452	1.4341269	-9.213337	-1.1893197
440776283386146	1.4143747	-9.3761425	-1.0283096
440776288391838	1.3389573	-9.50962	-0.8098387
440776293397527	1.1875241	-9.653272	-0.65301853
440776298403220	1.0313023	-9.730485	-0.62368953
440776303408915	0.90859956	-9.815478	-0.6290765
440776308414610	0.76434886	-9.913641	-0.66139823
440776313420309	0.7254431	-9.997438	-0.6721721
440776318426023	0.7380127	-10.119542	-0.7787141
440776323431740	0.08499416	-9.703549	1.01574
440776328437455	0.6422446	-10.151265	-0.130484
440776333443168	2.0709844	-10.907235	-3.2321723
440776338448879	1.951873	-10.737845	-2.606687
440776343454588	1.8297687	-10.484658	-1.4682442
440776348460302	2.1535845	-10.300903	-1.2246342
440776353466018	2.5139117	-10.159645	-1.4730326
440776358471735	2.9400797	-9.953744	-1.8052281
440776363477451	3.3632548	-9.679607	-1.9135658
440776368483167	3.8127663	-9.516204	-1.9955671
440776373488888	4.2060137	-9.482086	-1.9764135
440776378494628	4.495114	-9.669433	-1.8674773
440776383500359	4.678869	-10.041132	-1.7992426
440776388506087	4.2060137	-10.167426	-0.9187749
440776393511814	3.74513	-10.506206	-0.08319851
440776398517540	5.5312047	-11.435755	-4.3448777
440776403523264	5.1726727	-11.380688	-2.690484
440776408528993	4.830302	-11.16521	-0.8888474
440776413534718	4.9224787	-11.020361	-0.46208093
440776418540464	5.0625396	-10.919206	-0.4914099
440776423546202	5.2169657	-10.779743	-0.54527944
440776428551945	5.294777	-10.693552	-0.7194576
440776433557682	5.3564277	-10.7055235	-1.049259
440776438563431	5.477335	-10.898855	-1.4933833
440776443569181	5.543774	-11.082011	-1.8794483
440776448574929	5.5940523	-11.31365	-2.3008277
440776453580688	5.4779334	-11.632678	-2.6485856
440776458586447	5.267244	-12.0361	-2.8502972
440776463592217	5.0493712	-12.402413	-2.8742392
440776468597970	4.8943467	-12.757953	-2.8263552
440776473603715	4.7219644	-12.986	-2.5659857
440776478609456	4.5663414	-13.086556	-2.2349873
440776483615194	4.31076	-13.1176815	-1.9949685
440776488620939	3.8612487	-13.083564	-1.858499
440776493626677	3.288436	-12.954876	-1.9818004
440776498632430	2.7563248	-12.741792	-2.3570917
440776503638175	2.4666264	-12.49878	-2.8173769
440776508643931	2.3624785	-12.188731	-3.1627405
440776513649685	2.385822	-11.840974	-3.4111388
440776518655434	2.4103625	-11.399841	-3.3985693
440776523661180	2.4486697	-10.858752	-2.9640217
440776528666922	2.4534583	-10.4667015	-3.1399956
440776533672664	2.3523033	-10.30629	-3.3159695
440776538678410	2.0326772	-10.553492	-3.6343982
440776543684157	1.4862007	-10.988638	-4.0120835
440776548689907	0.80564886	-11.536311	-4.1120415
440776553695655	0.1604115	-12.282703	-3.9402575
440776558701424	-0.45130703	-13.336751	-3.393781
440776563707182	-1.0737995	-14.63381	-2.2266076
440776568712936	-1.8375498	-16.087688	-0.635062
440776573718689	-2.4540567	-17.160889	0.6099229
440776578724441	-3.1747115	-17.785177	1.9111716
440776583730193	-3.7834373	-17.988087	3.0561984
440776588735945	-4.134786	-17.797148	3.8420951
440776593741704	-4.1521444	-17.194408	4.257489
440776598747465	-3.942053	-16.355839	4.425083
440776603753222	-3.481768	-15.333515	4.1623197
440776608758979	-2.8712463	-14.280665	3.6062663
440776613764742	-2.1625626	-13.276298	2.7461493
440776618770517	-1.1414356	-12.308441	1.8166006
440776623776282	0.0053869537	-11.571027	0.6853402
440776628782045	1.122282	-11.046099	-0.51116204
440776633787805	2.3421278	-10.676793	-1.6346412
440776638793571	3.453636	-10.534936	-2.585738
440776643799337	4.134786	-10.577434	-3.2094274
440776648805100	4.270657	-10.6738	-3.5625722
440776653810862	3.9713821	-10.727071	-3.5966895
440776658816639	3.4685998	-10.695947	-3.3075895
440776663822410	2.944868	-10.536732	-3.1184478
440776668828177	2.4851813	-10.3152685	-3.039439
440776673833946	2.1655555	-9.990255	-3.0334535
440776678839729	1.8668787	-9.643695	-2.9107506
440776683845510	1.6190789	-9.24506	-2.7910407
440776688851284	1.4047978	-8.796746	-2.5318682
440776693857058	1.1803415	-8.290372	-2.296638
440776698862832	1.0055647	-7.877971	-2.0811598
440776703868604	0.9804256	-7.467964	-1.7238252
440776708874390	1.2826935	-7.075315	-1.3688848
440776713880170	1.2042835	-6.6072483	-0.87687635
440776718885945	0.985214	-6.443246	-0.5847838
440776723891719	1.0354922	-6.1762924	-0.46806642
440776728897492	1.1121067	-5.8614545	-0.3585317
440776733903266	1.3054385	-5.5753474	-0.50397944
440776738909056	0.86610246	-5.3419127	-0.31543607
440776743914840	0.6290765	-5.2413564	-0.38845924
440776748920621	0.6171055	-4.937293	-0.25797522
440776753926398	0.52073884	-4.7313914	-0.20949265
440776758932173	0.6619968	-4.4811974	-0.15083471
440776763937945	0.2088941	-4.384232	0.13108255
440776768943718	-0.040102877	-4.357896	0.12988544
440776773949496	-0.093972415	-4.208857	-0.074220255
440776778955273	-0.32920274	-4.08376	-0.093373865
440776783961047	-0.54887074	-3.9951744	-0.17058687
440776788966821	-0.8146271	-3.9688382	-0.15023616
440776793972595	-1.0570401	-3.9221513	-0.16160862
440776798978398	-1.1474211	-3.942502	-0.077811554
440776803984187	-1.1234791	-4.0670004	-0.0664391
440776808989980	-0.9451111	-4.049044	-0.15861586
440776813995766	-1.4089876	-4.1759367	0.44651863
440776819001551	-1.4640543	-4.196287	0.6314707
440776824007332	-1.328782	-4.1454105	0.4866215
440776829013118	-1.2497733	-4.126257	0.16340427
440776834018898	-1.0426749	-4.019715	-0.23403321
440776839024685	-0.91099375	-3.926341	-0.53929394
440776844030475	-1.3862427	-3.8060324	0.17597382
440776849036262	-1.6980876	-3.902399	0.31304187
440776854042047	-1.8746599	-4.0693946	-0.25977087
440776859047851	-1.9776106	-4.190302	-0.7517793
440776864053654	-2.1027076	-4.41416	-1.1139023
440776869059451	-2.1350293	-4.698471	-1.5143325
440776874065249	-1.9967642	-4.9600377	-1.6214731
440776879071041	-1.7890673	-5.404162	-1.9913772
440776884076830	-1.4730326	-5.957223	-2.368464
440776889082624	-1.0845734	-6.7060094	-2.8042088
440776894088416	-0.46387658	-7.6942163	-3.4051533
440776899094202	0.32561144	-8.94758	-4.377199
440776904099983	1.3688848	-10.506206	-5.8921304
440776909105776	2.6384103	-12.305449	-7.8649526
440776914111568	4.0785227	-14.19208	-9.935339
440776919117398	5.6096144	-16.071527	-12.079945
440776924123209	6.7372837	-17.90848	-13.047202
440776929129008	7.28795	-19.376722	-13.592482
440776934134800	7.3418193	-19.376722	-13.7127905
440776939140591	7.1407065	-19.376722	-13.414712
440776944146381	6.940192	-19.376722	-13.022661
440776949152170	6.747459	-18.967316	-11.918935
440776954157952	6.269217	-17.12797	-10.419566
440776959163770	5.42167	-15.124621	-9.122507
440776964169572	4.293402	-13.056031	-8.246828
440776969175367	3.05141	-11.02455	-7.721899
440776974181157	1.8495208	-9.151088	-7.3687544
440776979186961	0.6338649	-7.71337	-7.1514807
440776984192757	-0.31364042	-6.831705	-6.6175733
440776989198549	-0.89064306	-6.5659485	-5.7508726
440776994204340	-0.9475053	-6.903531	-4.707599
440776999210134	-0.61770403	-7.561338	-3.0119057
440777004215927	-0.27593175	-8.508843	-0.56203884
440777009221717	-0.1945289	-9.725098	2.0135236
440777014227501	-0.18255788	-10.976666	4.0779243
440777019233293	-0.36152446	-12.225243	5.6150017
440777024239085	-0.7062895	-13.315203	7.173627
440777029244875	-1.027711	-14.12983	8.43178
440777034250664	-1.4030021	-14.850485	8.668806
440777039256464	-1.5071499	-15.466991	7.3388267
440777044262263	-1.3293805	-15.771654	4.0904937
440777049268061	-1.1803415	-15.36045	-0.3842694
440777054273863	-0.82899237	-13.631836	-4.7267528
440777059279664	0.2148796	-11.209503	-8.281544
440777064285457	1.6741456	-8.945785	-9.529521
440777069291256	2.6222494	-7.377583	-7.1155677
440777074297055	3.0615854	-6.605453	-2.9005754
440777079302853	3.1896753	-6.5563717	0.051475335
440777084308650	3.1435869	-6.838289	0.7727286
440777089314473	3.0544028	-7.1118264	0.15682021
440777094320280	2.6132712	-7.441029	-0.94690675
440777099326094	1.9321208	-7.7624507	-1.6759412
440777104331898	1.2850877	-7.880964	-1.6478093
440777109337697	0.6679823	-7.90311	-0.8726865
440777114343499	0.20290859	-7.863007	0.22685061
440777119349302	-0.04309563	-7.815722	1.2348095
440777124355098	-0.14544775	-7.791181	2.2158337
440777129360895	-0.031124622	-7.897125	3.0945058
440777134366690	0.53091425	-8.445396	3.2363622
440777139372494	1.1468226	-9.3917055	3.0969
440777144378292	1.4802152	-10.612149	3.1441853
440777149384087	1.726818	-11.792491	3.4075475
440777154389879	1.7633295	-12.740595	3.976769
440777159395688	1.939902	-13.207464	4.0306387
440777164401490	2.2511482	-13.27929	3.4249055
440777169407288	2.3463178	-13.05244	2.6042929
440777174413088	2.1930888	-12.444911	1.6196774
440777179418886	2.0039468	-11.769147	0.28670564
440777184424680	1.816002	-11.02455	-0.84814596
440777189430475	1.666963	-10.207529	-1.4293385
440777194436270	1.7495629	-9.644294	-2.2379801
440777199442064	1.5586253	-9.042151	-1.8914193
440777204447868	1.0510546	-8.690204	-1.1653777
440777209453676	0.60453594	-8.487894	-0.58418524
440777214459484	0.26874915	-8.355615	-0.17298107
440777219465315	-0.05566519	-8.240094	0.26156655
440777224471129	-1.3245921	-7.740903	1.9656396
440777229476933	-0.7703344	-8.14253	0.415394
440777234482743	-0.07182605	-8.265233	-0.20051439
440777239488562	-0.29029694	-8.152706	0.95349085
440777244494385	-0.6512229	-8.109012	1.8710686
440777249500194	-0.5883751	-8.044967	2.0620062
440777254506003	-0.24241292	-8.070704	1.7806876
440777259511807	0.090979666	-8.177845	1.5155296
440777264517607	0.34476504	-8.351424	1.3994108
440777269523404	0.6194997	-8.545355	1.4443022
440777274529200	0.8403648	-8.689606	1.4053963
440777284540876	1.2443863	-8.92723	1.1168951
440777289546699	1.2306197	-9.035567	0.7679402
440777294552512	1.1534066	-9.090035	0.41120413
440777304564120	0.8571242	-9.050531	-0.43275195
440777314575728	0.48722005	-8.842236	-0.9223662
440777324587390	0.4369418	-8.625561	-0.9828198
440777329593205	0.48362875	-8.5561285	-0.9008184
440777334599015	0.64823014	-8.527997	-0.7577648
440777339604838	0.8738836	-8.53937	-0.6135142
440777344610722	1.1186907	-8.618378	-0.33039984
440777349616635	0.40342298	-8.248474	1.5394717
440777354622613	2.15957	-9.239075	-1.3940239
440777359628529	2.678513	-9.475502	-1.946486
440777364634401	2.3223755	-9.456348	-0.88286185
440777369640235	2.367267	-9.564686	-0.4309563
440777374646050	2.5917234	-9.717916	-0.5770026
440777379651865	2.7898436	-9.905261	-1.1210849
440777384657911	2.9502552	-9.962124	-1.5729905
440777389663968	3.116652	-9.954343	-1.963844
440777394670022	3.3393128	-9.821465	-2.2331917
440777399676073	3.560178	-9.62095	-2.5396495
440777404682037	3.8085763	-9.4000845	-2.6623523
440777409688239	4.095282	-9.297732	-2.6521769
440777414694222	3.163339	-8.738687	0.5057751
440777419700076	4.5681367	-9.7897415	-3.0376434
440777424705877	5.327099	-10.318261	-4.350863
440777429711648	4.851251	-10.462512	-2.4582467
440777434717408	4.823119	-10.754005	-1.5071499
440777439723164	4.881179	-11.056872	-1.2210429
440777444728919	4.9984946	-11.2549925	-1.073201
440777449734672	5.064934	-11.245416	-0.8595184
440777454740433	5.0541596	-11.134086	-0.65062433
440777459746217	5.069722	-10.899453	-0.6703765
440777464751993	5.04997	-10.752211	-0.842759
440777469757760	5.043386	-10.746224	-1.1893197
440777474763537	5.080496	-10.831219	-1.6106992
440777479769301	5.145139	-11.0042	-2.123657
440777484775069	5.2540755	-11.227459	-2.7072437
440777489780832	5.3199162	-11.490223	-3.2650926
440777494786591	5.2678423	-11.812243	-3.7481227
440777499792353	5.2008047	-12.067225	-4.0156746
440777504798120	4.9021277	-11.930756	-3.6290112
440777509803889	3.900753	-11.825411	-1.2653356
440777514809662	5.705383	-12.7382	-5.7616463
440777519815454	6.1129956	-12.666374	-5.5168395
440777524821230	5.1379566	-12.431743	-2.7323828
440777529827005	4.2143936	-12.42875	-1.5388732
440777534832780	3.4524388	-12.382063	-1.6005238
440777539838550	2.8215668	-12.289886	-2.2014685
440777544844320	2.417545	-12.12289	-2.8054059
440777549850086	2.2307975	-11.82182	-3.1717186
440777554855859	2.1547816	-11.375899	-3.2956185
440777559861641	2.1517887	-10.836007	-2.906561
440777564867428	2.130241	-10.532542	-3.103484
440777569873203	2.168548	-10.294319	-3.2734723
440777574878970	2.0847511	-10.342203	-3.3105824
440777579884754	1.9363106	-10.730063	-3.952827
440777584890534	1.7034745	-11.355549	-4.373009
440777589896317	1.2641385	-12.340164	-4.2904096
440777594902129	0.7224504	-13.583952	-3.550601
440777599907921	0.02633622	-15.006108	-2.3511062
440777604913703	-0.6667852	-16.542587	-0.8062474
440777609919478	-1.4891934	-17.849821	0.7930793
440777614925253	-2.3247697	-18.698566	2.1733365
440777619931038	-3.2920272	-19.164837	3.3997664
440777624936820	-4.2066126	-19.155859	4.297592
440777629942592	-4.8817773	-18.68839	4.5663414
440777634948368	-5.179257	-17.92045	4.24073
440777639954159	-5.0242324	-16.875381	3.6020765
440777644959943	-4.5741224	-15.715989	2.9167361
440777649965725	-3.8642416	-14.590116	2.1176715
440777654971516	-2.8862102	-13.542054	1.3365631
440777659977302	-1.845331	-12.769923	0.427365
440777664983084	-0.7356185	-12.223447	-0.5279215
440777669988861	0.4973954	-11.890055	-1.5185224
440777674994646	1.8082209	-11.625495	-2.3116016
440777680000485	2.882619	-11.506982	-3.3039982
440777685006295	3.6332011	-11.437551	-3.8097734
440777690012087	3.70383	-11.365725	-3.6870706
440777695017866	3.1950622	-11.235839	-3.3913867
440777700023662	2.3349452	-11.099968	-3.1364043
440777705029461	1.6603789	-10.806678	-3.1052797
440777710035247	1.3012487	-10.312874	-3.221997
440777715041058	1.0749966	-9.682601	-3.2016463
440777720046852	0.9672575	-9.128942	-3.1531637
440777725052638	0.9888053	-8.662671	-3.067571
440777730058416	1.009156	-8.157495	-2.77069
440777735064205	1.0121487	-7.7786117	-2.248754
440777740069989	1.204882	-7.37878	-1.6837224
440777745075811	1.496376	-7.0932713	-1.2707225
440777750081607	1.9363106	-6.877195	-0.9211691
440777755087397	2.0488381	-6.661118	-0.7284359
440777760093195	2.0398598	-6.6240077	-0.43275195
440777765098988	2.067393	-6.5138745	-0.26755205
440777770104776	2.2062569	-6.3396964	-0.034715924
440777775110551	2.259528	-6.0996776	-0.08439561
440777780116341	1.7441759	-6.011092	-0.09876082
440777785122127	1.4885949	-5.8153663	-0.18674773
440777790127915	1.4263457	-5.459229	-0.19632454
440777795133720	1.3868413	-5.191078	-0.16998832
440777800139518	1.1336545	-4.821174	-0.16280572
440777805145309	0.4237737	-4.601506	-0.01616086
440777810151100	0.16220717	-4.266318	-0.04249708
440777815156892	-0.14185645	-3.9101803	-0.04129998
440777820162700	-0.36750996	-3.5737948	-0.074220255
440777825168497	-0.59615624	-3.2996588	-0.13347675
440777830174286	-0.82480246	-3.0883706	-0.10115502
440777835180071	-1.0313023	-2.9387329	-0.0077811554
440777840185854	-0.8355764	-2.9926026	0.019153614
440777845191664	-1.2641385	-2.9225721	0.3477578
440777850197471	-1.6675615	-3.0590415	0.557849
440777855203273	-1.572392	-2.9764416	0.66738373
440777860209065	-1.4323312	-2.896236	0.6452374
440777865214852	-1.4137762	-2.8645127	0.86251116
440777870220636	-1.3443443	-2.927959	0.74399817
440777875226450	-1.0516531	-2.8112416	0.4357447
440777880232258	-1.54845	-2.7459998	1.4879963
440777885238063	-1.775899	-2.7878983	1.7172412
440777890243855	-1.7130513	-2.7687447	1.1468226
440777895249664	-1.6555905	-2.7023056	0.4782418
440777900255458	-1.7405846	-2.7543795	-0.22744916
440777905261248	-1.8830396	-2.866907	-0.3878607
440777910267033	-2.0093338	-3.154211	-0.7062895
440777915272818	-2.130241	-3.5947442	-1.2635399
440777920278603	-2.067393	-4.118476	-1.9183542
440777925284396	-1.9123687	-4.81878	-2.967613
440777930290197	-1.483208	-5.468806	-3.168726
440777935295989	-0.9744401	-6.4474354	-3.8552632
440777940301794	-0.41958386	-7.9043074	-4.791396
440777945307591	0.46088383	-9.722105	-6.3727665
440777950313384	1.9482816	-11.4776535	-6.76781
440777955319189	4.047398	-13.504345	-7.872135
440777960324993	6.609792	-15.618425	-9.93474
440777965330786	8.811261	-17.532589	-11.7860565
440777970336574	10.3770685	-19.376722	-12.937069
440777975342384	11.290457	-19.376722	-12.9963255
440777980348178	10.868479	-19.376722	-12.987347
440777985353969	10.26933	-19.376722	-14.824897
440777990359758	9.745598	-19.376722	-16.488268
440777995365544	9.120711	-19.376722	-16.221914
440778000371344	8.033145	-19.376722	-14.566323
440778005377148	6.0124393	-17.44999	-11.613674
440778010382945	4.034828	-14.030471	-9.0315275
440778015388773	1.9949685	-11.060464	-7.867945
440778020394578	0.23702596	-8.43163	-7.0275807
440778025400370	-1.0821792	-6.3115644	-7.0862384
440778030406159	-2.617461	-4.397999	-4.669292
440778035411977	-3.3854012	-3.9436991	-3.2555158
440778040417776	-3.8253357	-4.8552914	-2.2810757
440778045423568	-3.915717	-6.4683847	-1.0043676
440778050429355	-3.9953241	-8.586056	0.5129577
440778055435161	-4.172495	-10.950929	2.4666264
440778060440971	-4.1904516	-13.006949	4.705205
440778065446787	-4.2317514	-14.669125	6.6606693
440778070452590	-3.9761705	-15.567549	7.5566993
440778075458403	-3.4021606	-15.654937	6.806117
440778080464199	-3.120842	-15.842881	4.0880995
440778085469999	-3.044826	-16.064344	-0.007182605
440778090475792	-2.7377696	-15.428684	-4.0575733
440778095481584	-1.5747862	-13.446285	-6.882133
440778100487369	0.20470424	-10.675595	-7.2526355
440778105493157	2.4516625	-7.751078	-3.9001546
440778110498937	4.4340615	-5.419126	0.85891986
440778115504742	5.365406	-4.363283	3.6613328
440778120510554	5.119402	-4.658368	3.679888
440778125516386	4.449025	-5.6723127	2.1583729
440778130522197	3.9731777	-6.626402	0.4333505
440778135527995	3.1435869	-7.5350018	-0.8194155
440778140533786	2.0213048	-8.37357	-1.3263878
440778145539574	0.9564836	-8.9302225	-1.0995371
440778150545400	0.3274071	-9.138518	-0.31663316
440778155551202	0.010175358	-9.072079	0.7356185
440778160557001	-0.31603462	-8.682423	1.9548657
440778165562785	-0.3764882	-8.348432	2.6024973
440778170568563	0.13227965	-8.399308	2.1859062
440778175574354	-0.17178397	-8.276606	3.916914
440778180580152	0.27832595	-8.893112	2.8580782
440778185585945	1.2162545	-9.658659	1.8411411
440778190591733	1.951873	-10.337415	1.8088194
440778195597518	2.4331074	-11.096376	2.0763714
440778200603325	2.5486276	-11.825411	2.5600002
440778205609121	2.630629	-12.266542	2.8574798
440778210614930	2.5899277	-12.549059	2.6910827
440778215620724	2.475006	-12.698097	1.963844
440778220626524	2.348712	-12.488605	1.2006922
440778225632316	2.172738	-11.73503	0.8343793
440778230638100	1.8854338	-10.940754	0.34955344
440778235643926	1.8183962	-10.321254	-0.9463082
440778240649752	1.532289	-9.6413	-1.1917139
440778245655563	1.1168951	-9.031977	-1.0761937
440778250661375	0.8403648	-8.544158	-0.91099375
440778255667169	0.5943606	-8.217948	-0.79128367
440778260672964	0.29927522	-8.04377	-0.53689975
440778265678754	-0.065242	-8.008455	-0.24899697
440778270684541	-0.5189432	-7.9569798	0.19093758
440778275690322	-2.005144	-7.2824135	2.143409
440778280696106	-1.3365631	-7.7019973	0.08559271
440778285701895	-0.56203884	-7.993491	-0.8002619
440778290707681	-0.61171854	-7.949797	0.29269117
440778295713481	-0.9451111	-8.023418	1.3389573
440778300719305	-0.9211691	-8.168268	1.6777369
440778305725108	-0.516549	-8.3334675	1.632247
440778310730924	-0.06943185	-8.6507	1.5215151
440778315736723	0.3465607	-9.082853	1.4802152
440778320742511	0.7398083	-9.4952545	1.5454572
440778325748297	1.1468226	-9.8376255	1.5280992
440778330754090	1.4203602	-10.090812	1.3497312
440778335759880	1.6490064	-10.155456	1.0456676
440778340765663	1.7172412	-10.097396	0.6751649
440778345771452	1.6472107	-9.966912	0.23283611
440778350777268	1.4652514	-9.784953	-0.26635495
440778355783086	1.2467805	-9.523985	-0.7858967
440778360788884	1.0145429	-9.295937	-1.1133038
440778365794670	0.8086416	-9.122357	-1.2886791
440778370800452	0.61650693	-9.009232	-1.3210008
440778375806232	0.4297592	-8.945785	-1.2802993
440778380812016	0.2813187	-8.94399	-1.1575965
440778385817795	-1.0600328	-8.310124	1.6729485
440778390823577	0.18016368	-9.198373	-1.2773066
440778395829362	1.2850877	-9.58803	-2.6821043
440778400835156	0.90141696	-9.556905	-1.4814123
440778405840940	0.6691794	-9.581446	-0.56084174
440778410846721	0.9475053	-9.655665	-0.34835634
440778415852517	1.3150153	-9.807697	-0.6410475
440778420858309	1.62686	-9.896283	-0.9624691
440778425864107	1.9189527	-9.857377	-1.2132617
440778430869898	2.2457612	-9.686192	-1.3826514
440778435875685	2.6437972	-9.443779	-1.6328455
440778440881478	2.9747956	-9.204957	-1.7818847
440778445887263	2.2517467	-8.445396	0.6907272
440778450893048	3.6894648	-9.027786	-2.7940333
440778455898833	4.698621	-9.080459	-4.5741224
440778460904650	4.344279	-8.811111	-2.8191724
440778465910453	4.2054152	-8.810513	-1.7208325
440778470916249	4.27365	-9.130138	-1.5316905
440778475922071	4.383185	-9.592818	-1.6334441
440778480927871	4.4807487	-9.949554	-1.5406688
440778485933679	4.6136265	-10.2679825	-1.3862427
440778490939473	4.739322	-10.501417	-1.1115081
440778495945291	4.8219223	-10.663625	-0.7529764
440778500951093	4.950012	-10.771962	-0.480636
440778505956887	5.021838	-10.749816	-0.37948096
440778510962668	4.9865236	-10.668413	-0.362123
440778515968436	4.895544	-10.585215	-0.50158525
440778520974217	4.8147397	-10.618733	-0.9187749
440778525980007	4.812944	-10.724677	-1.5209166
440778530985804	4.7925935	-10.9605055	-2.2457612
440778535991633	4.75668	-11.258584	-2.870648
440778540997439	4.656722	-11.627291	-3.300407
440778546003252	4.550779	-12.028918	-3.6194344
440778551009051	4.483143	-12.364705	-3.697246
440778571032414	5.2241483	-12.862699	-3.669114
440778576038223	4.1120415	-12.394034	-1.4556746
440778581044031	3.1310172	-12.25098	-1.1360487
440778591055711	1.7938557	-12.05286	-2.2583308
440778601067327	0.9163807	-11.544691	-2.7874494
440778611078942	0.37588966	-11.432762	-2.9993362
440778621090562	0.15083471	-11.953501	-2.8754363
440778626096376	-0.17058687	-12.664578	-3.0735564
440778631102170	-0.50517654	-13.594727	-3.2585084
440778636107960	-0.94810385	-14.684088	-3.256713
440778641113745	-1.3976152	-15.787216	-2.8604724
440778646119531	-1.9710265	-16.819715	-2.2080526
440778651125312	-2.5312698	-17.702578	-1.3862427
440778656131100	-3.0615854	-18.225113	-0.55006784
440778661136897	-3.4847605	-18.34602	0.107140526
440778666142696	-3.5871127	-18.058117	0.52612585
440778671148480	-3.6152446	-17.494282	0.9127894
440778676154283	-3.6487634	-16.72754	1.1575965
440778681160066	-3.6290112	-15.84767	1.2551602
440778686165832	-3.530849	-14.921114	1.3455414
440778691171599	-3.2890346	-14.059201	1.30484
440778696177379	-2.8000188	-13.358897	1.1749545
440778701183161	-2.31639	-12.882451	0.9223662
440778706188945	-1.8920178	-12.597541	0.51116204
440778711194728	-1.1911154	-12.222849	0.12270284
440778716200543	-0.34117374	-12.039692	-0.97743285
440778721206344	0.8050503	-11.668591	-1.8046296
440778726212138	2.0518308	-11.187955	-2.3612814
440778731217920	3.1244333	-10.713903	-2.6839
440778736223700	3.7696705	-10.327239	-2.72939
440778741229479	4.052785	-10.063278	-2.8658595
440778746235265	4.0581717	-9.823858	-2.722806
440778751241048	3.9953241	-9.639505	-2.8802247
440778756246832	3.7960067	-9.333646	-2.7461493
440778761252611	3.496133	-9.149292	-2.5881321
440778766258392	3.1160536	-9.024794	-2.4971523
440778771264171	2.8491	-8.975114	-2.566584
440778776269967	2.5264814	-8.744074	-2.1320367
440778781275766	2.2996306	-8.51004	-1.7166426
440778786281560	2.0931308	-8.320898	-1.4616601
440778791287351	2.0560207	-8.164677	-1.460463
440778796293134	1.7555484	-8.038981	-1.2336124
440778801298913	1.5598224	-7.927052	-0.9672575
440778806304691	1.3323733	-7.765444	-0.7918822
440778811310473	1.2419921	-7.550564	-0.5967548
440778816316255	1.4652514	-7.26326	-0.56563014
440778821322036	1.3628993	-6.9945107	-0.4165911
440778826327817	1.2312182	-6.770653	-0.24839842
440778831333596	1.0360907	-6.5216556	-0.1328782
440778836339394	0.86490536	-6.23914	-0.010773907
440778841345192	0.81163436	-5.929091	0.012569559
440778846350991	1.1318588	-5.5142956	-0.010175358
440778851356791	0.777517	-5.13242	0.2184709
440778856362579	0.42197806	-4.912752	0.2621651
440778861368360	0.3357868	-4.6092873	0.1592144
440778866374142	0.260968	-4.307019	-0.047884032
440778871379925	0.093373865	-4.0759788	-0.260968
440778876385708	-0.16998832	-3.8838441	-0.40462008
440778881391491	-0.2621651	-3.7300167	-0.51355624
440778886397273	-0.30885202	-3.6222775	-0.5530606
440778891403055	-0.3441665	-3.6504095	-0.5518635
440778896408849	-0.53450555	-3.6845267	-0.38367084
440778901414638	-0.5327099	-3.71625	-0.38845924
440778906420429	-0.53450555	-3.7886746	-0.31603462
440778911426221	-0.50637364	-3.8443398	-0.27473465
440778916432013	-0.55006784	-3.9047933	-0.19752164
440778921437805	-0.18614918	-3.9287353	-0.7637503
440778926443599	-0.61890113	-3.8341644	0.24779987
440778931449387	-0.9103952	-3.954473	0.78410107
440778936455174	-0.86490536	-3.8820484	0.59495914
440778941460971	-0.7062895	-3.6941035	0.34356794
440778946466767	-0.7068881	-3.5318964	0.24839842
440778951472559	-0.7673417	-3.428347	0.13347675
440778956478364	-0.8074445	-3.30325	-0.14724341
440778961484164	-0.90261406	-3.2733226	-0.17657238
440778966489970	-0.9900024	-3.359514	-0.3854665
440778971495773	-1.0426749	-3.480421	-0.7266402
440778976501574	-1.1498153	-3.6875196	-1.1683705
440778981507374	-1.3000516	-3.9496846	-1.6813282
440778986513173	-1.4437037	-4.317793	-1.8656816
440778991518970	-1.5933412	-4.8977885	-2.516306
440778996524773	-1.6525977	-5.650765	-3.3033998
440779001530571	-1.5688007	-6.6084456	-4.365228
440779006536368	-1.2856863	-7.749283	-5.549161
440779011542189	-0.777517	-8.91885	-5.9304376
440779016548012	-0.22565351	-10.4589205	-6.4421983
440779021553820	0.6344634	-12.331186	-7.623737
440779026559640	2.2266076	-14.154969	-9.178172
440779031565727	4.5447936	-15.777041	-10.761936
440779036571926	6.630143	-17.516428	-11.780669
440779041578174	8.37372	-19.356972	-12.031462
440779046584462	9.523536	-19.376722	-12.340913
440779051590755	9.78989	-19.376722	-13.75828
440779056597064	9.370906	-19.376722	-16.907253
440779061603352	9.022549	-19.376722	-18.932749
440779066609626	9.078215	-19.376722	-18.377295
440779071615885	8.082825	-18.797926	-14.3658085
440779076622136	5.9244523	-15.538219	-10.760141
440779081628408	3.5996823	-12.662185	-8.34499
440779086634412	1.3994108	-10.326641	-6.9988503
440779091640271	-0.39564183	-8.427441	-5.758055
440779096646060	-2.0398598	-7.3422685	-4.200627
440779101651812	-3.0412347	-7.423073	-2.722806
440779106657555	-3.169923	-8.218546	-1.3628993
440779111663286	-3.204639	-9.580847	-0.92775315
440779116669011	-2.8951883	-11.056273	0.516549
440779121674735	-2.3953989	-12.519131	2.5187001
440779126680460	-2.271499	-13.908965	5.203199
440779131686186	-2.247557	-14.660146	7.716512
440779136691920	-2.172738	-14.5506115	9.0237465
440779141697647	-1.8243817	-13.616873	7.3268557
440779146703370	-1.2425907	-12.4568815	3.0472202
440779151709091	-1.0935516	-11.251401	-1.3551182
440779156714814	-0.8283938	-9.558102	-4.506486
440779161720538	-0.027533319	-7.4577885	-5.1601033
440779166726268	1.4281414	-5.0995	-2.0817583
440779171731995	2.6437972	-3.1326632	2.2481554
440779176737724	2.5689783	-2.677765	3.5978866
440779181743458	1.7543513	-3.5462615	1.6262615
440779186749190	0.9427169	-5.076755	-1.7537527
440779191754919	0.28191724	-6.7910037	-4.622605
440779196760672	-0.18495208	-8.463952	-5.4647655
440779201766419	-0.3441665	-9.8136835	-4.034828
440779206772167	-0.17657238	-10.722282	-1.4796166
440779211777923	0.39624038	-11.1352825	1.1079168
440779216783677	1.1869255	-11.195138	2.980781
440779221789428	1.8962077	-11.059266	4.0701427
440779226795172	2.3989902	-10.9760685	4.6142254
440779231800914	2.8101943	-11.011981	4.5423994
440779236806656	3.020884	-11.166407	4.296395
440779241812398	3.229778	-11.533917	3.2555158
440779246818141	3.445855	-11.862521	2.4307132
440779251823882	3.4105403	-12.311434	2.1398177
440779256829640	3.0172927	-12.693908	2.475006
440779261835402	2.3523033	-12.929737	2.6042929
440779266841158	1.6819267	-12.863896	2.4073699
440779271846909	1.0163386	-12.546066	1.7238252
440779276852659	0.51954174	-12.0750065	0.6596026
440779281858410	0.048482586	-11.431565	-0.2813187
440779286864168	-0.30466217	-10.637887	-0.7757214
440779291869923	-0.3693056	-9.950152	-1.4885949
440779296875676	-0.16998832	-9.4874735	-2.1619642
440779301881431	0.29209262	-8.98529	-2.4229321
440779306887195	0.39683893	-8.516624	-1.7723078
440779311892955	0.36870706	-8.21316	-1.0714053
440779316898725	0.1400608	-7.9922943	-0.43634325
440779321904490	-1.2384008	-7.370999	1.3108255
440779326910260	-0.8086416	-7.8785696	-0.3429694
440779331916024	-0.3878607	-8.222137	-0.8834604
440779336921785	-0.43993455	-8.399907	-0.3824737
440779341927546	-0.4985925	-8.42325	0.031124622
440779346933311	-0.79846627	-8.445396	0.7679402
440779351939071	-0.8475474	-8.405892	1.1833342
440779356944829	-0.6703765	-8.414871	1.2485762
440779361950590	-0.3250129	-8.490887	1.3395559
440779366956351	0.13467385	-8.587852	1.3754689
440779371962110	0.6218939	-8.691999	1.4820108
440779376967879	1.1049241	-8.793155	1.6220716
440779381973643	1.4862007	-8.892514	1.7381904
440779386979500	1.8052281	-8.9936695	1.70946
440779391985311	1.9734207	-9.040955	1.5412674
440779396991099	2.0189106	-9.025393	1.2677298
440779401996879	1.9440918	-8.973917	0.90381116
440779407002653	1.8207904	-8.847623	0.3489549
440779412008420	1.6154876	-8.693196	-0.12928689
440779417014181	1.3305776	-8.533383	-0.5823896
440779422019943	1.021127	-8.326285	-0.9876082
440779427025712	0.7380127	-8.128764	-1.2563573
440779432031476	0.5093664	-8.001871	-1.3916297
440779437037254	0.34955344	-7.8803654	-1.4215573
440779442043037	0.30945057	-7.776816	-1.3305776
440779447048811	0.0676362	-7.5804915	-0.6991069
440779452054583	-0.22744916	-7.487118	0.374094
440779457060358	1.3688848	-8.1341505	-1.5406688
440779462066124	2.0099323	-8.3095255	-1.5574282
440779467071892	1.8435353	-8.362797	-0.34237084
440779472077662	1.9297266	-8.55134	0.32142156
440779477083425	2.1906946	-8.835053	0.338181
440779482089191	2.4642322	-9.194782	0.078410104
440779487094958	2.695871	-9.5431385	-0.25857377
440779492100724	2.8921957	-9.832837	-0.61052144
440779497106503	3.031658	-10.001029	-0.89662856
440779502112275	3.141791	-10.099192	-1.2138603
440779507118052	3.2028434	-10.050709	-1.4167689
440779512123822	2.1057005	-9.425224	0.8403648
440779517129587	3.330933	-9.928605	-3.0711622
440779522135387	3.9677908	-9.775974	-4.9733553
440779527141188	3.465607	-9.325266	-3.603872
440779532146975	3.1944637	-9.208549	-2.6821043
440779537152750	3.1920695	-9.444378	-2.6138697
440779542158520	3.354875	-9.817274	-2.8323407
440779547164295	3.5314474	-10.256611	-2.879626
440779552170073	3.7229836	-10.679786	-2.7365725
440779557175858	4.0252514	-11.037719	-2.48578
440779562181633	4.2556934	-11.223868	-1.9764135
440779567187404	4.5280337	-11.202919	-1.3970166
440779572193168	4.710592	-11.028741	-0.8984242
440779577198943	4.833295	-10.803685	-0.6853402
440779582204712	4.927267	-10.615142	-0.6919243
440779587210482	5.0026846	-10.472687	-0.93493575
440779592216253	5.1343656	-10.428394	-1.4347254
440779597222029	5.245696	-10.560076	-2.1278467
440779602227806	5.345055	-10.832416	-2.8257565
440779607233581	5.4366336	-11.211298	-3.4500446
440779612239353	5.4701524	-11.745804	-3.894169
440779617245150	5.5030727	-12.344355	-4.2000284
440779622250937	5.2702365	-12.735806	-3.8696284
440779627256730	3.657143	-12.423363	0.095169514
440779632262511	5.943007	-13.859884	-5.555745
440779637268299	6.751649	-14.203452	-6.3003416
440779642274085	5.443816	-13.472622	-2.509722
440779647279859	4.2538977	-13.033286	-1.2964603
440779652285628	3.3010056	-12.708273	-1.6142905
440779657291400	2.6240451	-12.295273	-2.2170308
440779662297170	2.1613655	-11.842769	-2.7371712
440779667302939	1.8986019	-11.402835	-3.0238767
440779672308727	1.7741034	-10.983251	-3.0041246
440779677314526	1.6106992	-10.792912	-3.3423057
440779682320316	1.54845	-10.854563	-3.7828386
440779687326096	1.4676456	-11.257387	-4.1198225
440779692331869	1.2970588	-12.098351	-4.5076833
440779697337641	0.9696517	-13.334356	-4.8733974
440779702343418	0.46866497	-14.79063	-4.396951
440779707349190	-0.12090719	-16.410307	-3.2890346
440779712354958	-0.84575176	-17.84563	-1.5215151
440779717360748	-1.5508442	-18.765005	0.5662287
440779722366530	-2.2732944	-19.057096	2.3540988
440779727372317	-2.8622682	-18.777575	3.6954503
440779732378098	-3.2375593	-18.128746	4.38498
440779737383892	-3.448249	-17.274015	4.525041
440779742389679	-3.38181	-16.279224	4.0839095
440779747395475	-3.1244333	-15.228768	3.5458126
440779752401258	-2.641403	-14.245949	2.9107506
440779757407034	-2.0332758	-13.423541	2.2278047
440779762412808	-1.2078748	-12.702886	1.3509283
440779767418587	-0.27473465	-12.240207	0.3890578
440779772424367	0.7751228	-11.738622	-0.25438392
440779777430140	1.6059108	-11.749993	-1.4335283
440779782435909	2.309806	-11.906216	-2.2936451
440779787441959	3.0651767	-12.026524	-3.1992521
440779792448131	3.6601357	-12.048072	-3.6750996
440779797454116	3.8815994	-11.949909	-3.7253778
440779802460011	3.7008374	-11.794287	-3.8432922
440779807465838	3.2148144	-11.591378	-3.572149
440779812471631	2.7156234	-11.256788	-3.2597055
440779842506869	1.7369933	-9.250447	-1.9877859
440779847512646	1.7447745	-8.878747	-1.3940239
440779852518430	1.804031	-8.571093	-0.81043726
440779857524209	1.8842367	-8.359205	-0.30705637
440779862529976	2.030283	-8.234109	-0.05626374
440779867535739	2.457648	-7.921665	0.030526072
440779872541498	2.36188	-7.6565075	0.31124622
440779877547258	2.1392193	-7.408109	0.45130703
440779882553018	1.8411411	-7.1357684	0.5351041
440779887558781	1.5340848	-6.778434	0.58897364
440779892564540	1.2575544	-6.357653	0.55246204
440779897570297	0.99060094	-5.9458504	0.47165772
440779902576064	0.65660983	-5.5741506	0.39743748
440779907581870	0.33997664	-5.1707273	0.27593175
440779912587657	0.06703765	-4.724209	0.1921347
440779917593446	-0.26515785	-4.3561006	0.16579847
440779922599222	-0.5674258	-3.9460933	0.24959552
440779927604995	-0.92535895	-3.576189	0.3764882
440779932610774	-1.1228806	-3.2146647	0.39384618
440779937616549	-1.1384429	-2.8525417	0.4405331
440779942622319	-1.0887632	-2.6813562	0.41838676
440779947628375	-1.1653777	-2.5371056	0.4429273
440779952634535	-1.4814123	-2.5784056	0.7080852
440779957640785	-1.484405	-2.5065796	0.7978677
440779962647078	-1.4089876	-2.3509564	0.7422025
440779967653343	-1.4443022	-2.2785318	0.7870938
440779972659609	-1.5855601	-2.2468088	1.027711
440779977665935	-1.6298528	-2.2563856	1.1133038
440779982672249	-1.5753847	-2.256984	0.9840169
440779987678531	-1.5167267	-2.2665608	0.76315176
440779992684794	-1.3724761	-2.2815247	0.22924481
440779997691065	-1.3138182	-2.341978	0.23642741
440780002697345	-1.2892777	-2.5496752	-0.23343466
440780007703587	-1.2138603	-2.838775	-0.599149
440780012709820	-1.3401544	-3.003975	-0.11133038
440780017716042	-1.4993688	-3.432537	-0.08379706
440780022722277	-1.5011644	-3.9006035	-0.49200845
440780027728500	-1.311424	-4.390816	-0.97623575
440780032734717	-1.0342951	-4.9217305	-1.3108255
440780037740912	-0.6961141	-5.510704	-0.9792285
440780042747108	-0.48243165	-6.464195	-1.2563573
440780047753330	-0.18255788	-7.6750627	-1.9883845
440780052759519	0.40282443	-9.090035	-3.2363622
440780057765688	1.5119383	-10.564864	-4.5914803
440780062771827	2.7778726	-12.335975	-6.0262055
440780067778005	4.396353	-14.216022	-8.246229
440780072784202	6.0303955	-16.015863	-10.645219
440780077790374	7.501034	-17.755848	-12.679093
440780082796522	8.598177	-19.376722	-14.158112
440780087802699	9.185355	-19.376722	-15.173852
440780092808859	9.387066	-19.376722	-16.08305
440780097814991	9.185355	-19.376722	-16.207548
440780102821085	8.7771435	-19.376722	-14.907496
440780107827182	8.343793	-19.376722	-13.752893
440780112833300	6.76781	-17.247679	-10.128671
440780117839415	4.841076	-14.603284	-7.7027454
440780122845520	3.2082303	-12.036699	-6.8360443
440780127851615	1.8357542	-9.3444195	-6.4805055
440780132857718	0.50757074	-6.737134	-6.078878
440780137863818	-0.7254431	-4.803816	-5.492897
440780142869907	-1.6172832	-3.8527195	-5.3863554
440780147876013	-2.457648	-3.7659297	-3.755904
440780152882109	-2.794632	-5.023484	-3.603872
440780157888179	-2.858677	-6.996905	-3.2429461
440780162894237	-2.755726	-9.378537	-2.0428526
440780167900323	-2.7569232	-12.179753	-0.36152446
440780172906402	-2.4636335	-14.963611	1.5813702
440780177912471	-2.2864625	-17.653496	3.7044287
440780182918508	-2.1511903	-19.376722	5.708974
440780187924561	-0.76075757	-19.376722	6.7103486
440780192930630	0.95708215	-19.376722	5.779603
440780197936661	1.8818425	-18.566885	2.8981812
440780202942705	2.1272483	-16.514456	-0.8607155
440780207948766	2.2104468	-13.622259	-4.59986
440780212954799	2.4534583	-10.492439	-6.8581905
440780217960812	3.0268695	-7.2644567	-4.8069587
440780222966813	3.6888664	-4.113089	0.97384155
440780227972854	2.9993362	-2.318036	4.6818614
440780232978888	1.5310919	-2.2091	3.2890346
440780237984903	0.28072014	-3.0955532	-1.0085574
440780242990908	-0.9588778	-4.4063787	-5.1678843
440780247996950	-2.2936451	-5.78903	-6.863578
440780253002995	-3.3794158	-6.888567	-5.4246626
440780258009022	-3.6631286	-7.4488106	-2.0691888
440780263015015	-3.196858	-7.597251	1.0115502
440780268021067	-2.3343468	-7.735516	2.790442
440780273027115	-1.210269	-7.9958854	3.5954924
440780278033124	-0.035913024	-8.434025	4.2383356
440780283039118	0.9379285	-9.036166	5.195418
440780288045123	1.6705543	-9.779566	5.8837504
440780293051134	2.2008698	-10.561273	6.2542534
440780298057119	2.6114755	-11.661408	5.4474072
440780303063110	3.0831332	-12.819603	4.426879
440780308069126	3.572149	-13.7467575	3.7373488
440780313075110	4.289212	-14.217817	3.0986955
440780318081078	4.367024	-14.571561	2.8921957
440780323087051	4.131195	-14.561984	2.4666264
440780328093051	3.4985273	-14.137611	2.1266496
440780333099018	3.1256304	-13.511528	0.6715736
440780338104954	2.6007016	-12.546664	-0.13946225
440780343110894	1.8752584	-11.559655	-0.7110779
440780348116910	1.06123	-10.510396	-0.8499416
440780353122873	-0.35194764	-9.227702	0.12868834
440780358128815	0.25737667	-9.057116	-2.8233624
440780363134817	0.6847417	-8.92304	-3.954024
440780368140806	0.6901286	-8.811709	-3.3842041
440780373146756	0.18674773	-8.616582	-1.6424223
440780378152679	-0.35314476	-8.372374	-0.12808979
440780383158620	-0.8218097	-8.187422	0.7338228
440780388164565	-1.1791444	-8.109012	1.1414356
440780393170505	-1.8602947	-7.475147	2.3630772
440780398176480	-2.633622	-7.077709	2.5605986
440780403182447	-1.7160441	-7.851635	0.15442601
440780408188377	-0.78769237	-7.803152	-0.32142156
440780413194293	-0.8511387	-7.5643306	1.1204864
440780418200230	-1.0881647	-7.7444944	1.9800048
440780423206155	-0.74998367	-8.0066595	2.0655975
440780428212057	-0.12090719	-8.231714	1.8477252
440780433217932	0.48961425	-8.545954	1.7022774
440780438223869	0.9187749	-8.97691	1.6609775
440780443229795	1.2808979	-9.374946	1.5885528
440780448235703	1.5885528	-9.69936	1.4089876
440780453241583	1.882441	-9.870545	1.22224
440780458247486	2.0853498	-9.904064	0.9660604
440780463253394	2.0841527	-9.797523	0.66379243
440780468259305	2.086547	-9.590424	0.18614918
440780473265172	2.0416555	-9.276783	-0.30705637
440780478271037	1.9117701	-8.9541645	-0.79367787
440780483276977	1.650802	-8.684817	-1.1504139
440780488282887	1.2264298	-8.485499	-1.388637
440780493288770	0.8655039	-8.347235	-1.4550761
440780498294701	0.5291186	-8.222137	-1.483208
440780503300634	0.31064767	-8.162881	-1.3784616
440780508306536	0.16101007	-8.135946	-1.1378443
440780513312427	-1.0726024	-7.46557	1.5490485
440780518318051	0.17477672	-8.292767	-1.2300211
440780523323533	1.18094	-8.48969	-2.3523033
440780528328944	0.85532856	-8.3250885	-1.258153
440780533334326	0.6290765	-8.255058	-0.25498247
440780538339696	0.760159	-8.294562	0.019752163
440780543345067	0.9403227	-8.592042	-0.3752911
440780548350436	1.0175357	-8.953567	-0.8110358
440780553355808	1.0432734	-9.270798	-1.050456
440780558361462	1.1055226	-9.506028	-1.1839328
440780563367265	1.1348516	-9.679009	-1.2838906
440780568373132	1.2623428	-9.801712	-1.429937
440780573379025	1.3575124	-9.778967	-1.6795325
440780578384934	1.4742297	-9.705944	-1.8770541
440780583390847	1.620276	-9.577255	-2.0763714
440780588396807	1.8022354	-9.400683	-2.1499932
440780593402786	1.1605892	-8.656087	0.45010993
440780598408738	2.3983915	-9.410859	-2.777274
440780603414715	2.9945478	-9.659257	-3.9145198
440780608420657	2.7126305	-9.600599	-2.2774844
440780613426581	2.7192147	-9.727492	-1.4293385
440780618432498	2.8981812	-10.0543	-1.353921
440780623438416	3.1304188	-10.303297	-1.4742297
440780628444339	3.3411086	-10.448147	-1.4993688
440780633450240	3.5248635	-10.497827	-1.364695
440780638456142	3.8492777	-10.43438	-1.2006922
440780643462068	4.214992	-10.349984	-0.9516952
440780648467978	4.642357	-10.130317	-0.6428431
440780653473862	5.0930657	-9.851392	-0.3369839
440780658479745	5.3540335	-9.653871	-0.05925649
440780663485611	5.7005944	-9.528773	-0.19632454
440780668491513	5.9597664	-9.5191965	-0.40701428
440780673497407	6.506243	-9.464129	-1.0696096
440780678503332	6.637924	-9.597008	-1.2437878
440780683509227	6.5744777	-9.846603	-1.5227122
440780688515104	6.4427967	-10.093804	-1.9285295
440780693520724	6.415862	-10.3631525	-2.3654714
440780698526225	5.153519	-9.79453	0.48961425
440780703531642	5.4444146	-10.732458	-1.8686744
440780708537021	7.053318	-11.433361	-5.671864
440780713542386	6.9252286	-11.402236	-4.2239704
440780718547753	6.3763576	-11.466281	-2.420538
440780723553115	5.946	-11.729643	-1.9273324
440780728558483	5.530606	-11.914595	-1.9117701
440780733563858	4.919486	-11.952903	-2.043451
440780738569525	4.374805	-11.829601	-2.3157916
440780743575301	3.8121676	-11.682956	-2.6605566
440780748581143	3.2872388	-11.600356	-2.9783869
440780753587070	2.8000188	-11.572225	-3.1771057
440780758593016	2.3690627	-11.420791	-3.25791
440780763598954	2.007538	-11.114932	-2.9269116
440780768604882	1.5747862	-11.169998	-3.4195185
440780773610862	1.2240356	-11.438747	-3.888782
440780778616831	0.78769237	-12.036699	-4.385579
440780783622765	0.32680854	-13.08955	-4.4621935
440780788628688	-0.31364042	-14.468011	-4.052785
440780793634640	-1.271321	-16.109835	-3.1232362
440780798640604	-2.3235726	-17.754053	-1.7645266
440780803646548	-3.6445735	-19.287539	-0.2681506
440780808652459	-5.1301756	-19.376722	1.0348936
440780813658345	-6.5068417	-19.376722	1.8734628
440780818664259	-7.4986396	-19.376722	2.4648306
440780823670171	-7.952341	-19.376722	2.9993362
440780828676074	-7.8248496	-19.376722	3.2603042
440780833681968	-7.253833	-18.966118	3.2034419
440780838687902	-6.22672	-17.654095	2.7503393
440780843693819	-5.0517654	-16.391153	2.0727801
440780848699727	-3.9336734	-15.414918	1.2988545
440780853705625	-2.7503393	-14.492552	0.3321955
440780858711556	-1.6118963	-14.0095215	-0.8439561
440780863717471	-0.5422867	-13.755736	-1.8608932
440780868723358	0.41599256	-13.586945	-2.7006595
440780873729257	1.543063	-13.237391	-3.4117374
440780878735178	2.8802247	-12.72623	-4.0880995
440780883741097	4.028843	-12.173767	-4.470573
440780888746985	4.823718	-11.625495	-4.5561657
440780893752846	4.987122	-11.2388315	-4.477157
440780898758729	4.4927197	-10.941951	-4.2598834
440780903764608	3.8349125	-10.592398	-3.8534677
440780908770488	3.405752	-10.163836	-3.4931402
440780913776316	3.3147724	-9.615563	-3.2184057
440780918782168	3.3877954	-9.197775	-3.0484173
440780923788048	3.484162	-8.88593	-2.6731262
440780928793918	3.5523968	-8.586056	-2.1631613
440780933799784	3.4979286	-8.3729725	-1.5664065
440780938805686	3.29502	-8.289774	-1.1031284
440780943811576	3.0585926	-8.155699	-0.7763199
440780948817464	2.9053638	-8.025214	-0.6087258
440780953823340	2.9053638	-7.8384666	-0.6326678
440780958829229	2.308609	-7.825897	-0.25258827
440780963835118	1.8189948	-7.6960115	0.047884032
440780968840974	1.3802572	-7.3584294	0.27473465
440780973846849	0.97862995	-6.9376483	0.36511576
440780978852742	0.56084174	-6.4444427	0.3878607
440780983858619	0.22984336	-5.820753	0.40102878
440780988864475	-0.12509704	-5.211429	0.362123
440780993870312	-0.50038815	-4.6511855	0.3238158
440780998876210	-0.8218097	-4.188506	0.29448682
440781003882095	-1.0085574	-3.6839283	0.30765492
440781008887961	-1.1959038	-3.3080385	0.27114335
440781013893784	-1.1761516	-2.920178	0.22864626
440781018899605	-1.3347675	-2.607136	0.17357962
440781023905474	-1.3317747	-2.3024738	0.010773907
440781028911344	-1.3634979	-1.9744682	-0.03172317
440781033917193	-1.5053543	-1.8080711	-0.11192893
440781038923005	-1.644218	-1.7619828	-0.09995792
440781043928821	-1.572392	-1.7799393	-0.110731825
440781048934639	-1.4496891	-1.8930653	-0.06703765
440781053940218	-1.292869	-2.0391116	-0.007182605
440781058945677	-1.1252748	-2.2390275	0.0053869537
440781063951071	-0.95588505	-2.4796448	-0.02932897
440781068956423	-0.4381389	-2.5478795	-0.48722005
440781073961760	-0.6847417	-2.7011085	0.45908818
440781078967094	-0.736217	-2.7902925	0.50517654
440781083972445	-0.63087213	-2.7890954	0.18136078
440781088977790	-0.5835867	-2.7334301	-0.219668
440781093983135	-0.5979519	-2.6837504	-0.43514615
440781098988800	-0.7870938	-2.701707	-0.16460137
440781103994638	-1.0402806	-2.8938417	-0.3645172
440781124017656	-2.2176294	-4.44289	-1.7124528
440781129023088	-2.4791958	-5.2862477	-2.6844985
440781134028482	-2.5240872	-6.0583777	-3.1771057
440781139033865	-2.4654293	-7.1483383	-4.083311
440781144039243	-2.156577	-8.49807	-5.017648
440781149044608	-1.5753847	-10.187179	-6.027403
440781154049970	-0.50757074	-12.203096	-7.2604165
440781159055334	1.4287399	-14.268095	-8.848371
440781164061011	4.1317935	-16.065542	-10.062231
440781169066811	6.523601	-17.752855	-10.981605
440781174072672	8.506598	-19.372534	-11.352107
440781179078571	10.083779	-19.376722	-11.667543
440781184084489	11.004948	-19.376722	-11.871649
440781189090403	11.36767	-19.376722	-14.850635
440781194096318	11.787852	-19.376722	-19.841349
440781199102242	12.318767	-19.376722	-19.975424
440781204108156	12.299014	-19.376722	-17.699137
440781209114076	10.481216	-18.04016	-13.788208
440781214120122	7.4124484	-14.742746	-9.300277
440781219125867	4.9745526	-11.075427	-7.4190326
440781224131429	3.1441853	-7.635558	-6.619369
440781229136899	1.472434	-4.716428	-6.0639143
440781234142329	0.018555064	-2.0834043	-3.7098155
440781239147759	-1.0031705	-0.97069913	-2.2930467
440781244153172	-1.9381063	-1.4764743	-0.8643068
440781249158586	-2.7982233	-3.130269	1.4640543
440781254164000	-3.517681	-5.3676505	3.7654808
440781259169414	-4.406528	-8.185626	5.6539073
440781264175120	-5.3522377	-11.171195	6.999449
440781269180961	-6.0046577	-13.812598	8.379706
440781274186879	-6.407482	-16.058958	8.861539
440781279192845	-6.494272	-17.655891	7.602189
440781284198799	-6.583456	-19.210327	3.8708255
440781289204749	-6.4990606	-19.376722	-1.6885108
440781294210704	-5.898116	-19.376722	-7.053318
440781299216706	-3.3848026	-15.832706	-9.467871
440781304222712	0.49559975	-11.028741	-6.8947024
440781309228658	3.9223008	-6.9041295	-0.97144735
440781314234586	5.644929	-4.9720087	2.4462755
440781319240271	5.6150017	-5.492748	1.3090298
440781324245818	4.96737	-7.283012	-1.5747862
440781329251300	4.1503487	-9.12535	-3.7666779
440781334256775	3.0693667	-10.772561	-3.7295678
440781339262235	2.123657	-11.749993	-1.6376339
440781344267678	1.4790181	-11.884667	1.3401544
440781349273115	1.2282255	-11.162217	3.828927
440781354278546	1.0845734	-9.947759	5.185242
440781359283998	0.7170634	-8.791359	5.4911017
440781364289736	0.11731588	-7.983316	5.291186
440781369295610	-0.06404489	-7.615207	4.631583
440781374301571	-0.8206126	-7.3877583	5.4192758
440781379307296	-1.0887632	-7.8677955	4.992509
440781384312885	-1.06123	-8.808119	4.143166
440781389318404	-0.76195467	-9.771186	3.364452
440781394323888	-0.45968673	-10.47987	3.330933
440781399329374	-0.12569559	-11.15264	3.304597
440781404334859	0.23882163	-11.76795	3.1998506
440781409340344	0.33638534	-12.319814	3.1902738
440781414345825	0.61171854	-12.642432	2.4893713
440781419351325	1.1192893	-12.637046	1.5251064
440781424357133	1.881244	-12.413786	0.24720132
440781429363071	2.546832	-12.030115	-0.9259575
440781434369048	2.8389246	-11.603349	-1.6065093
440781439375041	3.1052797	-11.213094	-2.273893
440781444381056	2.8862102	-10.587609	-1.8716671
440781449387108	2.4061728	-10.100987	-1.3628993
440781454393144	1.8549078	-9.78196	-0.98940384
440781459399174	1.4203602	-9.36058	-0.6859388
440781464405203	0.86849666	-9.085247	-0.3764882
440781469411220	0.29747957	-8.754848	-0.040102877
440781474417248	-0.2136825	-8.271218	0.46507367
440781479423025	-2.0632033	-7.205799	3.1483753
440781484428644	-1.8836381	-7.481132	1.0265139
440781489434200	-0.95468795	-7.6822453	-0.6434417
440781494439729	-0.6434417	-7.4446206	0.023343466
440781499445232	-0.94690675	-7.4817305	1.3796587
440781504450718	-0.94331545	-7.627178	2.0003555
440781509456199	-0.5434838	-7.763648	1.9919758
440781514461677	0.022744916	-7.977929	1.762731
440781519467160	0.4177882	-8.2616415	1.5532384
440781524472934	0.6757634	-8.600421	1.4383167
440781529478829	0.9403227	-8.880543	1.1779473
440781534484821	1.1246762	-9.109788	0.81343
440781539490856	1.2725182	-9.239674	0.36750996
440781544496884	1.365892	-9.269002	-0.16879122
440781549502903	1.4287399	-9.207352	-0.7272388
440781554508976	1.4502877	-9.117569	-1.1528081
440781559515025	1.4556746	-8.955361	-1.4323312
440781564521051	1.5185224	-8.762629	-1.5729905
440781569527068	1.6262615	-8.625561	-1.6346412
440781574533088	1.7681179	-8.462755	-1.5316905
440781579539121	1.9632454	-8.319102	-1.417966
440781584545136	2.1493945	-8.243087	-1.2617443
440781589551131	2.3133974	-8.188619	-1.0169371
440781594557133	2.2319946	-8.208371	-0.8690952
440781599563139	2.2349873	-8.2299185	-0.7553706
440781604569132	2.3870192	-8.250868	-0.40821138
440781609575179	1.3204023	-7.70499	2.7688942
440781614581357	2.3373394	-8.820089	-0.50757074
440781619587544	3.3692403	-9.367165	-2.5917234
440781624593720	3.4075475	-9.437195	-2.3439236
440781629599947	3.1106665	-9.5191965	-1.4700398
440781634606080	2.9909565	-9.698761	-1.3257892
440781639612163	2.8736405	-9.875933	-1.7591397
440781644618245	2.7593174	-9.874735	-2.32058
440781649624363	2.6569653	-9.679607	-2.7084408
440781654630392	2.5899277	-9.413253	-2.992752
440781659636444	2.6042929	-9.198373	-3.0418332
440781664642489	2.6797101	-9.088839	-2.9580362
440781669648511	2.3648727	-8.838046	-1.5107412
440781674654547	2.4648306	-9.304915	-1.602918
440781679660666	4.000711	-10.293122	-4.647744
440781684666800	4.0563765	-10.619332	-3.2668881
440781689672892	4.1581297	-10.788123	-1.614889
440781694678931	4.4759603	-10.951528	-0.86969376
440781699684943	4.781221	-11.056273	-0.52373165
440781704690947	5.0691237	-10.88449	-0.29149407
440781709696890	5.317522	-10.588207	-0.24361002
440781714702832	5.481525	-10.299108	-0.42317516
440781719708755	5.6000376	-10.082432	-0.8050503
440781724714680	5.6161985	-10.060286	-1.4053963
440781729720568	5.54557	-10.276362	-2.0572178
440781734726516	5.265448	-10.6815815	-2.5318682
440781739732449	5.29777	-11.064055	-3.2674868
440781744738358	5.2852	-11.633875	-3.5529952
440781749744235	4.084508	-11.523143	-0.5793968
440781754750156	4.404134	-12.699893	-1.8022354
440781759756083	6.3703723	-13.947871	-5.871181
440781764762032	6.701969	-14.271687	-4.845266
440781769767920	6.0740895	-13.983784	-2.0566192
440781774773911	5.397728	-13.62645	-0.98461545
440781779779866	4.667496	-13.303831	-1.2880806
440781784785819	3.8552632	-13.08117	-2.03148
440781789791716	2.9658175	-13.000964	-2.557606
440781794797673	2.4486697	-12.818406	-2.6725276
440781799803608	2.244564	-12.556241	-3.0011318
440781804809538	2.1757307	-12.157606	-3.1824925
440781809815454	2.0937295	-11.791294	-3.0693667
440781814821403	1.9231426	-11.770345	-3.6086605
440781819827344	1.8148049	-11.799673	-3.9121256
440781824833324	1.5741876	-12.130074	-4.3556514
440781829839212	1.0708067	-12.842947	-4.821324
440781834845134	0.3393781	-13.718626	-4.9344497
440781839851028	-0.50038815	-14.729578	-4.4400473
440781844856943	-1.4957775	-15.829115	-3.2513258
440781849862805	-2.4474726	-16.804752	-1.6502035
440781854868763	-3.3482912	-17.3626	0.08798691
440781859874658	-4.0336313	-17.500866	1.4820108
440781864880551	-4.4639893	-17.254263	2.5342624
440781869886403	-4.660912	-16.746693	3.2836475
440781874892309	-4.548983	-16.008081	3.5793316
440781879898166	-4.144962	-15.185075	3.4081461
440781884904081	-3.5691562	-14.396185	3.0873232
440781889909960	-2.8778305	-13.681516	2.5959132
440781894915899	-2.0853498	-13.088352	2.054225
440781899921795	-1.2503718	-12.617892	1.3341689
440781904927840	-0.24420857	-12.19352	0.32202014
440781909933771	0.92775315	-11.881076	-0.5021838
440781914939697	2.154183	-11.658416	-1.5759833
440781919945544	3.2136173	-11.626094	-2.44029
440781924951383	4.0384197	-11.638663	-3.074155
440781929957299	4.4538136	-11.643452	-3.567959
440781934963202	4.369418	-11.692533	-3.8420951
440781939969052	4.009091	-11.6769705	-4.0599675
440781944974902	3.4129345	-11.514764	-4.018069
440781949980779	2.7736826	-11.20232	-3.5314474
440781954986697	2.2385786	-10.803685	-2.9131448
440781959992537	1.910573	-10.414628	-2.6168625
440781964998390	1.6873137	-9.948956	-2.4528596
440781970004226	1.5568297	-9.456947	-2.1440077
440781975010123	1.5616181	-9.030181	-1.8303672
440781980015958	1.7423803	-8.709357	-1.6226702
440781985021836	1.7190368	-8.398111	-0.98700964
440781990027719	1.6998832	-8.062325	-0.52253455
440781995033710	1.7034745	-7.6924205	-0.19572599
440782000039596	1.6496049	-7.3793783	0.0035913025
440782005045476	1.4251486	-7.112425	0.16280572
440782010051352	1.2856863	-6.7604775	0.18674773
440782015057248	1.3628993	-6.422895	-0.06404489
440782020063087	1.0606314	-6.0104938	0.15861586
440782025068937	0.7182605	-5.6699185	0.24959552
440782030074749	0.38845924	-5.422717	0.14664486
440782035080593	0.14963761	-5.1396027	-0.030526072
440782040086448	-0.06284779	-4.7577276	-0.20290859
440782045092338	-0.29807812	-4.500351	-0.4177882
440782050098167	-0.4794389	-4.334553	-0.6380547
440782055104031	-0.65900403	-4.0777745	-0.65780693
440782060109919	-0.7954735	-3.8365586	-0.729633
440782065115797	-1.0169371	-3.641431	-0.7314286
440782070121613	-1.1408371	-3.495385	-0.7188591
440782075127494	-1.1318588	-3.2966661	-0.76315176
440782080133354	-1.0648212	-3.1775546	-0.79248077
440782085139235	-0.94930094	-3.1057286	-0.7727286
440782090145069	-0.90979666	-3.075801	-0.6607997
440782095150913	-0.59855044	-3.0644286	-0.62967503
440782100156759	-1.0869676	-3.2398038	-0.19692309
440782105162619	-1.0821792	-3.2721255	0.014963761
440782110168414	-1.0043676	-3.2320228	0.14903906
440782115174255	-1.0307038	-3.2505777	0.30346507
440782120180107	-1.0354922	-3.252972	0.3184288
440782125185963	-1.0486604	-3.2637458	0.3196259
440782130191768	-1.0127473	-3.2284315	0.15622166
440782135197580	-0.931943	-3.3307834	-0.44113165
440782140203403	-1.4371196	-3.3990183	0.14784196
440782145209388	-1.5646108	-3.5420718	-0.022744916
440782150215264	-1.5705963	-3.8287773	-0.789488
440782155221108	-1.54845	-4.03408	-1.0498575
440782160226960	-1.6711528	-4.5033436	-1.2958617
440782165232822	-1.7890673	-5.0629883	-1.5089456
440782170238624	-1.6244658	-5.7201967	-2.3050177
440782175244429	-1.2036849	-6.3474774	-2.8119898
440782180250217	-0.7930793	-7.0783076	-2.9173348
440782185256064	-0.3633201	-8.211962	-3.4261026
440782190261855	0.46387658	-9.468918	-4.6495395
440782195267775	1.6478093	-10.5499	-4.950012
440782200273638	3.2070332	-11.811046	-6.029797
440782205279517	5.2049947	-13.169157	-7.9583263
440782210285341	7.137714	-14.674511	-9.912594
440782215291142	8.884284	-16.391752	-11.465832
440782220296945	10.296265	-18.421436	-12.806585
440782225302792	10.901399	-19.376722	-14.401123
440782230308578	11.213842	-19.376722	-16.969503
440782235314429	11.055825	-19.376722	-19.232622
440782240320278	10.58716	-19.376722	-18.391659
440782245326160	9.050082	-19.376722	-14.473548
440782250331984	6.8450227	-18.190397	-11.192893
440782255337897	4.660912	-15.092299	-9.400234
440782260343758	2.9370868	-11.428572	-7.8769236
440782265349597	1.2491747	-8.155699	-6.771401
440782270355371	-0.45848963	-5.3634605	-5.6563015
440782275360874	-1.8207904	-3.1829414	-4.996699
440782280366228	-2.697667	-2.0073886	-4.1371803
440782285371537	-3.3686419	-2.2946928	-3.328539
440782290376802	-3.7140055	-3.8221934	-2.4211364
440782295382079	-3.8031895	-6.1373863	-0.9876082
440782300387342	-3.9109285	-8.957756	1.3425486
440782305392627	-4.003105	-11.92477	4.096479
440782310397895	-3.9743748	-14.570962	6.7893577
440782315403189	-3.750517	-16.666487	8.181585
440782320408492	-3.0352492	-17.89172	7.757812
440782335424433	-1.8495208	-18.595016	-3.5942953
440782340429756	-1.4000094	-16.334291	-6.7324953
440782350440432	2.4145525	-8.018032	-2.1918917
440782355445800	4.119224	-4.4440875	2.7048495
440782360451155	4.4059296	-2.9752445	3.881001
440782365456939	3.233968	-3.7240312	1.532289
440782370462506	1.99437	-5.2754736	-1.8369513
440782375468375	0.8678981	-6.9298673	-3.7852328
440782380474271	-0.08439561	-8.504055	-3.4608185
440782385480238	-0.5770026	-9.692776	-1.4927847
440782390486196	-0.7326257	-10.308085	0.8888474
440782395492192	-0.61171854	-10.473885	2.722806
440782400497868	-0.32441434	-10.200945	3.7541082
440782405503714	0.02873042	-9.752631	4.173094
440782410509583	0.10295067	-9.466524	4.4597993
440782415515564	0.06344634	-9.455152	4.8189297
440782420521502	0.11372458	-9.62095	4.9278655
440782425527454	0.39624038	-10.04233	4.624999
440782430533356	0.89603	-10.725874	3.8498764
440782435539385	1.5275006	-11.425579	3.1376014
440782440545344	2.005144	-11.930756	3.103484
440782445551313	2.297835	-12.271331	3.3824084
440782450557226	2.5959132	-12.553248	3.2076318
440782455563281	2.4253263	-12.825589	3.0520086
440782460569250	1.8118122	-12.860305	2.8532898
440782465575210	1.4784195	-12.602928	1.8602947
440782470581123	1.3533225	-11.9792385	0.58777654
440782475587113	1.2354081	-11.274745	-0.5446809
440782480593233	1.0809821	-10.64507	-1.6220716
440782485599329	0.8391677	-10.084826	-1.9913772
440782490605310	0.4309563	-9.652075	-1.7208325
440782495611355	0.4213795	-9.225308	-1.8501194
440782500617297	0.37948096	-8.867375	-1.3964181
440782505623205	-0.073023155	-8.696788	-0.45609543
440782510629065	-0.49320555	-8.463952	0.3878607
440782515635064	-0.7990648	-8.161085	0.95947635
440782520640982	-1.3108255	-8.108413	1.352724
440782525646956	-3.2279825	-7.897723	3.177704
440782530652911	-2.6090813	-8.59683	1.3838485
440782535658861	-1.2844892	-8.888324	-0.45310268
440782540664758	-0.81283146	-8.715343	0.5883751
440782545670680	-0.8331822	-8.744672	1.8794483
440782550676545	-0.43514615	-8.873361	2.2224178
440782555682491	0.18495208	-8.952369	2.0231004
440782560688415	0.7763199	-9.053524	1.8189948
440782565694331	1.2791022	-9.150489	1.6621746
440782570700172	1.5466543	-9.262418	1.5765818
440782575706046	1.7375919	-9.280973	1.2731167
440782580711891	1.9375077	-9.155277	0.8996213
440782585717763	2.106299	-8.996063	0.5446809
440782590723652	2.204461	-8.8266735	0.14425065
440782595729275	2.1996727	-8.656685	-0.1945289
440782600734717	2.0895395	-8.491486	-0.41240123
440782605740067	1.9285295	-8.302343	-0.58777654
440782610745374	1.7579426	-8.092851	-0.6799533
440782615750706	1.6286557	-7.9282494	-0.7613561
440782620756058	1.5029601	-7.8145247	-0.7769185
440782625761382	1.423353	-7.737312	-0.6757634
440782630766692	1.3814543	-7.6804495	-0.57520694
440782635772012	1.3431472	-7.651719	-0.40462008
440782640777630	1.3772645	-7.679252	-0.27234045
440782645783448	1.4155718	-7.6816463	-0.08619126
440782650789329	1.6089035	-7.6966105	0.09995792
440782655795296	0.95947635	-7.4075103	1.7753005
440782660801210	1.1911154	-8.023418	0.95588505
440782665807154	2.4612393	-8.47293	-1.4407109
440782670813029	2.3056161	-8.487894	-0.8678981
440782675818953	2.134431	-8.68781	-0.2693477
440782680824901	2.2876596	-8.889522	-0.1412579
440782685830850	2.5378537	-9.230097	-0.40282443
440782690836748	2.7754784	-9.559299	-0.80205756
440782695842690	2.9322984	-9.790339	-1.2060791
440782700848599	2.9939492	-9.8615675	-1.5945383
440782705854586	2.9747956	-9.853786	-2.0763714
440782710860556	1.9536686	-9.061904	0.4429273
440782715866525	2.8892028	-9.577255	-3.0825348
440782720872414	3.8361096	-9.570073	-5.6407394
440782725878433	3.5793316	-9.217526	-4.742315
440782730884348	3.3201592	-9.115175	-3.5476084
440782735890277	3.347094	-9.318682	-3.1549592
440782740896150	3.570952	-9.751434	-3.163339
440782745901763	3.9576154	-10.22369	-3.0232782
440782750907504	4.420295	-10.615741	-2.6138697
440782755913421	4.911705	-10.88449	-2.0242975
440782760919260	5.2965727	-10.970681	-1.4065934
440782765925126	5.6156	-10.962301	-0.9427169
440782770930957	5.8119245	-10.846183	-0.66858083
440782775936875	5.953781	-10.6420765	-0.7691373
440782780942763	6.0226145	-10.490046	-1.1420342
440782785948774	6.0321913	-10.480469	-1.7621324
440782790954675	6.0824695	-10.629507	-2.5169046
440782795960559	6.143522	-11.030536	-3.3530796
440782800966387	6.1411276	-11.602751	-3.9390604
440782805972320	4.429273	-11.324425	0.33638534
440782810977923	5.2301335	-12.720842	-2.7162218
440782815983359	7.5866265	-14.207044	-7.477092
440782820988713	8.227076	-14.828339	-6.725911
440782825994040	7.6692266	-14.669723	-3.0190883
440782830999350	7.119757	-14.322563	-1.0881647
440782836004720	6.487688	-13.826365	-0.7769185
440782841010069	5.5587378	-13.215245	-0.9504981
440782846015398	4.252701	-12.701689	-1.1605892
440782851020736	2.89459	-12.353931	-1.7579426
440782856026072	1.881244	-12.05705	-2.4492683
440782861031408	1.0402806	-11.864916	-2.7712884
440782866036749	0.46686932	-11.878682	-3.292626
440782871042100	0.06584055	-12.111518	-3.933075
440782876047453	-0.31064767	-12.607118	-4.292804
440782881052814	-0.7248446	-13.439702	-4.531027
440782886058179	-1.2587515	-14.572758	-4.4915223
440782891063558	-1.9524715	-15.856648	-3.934272
440782896068938	-2.7138276	-17.047764	-2.873042
440782901074326	-3.3650506	-17.859997	-1.3371617
440782906079721	-3.8684313	-18.20117	0.22146365
440782911085130	-4.1545386	-18.050335	1.596334
440782916090577	-4.292804	-17.546955	2.6461914
440782921096023	-4.2054152	-16.829292	3.2573113
440782926101464	-4.012682	-16.075718	3.3333273
440782931106906	-3.6284127	-15.243732	3.139397
440782936112347	-2.9753942	-14.415937	2.9370868
440782941117796	-2.0721815	-13.551032	2.995745
440782946123246	-1.3156139	-13.006351	2.5234885
440782951128691	-0.39683893	-12.571803	2.0979192
440782956134147	0.4997896	-12.332982	1.388637
440782961139601	1.2791022	-12.244396	0.533907
440782966145074	2.1853075	-12.115109	-0.3609259
440782971150549	3.1262288	-12.03251	-1.2725182
440782976156034	3.9264908	-11.862521	-2.0895395
440782981161523	4.383185	-11.765556	-2.6952724
440782986167015	4.587889	-11.614122	-3.0657754
440782991172502	4.302979	-11.554268	-3.2243912
440782996178018	3.6206315	-11.623699	-3.1830912
440783001183558	2.8939912	-11.559655	-3.0053217
440783006189104	2.2535424	-11.409418	-2.859874
440783011194937	1.7459716	-11.093384	-2.7006595
440783016200866	1.3790601	-10.824037	-2.741361
440783021206874	1.2880806	-10.627113	-2.8335378
440783026212650	1.292869	-10.246435	-2.6719291
440783031218295	1.2180501	-9.802311	-2.0440497
440783036224131	1.192911	-9.355792	-1.5352819
440783041229808	1.2030864	-9.031378	-1.1923125
440783046235405	1.2054806	-8.665065	-0.8643068
440783051240961	1.3192052	-8.364593	-0.75237787
440783056246535	1.3311762	-8.053945	-0.53091425
440783061252077	1.2515689	-7.6936173	-0.32680854
440783066257610	1.0995371	-7.3823714	-0.18375498
440783071263138	1.0271125	-6.9143047	0.004189853
440783076268682	0.86490536	-6.378602	0.12868834
440783081274212	0.7074866	-5.850681	0.12150574
440783086279739	0.5979519	-5.3897967	-0.022146367
440783091285272	0.34955344	-5.0019364	-0.11791443
440783096290818	0.1352724	-4.6817117	-0.2184709
440783101296382	-0.09876082	-4.487183	-0.39205053
440783106301941	-0.26635495	-4.168754	-0.44951138
440783111307491	-0.504578	-3.890428	-0.35254622
440783116313036	-0.6194997	-3.5899558	-0.31783026
440783121318589	-0.7230489	-3.370288	-0.3309984
440783126324164	-0.7020996	-3.1859343	-0.34955344
440783131329730	-0.4914099	-3.0350995	-0.3274071
440783136335295	-1.0271125	-3.051859	-0.01316811
440783141340875	-1.2036849	-3.082385	0.16819267
440783146346452	-1.0648212	-3.0207343	0.25139117
440783151352023	-0.91458505	-2.973449	0.29987377
440783156357602	-0.86490536	-2.9740474	0.40761283
440783161363187	-0.90381116	-3.0446763	0.53450555
440783166368775	-0.86251116	-3.0895677	0.48602295
440783171374368	-0.6512229	-2.98542	0.19393034
440783176379955	-1.2270284	-2.9818287	1.1336545
440783181385539	-1.3940239	-2.9477112	1.2731167
440783186391165	-1.3611037	-2.869301	0.81343
440783191396801	-1.3263878	-2.8351836	0.09876082
440783196402423	-1.3335704	-2.8525417	-0.40641573
440783201408038	-1.4927847	-2.9489083	-0.23523031
440783206413650	-1.6184803	-3.195511	-0.55844754
440783211419273	-1.7100586	-3.4935892	-1.2096704
440783216424901	-1.7004818	-3.768324	-1.2503718
440783221430527	-1.5634137	-4.181922	-1.5065514
440783226436150	-1.3682863	-4.8391304	-2.432509
440783231441782	-1.0684125	-5.4700027	-2.203264
440783236447426	-0.7763199	-6.479159	-2.3110032
440783241453076	-0.27353755	-7.6738653	-2.7144263
440783246458719	0.50158525	-8.996662	-3.329736
440783251464351	1.8740613	-10.427795	-4.8548427
440783256469967	3.696049	-11.879281	-6.1584854
440783261475580	5.645528	-13.65099	-8.388085
440783266481210	7.5004354	-15.683667	-11.03308
440783271486849	8.996812	-17.844435	-13.096283
440783276492505	10.047866	-19.376722	-14.468161
440783281498146	10.418368	-19.376722	-15.583261
440783286503799	10.471041	-19.376722	-16.704346
440783291509442	10.699089	-19.376722	-17.529747
440783296515099	9.90601	-19.376722	-15.22413
440783301520758	8.087015	-19.376722	-11.578958
440783306526436	6.001665	-16.700006	-9.156026
440783311532108	3.8504748	-13.36189	-8.11395
440783316537780	1.9021933	-10.138098	-7.3202715
440783321543446	0.47465047	-7.248296	-5.9759274
440783326549117	-1.42455	-4.990564	-5.7646394
440783331554792	-2.480393	-3.55524	-4.490924
440783336560469	-3.3207579	-3.5582325	-3.8947675
440783341566153	-3.8127663	-4.7367783	-3.17531
440783346571826	-3.964798	-6.5898905	-1.8273745
440783351577506	-4.2503066	-9.184008	0.320823
440783356583202	-4.3957543	-12.167184	2.9963434
440783361588898	-4.245518	-14.933683	5.9507885
440783366594588	-3.9001546	-17.258453	7.8607626
440783371600270	-2.8514943	-18.500446	8.397064
440783376605959	-1.6310499	-18.92841	6.2261214
440783381611647	-0.9331401	-18.845211	1.7393875
440783386617332	-0.2908955	-17.47094	-3.247136
440783391623001	0.28072014	-14.705636	-6.7600284
440783396628675	1.1366472	-11.187356	-7.2382703
440783401634347	2.504335	-7.3805757	-3.4703953
440783406640013	3.867833	-4.0819645	1.95307
440783411645678	4.0761285	-2.5598505	4.3879733
440783416651352	2.991555	-2.9914055	3.1082723
440783421657033	1.8303672	-4.196886	-0.08020575
440783426662717	0.557849	-5.7160068	-3.003526
440783431668410	-0.7918822	-7.3823714	-4.1401734
440783436674107	-1.7723078	-8.787767	-3.0789435
440783441679813	-2.1260512	-9.632921	-0.54049104
440783446685524	-2.0033484	-9.95554	2.0967221
440783451691233	-1.5191209	-9.916036	3.9312792
440783456696949	-0.8026561	-9.741858	4.9440265
440783461702668	-0.008978256	-9.609577	5.587468
440783466708386	0.75716627	-9.6413	5.9304376
440783471714102	1.4790181	-9.786748	5.9729347
440783476719816	2.0141222	-10.10398	5.517438
440783481725541	2.204461	-10.703728	4.8763905
440783486731270	2.5462334	-11.493216	3.6206315
440783491736996	2.9604304	-12.284499	2.6635494
440783496742713	3.0484173	-12.977621	2.5151088
440783501748434	3.1621418	-13.622858	2.0727801
440783506754182	3.0963013	-13.838935	1.8626889
440783511759920	2.4145525	-13.928718	1.697489
440783516765655	0.6805518	-13.11409	2.8933928
440783521771379	0.700304	-12.701091	0.12270284
440783526777096	1.0875661	-12.091766	-2.0925324
440783531782838	1.067814	-11.428572	-2.7820623
440783536788573	0.6536171	-10.846781	-2.5420437
440783541794296	0.2861071	-10.355969	-2.1290438
440783546800019	-0.077213004	-9.959729	-1.4730326
440783551805744	0.023942016	-9.646089	-1.5035586
440783556811469	-0.3357868	-9.312098	-0.70509243
440783561817200	-0.61291564	-9.158271	-0.17776948
440783566822926	-1.0145429	-9.087043	0.5374983
440783571828654	-0.7721301	-9.079861	-0.024540568
440783576834392	-0.8912416	-8.823082	0.5883751
440783581840127	-1.0522517	-8.402301	1.3072342
440783586845867	-1.1833342	-8.162881	1.5628152
440783591851605	-1.3162124	-8.208969	1.6071079
440783596857341	-1.0833763	-8.192808	1.5765818
440783601863081	-0.59615624	-8.209568	1.5304934
440783606868853	-0.011372458	-8.284387	1.5682021
440783621886246	1.8956091	-9.023597	0.91458505
440783626892006	2.7647045	-9.198373	0.30945057
440783631897751	2.484583	-9.12535	1.0534488
440783636903497	2.3535004	-9.138518	1.1121067
440783641909240	2.4612393	-9.0637	0.6877344
440783646914983	2.5617957	-8.938602	0.20649989
440783651920732	2.5498247	-8.781782	-0.22385786
440783656926482	2.393603	-8.621969	-0.6404489
440783661932226	2.1374235	-8.44001	-1.0235212
440783666937967	1.8285716	-8.25386	-1.3186066
440783671943715	1.4670471	-8.103026	-1.5275006
440783676949458	1.1067197	-8.020426	-1.4706384
440783681955198	0.8002619	-7.9240594	-1.1671734
440783686960927	0.60214174	-7.8677955	-0.82599956
440783691966654	0.39444473	-7.927052	-0.59735334
440783696972448	0.260968	-8.02701	-0.53450555
440783701978221	0.31064767	-8.109012	-0.40880993
440783706983984	-0.26874915	-7.7385087	1.3293805
440783711989741	0.02813187	-8.217948	0.49081135
440783716995493	1.5071499	-8.834455	-2.0859482
440783722001245	1.5478514	-8.758439	-1.4820108
440783727007006	1.4574703	-8.6991825	-0.48841715
440783732012766	1.650802	-8.774001	-0.18136078
440783737018529	1.9351135	-8.893711	-0.41299978
440783742024320	2.212841	-9.01402	-0.83976626
440783747030089	2.4271219	-9.071481	-1.1881226
440783752035846	2.5959132	-9.0654955	-1.4197617
440783757041610	2.8000188	-8.92723	-1.6280571
440783762047383	1.8662802	-8.210765	1.216853
440783767053156	2.5905263	-8.662671	-1.1414356
440783772058918	4.1024647	-9.039758	-4.5819035
440783777064684	4.0360255	-8.768614	-3.2249897
440783782070453	3.8534677	-8.695591	-1.6460136
440783787076228	3.9205053	-8.881142	-1.3012487
440783792081996	4.1276035	-9.228899	-1.5316905
440783797087764	4.283227	-9.563489	-1.7447745
440783802093535	4.2317514	-9.890896	-1.7405846
440783807099319	4.2275615	-10.179996	-1.738789
440783812105090	4.197634	-10.449943	-1.5155296
440783817110875	4.1425676	-10.609157	-1.0773908
440783822116650	3.4153287	-9.890896	1.6466122
440783827122426	3.7828386	-10.270976	0.4369418
440783832128204	5.5389857	-10.751013	-3.1735144
440783837133969	5.4168816	-10.465505	-1.4377182
440783842139750	5.0601454	-10.502016	-0.48003745
440783847145538	4.887164	-10.741436	-0.7763199
440783852151310	4.891354	-11.109545	-1.5508442
440783857157073	4.8799815	-11.502193	-2.2667105
440783862162830	4.8763905	-11.931953	-2.8263552
440783867168588	4.9158945	-12.310836	-3.229778
440783872174361	5.0703206	-12.701091	-3.5404258
440783877180139	4.334702	-12.180351	-0.8948329
440783882185909	4.945224	-13.054235	-2.6222494
440783887191684	6.085462	-13.804219	-5.434838
440783892197451	5.8185086	-13.519907	-3.8660371
440783897203216	4.9613843	-13.047052	-2.0123265
440783902208975	4.1252093	-12.644827	-1.5179238
440783907214738	3.4332852	-12.246791	-1.8207904
440783912220503	2.7934349	-11.883471	-2.1619642
440783917226277	2.3642743	-11.463886	-1.951873
440783922232049	2.0614076	-11.290307	-2.4313118
440783927237818	1.8902222	-11.03293	-2.3558946
440783932243592	1.7495629	-10.965893	-2.236783
440783937249371	1.6460136	-11.081413	-2.3702598
440783942255151	1.4850036	-11.4459305	-2.4408886
440783947261194	1.1671734	-12.148029	-2.4708161
440783952267354	0.78769237	-13.247567	-2.959832
440783957273588	0.20949265	-14.527267	-3.2154129
440783962279837	-0.45190558	-15.990724	-3.141791
440783967286103	-1.3269863	-17.43263	-2.3828292
440783972292377	-2.397793	-18.593819	-1.0307038
440783977298647	-3.406949	-19.269583	0.4213795
440783982304655	-4.2401314	-19.376722	1.5825673
440783987310526	-4.8668137	-19.052908	2.3469162
440783992316321	-5.1768627	-18.40348	2.7503393
440783997322089	-5.171476	-17.59424	2.7952304
440784002327835	-4.8189297	-16.71018	2.6539726
440784007333581	-4.1425676	-15.811757	2.4546554
440784012339323	-3.0579941	-14.691271	2.606687
440784017345059	-2.1505916	-14.111874	2.0620062
440784022350792	-1.2132617	-13.667749	1.483208
440784027356523	-0.40282443	-13.40319	0.59974754
440784032362259	0.6943185	-13.076382	-0.5081693
440784037368004	2.0500352	-12.640636	-1.5897499
440784042373993	3.429694	-12.140248	-2.5510218
440784047380111	4.607043	-11.811645	-2.9921536
440784052386301	5.394735	-11.695526	-3.117849
440784057392525	5.5659204	-11.612328	-3.1789012
440784062398784	5.1942205	-11.577013	-3.2561142
440784067405043	4.461595	-11.581801	-3.3333273
440784072411283	3.6739025	-11.416002	-3.192668
440784077417489	3.0382419	-11.120917	-3.2094274
440784082423688	2.405574	-10.71091	-3.080739
440784087429934	1.7980455	-10.369138	-3.020884
440784092436165	1.3557167	-10.032154	-2.939481
440784097442118	1.1647792	-9.62514	-2.7928362
440784102447927	1.0450691	-9.0259905	-2.0590134
440784107453675	0.8948329	-8.493281	-1.22224
440784112459380	0.8170213	-8.089858	-0.6404489
440784117465084	1.0606314	-7.7504797	-0.31304187
440784122470769	1.3634979	-7.401525	-0.24660277
440784127476445	1.2144588	-7.2596684	0.22804771
440784132482116	1.0456676	-7.191434	0.45789108
440784137487807	1.0528502	-6.9783497	0.4309563
440784142493490	0.9475053	-6.741324	0.42676646
440784147499170	0.748188	-6.494721	0.42676646
440784152504847	0.61291564	-6.124817	0.46746787
440784157510525	0.44352585	-5.7878327	0.4441244
440784162516203	0.20051439	-5.625027	0.272939
440784167521893	-0.017357962	-5.46282	0.10414778
440784172527581	-0.1436521	-5.222203	-0.014963761
440784177533286	-0.3842694	-4.986374	-0.10295067
440784182538982	-0.66498953	-4.772093	-0.2705448
440784187544673	-0.8343793	-4.472818	-0.32680854
440784192550364	-1.0055647	-4.215441	-0.20530279
440784197556064	-1.2282255	-3.8628948	-0.219668
440784202561764	-1.4323312	-3.6659718	-0.22804771
440784207567462	-1.4556746	-3.3930328	-0.35793316
440784212573158	-1.5029601	-3.1979053	-0.48482585
440784217578857	-1.6849195	-3.0979474	-0.39145198
440784222584600	-1.79206	-3.0069678	-0.32441434
440784227590352	-1.7944542	-2.8327894	-0.30825347
440784232596083	-1.9608512	-2.766949	-0.18495208
440784237601814	-1.8980033	-2.6502316	-0.093373865
440784242607535	-1.9195513	-2.53531	0.3250129
440784247613256	-1.8764555	-2.4401405	0.5554548
440784252618975	-1.7471687	-2.2827218	0.64942724
440784257624695	-1.4999673	-2.1672015	0.47884035
440784262630417	-1.3910311	-2.097171	0.717662
440784267636140	-1.5065514	-2.1654058	0.8924387
440784272641857	-1.6328455	-2.3377883	0.62847793
440784277647577	-1.7363948	-2.553865	0.004189853
440784282653298	-1.8447324	-2.7621605	-0.33997664
440784287659024	-2.0410569	-3.1111155	-0.44651863
440784292664751	-2.2637177	-3.652205	-0.92775315
440784297670485	-2.2697031	-4.2082586	-1.6579847
440784302676250	-2.1493945	-4.873248	-2.8078
440784307682013	-2.0847511	-5.6256256	-2.9634233
440784312687758	-1.8459295	-6.7203746	-3.6894648
440784317693491	-1.4389153	-8.091055	-4.654328
440784322699216	-0.8714894	-9.696367	-5.3875523
440784327704937	0.3842694	-11.461493	-6.666056
440784332710657	2.5360582	-13.1733465	-8.474277
440784337716379	5.2169657	-14.770878	-10.643424
440784342722105	7.6548615	-16.328306	-12.07336
440784347727829	9.713276	-18.18441	-13.67987
440784352733552	11.305421	-19.376722	-14.630966
440784357739294	12.542624	-19.376722	-15.418659
440784362745034	12.753314	-19.376722	-16.980875
440784367750789	12.712014	-19.376722	-18.039711
440784372756810	12.449849	-19.376722	-18.13488
440784377762943	10.332776	-19.376722	-13.699023
440784382769149	7.3484035	-18.38253	-10.005967
440784387775375	4.7901993	-15.16233	-8.278551
440784392781605	2.7844565	-11.654824	-7.316082
440784397787861	1.2629414	-8.167071	-6.5068417
440784402793852	-0.08499416	-5.2138233	-6.6067996
440784407799696	-1.6190789	-2.5131636	-4.6016555
440784412805465	-2.172738	-0.8037036	-3.5434184
440784417811206	-2.8137856	-0.67202246	-3.208829
440784422816954	-3.2070332	-2.0684407	-3.164536
440784427822676	-3.1950622	-4.16217	-2.7269957
440784432828386	-3.2914288	-6.8376904	-1.3946224
440784437834091	-3.5242648	-9.9333935	1.091756
440784442839804	-3.630807	-12.978219	4.4167037
440784447845511	-3.2489316	-15.381399	7.351396
440784452851229	-2.5510218	-17.1154	8.859743
440784457856937	-1.6136919	-18.210747	8.14687
440784462862643	-0.7667431	-18.949358	5.103241
440784467868345	-0.53091425	-19.376722	0.5518635
440784472874048	-0.6931214	-19.376722	-4.299388
440784477879761	-0.13347675	-17.401506	-7.835025
440784482885478	1.5460558	-13.358298	-7.835025
440784487891195	3.5476084	-8.696788	-3.0017304
440784492896905	4.662708	-5.0294695	2.1619642
440784497902614	4.096479	-3.6342485	2.8700492
440784502908336	2.622848	-4.184316	0.004189853
440784507914051	1.4335283	-5.4358854	-3.329736
440784512919766	0.32920274	-6.9382467	-4.7638626
440784517925482	-0.6811504	-8.288577	-3.7020345
440784522931209	-1.3341689	-9.100809	-0.8882488
440784527936942	-1.4999673	-9.306711	1.9632454
440784532942665	-1.364695	-9.125949	3.6942532
440784537948394	-1.0971429	-8.768016	4.4304705
440784542954112	-0.83378077	-8.556727	4.557363
440784547959843	-0.7284359	-8.629152	4.684854
440784552965570	-0.760159	-8.815301	5.113416
440784557971295	-0.57400984	-8.967932	5.325303
440784562977015	-0.23163901	-9.237279	5.2899885
440784567982739	0.20829555	-9.913042	4.6686935
440784572988463	0.90620536	-10.804284	3.7547069
440784577994190	1.6837224	-11.560253	3.3620577
440784582999917	2.337938	-12.326398	3.3842041
440784588005663	2.6964695	-13.1099	3.3411086
440784593011398	2.6222494	-13.755137	3.0280666
440784598017138	2.5492263	-13.966426	1.9698294
440784603022877	2.6090813	-13.591733	0.6607997
440784608028613	2.9203274	-12.819005	-0.943914
440784613034347	3.056797	-11.9714575	-2.2146366
440784618040077	3.0472202	-11.302278	-3.3117795
440784623045822	2.5965118	-10.572645	-3.1112652
440784628051570	1.8171991	-9.872341	-2.368464
440784633057311	1.1994951	-9.132533	-1.6226702
440784638063052	0.1328782	-8.198794	-0.09995792
440784643068790	-1.2952632	-7.6606975	0.7691373
440784648074528	-1.5245079	-7.7684364	-0.15442601
440784653080268	-1.2180501	-7.913884	-1.7034745
440784658086056	-1.5628152	-7.7205524	-0.93972415
440784663091820	-2.492364	-7.6056304	0.7086837
440784668097581	-2.9352913	-7.4727526	1.7483658
440784673103328	-2.7629087	-7.3362827	2.1493945
440784678109075	-2.3373394	-7.439832	2.1697452
440784683114822	-1.8106151	-7.7175593	2.1547816
440784688120598	-1.1378443	-8.062923	2.0745757
440784693126366	-0.46806642	-8.441207	2.0015526
440784698132129	0.17118542	-8.739883	1.951873
440784703137886	0.70509243	-8.951771	1.9003977
440784708143639	1.2378023	-9.12535	1.7304093
440784713149391	1.6807296	-9.219322	1.4203602
440784718155162	2.007538	-9.279777	0.98581254
440784723160930	2.124854	-9.315689	0.5315128
440784728166693	2.1380222	-9.2965355	0.073023155
440784733172452	2.156577	-9.136124	-0.4297592
440784738178218	2.078167	-8.969129	-0.7248446
440784743184013	1.9776106	-8.725518	-0.9660604
440784748189786	1.8734628	-8.565705	-1.1372458
440784753195550	1.7088615	-8.362797	-1.1025299
440784758201314	1.5376761	-8.217349	-1.0043676
440784763207076	1.4293385	-8.154501	-0.8858546
440784768212838	1.3682863	-8.079682	-0.7356185
440784773218600	1.3150153	-8.034193	-0.50038815
440784778224382	0.076614454	-7.4422264	2.4037786
440784783230152	0.76554596	-8.235306	0.1340753
440784788235921	1.8980033	-8.50166	-1.4987702
440784793241687	2.0219033	-8.437017	-0.88525605
440784798247455	1.5777789	-8.561516	0.1921347
440784803253221	1.4921862	-8.729709	0.39803603
440784808259001	1.7208325	-8.842236	0.26755205
440784813264775	2.0566192	-9.015816	-0.024540568
440784818270546	2.2828712	-9.24925	-0.60094464
440784823276319	2.3702598	-9.378537	-1.0540473
440784828282087	1.8908207	-8.984691	0.013766659
440784833287857	1.857302	-9.219921	-0.61112
440784838293648	3.3183637	-9.555708	-4.1419687
440784843299427	3.426701	-9.271397	-4.0581717
440784848305200	3.032855	-9.039758	-2.783858
440784853310970	2.867655	-8.980501	-2.1583729
440784858316739	2.835932	-9.151687	-2.2152352
440784863322505	2.9364884	-9.4156475	-2.493561
440784868328274	3.1106665	-9.723302	-2.6557682
440784873334037	3.4237084	-10.04592	-2.6246436
440784878339800	3.8546648	-10.323648	-2.456451
440784883345565	4.312556	-10.568455	-2.0919337
440784913380481	6.381745	-10.6660185	-0.7020996
440784923392048	6.4230447	-10.944943	-1.8201919
440784928397833	6.3063273	-11.299285	-2.332551
440784933403619	6.1740475	-11.77633	-2.8628666
440784938409401	6.0489507	-12.294076	-3.2237926
440784943415194	4.024653	-11.913398	1.2036849
440784948420988	5.852626	-13.567193	-4.175488
440784953426777	7.4124484	-14.615853	-7.2107368
440784958432578	7.1909847	-14.7577095	-4.9536033
440784963438373	6.545149	-14.676307	-2.529474
440784968444171	5.899313	-14.420127	-1.620276
440784973449960	5.370793	-13.950265	-1.6514006
440784978455749	4.575918	-13.210457	-1.7968484
440784983461545	3.5523968	-12.588563	-1.9835961
440784988467334	2.777274	-12.274922	-2.6767175
440784993473119	2.3948002	-11.901427	-3.0819361
440784998478903	2.2278047	-11.411813	-2.6360161
440785003484687	2.123657	-10.982652	-2.7449522
440785008490472	2.0470424	-10.691158	-2.7234044
440785013496257	1.780089	-10.7534075	-2.9885623
440785018502061	1.5825673	-11.08261	-3.4727895
440785023507856	1.1683705	-11.641656	-3.6613328
440785028513647	0.7380127	-12.527511	-3.8708255
440785033519434	0.18195933	-13.653983	-3.799598
440785038525219	-0.59974754	-15.076737	-3.3554738
440785043531022	-1.4616601	-16.415695	-2.1374235
440785048536831	-2.345719	-17.423054	-0.5650316
440785053542638	-2.9293058	-18.03178	0.81283146
440785058548440	-3.3901896	-18.146702	2.1212628
440785063554233	-3.7828386	-17.859398	3.1848867
440785068560051	-4.0653543	-17.347637	3.8420951
440785073565858	-4.0360255	-16.610823	4.087501
440785078571680	-3.7283707	-15.799786	3.9001546
440785083577480	-3.2980127	-14.986356	3.554791
440785088583271	-2.7461493	-14.263906	3.0113072
440785093589057	-2.0847511	-13.604303	2.2631192
440785098594844	-1.3628993	-13.056629	1.3581109
440785103600629	-0.64463884	-12.720244	0.25079262
440785108606421	0.2777274	-12.394034	-0.9540894
440785113612213	1.2389994	-12.158205	-1.9554642
440785118617999	2.3068132	-11.946917	-2.6647465
440785123623784	3.3291376	-11.878083	-3.0561984
440785128629568	4.003105	-11.837382	-3.345897
440785133635357	4.2078094	-11.791892	-3.4991257
440785138641190	3.8827965	-11.715877	-3.5051112
440785143647005	3.293823	-11.542895	-3.4871547
440785148652806	2.6258407	-11.275942	-3.3010056
440785153658595	2.0919337	-10.9443445	-3.309984
440785158664380	1.6915035	-10.524162	-3.2980127
440785163670162	1.5466543	-10.030358	-3.2782607
440785168675949	1.6400281	-9.531167	-3.1615434
440785173681733	1.6370354	-9.027188	-2.5312698
440785178687517	1.6023195	-8.483106	-1.804031
440785183693301	1.6232687	-8.034193	-1.1558008
440785188699101	1.8800468	-7.7061872	-0.919972
440785193704899	1.941099	-7.2866035	-0.5105635
440785198710709	1.8166006	-7.0920744	-0.15622166
440785203716509	1.7699136	-6.8801875	0.032920275
440785208722303	1.6130934	-6.625205	0.30226797
440785213728096	1.4149733	-6.31755	0.4950012
440785218733888	1.2240356	-5.878214	0.5518635
440785223739679	0.8559271	-5.605275	0.57041854
440785228745472	0.5482722	-5.2940288	0.45908818
440785233751266	0.31004912	-5.059397	0.29149407
440785238757060	0.11731588	-4.8301525	0.16819267
440785243762854	-0.18674773	-4.6918874	-0.06703765
440785248768650	-0.42676646	-4.4315176	-0.2657564
440785253774449	-0.41240123	-4.193893	-0.30885202
440785258780266	-0.7146692	-3.8018427	-0.16579847
440785263786076	-1.174356	-3.6839283	-0.078410104
440785268791876	-1.4443022	-3.5516486	-0.047285482
440785273797670	-1.4879963	-3.3589153	-0.07062895
440785278803481	-1.5286977	-3.2374096	-0.108936176
440785283809288	-1.5705963	-3.1470284	-0.142455
440785288815093	-1.3611037	-3.2320228	-0.20949265
440785293820891	-1.411382	-3.1793501	-0.005985504
440785298826723	-1.8650831	-3.403208	0.3776853
440785303832543	-1.9333179	-3.4888008	0.50038815
440785308838350	-1.780089	-3.5001733	0.41599256
440785313844154	-1.6681601	-3.4630632	0.49919105
440785318849970	-1.3808558	-3.4349313	0.20231004
440785323855879	-1.1019313	-3.3690908	-0.014963761
440785328861742	-1.5616181	-3.3690908	0.8912416
440785333867565	-1.7651252	-3.4421139	1.1318588
440785338873368	-1.75076	-3.4840124	0.51595044
440785343879181	-1.857302	-3.5420718	0.02873042
440785348884986	-2.1918917	-3.6905122	0.01616086
440785353890781	-2.52289	-3.9688382	-0.40043023
440785358896574	-2.6737247	-4.29026	-1.1312603
440785363902373	-2.6102784	-4.61228	-1.3024458
440785368908167	-2.420538	-5.106683	-2.111686
440785373913958	-2.0709844	-5.6375966	-2.5929205
440785378919766	-1.7717092	-6.4755673	-3.068768
440785383925566	-1.3748703	-7.5780973	-3.669114
440785388931373	-0.6380547	-8.811111	-4.3436804
440785393937176	0.6811504	-10.146477	-5.5030727
440785398942976	2.0769699	-11.673379	-5.783194
440785403948774	4.122815	-13.365481	-7.4567413
440785408954593	6.452972	-14.983363	-9.962872
440785413960401	8.459911	-16.662895	-12.087726
440785418966203	9.925761	-18.495657	-13.295601
440785423971999	10.512939	-19.376722	-14.238916
440785428977807	10.927735	-19.376722	-15.936405
440785433983615	10.960655	-19.376722	-18.215685
440785438989430	10.73979	-19.376722	-19.479225
440785443995234	9.21229	-19.376722	-16.152481
440785449001066	7.0461354	-19.344402	-12.182896
440785454006877	4.6621094	-16.237925	-9.895834
440785459012678	2.4995465	-12.983007	-8.615535
440785464018472	0.43754035	-10.205733	-7.4465656
440785469024267	-0.9367314	-7.769035	-6.05733
440785474030060	-2.5396495	-5.8429	-5.2702365
440785479035855	-3.6978445	-4.7756844	-3.6912606
440785484041651	-4.64535	-5.200655	-3.2872388
440785489047447	-5.006874	-6.719776	-3.169923
440785494053265	-4.6579194	-8.873361	-2.633622
440785499059094	-4.2556934	-11.653627	-1.0450691
440785504064910	-3.6595373	-14.573356	1.9841946
440785509070715	-3.4727895	-17.39612	5.181651
440785514076518	-2.7688942	-19.124733	7.9810715
440785519082320	-1.6166847	-19.255816	8.560468
440785524088118	-0.4429273	-18.094627	5.61141
440785529093924	0.5626374	-15.953014	1.0600328
440785534099732	1.0217255	-13.120674	-2.6833014
440785539105533	1.0217255	-10.227282	-4.1180267
440785544111330	1.2988545	-7.107038	-2.3654714
440785549117147	2.2828712	-3.929334	1.4598645
440785554122958	2.6150668	-1.9002479	3.8815994
440785559128788	1.9375077	-1.6350901	3.3225534
440785564134603	0.7787141	-2.394052	0.62608373
440785569140410	-0.45370123	-3.6480153	-2.1481974
440785574146217	-1.5777789	-5.1719246	-3.2866404
440785579152022	-2.2625206	-6.671892	-2.6713305
440785584157828	-2.3900118	-8.028806	-1.073201
440785589163649	-2.0548236	-9.2486515	0.9504981
440785594169461	-1.3293805	-10.230873	2.6970682
440785599175267	-0.39624038	-10.905439	3.916914
440785604181068	0.4417302	-11.318439	4.812944
440785609186866	1.1336545	-11.624897	5.3438582
440785614192665	1.775899	-11.801469	5.3678
440785619198482	2.2750902	-11.922975	5.1259856
440785624204298	2.706645	-12.253973	4.0216603
440785629210100	3.1789012	-12.610709	2.834735
440785634215894	3.946243	-12.905795	1.520318
440785639221696	4.2760444	-12.917766	1.4059949
440785644227516	4.027047	-12.925547	1.7058687
440785649233332	3.067571	-12.900408	2.1086931
440785654239151	1.5957354	-12.5921545	2.3373394
440785659244970	1.3664906	-12.467057	0.017956512
440785664250790	1.0480618	-12.023531	-1.4700398
440785669256605	0.44651863	-11.40044	-1.9087774
440785674262418	-0.16280572	-10.648661	-2.0518308
440785679268241	-0.64823014	-9.86456	-1.958457
440785684274057	-0.7314286	-9.24925	-2.0524294
440785689279869	-0.53570265	-8.686613	-2.1637597
440785694285676	-0.59974754	-8.209568	-1.4856021
440785699291479	-0.842759	-7.9240594	-0.6596026
440785704297280	-1.2449849	-7.740903	0.6242881
440785709303088	-0.9103952	-7.9120884	-0.04369418
440785714308897	-0.7751228	-7.9108915	0.2873042
440785719314706	-1.1438298	-7.8564234	1.210269
440785724320510	-1.4389153	-7.847445	1.9321208
440785729326314	-1.447295	-7.9073	2.211644
440785734332119	-1.0833763	-7.9683523	2.1799207
440785739337930	-0.60573304	-8.144924	2.0380642
440785744343736	-1.271321	-7.9102926	4.1359835
440785749349538	0.11971009	-8.791958	1.6406267
440785754355338	2.1134815	-9.202563	-0.04309563
440785759361137	2.5462334	-9.251046	0.9768343
440785764366935	2.3660698	-9.547927	1.8417397
440785769372758	2.677316	-9.682002	1.7292122
440785774378575	2.8951883	-9.674819	1.4030021
440785779384381	3.0095115	-9.509021	0.95109665
440785784390186	2.955642	-9.285762	0.41958386
440785789395990	2.7976246	-9.066093	0.01616086
440785794401789	2.5893292	-8.7746	-0.4165911
440785799407607	2.296638	-8.481909	-0.8074445
440785804413419	1.9979613	-8.229321	-0.99060094
440785809419231	1.7058687	-8.020426	-1.0887632
440785814425036	1.4873978	-7.82889	-1.0618285
440785819430839	1.3664906	-7.736713	-0.9211691
440785824436642	1.3024458	-7.703793	-0.6895301
440785829442448	1.3377602	-7.7109756	-0.40402153
440785834448249	1.4987702	-7.7762175	-0.16160862
440785839454045	1.6729485	-7.8534303	0.01616086
440785844459844	1.863886	-7.9324393	0.12749124
440785849465642	2.0614076	-8.032995	0.18495208
440785854471437	1.5245079	-7.697209	1.7675194
440785859477258	1.8806454	-8.135946	1.0887632
440785864483077	3.4093432	-8.760833	-1.5460558
440785869488886	3.6349967	-8.732102	-1.5394717
440785874494707	3.369839	-8.777593	-0.6087258
440785879500514	3.4440591	-8.949975	-0.37708676
440785884506322	3.6529531	-9.218724	-0.6985083
440785889512124	3.8007953	-9.468918	-1.2282255
440785894517924	3.7954082	-9.658659	-1.638831
440785899523728	3.709217	-9.722704	-2.0428526
440785904529535	3.0113072	-9.188796	-0.8218097
440785909535345	2.6844985	-9.332449	-1.3796587
440785914541147	3.9444473	-9.81907	-5.638345
440785919546965	3.876811	-9.613169	-5.475539
440785924552847	3.318962	-9.61676	-3.858256
440785929558779	3.1358056	-9.870545	-3.0974984
440785934564760	3.2848446	-10.395474	-3.0801406
440785939570732	3.5523968	-10.929979	-3.093907
440785944576763	3.9067385	-11.317242	-2.8814218
440785949582760	4.305373	-11.507581	-2.4079683
440785954588746	4.723161	-11.481843	-1.8100165
440785959594699	5.080496	-11.309461	-1.2826935
440785964600603	5.4049106	-11.07423	-1.0109516
440785969606611	5.6569	-10.794108	-0.9139865
440785974612535	5.817312	-10.504411	-1.1480197
440785979618403	5.831677	-10.3847	-1.62686
440785984624261	5.770026	-10.4427595	-2.3259668
440785989630105	5.6904187	-10.6738	-3.1238346
440785994635921	5.6006365	-11.104756	-3.843891
440785999641723	5.415086	-11.664401	-4.3927617
440786004647532	5.276222	-12.373085	-4.723161
440786009653332	5.209783	-13.065608	-4.7399206
440786014659133	5.0421886	-13.569587	-4.2580876
440786019665215	3.4201171	-12.952481	0.57760113
440786024671420	5.511452	-14.195671	-4.8781857
440786029677673	6.2488666	-14.380024	-6.0022635
440786034683995	5.007473	-13.390022	-2.4905684
440786039690281	3.6032736	-12.73461	-1.0702082
440786044696606	2.5683799	-12.298864	-1.4323312
440786049702735	1.9548657	-11.872697	-2.1080947
440786054708684	1.4664485	-11.442339	-2.3995886
440786059714526	1.1629834	-11.092187	-2.795829
440786064720311	0.9804256	-10.754604	-2.8042088
440786069726067	0.7613561	-10.616938	-2.8299465
440786074731808	0.66498953	-10.82643	-3.3213563
440786079737541	0.38307226	-11.3585415	-3.5422213
440786084743309	-0.021547815	-12.373683	-3.715801
440786089749057	-0.55365914	-13.7467575	-3.4500446
440786094754814	-1.0977415	-15.381998	-2.759916
440786109773057	-3.4326868	-18.885912	1.5861586
440786119784752	-4.8440685	-18.87035	3.667917
440786129796306	-5.2265425	-17.487698	4.044405
440786154825306	-1.7645266	-13.054833	1.2054806
440786159831082	-0.58657944	-12.629863	0.09636662
440786164836834	0.8242039	-12.30904	-0.89423436
440786169842568	2.296638	-12.101941	-1.7741034
440786174848311	3.7235823	-12.007969	-2.52289
440786179854041	4.915296	-11.998392	-3.1543608
440786184859795	5.6521115	-11.863718	-3.4739866
440786189865534	5.543774	-11.965472	-3.560178
440786194871303	4.4155064	-12.766931	-3.6828809
440786199877346	4.0258503	-12.442516	-3.3441012
440786204883587	3.9594111	-11.351359	-3.0466216
440786209889552	3.4919431	-10.765977	-3.5871127
440786214895402	2.8909986	-10.383503	-3.8839936
440786219901191	2.291251	-9.964518	-3.8534677
440786224906942	2.022502	-9.523985	-3.7181952
440786229912674	1.8477252	-9.016414	-3.0969
440786234918401	1.8884265	-8.315512	-2.1817162
440786239924141	1.6777369	-8.227525	-1.6699557
440786244929892	1.7902644	-8.243686	-1.2419921
440786249935624	2.3780408	-7.965958	-0.83617496
440786254941377	2.6635494	-7.5804915	-0.5781997
440786259947392	2.4115596	-7.4607816	-0.16699557
440786264953566	2.284667	-7.3261075	0.05566519
440786269959783	2.1039047	-6.8777933	0.19752164
440786274966170	1.7681179	-6.525247	0.36272156
440786279972485	1.4628572	-6.0775313	0.46267948
440786284978787	1.2330139	-5.634604	0.41838676
440786289985045	1.0336965	-5.244349	0.31483752
440786294991366	0.729633	-4.957045	0.18016368
440786299997675	0.427365	-4.666748	0.07062895
440786305003984	0.108337626	-4.4213424	-0.075417355
440786310009947	-0.17477672	-4.146608	-0.16699557
440786315015766	-0.42676646	-3.792266	-0.11192893
440786320021492	-0.57041854	-3.4295442	-0.06464344
440786325027202	-0.7529764	-3.1392474	-0.002992752
440786330032896	-0.84694886	-2.8657098	0.14963761
440786335038583	-0.93613285	-2.6622026	0.25617957
440786340044265	-1.0151415	-2.5263317	0.29987377
440786345049932	-1.021127	-2.4024317	0.31663316
440786350055588	-0.8738836	-2.409016	0.33877954
440786355061241	-0.83018947	-2.2905028	0.33758244
440786360067256	-1.2707225	-2.344971	1.0103531
440786365073449	-1.2563573	-2.285116	1.1899183
440786370079658	-1.0696096	-2.1594203	1.073201
