accelerometer_timestamp	accelerometer_x_data	accelerometer_y_data	accelerometer_z_data
254194804078826	1.3847961	3.8422852	11.761597
254194812471160	2.1849823	3.960434	12.669937
254194820863494	2.3917236	4.1491547	12.362518
254194829255828	1.973053	4.3729553	11.091995
254194837648162	1.2449493	4.5131073	9.490616
254194846040496	0.7512665	4.573242	8.277237
254194854432829	0.4295807	4.5841827	7.65979
254194862825163	0.20800781	4.5357056	7.5236664
254194871217497	0.05680847	4.4472504	7.685089
254194879609831	0.009170532	4.393936	7.959854
254194888002165	0.038528442	4.3534546	8.128906
254194896394499	0.1299591	4.3716583	8.163147
254194904786833	0.25404358	4.3985443	8.01239
254194913179167	0.35691833	4.410492	7.7335205
254194921571501	0.41627502	4.4216156	7.4425507
254194929963835	0.47587585	4.491745	7.3133698
254194938356169	0.58825684	4.5423584	7.5806427
254194946748503	0.74328613	4.538025	8.02684
254194955140837	0.7758789	4.5007324	8.459198
254194963533171	0.6934662	4.459839	8.76535
254194971925505	0.5415802	4.4333954	8.910248
254194980317839	0.3630066	4.415619	8.973724
254194988710173	0.25567627	4.4044952	9.024338
254194997102507	0.16404724	4.359848	9.034775
254195005494841	0.08326721	4.308319	9.00119
254195013887175	0.010498047	4.2501373	8.9435425
254195022279509	-0.045562744	4.191757	8.868866
254195030671843	-0.060897827	4.1631165	8.752563
254195039064177	-0.099487305	4.143814	8.635788
254195047456511	-0.11148071	4.1515503	8.64624
254195055848845	-0.121520996	4.183716	8.71257
254195064241179	-0.07476807	4.2180786	8.803024
254195072633513	0.0821991	4.2273407	8.897217
254195081025847	0.34432983	4.191803	8.974594
254195089418181	0.6014862	4.247467	8.958389
254195097810515	0.760376	4.3122406	8.857193
254195106202849	0.84843445	4.365967	8.687271
254195114595183	0.89482117	4.400116	8.48674
254195122987517	0.92900085	4.415161	8.29657
254195131379851	0.98023987	4.423401	8.148422
254195139772185	1.0848389	4.466049	8.192078
254195148164519	1.1010895	4.4879	8.257828
254195156556853	1.0979156	4.4743958	8.338058
254195164949187	1.0991516	4.4413147	8.370468
254195173341521	1.1046753	4.4114532	8.304825
254195181733855	1.0967407	4.3895874	8.169632
254195190126189	1.061203	4.3479614	8.018326
254195198518523	1.0267792	4.3300934	7.9737244
254195206910857	0.97839355	4.3351135	8.077179
254195215303191	0.949173	4.320587	8.358276
254195223695525	0.98161316	4.262985	8.766022
254195232087859	1.0879669	4.222229	9.121887
254195240480193	1.1216431	4.159546	9.36525
254195248872527	1.1035461	4.1114655	9.398178
254195257264861	1.049942	4.0670624	9.2417755
254195265657195	0.9814148	4.0315704	9.00856
254195274049529	0.89715576	4.013916	8.808746
254195282441863	0.7487488	4.013962	8.6605835
254195290834197	0.6077423	4.0219574	8.552582
254195299226531	0.47628784	4.0033264	8.516037
254195307618865	0.47943115	3.9850922	8.585114
254195316011199	0.71580505	3.984909	8.806305
254195324403533	1.1273651	4.029785	9.109329
254195332795867	1.383255	4.17218	9.193237
254195341188201	1.5457764	4.2689056	9.048676
254195349580535	1.7965698	4.355789	8.977951
254195357972869	1.9288483	4.4386444	8.958069
254195366365203	1.844101	4.5024414	8.964844
254195374757537	1.5521698	4.5305634	8.970047
254195383149871	1.1733093	4.52359	8.9401245
254195391542204	0.64689636	4.4587708	8.865356
254195399934538	0.49467468	4.4140015	8.657166
254195408326872	0.5637512	4.4009247	8.426483
254195416719206	0.7494354	4.407089	8.270004
254195425111540	0.9711914	4.4085083	8.246811
254195433503874	1.1516418	4.382599	8.355499
254195441896208	1.066864	4.3636017	8.540375
254195450288542	1.1111298	4.3368225	8.555969
254195458680876	1.1369324	4.3273315	8.618118
254195467073210	1.0309143	4.3173523	8.822876
254195475465544	0.781662	4.2753143	9.137039
254195483857878	0.5580139	4.1898346	9.387543
254195492250212	0.34254456	4.1473236	9.260498
254195500642546	0.2673645	4.146179	9.062897
254195509034880	0.36705017	4.17482	8.922256
254195517427214	0.5826721	4.2093964	8.887939
254195525819548	0.8015137	4.229538	8.947418
254195534211882	0.8999176	4.237488	9.04483
254195542604216	0.79403687	4.267975	8.944809
254195550996550	0.774765	4.238983	8.682068
254195559388884	0.77960205	4.2133484	8.414154
254195567781218	0.7232666	4.2159576	8.295517
254195576173552	0.63150024	4.2273865	8.424301
254195584565886	0.8338928	4.176529	8.779251
254195592958220	0.9345703	4.164734	9.083542
254195601350554	0.9079437	4.180084	9.230911
254195609742888	0.6559906	4.188629	8.788559
254195618135222	0.54603577	4.1552734	7.8261414
254195626527556	0.94021606	4.0571747	6.9700623
254195634919890	1.60849	3.8768005	8.038055
254195643312224	1.5590057	3.9191132	8.760437
254195651704558	1.338974	3.9417114	9.212769
254195660096892	1.1494904	3.937027	9.285217
254195668489226	1.0143127	3.938675	9.217209
254195676881560	0.8875122	3.9868164	9.372437
254195685273894	0.8280792	4.0677795	9.84288
254195693666228	0.84376526	4.2714844	10.094711
254195702058562	1.0578308	4.368805	9.730988
254195710450896	0.88690186	4.2443542	9.073944
254195718843230	0.51852417	3.9908752	8.43486
254195727235564	0.47218323	3.817505	8.100296
254195735627898	0.6580658	3.89505	8.272263
254195744020232	0.92230225	4.1101837	8.66954
254195752412566	1.0083008	4.2300262	8.889557
254195760804900	0.91996765	4.21019	8.942032
254195769197234	0.75624084	4.079605	9.009186
254195777589568	0.606308	3.9167786	9.282623
254195785981902	0.35107422	3.8789063	9.525909
254195794374236	0.18759155	3.9340363	9.299118
254195802766570	-0.0023651123	3.9617462	7.082428
254195811158904	0.4933319	3.9796906	5.3947754
254195819551238	1.5418854	4.015503	5.789215
254195827943572	2.3828888	4.088608	8.216187
254195836335906	1.8548431	4.1962433	10.267456
254195844728240	1.2068176	4.1259003	10.393524
254195853120574	0.878067	4.0966187	10.150696
254195861512908	0.68418884	4.121002	10.10405
254195869905242	0.5612793	4.172653	10.369705
254195878297576	0.54145813	4.234314	10.784195
254195886689910	0.59529114	4.4008484	11.024872
254195895082244	0.7631073	4.566391	10.303894
254195903474578	1.7539673	4.432251	8.294205
254195911866912	1.9255981	4.393509	6.26268
254195920259246	1.3586884	4.5067596	5.1856537
254195928651579	1.2097015	4.56308	5.554428
254195937043913	1.6304321	4.3786316	6.6950073
254195945436247	1.6610413	4.315979	7.831299
254195953828581	1.3708954	4.244339	8.715042
254195962220915	0.9290161	4.108322	9.433273
254195970613249	0.46279907	3.9097443	9.888184
254195979005583	0.019500732	3.7006683	9.963577
254195987397917	-0.3045349	3.5870056	10.14801
254195995790251	-0.24679565	3.556305	10.54361
254196004182585	0.052108765	3.585266	10.843765
254196012574919	0.41889954	3.6319733	10.863434
254196020967253	0.6976166	3.6919556	10.515472
254196029359587	0.7679291	3.7748718	9.8446045
254196037751921	0.4704895	3.826828	9.086761
254196046144255	-0.0010223389	3.6779022	8.626892
254196054536589	-0.1665802	3.6229706	8.597946
254196062928923	-0.17071533	3.6159058	8.846237
254196071321257	-0.14892578	3.5737152	9.1706085
254196079713591	-0.19165039	3.4369507	9.38353
254196088105925	-0.37608337	3.3083344	9.422409
254196096498259	-0.655365	3.279251	9.550507
254196104890593	-0.9614258	3.2246704	9.658356
254196113282927	-1.2208099	3.1742249	9.754791
254196121675261	-1.3713074	3.1588745	9.810364
254196130067595	-1.3815918	3.195633	9.781494
254196138459929	-1.2384644	3.300003	9.697006
254196146852263	-1.0565491	3.4344177	9.505157
254196155244597	-0.95477295	3.5479279	9.324417
254196163636931	-0.9368744	3.6148682	9.177872
254196172029265	-0.99261475	3.6476135	9.035217
254196180421599	-1.0956268	3.686264	8.854187
254196188813933	-1.2092743	3.7241516	8.718597
254196197206267	-1.1651459	3.7926636	8.605286
254196205598601	-1.0338898	3.8996277	8.37471
254196213990935	-0.9112091	4.0416718	8.161896
254196222383269	-0.8200073	4.174301	8.035034
254196230775603	-0.72976685	4.2332	7.981537
254196239167937	-0.6690216	4.2250977	7.9562225
254196247560271	-0.8835602	4.130554	8.03624
254196255952605	-1.2414551	3.9939575	8.138245
254196264344939	-1.5821381	3.885559	8.312546
254196272737273	-1.7828217	3.8365173	8.544571
254196281129607	-1.786789	3.8323975	8.748276
254196289521941	-1.6486206	3.8652039	8.934158
254196297914275	-1.4674683	3.8706512	9.088776
254196306306609	-1.3207855	3.890808	9.166809
254196314698943	-1.2333679	3.9492035	9.238815
254196323091277	-1.1827698	4.026474	9.34079
254196331483611	-1.1209259	4.0745544	9.421326
254196339875945	-1.1060181	4.124237	9.296082
254196348268279	-1.0549622	4.1394196	8.732651
254196356660613	-1.0655212	4.152878	8.172165
254196365052947	-1.073883	4.2008667	7.831726
254196373445281	-0.8820648	4.208832	7.8207245
254196381837615	-0.3033905	4.0675354	8.175568
254196390229949	0.2969818	4.0546265	8.953888
254196398622283	0.13349915	4.2980347	9.323578
254196407014617	-0.19168091	4.439087	9.428177
254196415406951	-0.6070404	4.5129395	9.256851
254196423799285	-0.95425415	4.5448	8.898956
254196432191619	-0.96772766	4.47908	8.572876
254196440583953	-0.93881226	4.182968	8.326614
254196448976287	-1.179779	4.0463257	8.243286
254196457368621	-1.480133	4.1447144	8.35788
254196465760954	-1.6007843	4.3259735	8.619308
254196474153288	-1.4911041	4.4493713	8.953888
254196482545622	-1.3614044	4.464447	9.248566
254196490937956	-1.5149536	4.4714203	9.209702
254196499330290	-1.850647	4.4651184	8.7901
254196507722624	-2.3122559	4.400406	8.345566
254196516114958	-2.7188873	4.2743073	7.834961
254196524507292	-2.9641418	4.124359	7.2729797
254196532899626	-3.0758972	3.9993896	6.921219
254196541291960	-3.1216125	3.87117	8.003693
254196549684294	-2.4986115	3.8642883	9.097076
254196558076628	-1.61969	4.0529327	9.546738
254196566468962	-0.93904114	4.303314	9.863022
254196574861296	-0.7277527	4.5817566	10.030701
254196583253630	-0.93499756	4.9679413	9.3377075
254196591645964	-1.7246399	5.121826	7.9355927
254196600038298	-2.0746613	4.712448	7.403305
254196608430632	-2.2758026	4.3195953	7.433548
254196616822966	-2.4402924	4.2043457	7.7775116
254196625215300	-2.5669403	4.3787384	8.20079
254196633607634	-2.5646057	4.6336517	8.481186
254196641999968	-2.5237274	4.678528	8.307709
254196650392302	-2.557312	4.6174316	8.114578
254196658784636	-2.3694763	4.718811	8.219421
254196667176970	-1.9716339	4.8069	8.501862
254196675569304	-1.5116119	4.7622375	8.69873
254196683961638	-1.231369	4.6906433	8.577194
254196692353972	-1.3450317	4.783371	8.604111
254196700746306	-1.8038788	4.848999	8.671616
254196709138640	-2.216217	4.9832153	8.014587
254196717530974	-2.3593903	5.212631	7.649994
254196725923308	-2.1923676	5.148361	8.256989
254196734315642	-1.8665009	4.12648	9.331497
254196742707976	-1.8604126	3.3692474	9.030838
254196751100310	-2.7397156	4.298462	7.9445953
254196759492644	-3.3393555	5.6325226	7.09848
254196767884978	-4.214981	6.1178284	7.6473236
254196776277312	-4.75708	5.691345	8.812088
254196784669646	-2.5400848	5.719589	7.6088715
254196793061980	-0.5284271	5.829254	7.4677124
254196801454314	1.0747833	5.477783	6.4939117
254196809846648	1.2991943	5.274185	5.571762
254196818238982	1.0117493	5.007538	5.295212
254196826631316	0.8782654	4.6368256	5.732132
254196835023650	0.44226074	4.742035	6.2014923
254196843415984	-1.6769714	6.2559204	6.4678802
254196851808318	-1.8638916	6.1932983	6.356842
254196860200652	-1.4837189	5.727936	6.004181
254196868592986	-1.4143372	5.4249573	5.2984467
254196876985320	-1.8774109	5.7046967	4.535187
254196885377654	-2.1247253	6.712326	4.602295
254196893769988	-1.4806519	6.39328	5.1027985
254196902162322	-1.8315582	5.8065796	4.4355774
254196910554656	-2.9333344	5.4276276	4.3103485
254196918946990	-4.7048645	5.631546	5.1402435
254196927339324	-6.771988	6.367035	6.5245056
254196935731658	-8.444031	7.0855103	7.662903
254196944123992	-8.484924	7.451416	8.305969
254196952516326	-7.419754	7.4304047	8.609238
254196960908660	-5.345932	7.068527	8.18306
254196969300994	-2.6312256	6.6604767	7.2332306
254196977693328	0.09359741	6.478836	6.063568
254196986085662	1.8824615	6.664566	4.7756042
254196994477996	1.7850494	7.457794	2.6255646
254197002870329	1.691803	8.232697	0.7183075
254197011262663	1.6212921	8.854279	-0.92012024
254197019654997	1.2324371	9.559021	-2.2671967
254197028047331	0.20996094	10.470261	-3.0329437
254197036439665	-1.3524323	11.239517	-2.6379547
254197044831999	-3.084259	11.461853	-2.57016
254197053224333	-4.403351	11.236786	-2.3521729
254197061616667	-5.16037	10.651291	-1.8857117
254197070009001	-5.453079	9.974472	-1.403305
254197078401335	-5.4950714	9.527252	-1.1007843
254197086793669	-5.364273	9.483871	-0.8155365
254197095186003	-4.767868	9.7651825	-0.06803894
254197103578337	-4.0782166	10.138962	0.16920471
254197111970671	-3.3903046	10.4930725	-0.13638306
254197120363005	-2.7210236	10.840286	-0.8552246
254197128755339	-2.0042572	11.159348	-1.6939697
254197137147673	-1.0879059	11.28212	-2.129074
254197145540007	-0.65159607	11.017883	-2.404419
254197153932341	-0.691803	10.63884	-2.3463287
254197162324675	-0.9213562	10.169052	-1.9942017
254197170717009	-1.6174469	9.616852	-1.0942383
254197179109343	-2.7200775	8.996277	0.2443695
254197187501677	-2.868103	8.357483	0.7884064
254197195894011	-3.522171	7.9867096	1.4076691
254197204286345	-3.9684296	8.084763	0.9944153
254197212678679	-4.0726624	8.528793	0.75717163
254197221071013	-3.9526825	9.017807	0.95040894
254197229463347	-3.7868042	9.301987	1.2689056
254197237855681	-3.672287	9.458557	1.0440063
254197246248015	-3.0291595	9.757751	0.73983765
254197254640349	-2.1159363	9.85965	0.5498657
254197263032683	-1.3172455	9.7265625	0.3314972
254197271425017	-0.7467041	9.414246	0.079589844
254197279817351	-0.40179443	9.061676	-0.10374451
254197288209685	-0.3151703	8.834869	-0.06285095
254197296602019	-0.70350647	8.868942	0.23097229
254197304994353	-1.2412567	8.91629	0.50994873
254197313386687	-1.8067322	8.955154	0.66511536
254197321779021	-2.283783	9.059479	0.72125244
254197330171355	-2.5747375	9.242874	0.7614746
254197338563689	-2.6515045	9.210968	0.8831177
254197346956023	-2.2943878	8.85228	1.1659241
254197355348357	-2.7034912	8.584946	2.692047
254197363740691	-2.9882965	8.571777	3.165207
254197372133025	-2.7052765	8.757614	2.6961517
254197380525359	-2.0827942	8.983826	2.2837982
254197388917693	-2.7898712	9.051254	2.0028229
254197397310027	-2.2263794	9.565201	1.9338837
254197405702361	-0.18078613	11.105133	1.6312561
254197414094695	-0.24815369	11.2452545	0.5724335
254197422487029	-1.5578003	10.403	-0.7173157
254197430879363	-1.6487885	10.129639	-1.6372681
254197439271697	-2.213379	9.680344	-3.4334412
254197447664031	-1.7419891	9.099045	-3.1088715
254197456056365	-1.0093079	8.935257	-1.9209595
254197464448699	-0.7418823	8.935379	-1.2828369
254197472841033	-0.8870392	9.0546875	-1.3204956
254197481233367	-1.0269318	9.348679	-1.3364258
254197489625701	-1.3080902	9.732361	-0.8736725
254197498018035	-1.5334778	9.788513	-0.38075256
254197506410369	-1.5175629	9.699753	-0.4580536
254197514802703	-1.3380737	9.520386	-0.9615021
254197523195037	-1.0510406	9.322723	-1.4785461
254197531587371	-0.7128296	9.1236725	-1.5147705
254197539979704	-0.5060425	8.667343	-0.72636414
254197548372038	-0.85791016	8.803345	-0.5986481
254197556764372	-1.6855621	9.073959	-0.48008728
254197565156706	-2.0168304	9.279953	-0.3634796
254197573549040	-1.8715057	9.28537	-0.32203674
254197581941374	-1.7967529	9.023682	-0.37202454
254197590333708	-1.9123993	8.644821	-0.16564941
254197598726042	-2.5964355	8.767075	0.058273315
254197607118376	-3.4903107	8.929703	0.14697266
254197615510710	-3.7562408	8.899689	0.8176727
254197623903044	-3.3991394	8.647247	1.7167358
254197632295378	-3.0313568	8.294998	1.8865356
254197640687712	-2.774109	7.922104	1.7210388
254197649080046	-2.2818756	8.400162	2.7737427
254197657472380	-1.5548859	8.686325	4.6177673
254197665864714	-1.2500458	8.642685	5.3995056
254197674257048	-1.6999359	8.48764	4.8779297
254197682649382	-2.8755493	8.531067	3.716507
254197691041716	-3.9762268	8.583908	1.8620758
254197699434050	-5.192398	8.264877	0.055877686
254197707826384	-5.7566833	8.041	-1.1367645
254197716218718	-5.4376373	8.277161	-1.7878418
254197724611052	-4.4192963	8.776611	-1.9621277
254197733003386	-3.1152344	9.007202	-1.694931
254197741395720	-1.9173431	8.725052	-1.2233124
254197749788054	-0.9546509	8.261673	-0.7479706
254197758180388	-0.39794922	7.764572	-0.14073181
254197766572722	-0.21690369	7.3921356	0.4403839
254197774965056	-0.25502014	7.20253	0.5925293
254197783357390	-0.45611572	7.1193542	-0.031814575
254197791749724	-1.4859161	6.7525787	-0.4651947
254197800142058	-2.1365814	6.580414	-1.1271515
254197808534392	-2.662262	6.6810455	-0.95072937
254197816926726	-3.1756287	6.8887634	-0.50909424
254197825319060	-3.6899261	7.1587067	-0.51904297
254197833711394	-4.1673584	7.4694824	-1.340683
254197842103728	-4.723999	7.3074493	-1.368515
254197850496062	-4.8450623	6.4863434	1.7961578
254197858888396	-5.039688	5.9572754	3.4200134
254197867280730	-5.652191	5.592987	3.4023895
254197875673064	-6.7588806	5.1338654	2.8229523
254197884065398	-8.203461	4.4618225	2.676941
254197892457732	-9.280975	4.247116	1.5924683
254197900850066	-10.099304	4.1111298	-0.5062103
254197909242400	-10.643143	3.5494385	-3.0174866
254197917634734	-11.008163	3.0437164	-5.4485474
254197926027068	-11.213104	3.0394287	-7.573044
254197934419402	-11.353195	3.824295	-9.418869
254197942811736	-12.758591	5.2987366	-11.621399
254197951204070	-13.328384	5.9848785	-10.211395
254197959596404	-12.826843	5.7511444	-7.71521
254197967988738	-12.136887	4.936035	-4.963043
254197976381072	-11.36705	4.035721	-2.5189667
254197984773406	-10.026337	3.5034637	-0.70191956
254197993165740	-9.315475	2.8703613	0.71881104
254198001558074	-9.239212	2.5850067	1.7996826
254198009950408	-8.995041	2.6020203	2.7631836
254198018342742	-8.073532	2.2554474	3.8336487
254198026735076	-7.5770264	1.6990967	6.4967957
254198035127410	-9.617401	1.8272095	12.425629
254198043519744	-10.595657	0.96806335	14.7209015
254198051912078	-10.392242	1.5807343	8.340805
254198060304412	-11.0056305	2.4614105	1.827774
254198068696746	-11.306717	2.6276703	-2.0978546
254198077089079	-11.434418	2.0125427	-3.2975311
254198085481413	-12.968246	1.344162	-2.8376007
254198093873747	-13.757675	1.484726	-1.6233978
254198102266081	-12.410675	1.8491821	-0.12339783
254198110658415	-10.355743	2.3364716	0.7616577
254198119050749	-7.4186096	3.035675	0.17259216
254198127443083	-4.843109	3.8101501	-1.3458252
254198135835417	-4.791931	4.364334	-1.97258
254198144227751	-1.6653442	5.299515	-1.1779785
254198152620085	-2.7054749	6.0911407	0.4915619
254198161012419	-4.9177246	6.1985474	2.1783295
254198169404753	-6.5117645	5.9153137	3.2362213
254198177797087	-7.0476685	5.448181	3.42099
254198186189421	-7.486191	4.7796783	2.8981628
254198194581755	-7.8927307	4.1484833	1.1069641
254198202974089	-7.597992	3.8729706	0.004501343
254198211366423	-7.0606537	3.6878815	-0.9556427
254198219758757	-6.492157	3.6736755	-0.8563843
254198228151091	-5.955597	3.8992615	0.4124756
254198236543425	-5.4140625	4.320343	1.7896423
254198244935759	-5.0840607	4.408081	1.8953247
254198253328093	-4.95166	4.1223145	1.3340759
254198261720427	-5.0911865	3.8361359	0.7975464
254198270112761	-5.3385925	3.7664642	0.71484375
254198278505095	-5.609009	4.004959	1.2057495
254198286897429	-5.990753	4.5390625	2.103531
254198295289763	-6.7095184	5.278061	3.1057434
254198303682097	-7.2221527	5.9426117	3.4428558
254198312074431	-7.8283386	6.454071	3.3571625
254198320466765	-8.464035	6.869644	3.078476
254198328859099	-8.926895	7.1867676	2.715973
254198337251433	-9.004929	7.289459	2.236496
254198345643767	-9.404739	7.1219788	1.8067932
254198354036101	-9.054504	6.5611877	2.2393494
254198362428435	-8.033859	5.750061	2.4279938
254198370820769	-7.2118073	5.051361	2.1947174
254198379213103	-7.0787506	4.6290283	1.7877045
254198387605437	-7.3351135	4.28006	1.728302
254198395997771	-8.534531	4.0507507	1.1819305
254198404390105	-9.632095	3.8896027	0.79174805
254198412782439	-10.21759	3.9002686	0.64611816
254198421174773	-10.639862	4.026108	0.8792114
254198429567107	-11.109055	4.211792	1.6958466
254198437959441	-11.407288	4.4605255	3.3901062
254198446351775	-11.565231	4.648819	5.188019
254198454744109	-12.371368	4.855194	5.307831
254198463136443	-13.076599	5.1072235	4.9652557
254198471528777	-13.440445	5.331833	4.364334
254198479921111	-13.409256	5.454529	3.5971375
254198488313445	-12.985001	5.436508	2.9230957
254198496705779	-12.545303	5.4750977	2.5118103
254198505098113	-12.272385	5.558853	2.17424
254198513490447	-11.846298	5.5511475	2.1438751
254198521882781	-11.602173	5.48822	1.9123535
254198530275115	-11.68396	5.3735504	1.3675232
254198538667449	-11.643982	5.1152954	1.3460846
254198547059783	-11.623108	4.964203	2.137329
254198555452117	-12.16394	4.9259186	2.0706482
254198563844451	-12.605316	4.9757385	1.8473816
254198572236785	-12.693634	5.0621033	1.7111511
254198580629119	-12.458405	5.171982	1.6031494
254198589021453	-12.138351	5.3601227	1.2104187
254198597413787	-11.68071	5.420944	0.7787323
254198605806121	-11.053192	5.2744904	0.6265106
254198614198454	-10.470108	5.2436523	0.64460754
254198622590788	-9.950134	5.4970093	0.49575806
254198630983122	-9.400818	6.0271606	0.10595703
254198639375456	-8.650467	6.6374054	-0.07128906
254198647767790	-7.994461	6.3741913	0.17167664
254198656160124	-8.391174	6.838272	0.4140625
254198664552458	-8.642838	7.2196045	0.5791321
254198672944792	-8.831818	7.3039093	0.67048645
254198681337126	-9.240494	7.167679	0.8195343
254198689729460	-9.7565155	7.0180817	1.3372192
254198698121794	-10.311844	6.6880646	1.8815918
254198706514128	-10.613419	6.1811523	2.382965
254198714906462	-10.601456	5.795349	2.7210388
254198723298796	-10.331055	5.512436	2.8808136
254198731691130	-10.011978	5.358017	2.9481049
254198740083464	-10.107727	5.649658	3.1594696
254198748475798	-10.275223	5.990631	3.452591
254198756868132	-10.2378845	5.883423	3.552353
254198765260466	-10.326874	5.5854797	3.500061
254198773652800	-10.461182	5.290573	3.4384308
254198782045134	-10.441055	5.0759277	3.537735
254198790437468	-10.115356	4.8516846	3.967453
254198798829802	-9.419556	4.802002	4.4067993
254198807222136	-9.105347	4.529663	4.2763214
254198815614470	-9.153336	4.1797333	3.8424988
254198824006804	-9.348114	3.6289063	3.4282227
254198832399138	-9.470673	2.8357391	3.2486115
254198840791472	-9.442749	2.1348267	3.285492
254198849183806	-9.43544	2.0961304	3.6603699
254198857576140	-9.504898	2.2655334	3.7502441
254198865968474	-9.402603	2.229004	3.319641
254198874360808	-9.1392975	1.919632	2.5757751
254198882753142	-8.912033	1.5129395	1.8521729
254198891145476	-9.109848	1.4393768	1.3661194
254198899537810	-9.242065	1.5088348	1.1309509
254198907930144	-9.324493	1.7290802	1.6712036
254198916322478	-9.241425	2.063614	2.1916962
254198924714812	-8.995834	2.360321	2.4341888
254198933107146	-8.674805	2.456482	2.3610687
254198941499480	-8.47171	2.314331	1.8949738
254198949891814	-8.168991	2.2929535	1.4174347
254198958284148	-7.6347046	2.174057	1.0269775
254198966676482	-7.193207	2.1093903	0.91773987
254198975068816	-6.970413	2.054779	1.1406403
254198983461150	-7.057144	2.0077057	1.5291748
254198991853484	-7.6858673	2.3376923	1.6141205
254199000245818	-8.235886	2.5567474	2.015686
254199008638152	-8.670731	2.897171	2.5455627
254199017030486	-8.843506	3.004547	3.0631409
254199025422820	-8.900803	2.8947601	3.2499847
254199033815154	-8.995224	2.7062988	2.941162
254199042207488	-8.9015045	2.370285	2.5453491
254199050599822	-8.93808	2.0995483	2.5407104
254199058992156	-9.275299	1.9825745	2.8507996
254199067384490	-9.362518	2.2914124	3.0713196
254199075776824	-9.193588	2.6644592	2.9414063
254199084169158	-9.016373	2.6321259	2.46875
254199092561492	-8.941589	2.4646301	2.2673645
254199100953826	-9.157761	2.3608093	2.792862
254199109346160	-9.288269	1.4512329	3.0107574
254199117738494	-9.874268	0.7271118	3.9271545
254199126130828	-10.1887665	0.6908264	4.694809
254199134523162	-9.510468	1.2253418	4.1731567
254199142915496	-9.148972	1.4385986	3.3160858
254199151307829	-9.374191	1.2967834	2.4398956
254199159700163	-9.745956	1.5296326	1.9085388
254199168092497	-9.634781	1.4206696	1.8645935
254199176484831	-9.419052	1.0116119	2.0493164
254199184877165	-9.687653	0.7040558	2.1505737
254199193269499	-9.933914	0.5684662	2.3649292
254199201661833	-9.483627	-0.3126068	2.7260895
254199210054167	-9.243637	-0.9791565	2.8777008
254199218446501	-9.061691	-1.216629	2.479538
254199226838835	-8.951538	-1.3521881	1.8967438
254199235231169	-9.087814	-1.727066	1.7007751
254199243623503	-9.7170105	-1.5710144	1.6341705
254199252015837	-10.216553	-0.45584106	0.7724304
254199260408171	-10.199265	0.19810486	0.3583374
254199268800505	-9.848999	0.24914551	0.102127075
254199277192839	-9.576096	-0.088912964	0.050369263
254199285585173	-9.756317	-0.48583984	0.55355835
254199293977507	-10.159454	-0.64630127	1.978241
254199302369841	-10.83783	-0.49978638	2.8699799
254199310762175	-10.9760895	-0.1967926	3.469986
254199319154509	-10.997437	-0.22644043	3.481079
254199327546843	-11.213516	-0.60969543	2.7644806
254199335939177	-11.713364	-0.94937134	1.6325378
254199344331511	-12.32666	-0.4235382	1.651413
254199352723845	-12.002365	1.2781067	2.6130981
254199361116179	-10.986191	2.7915955	2.311142
254199369508513	-10.220566	3.6562958	1.0488281
254199377900847	-9.991516	3.6460571	-0.38598633
254199386293181	-9.987778	2.9603424	-1.2358246
254199394685515	-9.527176	3.0740051	-1.2298431
254199403077849	-9.685699	2.8391113	-1.0156403
254199411470183	-9.02211	2.904068	-0.71006775
254199419862517	-8.043976	2.9127502	-0.35447693
254199428254851	-7.7233734	2.711609	-0.32395935
254199436647185	-8.797394	2.5325317	-0.9819031
254199445039519	-10.039902	3.3635254	-1.2304077
254199453431853	-10.575119	4.1922455	-1.1519928
254199461824187	-11.386963	3.254181	-1.754715
254199470216521	-12.035629	2.1822357	-2.9955902
254199478608855	-11.71669	1.8062439	-4.235611
254199487001189	-9.685669	1.9673462	-4.6342316
254199495393523	-6.4208984	3.1747437	-3.7934265
254199503785857	-3.178833	4.069641	-3.115631
254199512178191	0.89575195	5.564148	-2.6002808
254199520570525	2.0790405	6.949341	-2.4848785
254199528962859	-1.4045715	7.7417145	-2.5925598
254199537355193	-8.37323	7.8378906	-2.4663696
254199545747527	-13.654358	6.878784	-1.8960876
254199554139861	-14.283112	6.251663	-1.3799438
254199562532195	-13.906616	5.87706	-1.9374237
254199570924529	-13.857773	5.9009857	-3.0478668
254199579316863	-13.590363	6.19928	-3.9490051
254199587709197	-11.707809	6.4663544	-4.008423
254199596101531	-8.903564	6.8615723	-2.881836
254199604493865	-7.276367	8.003967	-3.6772919
254199612886199	-7.639084	10.094742	-4.2816467
254199621278533	-7.657181	12.017212	-3.0712128
254199629670867	-6.375656	12.404434	-1.2733002
254199638063201	-5.096344	10.290298	-2.120224
254199646455535	-6.609604	7.987213	-4.0786743
254199654847869	-7.9080963	6.344742	-4.861389
254199663240203	-8.295959	5.4920044	-4.6793976
254199671632537	-7.894623	5.3092804	-4.486435
254199680024871	-6.924637	5.4557343	-4.2731323
254199688417204	-5.7352905	5.494049	-3.2815704
254199696809538	-6.025818	5.511261	-2.4636078
254199705201872	-6.017807	5.140503	-2.8943176
254199713594206	-5.602127	4.912979	-2.885376
254199721986540	-5.2218323	4.7072296	-2.7815247
254199730378874	-5.079529	4.403885	-2.7303467
254199738771208	-5.015976	4.0012207	-2.4366455
254199747163542	-4.7754974	3.506195	-2.2374268
254199755555876	-5.156555	3.5030365	-2.607071
254199763948210	-5.4278564	3.4488068	-3.2771301
254199772340544	-5.6011353	3.2697449	-3.8287659
254199780732878	-5.681305	3.1235352	-4.031433
254199789125212	-5.609375	3.225769	-3.9993896
254199797517546	-6.1803894	3.124771	-4.3623962
254199805909880	-5.789627	2.5945435	-5.5278473
254199814302214	-5.6750946	1.9689178	-5.28389
254199822694548	-6.027832	1.7676392	-4.763138
254199831086882	-6.362625	2.1699066	-4.7884064
254199839479216	-5.987335	2.871643	-4.784958
254199847871550	-6.12352	3.2046356	-4.4092255
254199856263884	-6.397232	2.8482666	-4.6703186
254199864656218	-6.6917725	2.300766	-5.178528
254199873048552	-6.9233246	1.9407806	-5.538986
254199881440886	-7.148285	1.8933716	-5.4934845
254199889833220	-7.522827	1.9860535	-5.107773
254199898225554	-7.6135254	2.0526276	-5.72818
254199906617888	-7.6929016	2.216156	-6.1924133
254199915010222	-7.8571777	2.2607117	-6.348999
254199923402556	-7.7933044	2.022583	-6.4816437
254199931794890	-7.494583	1.5248566	-6.51651
254199940187224	-7.4017334	1.0094757	-6.026993
254199948579558	-7.44162	0.8848572	-6.7199097
254199956971892	-7.3397217	1.0229034	-6.668091
254199965364226	-7.699341	1.1115417	-5.6071014
254199973756560	-7.0469055	0.6876526	-5.6049805
254199982148894	-5.0391846	-0.23562622	-6.9364624
254199990541228	-3.5837708	-0.9984894	-6.8323975
254199998933562	-5.3085938	-0.6216278	-4.7267303
254200007325896	-9.847412	1.2152863	-0.69898987
254200015718230	-15.844177	3.6292114	0.041732788
254200024110564	-20.519333	6.339386	-2.8562775
254200032502898	-21.278473	8.140137	-6.262253
254200040895232	-17.139175	6.9878845	-5.6651154
254200049287566	-11.942688	6.038727	-5.58934
254200057679900	-10.565063	6.1070557	-4.6898346
254200066072234	-11.19104	6.39386	-3.7661743
254200074464568	-12.134338	6.6401825	-2.7222443
254200082856902	-12.152191	6.6409607	-1.5500336
254200091249236	-10.9201355	6.1424866	-0.65974426
254200099641570	-10.2391815	5.6140594	0.20367432
254200108033904	-9.506912	4.841919	0.20585632
254200116426238	-8.630463	4.3419037	0.7975006
254200124818572	-7.9743347	3.9253235	1.5675049
254200133210906	-7.7278748	3.3422394	1.6247864
254200141603240	-7.579529	2.623169	0.39756775
254200149995574	-6.828781	2.4905548	-0.4149933
254200158387908	-5.8065643	3.6445313	-0.5704346
254200166780242	-7.4312897	6.1758423	1.4329376
254200175172576	-7.4818573	6.1125793	0.9232788
254200183564910	-4.2499695	2.1968384	-2.8784027
254200191957244	-4.36882	-0.06964111	-1.2397461
254200200349578	-6.232254	-0.117492676	-2.3374634
254200208741912	-5.9599915	0.035736084	-1.2903137
254200217134246	-5.780365	0.46333313	-0.39968872
254200225526579	-6.7162933	1.0631866	-0.31021118
254200233918913	-8.416794	1.7297668	-0.9128418
254200242311247	-9.106583	2.5355988	-1.9986877
254200250703581	-7.8064117	2.62706	-2.4608917
254200259095915	-7.071518	2.7406616	-3.0273743
254200267488249	-7.0125732	2.9824677	-3.2860413
254200275880583	-6.6110077	3.0372925	-2.5752106
254200284272917	-5.6727753	2.760788	-0.71206665
254200292665251	-6.465912	2.6810455	1.3513794
254200301057585	-12.739105	4.3231506	1.0303192
254200309449919	-14.388184	5.2604218	0.35237122
254200317842253	-11.860168	6.4299164	-0.5337372
254200326234587	-7.820175	6.9756927	-0.6561432
254200334626921	-5.9951324	6.481125	0.556427
254200343019255	-8.613342	7.210724	2.0583649
254200351411589	-12.178635	7.547699	2.5907745
254200359803923	-14.068359	6.9999237	1.560318
254200368196257	-12.540894	7.234024	1.1668243
254200376588591	-10.566895	7.7626953	1.3703461
254200384980925	-11.118347	7.3241577	1.2119751
254200393373259	-10.719543	5.764847	0.6566467
254200401765593	-10.332611	6.2988434	-0.7271271
254200410157927	-9.271423	7.0753784	-0.4242401
254200418550261	-8.553223	7.7178497	-0.048599243
254200426942595	-7.9973755	7.8638916	0.010513306
254200435334929	-7.245285	7.30777	-0.013244629
254200443727263	-7.0099945	6.1602173	0.0027008057
254200452133589	-6.916443	5.516617	0.4927063
254200460525923	-6.6423798	5.041092	0.65571594
254200468918257	-6.6250153	4.739517	0.3592987
254200477310591	-7.7044983	4.467575	-0.35742188
254200485702925	-9.400848	4.150696	-1.3222351
254200494095259	-7.3005066	4.1059723	-2.2397156
254200502487593	-5.777939	3.674408	-0.99121094
254200510879927	-4.8688507	3.84021	-2.881897
254200519272261	-5.524292	4.757126	-4.9553375
254200527664595	-6.6718445	5.427475	-5.4958496
254200536056929	-6.84935	5.027176	-4.150528
254200544449263	-7.826416	5.419998	-1.1006927
254200552841597	-10.057266	7.6076813	2.3825378
254200561233931	-10.471588	8.666229	2.021698
254200569626265	-9.430237	8.123535	0.41441345
254200578018599	-8.196304	6.9493256	-0.79711914
254200586410933	-8.190277	6.7657166	-0.91690063
254200594803267	-8.4548645	7.102661	-0.13796997
254200603195601	-8.496918	6.9442444	1.1107635
254200611587935	-8.14209	6.541794	1.8905792
254200619980269	-7.6948395	6.029953	1.8015137
254200628372603	-7.438141	5.421219	1.0266113
254200636764937	-7.5977783	4.7205505	0.12446594
254200645157271	-8.266998	4.3395996	-0.034423828
254200653549605	-9.846298	4.782913	0.2649994
254200661941939	-11.414413	4.998291	0.29685974
254200670334273	-13.239059	5.1067657	0.4734497
254200678726607	-15.489532	5.4589386	0.87228394
254200687118941	-17.95877	6.3255615	1.2075806
254200695511275	-19.572037	6.925949	1.2234955
254200703903609	-19.4001	6.9359894	0.8408966
254200712295943	-17.966537	6.613144	0.043792725
254200720688277	-15.252655	5.9509277	-0.38209534
254200729080611	-10.907059	4.979187	-0.30603027
254200737472945	-4.272217	3.7262573	-0.050994873
254200745865279	5.799179	2.0326385	1.6203003
254200754257613	16.121353	1.2969055	3.3711243
254200762649946	19.198212	2.8935394	0.4089508
254200771042280	16.790298	5.828003	-2.9164886
254200779434614	11.793335	8.737915	-3.9684143
254200787826948	7.534012	10.195984	-2.7565002
254200796219282	5.2065887	10.342987	-0.651001
254200804611616	4.304184	10.02681	0.43666077
254200813003950	3.6415863	8.684601	-0.7136841
254200821396284	3.2808533	6.9812927	-2.8578186
254200829788618	3.5306091	5.9702606	-3.5248566
254200838180952	4.333603	6.5183105	-0.34828186
254200846573286	3.6684265	8.3728485	6.2799835
254200854965620	2.7146912	9.154633	4.1847687
254200863357954	1.9223938	9.130524	-0.7498627
254200871750288	1.6571503	8.775192	-4.495224
254200880142622	2.0379486	8.325455	-4.9700623
254200888534956	2.8268433	7.7927246	-2.6785583
254200896927290	3.4200745	7.5345	-1.5628967
254200905319624	3.7597961	7.298889	-1.1978607
254200913711958	3.5323944	7.131302	-1.9079742
254200922104292	1.4233246	7.2724915	-0.30749512
254200930496626	-1.8522644	7.9788055	2.2184448
254200938888960	-3.2259216	9.302795	-0.15655518
254200947281294	-0.07698059	10.696716	-3.3327484
254200955673628	1.8094635	10.876816	-4.983673
254200964065962	2.7331085	10.202774	-5.1732635
254200972458296	2.8365784	9.783539	-4.304001
254200980850630	2.8901978	10.088135	-3.1318054
254200989242964	4.4019012	10.694962	-2.7762604
254200997635298	7.407669	11.02803	-2.775238
254201006027632	8.749084	14.414795	-3.3560333
254201014419966	9.104858	15.93129	-2.1089783
254201022812300	9.714294	15.166718	-1.3139038
254201031204634	10.694748	13.179062	-1.8305817
254201039596968	10.917023	11.457672	-2.23349
254201047989302	10.571747	9.460236	-2.549286
254201056381636	8.870651	7.9532623	-2.0550232
254201064773970	6.9340973	7.153885	-1.6750183
254201073166304	4.7884674	6.8155975	-1.3226318
254201081558638	2.5617523	6.6252747	-1.0330505
254201089950972	0.5961304	6.156845	-1.252594
254201098343306	-2.5717773	4.1270905	-2.4602966
254201106735640	-2.9098358	4.2417603	-3.5751953
254201115127974	-2.068985	5.9015503	-3.2442322
254201123520308	-0.7444763	7.3922577	-2.346817
254201131912642	0.9092102	7.627548	-2.0329285
254201140304976	3.1674347	7.0353546	-2.7645721
254201148697310	3.712204	5.255554	-3.425537
254201157089644	2.2904663	4.4142	-3.7329865
254201165481978	0.687027	5.780182	-3.4688416
254201173874312	0.77552795	7.5789337	-3.5848236
254201182266646	2.7202759	8.187027	-4.1844635
254201190658980	4.798874	7.481964	-3.9946747
254201199051314	5.019577	7.413498	-3.496048
254201207443648	5.637268	7.4392242	-3.4223022
254201215835982	6.517334	7.5193176	-3.231842
254201224228316	7.628128	7.707596	-2.872757
254201232620650	8.734543	7.992569	-2.4807281
254201241012984	9.277008	8.240707	-2.2710114
254201249405318	8.761124	8.528961	-2.2640533
254201257797652	7.764679	8.772598	-2.564682
254201266189986	6.8990936	8.8719635	-3.0157776
254201274582320	6.2272186	8.615829	-3.6052856
254201282974654	5.6276703	8.025864	-4.189209
254201291366988	4.968506	7.5510254	-4.4555054
254201299759321	4.4549713	7.3967743	-4.9612274
254201308151655	3.9210663	7.076477	-4.9799347
254201316543989	3.3179474	7.048416	-4.984329
254201324936323	2.6036987	7.4074554	-5.2022247
254201333328657	2.1594696	7.895279	-5.691208
254201341720991	3.0510864	7.8094177	-6.325836
254201350113325	3.7439117	7.1782227	-6.18071
254201358505659	3.8902588	6.654297	-5.564209
254201366897993	3.9394073	6.0924377	-5.0510864
254201375290327	4.1289673	5.487335	-4.822754
254201383682661	4.439209	4.9483337	-4.7456055
254201392074995	4.6098785	4.681595	-4.509491
254201400467329	4.4336395	4.9097595	-4.4697723
254201408859663	3.949524	5.288986	-4.8251495
254201417251997	3.47406	5.6166687	-5.2606354
254201425644331	3.187149	6.0448914	-5.709717
254201434036665	3.1789093	6.6645203	-6.1193085
254201442428999	3.3967285	7.187332	-6.297592
254201450821333	3.338913	7.386734	-6.0852356
254201459213667	3.0884857	7.660843	-5.7554626
254201467606001	3.0202332	7.876526	-5.3885193
254201475998335	3.154419	8.083725	-4.9271393
254201484390669	3.3050385	8.353577	-4.3123627
254201492783003	3.2203217	8.638306	-3.6135254
254201501175337	2.936203	8.978058	-3.179062
254201509567671	2.499649	9.293732	-2.8998566
254201517960005	2.7309875	9.6635895	-2.5705566
254201526352339	3.725708	10.171417	-2.2151642
254201534744673	5.1504974	10.728516	-1.9232178
254201543137007	6.212311	10.852142	-1.7218323
254201551529341	6.291275	9.742279	-1.4957733
254201559921675	6.1887207	8.831406	-1.2953796
254201568314009	5.5451813	9.997177	-1.2710724
254201576706343	4.9283295	12.047836	-1.804245
254201585098677	5.0558167	12.817993	-3.0153809
254201593491011	6.0881195	10.628235	-4.083542
254201601883345	5.4928894	8.617233	-2.2141266
254201610275679	4.1647797	8.384155	-0.22006226
254201618668013	3.0572662	8.75441	1.5330353
254201627060347	2.3278809	9.090103	2.955246
254201635452681	1.7907257	8.8654175	3.5422516
254201643845015	1.1648712	7.543579	2.0075684
254201652237349	0.39117432	6.6891327	0.7493439
254201660629683	-0.052001953	6.936081	0.27867126
254201669022017	-0.35961914	8.057816	0.52449036
254201677414351	-0.2922516	9.369263	1.2636566
254201685806685	0.25741577	10.070465	2.438675
254201694199019	0.56944275	9.826401	4.6880035
254201702591353	-0.938385	9.527573	4.4602203
254201710983687	-1.2455444	9.691528	2.937317
254201719376021	-0.200531	9.553345	1.1320038
254201727768355	1.6127014	9.116669	-0.5318146
254201736160689	3.343933	8.768753	-1.9692688
254201744553023	4.418457	8.730988	-3.0447845
254201752945357	4.1500397	9.006012	-3.961792
254201761337691	2.6707916	9.4704895	-4.13237
254201769730025	1.4867249	9.608307	-3.5321808
254201778122359	0.94158936	9.379272	-2.4594727
254201786514693	0.81166077	9.003067	-1.421402
254201794907027	1.0496826	8.620743	-0.75427246
254201803299361	1.2723389	8.46965	-0.38746643
254201811691695	1.256897	8.449554	-0.23934937
254201820084029	1.3641968	8.467514	-0.19013977
254201828476363	1.5883484	8.587799	-0.050125122
254201836868696	1.7473602	8.822464	0.31832886
254201845261030	1.7821503	8.847321	0.758667
254201853653364	1.8559875	8.604935	1.1695557
254201862045698	1.7125549	8.391495	1.4204407
254201870438032	1.4500275	8.285507	1.5555267
254201878830366	1.1308289	8.27182	1.6396484
254201887222700	0.7991638	8.313202	1.699234
254201895615034	0.5437012	8.481186	1.6336365
254201904007368	0.37782288	8.5920105	1.3151703
254201912399702	0.19247437	8.738754	0.92396545
254201920792036	0.21887207	8.756943	0.2449646
254201929184370	0.42063904	8.7087555	-0.7872772
254201937576704	0.6743164	8.724503	-2.1093597
254201945969038	1.1449127	8.681625	-3.5939026
254201954361372	1.5666199	8.448166	-3.9710999
254201962753706	1.8760834	8.280151	-2.8907166
254201971146040	2.078476	8.125488	-1.4541626
254201979538374	2.1583405	7.988373	-0.22203064
254201987930708	2.0906982	7.9020996	0.62397766
254201996323042	1.8136444	7.870514	1.1221008
254202004715376	1.6461029	7.42749	1.0342407
254202013107710	1.2108002	7.352829	0.6745758
254202021500044	0.59272766	7.7362213	0.14259338
254202029892378	0.022567749	8.418381	-0.55952454
254202038284712	-0.20329285	9.053848	-1.4513855
254202046677046	0.13696289	9.242889	-2.4752197
254202055069380	0.44711304	9.340607	-2.7344055
254202063461714	0.8487396	9.555954	-2.60643
254202071854048	1.6320038	9.799561	-2.2360687
254202080246382	3.1683655	10.069489	-1.6814728
254202088638716	5.460785	10.390106	-0.90397644
254202097031050	6.7818146	10.634369	0.122924805
254202105423384	5.458893	10.765717	0.84710693
254202113815718	3.794159	10.814331	1.0150146
254202122208052	2.4378052	11.094376	0.89045715
254202130600386	1.4940796	11.609665	0.7320404
254202138992720	0.85025024	12.107391	0.7666168
254202147385054	0.7761383	12.237381	1.0570374
254202155777388	1.5635223	12.339996	1.4870148
254202164169722	2.6831512	12.630341	1.9559784
254202172562056	3.8400726	12.841446	2.2652893
254202180954390	4.7748566	12.8520355	2.2843323
254202189346724	5.208969	12.801102	2.0214539
254202197739058	4.81514	13.273697	1.7592316
254202206131392	4.7603607	13.527023	1.5286102
254202214523726	4.49617	13.134964	1.2308502
254202222916060	4.053787	12.741608	0.7219238
254202231308394	3.5628052	12.62204	-0.3287964
254202239700728	3.2050476	12.645065	-1.9599915
254202248093062	3.2404785	12.55394	-2.632187
254202256485396	3.4233246	12.3472595	-1.9803772
254202264877730	3.7399597	11.867233	-1.073288
254202273270064	3.9430542	11.453461	-0.30877686
254202281662398	4.2676086	11.316391	0.15626526
254202290054732	5.1020203	11.3367	0.332489
254202298447066	5.9714355	10.630814	0.11413574
254202306839400	5.5538483	9.150665	0.0049438477
254202315231734	4.781784	7.4675903	-0.14680481
254202323624068	4.0737457	5.639847	-0.40872192
254202332016402	3.3401031	4.0690155	-0.8110962
254202340408736	2.3640594	3.3365173	-1.2042847
254202348801070	1.8912964	3.5723877	-0.7659302
254202357193404	1.7943573	5.0	-0.7086029
254202365585738	1.6078491	6.5016174	-0.6956787
254202373978071	1.6375275	7.6093445	-1.1540527
254202382370405	1.8369446	8.20929	-1.9546967
254202390762739	1.8570709	8.568268	-2.5447235
254202399155073	1.5240631	9.371872	-2.794983
254202407547407	1.1504059	9.332397	-1.6115875
254202415939741	0.48112488	10.622864	-1.009201
254202424332075	0.69140625	11.8927	-1.0553131
254202432724409	2.4548035	11.948837	-1.2038422
254202441116743	5.2468414	10.4292145	-0.9042969
254202449509077	5.6436462	8.396317	-1.4057922
254202457901411	5.000305	7.455826	-2.156784
254202466293745	3.8286896	7.1181946	-3.0651855
254202474686079	2.686493	6.9670105	-3.878601
254202483078413	2.0363617	6.812744	-4.279785
254202491470747	2.048355	6.6952667	-4.0790405
254202499863081	2.0832367	6.738144	-3.799881
254202508255415	2.598236	6.664734	-3.1253052
254202516647749	2.5624542	6.412262	-2.8179626
254202525040083	1.9367828	6.2094727	-2.9523926
254202533432417	1.1732788	6.196274	-3.2328339
254202541824751	0.9676056	6.313492	-3.184143
254202550217085	1.3717804	5.995636	-2.8855896
254202558609419	1.7623749	5.5911713	-2.5418549
254202567001753	1.7083435	4.973984	-1.9768677
254202575394087	1.4168549	4.614868	-1.6169281
254202583786421	1.2508545	4.6109467	-1.6902618
254202592178755	1.507431	4.6691437	-2.1529694
254202600571089	1.6201477	4.6325836	-2.9094849
254202608963423	1.5404358	4.4687195	-3.3883667
254202617355757	1.492981	4.4405518	-3.9624329
254202625748091	1.3608398	4.4997864	-4.3621216
254202634140425	1.1191406	4.66243	-4.4394226
254202642532759	0.857666	4.950882	-4.2176514
254202650925093	0.74635315	4.7938385	-3.8399353
254202659317427	1.1420135	5.1483917	-3.2845306
254202667709761	1.2262421	6.2622833	-3.019394
254202676102095	1.3625336	7.5067596	-2.7771149
254202684494429	1.8648987	8.508728	-2.4610138
254202692886763	2.7984924	9.274948	-2.2843628
254202701279097	3.8958588	10.14859	-2.9049377
254202709671431	3.5076294	11.811752	-3.3526764
254202718063765	3.0623932	13.2660675	-4.067459
254202726456099	2.4073944	14.157135	-4.8867645
254202734848433	1.2993927	14.466278	-5.514221
254202743240767	-0.17071533	14.307068	-5.694031
254202751633101	-0.21336365	12.489395	-5.867691
254202760025435	-0.8306885	10.472748	-5.8059387
254202768417769	-1.3995056	8.89769	-6.1883698
254202776810103	-1.4920197	7.6677856	-6.952118
254202785202437	-1.0291901	6.623642	-7.7648773
254202793594771	-0.24899292	5.693207	-8.226181
254202801987105	0.9777069	4.950897	-8.320618
254202810379439	1.6826782	5.1872864	-7.616562
254202818771773	2.098709	6.035965	-6.1857147
254202827164107	2.614212	7.207855	-4.258545
254202835556441	3.3229523	8.352432	-2.337738
254202843948775	3.9210968	9.137955	-1.0637512
254202852341109	3.9031982	9.32782	-0.8659363
254202860733443	3.7066956	9.306702	-1.3325653
254202869125777	3.0840302	9.5327	-1.5920715
254202877518111	2.2544708	10.275085	-1.4844208
254202885910445	1.3999023	11.432999	-1.0249329
254202894302779	0.6114044	12.546921	-0.35372925
254202902695113	-0.0131073	13.622299	0.08798218
254202911087446	0.3782959	13.745651	0.5738983
254202919479780	1.6646729	13.353928	1.776947
254202927872114	2.9887238	12.459381	2.4926758
254202936264448	3.8139954	11.105286	1.8527222
254202944656782	4.1623535	9.52655	-0.09675598
254202953049116	4.4484863	8.300247	-2.1336365
254202961441450	4.0094604	7.6499786	-2.2241516
254202969833784	2.7548828	7.624008	-1.1859741
254202978226118	1.5810394	7.9441223	0.09410095
254202986618452	1.3096619	8.0979	0.901062
254202995010786	2.1066437	7.6202545	1.013977
254203003403120	2.1555023	7.436798	1.0618286
254203011795454	1.611084	7.6115723	1.2355042
254203020187788	1.3318329	7.575592	1.9206696
254203028580122	1.0294037	7.3667297	3.7921753
254203036972456	0.5380554	7.320404	6.434601
254203045364790	0.19422913	7.9055634	8.1983795
254203053757124	0.9457092	9.201752	8.577087
254203062149458	2.6714478	10.287506	7.0416565
254203070541792	3.8368378	11.081482	5.0984497
254203078934126	4.813507	11.100845	3.0485382
254203087326460	5.806656	10.284561	1.1272888
254203095718794	6.380371	9.302963	-0.21562195
254203104111128	6.2740173	9.217468	-0.97901917
254203112503462	5.402664	8.412003	-1.6862946
254203120895796	3.9805145	7.9634705	-2.1452942
254203129288130	2.497055	7.79422	-2.4571228
254203137680464	1.22258	7.7473297	-2.7395782
254203146072798	0.05293274	7.8348694	-3.0909576
254203154465132	-0.921875	8.35437	-3.967987
254203162857466	-1.1445465	8.649536	-4.8971405
254203171249800	-0.9316406	8.706451	-4.7339478
254203179642134	-0.67744446	8.602676	-3.7385406
254203188034468	-0.64533997	8.589142	-2.530838
254203196426802	-0.76631165	9.039322	-1.6428833
254203204819136	-0.39143372	9.480011	-1.4055939
254203213211470	0.43824768	9.571487	-1.0784912
254203221603804	0.9062195	9.645645	-0.70487976
254203229996138	1.0486908	9.829346	-0.3970642
254203238388472	1.2077484	10.096603	-0.2687378
254203246780806	1.8454742	10.256912	-0.38554382
254203255173140	2.2794037	9.875946	-0.43240356
254203263565474	2.3258514	9.380325	-0.68559265
254203271957808	2.0531616	8.975189	-1.0606842
254203280350142	1.6482697	8.773956	-1.4628143
254203288742476	1.3419952	8.7765045	-1.8166046
254203297134810	1.350708	8.866165	-2.08107
254203305527144	1.3272095	8.592331	-2.2414856
254203313919478	1.1842041	8.306976	-2.2310486
254203322311812	1.1178284	8.250763	-2.13385
254203330704146	1.1995697	8.320801	-1.8605804
254203339096480	1.4156647	8.375122	-1.4279022
254203347488814	1.6660004	8.404861	-1.0627136
254203355881148	1.6600494	8.507248	-0.427536
254203364273482	1.6166992	8.684616	0.14697266
254203372665816	1.6168976	9.042709	0.5327301
254203381058150	1.5744476	9.509537	0.57595825
254203389450484	1.4450073	9.944656	0.16252136
254203397842818	1.345581	10.211517	-0.71810913
254203406235152	1.2219391	10.300247	-1.7749634
254203414627486	1.2354431	10.4328	-2.3558807
254203423019820	1.3925781	10.515472	-2.3786926
254203431412154	1.576828	10.53154	-2.0648193
254203439804488	1.7007904	10.549759	-1.6005402
254203448196821	1.7751312	10.742004	-1.0624542
254203456589155	1.8708954	11.003799	-0.8037262
254203464981489	1.8860168	11.326172	-0.9470062
254203473373823	1.6816254	11.767807	-1.3522644
254203481766157	1.4512024	12.380783	-1.9110107
254203490158491	1.461731	12.995331	-2.5163574
254203498550825	1.9033813	13.067444	-3.0353546
254203506943159	2.2996216	12.751678	-2.952835
254203515335493	2.7213745	12.386749	-2.4066315
254203523727827	3.059845	12.068344	-1.7146759
254203532120161	3.1564636	12.09343	-1.2442322
254203540512495	2.9752045	12.527252	-1.1908569
254203548904829	2.6549072	13.022095	-1.4624329
254203557297163	3.0743713	12.780548	-1.6473083
254203565689497	3.276413	12.255783	-1.3405151
254203574081831	2.9455414	11.1966095	-0.5817261
254203582474165	2.1449432	9.949448	0.3705902
254203590866499	1.2416382	8.942993	1.1389465
254203599258833	0.8378296	8.2821045	1.3143463
254203607651167	0.7940216	8.447128	0.66752625
254203616043501	0.5258179	9.491684	0.09529114
254203624435835	-0.026168823	10.539581	0.27223206
254203632828169	-0.17601013	11.121735	1.0070801
254203641220503	0.76142883	10.906311	1.7419434
254203649612837	2.8415833	9.689987	1.7370605
254203658005171	4.296173	9.110382	-0.43055725
254203666397505	4.81839	8.93692	-4.9274597
254203674789839	4.5921783	9.128326	-7.3144836
254203683182173	3.9411316	9.343933	-6.731827
254203691574507	3.0990448	9.189072	-4.036911
254203699966841	2.0791168	8.400436	-1.6889648
254203708359175	1.1734009	7.224762	-0.32435608
254203716751509	0.60279846	6.936783	0.42593384
254203725143843	0.39619446	6.8990936	0.36701965
254203733536177	0.30891418	6.7309265	-0.6381073
254203741928511	0.10739136	6.322403	-2.255249
254203750320845	-0.100982666	5.901642	-3.6819916
254203758713179	0.08943176	5.6276855	-4.390686
254203767105513	0.39045715	5.6503143	-4.406204
254203775497847	0.65444946	5.919281	-3.9974518
254203783890181	0.8971863	6.1293335	-3.388092
254203792282515	1.1441345	6.062317	-2.7763672
254203800674849	1.2707672	5.9017944	-2.5121765
254203809067183	1.2745667	6.0458527	-2.438568
254203817459517	1.1258392	7.039627	-1.9368439
254203825851851	1.4473114	7.5010376	-1.0496979
254203834244185	2.0803986	7.5157623	-0.70983887
254203842636519	2.5692291	7.6270905	-1.5557709
254203851028853	2.5500336	7.82901	-2.4847565
254203859421187	3.116333	7.4272156	-2.2494507
254203867813521	3.6284637	6.9105225	-1.4908447
254203876205855	4.29776	6.3486786	-1.0973053
254203884598189	4.7540283	5.955124	-1.3209381
254203892990523	4.6087646	5.8591766	-2.007187
254203901382857	4.241867	5.765457	-2.8785553
254203909775191	4.0430603	5.9437866	-3.1844635
254203918167525	4.3595276	5.883972	-3.8829498
254203926559859	3.9945068	5.4115906	-3.8282928
254203934952193	3.256195	4.8920746	-3.5784302
254203943344527	2.9344635	4.814972	-4.0895386
254203951736861	2.5706482	5.161865	-4.5070343
254203960129195	2.5153503	5.7065277	-4.643158
254203968521529	2.311081	6.5874786	-4.467087
254203976913863	2.5558472	7.7229156	-4.3829346
254203985306196	2.676712	9.147095	-4.566223
254203993698530	2.3218994	10.837448	-4.9424286
254204002090864	3.4914246	12.317017	-5.092972
254204010483198	2.5497131	12.879898	-4.7401733
254204018875532	2.0158844	12.616257	-4.9461975
254204027267866	2.2445679	11.969635	-5.109604
254204035660200	2.8629913	11.273224	-5.1528625
254204044052534	3.3567047	10.521545	-5.225113
254204052444868	3.60495	9.031982	-5.1941986
254204060837202	4.734207	7.782654	-5.1046753
254204069229536	4.778305	6.7578278	-4.2615204
254204077621870	4.9642944	5.6350555	-2.8409119
254204086014204	5.4231873	4.7010193	-1.4024658
254204094406538	5.734253	4.4289856	-0.6981659
254204102798872	6.161972	4.9444275	-1.7300568
254204111191206	6.6056213	6.5805664	-2.1587677
254204119583540	6.9747925	8.403748	-2.8543243
254204127975874	7.157242	10.150101	-4.9740753
254204136368208	6.840576	11.33728	-7.572342
254204144760542	5.624954	11.519928	-8.495773
254204153152876	3.1244202	10.758209	-5.9613495
254204161545210	2.216858	9.40947	-2.7535248
254204169937544	1.6695404	8.107178	-0.58454895
254204178329878	1.8951263	6.9802704	0.02748108
254204186722212	2.54245	6.193573	-0.23571777
254204195114546	2.8663025	5.881027	-0.32217407
254204203506880	2.232193	5.870056	0.40066528
254204211899214	1.5743561	5.996826	1.1529388
254204220291548	0.42453003	6.568695	1.3138123
254204228683882	-0.65431213	7.2739563	1.2427826
254204237076216	-1.0838623	7.8935547	1.2837219
254204245468550	-0.5878601	8.420059	1.6352692
254204253860884	0.20974731	9.257568	2.2304993
254204262253218	1.2317047	10.437225	2.4307404
254204270645552	2.756363	12.054291	2.4313202
254204279037886	4.5312805	13.851303	2.1564941
254204287430220	5.4667664	14.899231	1.7760468
254204295822554	4.560501	14.233459	1.6385345
254204304214888	2.8120422	12.089386	2.1047363
254204312607222	1.8862305	10.189941	1.0452118
254204320999556	1.421814	9.571457	-0.5606384
254204329391890	1.6265411	9.601349	-2.5311737
254204337784224	2.122879	9.603455	-4.2459564
254204346176558	2.2361603	9.164032	-4.917923
254204354568892	1.8343658	8.503021	-4.3107605
254204362961226	1.4982452	7.66597	-2.9833527
254204371353560	1.1685181	7.0970764	-1.670105
254204379745894	0.7769623	6.9254456	-0.43066406
254204388138228	0.28912354	7.1122894	0.6625366
254204396530562	-0.24447632	7.5190735	1.5063934
254204404922896	-0.4697876	7.8371277	2.0746918
254204413315230	-0.34558105	7.9434814	2.649994
254204421707564	0.036254883	7.724518	2.4661713
254204430099898	0.30374146	7.662903	1.9751129
254204438492232	0.41532898	7.8959503	1.3609619
254204446884566	0.4788971	8.302475	0.57901
254204455276900	0.09902954	8.899689	-0.4598999
254204463669234	0.17680359	9.474716	-1.8722534
254204472061568	0.9009857	9.763031	-3.0492706
254204480453902	1.6665497	10.106674	-3.6636047
254204488846236	1.9741364	10.554245	-3.6944885
254204497238570	1.6935883	10.8680725	-3.3357391
254204505630904	1.5375366	10.848206	-2.7025452
254204514023238	1.5397186	10.541168	-2.030014
254204522415571	1.3573303	10.439377	-1.7266998
254204530807905	1.1793671	10.531128	-1.6681061
254204539200239	1.1910553	10.686264	-1.7142181
254204547592573	1.4445953	10.783981	-1.7828064
254204555984907	1.5552673	10.800934	-1.6551971
254204564377241	1.3735809	10.494461	-0.9885559
254204572769575	1.2423401	10.091339	-0.47052002
254204581161909	1.2626343	9.798553	-0.42056274
254204589554243	1.3891754	9.781372	-0.90449524
254204597946577	1.4570923	10.171494	-1.7558136
254204606338911	1.183258	11.261734	-2.626358
254204614731245	1.6587067	12.530731	-2.7366028
254204623123579	2.7714386	13.610474	-2.0413513
254204631515913	3.55336	14.32254	-0.8573456
254204639908247	3.4390564	14.323761	0.5675659
254204648300581	2.6479492	13.421417	2.028244
254204656692915	1.9191284	12.029587	2.7281494
254204665085249	2.865265	11.506958	2.2832947
254204673477583	3.8869934	12.007156	0.113342285
254204681869917	4.9002533	13.208267	-2.1508942
254204690262251	6.1144104	14.575546	-3.613968
254204698654585	7.5045166	15.479095	-4.093155
254204707046919	7.129776	14.601379	-2.1588135
254204715439253	5.265259	12.683884	-0.99710083
254204723831587	4.4032593	12.2140045	-2.6116028
254204732223921	3.3737183	12.462067	-3.968933
254204740616255	1.646698	12.49263	-3.608612
254204749008589	-0.19328308	11.868561	-2.2234497
254204757400923	-0.38414	11.341736	-2.269165
254204765793257	-0.25535583	10.591995	-2.026825
254204774185591	-0.2849884	9.578186	-1.7194977
254204782577925	-0.177948	8.491028	-1.4744263
254204790970259	0.07397461	7.510086	-1.2527313
254204799362593	0.17503357	6.71315	-0.9494171
254204807754927	0.5359497	5.922531	-1.0471191
254204816147261	0.7974701	5.1184845	-1.3302002
254204824539595	1.3303375	4.3783264	-2.0582123
254204832931929	1.6747284	3.887024	-3.2313385
254204841324263	1.672699	3.8199463	-4.139389
254204849716597	1.508194	4.159134	-3.9005737
254204858108931	0.46929932	4.2777557	-3.4409485
254204866501265	0.8422394	5.194626	9.516434
254204874893599	-0.86338806	6.263031	-2.1671906
254204883285933	-1.2923431	6.9975433	-5.645172
254204891678267	1.6954346	7.599777	1.6071777
254204900070601	7.551056	8.13118	-9.232483
254204908462935	9.768387	2.6247406	-9.112839
254204916855269	7.9044037	2.665512	-3.4461517
254204925247603	5.285736	3.7743378	-1.4111481
254204933639937	3.9239044	4.262726	-1.7463531
254204942032271	4.011612	3.9366455	-2.536621
254204950424605	4.467926	3.4260864	-2.927475
254204958816939	4.4072876	3.2640686	-2.717743
254204967209273	3.8182678	3.0396118	-1.7358704
254204975601607	4.2526703	3.125763	-1.314682
254204983993941	4.9156647	3.319992	-1.2549744
254204992386275	5.379593	3.4906006	-1.2090759
254205000778609	5.96756	3.658249	-0.9242859
254205009170943	6.7930756	3.758957	-0.3111267
254205017563277	7.0637207	4.2214203	-0.11601257
254205025955611	7.248993	5.1292877	-0.22257996
254205034347945	7.3675995	6.3775177	-0.9565735
254205042740279	7.447754	7.961273	-2.3255005
254205051132613	7.5604706	10.011673	-3.84758
254205059524946	7.180603	13.019623	-5.124756
254205067917280	5.601837	16.69374	-6.8129883
254205076309614	4.5434875	17.649094	-7.983322
254205084701948	4.6598053	15.812424	-8.344345
254205093094282	5.724243	12.354858	-7.620041
254205101486616	6.81929	8.9236145	-5.6115875
254205109878950	6.3352814	6.803543	-4.2455444
254205118271284	4.861435	5.0749054	-4.0568085
254205126663618	3.752655	4.2710266	-4.6388397
254205135055952	3.5500946	4.268936	-5.046112
254205143448286	4.092743	5.0057373	-4.5614777
254205151840620	4.7091064	6.5151215	-3.0006104
254205160232954	4.788849	7.6756287	-1.67659
254205168625288	5.350998	9.1848755	-1.8407745
254205177017622	6.3343964	10.432953	-2.3276978
254205185409956	7.324173	11.921341	-2.8589325
254205193802290	7.8552704	14.070511	-3.380188
254205202194624	7.647766	16.542099	-3.8374634
254205210586958	7.461899	15.562012	-3.5223694
254205218979292	6.946884	12.054016	-3.9463196
254205227371626	4.83873	8.114258	-4.22287
254205235763960	2.8400726	5.6511536	-3.6267853
254205244156294	2.6572266	5.252228	-1.8926544
254205252548628	4.6714783	6.059738	0.61499023
254205260940962	3.936905	7.4056396	2.2988434
254205269333296	1.9227142	8.79216	3.1654358
254205277725630	1.1042786	9.264694	3.8604736
254205286117964	0.78367615	9.496567	3.811737
254205294510298	0.44421387	10.173935	2.6587982
254205302902632	0.44213867	11.467316	0.74754333
254205311294966	0.4871521	12.498352	0.17352295
254205319687300	-0.087387085	12.629105	0.6924591
254205328079634	-0.1952362	11.582855	0.4336853
254205336471968	0.52815247	9.791748	-0.61756897
254205344864302	1.4095459	8.126236	-1.7805634
254205353256636	1.1205292	7.538376	-2.1710205
254205361648970	1.2910004	7.473572	-1.905838
254205370041304	0.96520996	7.4716644	-0.966095
254205378433638	0.8424988	7.4982147	-0.0519104
254205386825972	1.0867462	7.670883	0.28955078
254205395218306	1.4951324	7.936554	-0.045135498
254205403610640	1.6117706	8.02182	-0.6559906
254205412002974	1.2578278	7.757599	-1.0468292
254205420395308	0.83950806	7.7109222	-1.3419342
254205428787642	0.52716064	7.624878	-1.473526
254205437179976	0.34020996	7.4849243	-1.4772034
254205445572310	0.43800354	7.331131	-1.422409
254205453964644	1.006134	7.215393	-1.3655548
254205462356978	0.4567871	7.335037	-1.1721344
254205470749312	0.7160034	7.745285	-0.89649963
254205479141646	0.77027893	7.9931335	-0.49238586
254205487533980	0.8170471	8.146118	-0.11418152
254205495926314	0.8086395	8.42038	0.13316345
254205504318648	0.20870972	8.996536	0.27046204
254205512710982	-0.15919495	9.423248	0.35021973
254205521103316	0.39735413	9.536987	0.72953796
254205529495650	0.6686096	9.44516	1.1196594
254205537887984	0.32687378	9.347	1.534317
254205546280318	-0.43559265	9.345444	1.9150238
254205554672652	-1.0795135	9.381409	2.022644
254205563064986	-1.5241699	9.465149	1.4254456
254205571457320	-2.0392914	9.420013	0.68818665
254205579849654	-2.6178436	9.254578	0.019515991
254205588241988	-3.0835266	8.967316	-0.5464325
254205596634321	-3.2091217	8.627182	-1.0594635
254205605026655	-2.8354797	8.402191	-1.5913849
254205613418989	-2.4805298	8.6514435	-1.8735199
254205621811323	-2.2053375	8.960022	-1.9039459
254205630203657	-2.1518402	9.108231	-1.6234436
254205638595991	-2.2470703	9.193771	-1.1751404
254205646988325	-2.3440247	9.299652	-0.63417053
254205655380659	-2.317688	9.385254	0.081970215
254205663772993	-2.3974457	9.581665	0.8027954
254205672165327	-2.2350006	9.71228	1.0620728
254205680557661	-1.8237152	9.745117	0.80662537
254205688949995	-1.3135376	9.952576	0.35412598
254205697342329	-0.97273254	10.407791	-0.09857178
254205705734663	-0.90631104	10.805649	-0.7625885
254205714126997	1.4147491	11.173553	-1.4615021
254205722519331	0.3517151	11.451996	-1.3160858
254205730911665	-0.47686768	11.914886	-0.77897644
254205739303999	-0.76483154	12.51355	-0.3996582
254205747696333	-0.8803253	13.085419	-0.27215576
254205756088667	-0.91178894	13.460983	0.16423035
254205764481001	-1.4003296	13.629471	1.1941528
254205772873335	-2.2635803	13.585022	1.8933716
254205781265669	-2.3393402	13.417206	1.7495728
254205789658003	-2.007019	13.16539	0.87210083
254205798050337	-1.3627625	12.604218	-0.2836609
254205806442671	0.42562866	11.282867	-1.1966858
254205814835005	0.19929504	11.02066	-1.4419556
254205823227339	0.32522583	11.544907	-2.0056915
254205831619673	0.7534332	12.11087	-2.588089
254205840012007	1.5501862	12.3437805	-3.0748596
254205848404341	2.7174377	12.231888	-3.374054
254205856796675	4.0845795	12.100479	-3.3637543
254205865189009	4.6698303	11.580048	-3.0616455
254205873581343	3.6258545	11.170639	-2.267517
254205881973677	2.5885315	10.967255	-1.5047302
254205890366011	1.6368713	11.19873	-1.010498
254205898758345	1.0024567	11.619492	-0.8776245
254205907150679	1.725357	11.356049	-1.1135406
254205915543013	2.7851563	11.948257	-1.867279
254205923935347	2.0670166	12.099976	-2.7734528
254205932327681	1.1588745	11.35614	-3.0080261
254205940720015	0.21284485	10.185577	-2.6037292
254205949112349	-0.8808594	9.302353	-2.0427399
254205957504683	-1.9172821	9.200729	-1.9749756
254205965897017	-2.0229645	8.881668	-1.9819641
254205974289351	-1.4490662	8.448395	-1.7738037
254205982681685	-0.68444824	7.987686	-1.4658203
254205991074019	-0.010391235	7.5545197	-1.0491486
254205999466353	0.3601532	7.199753	-0.5317688
254206007858687	0.25334167	6.9718018	-0.012680054
254206016251021	-0.21923828	6.7634277	0.2774353
254206024643355	-0.3273468	6.3699036	0.47042847
254206033035689	-0.1427002	5.901352	0.48872375
254206041428023	0.27505493	5.4190216	0.3086548
254206049820357	0.8364868	4.9968567	-0.12522888
254206058212691	1.4094543	4.74234	-0.92671204
254206066605025	1.825943	4.6270294	-1.6960754
254206074997359	2.1054382	4.7800903	-2.5310059
254206083389693	1.8423767	4.7081146	-2.65065
254206091782027	1.6495819	4.492874	-2.349945
254206100174361	1.8982086	4.3187866	-2.0951996
254206108566695	1.9468689	4.186035	-1.963623
254206116959029	1.6447754	4.085327	-2.138092
254206125351363	1.9442749	4.006027	-2.2105103
254206133743696	2.1059875	3.9381104	-2.4004211
254206142136030	2.2324066	3.8357086	-2.6392517
254206150528364	2.4509277	3.6790314	-2.8089142
254206158920698	2.4090881	3.5199585	-2.9033966
254206167313032	2.1847534	3.582779	-3.1347046
254206175705366	2.0906982	3.978241	-3.4299164
254206184097700	2.0007172	4.7415466	-3.8605042
254206192490034	1.7475891	5.9475555	-4.4457397
254206200882368	1.246521	7.7568817	-5.140091
254206209274702	0.58651733	10.440216	-5.829178
254206217667036	-0.2340393	14.281738	-6.5330963
254206226059370	-1.2642212	18.881012	-6.7108307
254206234451704	-2.36232	21.903946	-6.5165405
254206242844038	-3.0683289	21.988525	-6.203064
254206251236372	-3.247055	19.075928	-5.967804
254206259628706	-3.5867157	14.827744	-5.817444
254206268021040	-3.6345825	11.664246	-5.4764557
254206276413374	-3.0213776	9.066742	-5.00473
254206284805708	-1.9304657	6.7121124	-4.807144
254206293198042	-0.6191406	4.498535	-5.0890045
254206301590376	0.5947571	2.6103363	-5.787613
254206309982710	1.3618927	1.5764008	-6.490814
254206318375044	1.9580994	2.0110931	-6.439972
254206326767378	2.2532806	3.231308	-5.2591248
254206335159712	2.412445	5.15979	-3.8375092
254206343552046	2.4253235	7.602417	-2.2865295
254206351944380	2.2868652	10.343643	-0.52072144
254206360336714	2.1521301	13.235397	1.23909
254206368729048	1.868988	15.0898285	2.2998962
254206377121382	1.7124329	16.094177	1.9441528
254206385513716	1.6704559	16.520676	0.5501709
254206393906050	1.1136017	15.679169	-1.3312683
254206402298384	-0.2715912	12.975922	-3.025711
254206410690718	-1.6035614	8.914413	-3.7980652
254206419083052	-0.041275024	6.3132324	-2.9516144
254206427475386	1.4556274	5.0982666	-2.2638702
254206435867720	1.681778	4.802353	-1.7719421
254206444260054	1.1844635	4.987793	-1.1412354
254206452652388	0.9266205	5.49234	0.1638794
254206461044722	0.9494934	6.6752167	2.7095337
254206469437056	-0.61001587	8.602676	4.380707
254206477829390	-2.0213013	9.395935	4.831543
254206486221724	-2.8063354	9.353806	4.7820435
254206494614058	-2.8726196	9.01799	3.9511871
254206503006392	-2.4458618	9.060013	1.6910706
254206511398726	-2.005188	10.206558	-2.3876648
254206519791060	-0.3629303	11.3828125	-5.720215
254206528183394	1.9646454	11.96019	-5.2013855
254206536575728	4.275879	12.282257	-2.8916016
254206544968062	6.044235	12.499893	-0.6708679
254206553360396	6.9795837	12.522263	0.33229065
254206561752730	7.062332	11.949966	0.283432
254206570145064	6.205307	10.246597	0.0077819824
254206578537398	4.4111633	8.614944	-0.27038574
254206586929732	2.3980713	7.433716	-0.49302673
254206595322066	1.0760803	6.6799164	-0.3535614
254206603714400	0.8944702	6.2217865	0.32218933
254206612106734	1.0230713	6.159973	1.0888824
254206620499068	0.76950073	6.502945	1.2631378
254206628891402	0.35240173	6.97052	1.0105591
254206637283736	-0.0036468506	7.6401978	0.70114136
254206645676070	-0.164505	8.369003	0.38536072
254206654068404	-0.17193604	8.986328	0.025161743
254206662460738	-0.36535645	9.559616	-0.18818665
254206670853071	-0.67237854	9.80719	-0.18719482
254206679245405	-0.93104553	9.874741	-0.18144226
254206687637739	-0.9983368	9.837341	-0.0987854
254206696030073	-1.065155	9.645767	-0.029144287
254206704422407	-1.3256989	9.26564	-0.114852905
254206712814741	-1.5021667	8.878799	-0.39898682
254206721207075	-1.1947632	8.582306	-0.5820923
254206729599409	-0.65541077	8.376999	-0.7934418
254206737991743	-0.1539917	8.194153	-0.89164734
254206746384077	0.37799072	8.021332	-0.94721985
254206754776411	1.077591	7.9007416	-1.069046
254206763168745	1.6054077	7.912674	-1.069046
254206771561079	1.8220978	8.104675	-0.686676
254206779953413	1.4937744	8.173737	-0.071517944
254206788345747	1.2100067	8.425476	0.68515015
254206796738081	1.0623779	8.914597	1.3433838
254206805130415	0.86187744	9.534653	1.6807556
254206813522749	0.5447998	10.202621	1.7394104
254206821915083	0.17085266	10.767426	1.5831757
254206830307417	-0.1430664	11.170395	1.3752899
254206838699751	-0.3327942	11.27211	1.0579071
254206847092085	-0.39349365	11.152863	0.5242462
254206855484419	-0.3095398	10.994186	-0.31608582
254206863876753	0.14576721	10.893356	-1.5078583
254206872269087	0.60523987	10.803223	-1.9585571
254206880661421	0.7473755	10.786575	-1.6724854
254206889053755	0.5921173	11.011612	-1.2129211
254206897446089	0.27496338	11.68335	-0.9621277
254206905838423	-0.074417114	12.890213	-1.0063019
254206914230757	-0.5289459	14.106033	-0.81700134
254206922623091	-0.7064972	14.220535	0.14289856
254206931015425	-1.0787354	13.966522	1.2374725
254206939407759	-1.4580383	13.733093	1.8036499
254206947800093	-1.5943604	13.537842	1.5985107
254206956192427	-1.1800995	13.14505	0.7544708
254206964584761	0.105041504	12.342468	-0.063079834
254206972977095	0.7496033	11.456284	-0.29089355
254206981369429	0.9664154	10.432785	-0.34857178
254206989761763	1.4037476	9.584457	-0.75579834
254206998154097	2.2223053	9.302475	-1.4472351
254207006546431	3.2461548	9.76358	-1.9313812
254207014938765	5.036789	10.764587	-2.1566925
254207023331099	5.9301453	11.113327	-1.8761444
254207031723433	4.9757843	11.74939	-1.333252
254207040115767	4.3715057	12.621933	-0.93748474
254207048508101	4.5156555	13.36232	-0.8037262
254207056900435	4.552231	13.497086	-0.8747101
254207065292769	4.929947	12.559738	-1.3727112
254207073685103	4.7570953	11.572388	-2.43042
254207082077437	4.670456	11.184326	-3.8265991
254207090469771	4.052597	11.205093	-4.3134766
254207098862105	2.1230164	11.168381	-3.4285889
254207107254439	-1.1965942	10.697327	-1.6396942
254207115646773	-2.551529	10.418152	-1.0295258
254207124039107	-2.513916	9.927536	-0.46543884
254207132431441	-2.1846771	8.8884735	-0.10168457
254207140823775	-1.2550659	7.8967285	0.03390503
254207149216109	0.011642456	7.2729645	-0.0539093
254207157608443	0.8090515	6.951706	-0.24763489
254207166000777	0.83895874	6.8041534	-0.31045532
254207174393111	0.6240692	6.3769226	-0.3214264
254207182785445	0.38398743	5.9882355	-0.07661438
254207191177779	0.2052002	5.786026	0.13580322
254207199570113	0.19114685	5.727936	0.19342041
254207207962446	0.39463806	5.6758423	0.14312744
254207216354780	0.62994385	5.6160126	-0.115097046
254207224747114	1.2450409	5.499481	-0.75865173
254207233139448	1.8355255	5.4157104	-1.379425
254207241531782	2.3539429	5.3672485	-1.9662933
254207249924116	2.7400818	5.374298	-2.4567566
254207258316450	2.9365997	5.4428406	-2.7890625
254207266708784	3.0081635	5.4368744	-3.1697693
254207275101118	2.866394	5.2857513	-3.072647
254207283493452	2.7491913	5.1072845	-2.6654358
254207291885786	2.6605988	4.91362	-2.4510803
254207300278120	2.6200714	4.6665955	-2.46138
254207308670454	2.6636963	4.34317	-2.4562073
254207317062788	2.7384796	4.180664	-2.963684
254207325455122	2.7163239	3.8940277	-3.2775574
254207333847456	2.5366058	3.7050018	-3.5015564
254207342239790	2.2684174	3.6691895	-3.656723
254207350632124	2.0583954	3.8487244	-3.8255768
254207359024458	1.9897156	4.3447113	-4.133072
254207367416792	1.7243042	5.326782	-4.721527
254207375809126	1.1742859	6.956665	-5.179596
254207384201460	0.3614502	9.739197	-5.850952
254207392593794	-0.33673096	12.828964	-6.606888
254207400986128	-0.60987854	15.4841	-7.134079
254207409378462	-0.46044922	17.318726	-7.190262
254207417770796	-0.69973755	17.187119	-7.1723022
254207426163130	-0.697876	15.837936	-7.215332
254207434555464	-0.48243713	14.007126	-6.996292
254207442947798	0.049209595	11.947098	-6.418747
254207451340132	0.68367004	9.819168	-5.566147
254207459732466	0.99409485	7.7307587	-4.6474457
254207468124800	1.2976532	5.7658386	-3.9313507
254207476517134	2.087906	4.196518	-4.017166
254207484909468	2.459671	3.5861359	-4.04126
254207493301802	2.8359222	3.9006195	-4.024887
254207501694136	3.4981537	4.849365	-3.9069061
254207510086470	4.408966	5.9604797	-3.3772583
254207518478804	5.878113	7.3789215	-2.0641785
254207526871138	6.65979	9.912125	-0.2923584
254207535263472	6.8789063	12.614151	1.053009
254207543655806	7.0178833	15.21489	1.3065338
254207552048140	7.329178	17.50322	-0.33700562
254207560440474	7.4177246	19.02977	-4.152359
254207568832808	5.1295166	17.698792	-5.9167175
254207577225142	0.5570221	13.513901	-3.2863464
254207585617476	-2.1271057	9.4188385	-0.47509766
254207594009810	-0.87983704	6.608795	1.9442902
254207602402144	2.3761444	5.2836914	3.6498566
254207610794478	3.014511	4.9088287	4.1223297
254207619186812	1.1779633	5.3763733	2.7390594
254207627579146	0.5053253	5.39624	1.0502472
254207635971480	-0.852005	5.105057	-0.054138184
254207644363814	-2.6065674	5.347168	-0.21688843
254207652756148	-3.8229828	6.5566254	0.6336975
254207661148482	-3.3865356	8.559677	2.4002075
254207669540816	-2.3237	10.027283	4.199829
254207677933150	-1.4320221	10.602722	4.4280396
254207686325484	-0.9262085	10.966568	2.4934082
254207694717818	-0.37878418	11.492035	-0.84381104
254207703110152	0.6647186	12.30014	-3.8803864
254207711502486	2.3887177	13.145599	-4.4910583
254207719894820	4.6618958	13.311096	-2.7203827
254207728287154	5.191437	12.608261	-1.0752563
254207736679488	4.1092987	11.57579	-0.078430176
254207745071821	2.3461456	10.420074	-0.11456299
254207753464155	1.1624146	9.244141	-0.68626404
254207761856489	1.319458	8.065201	-0.7060394
254207770248823	1.7615356	7.3674316	-0.32406616
254207778641157	1.4030914	6.8959045	-0.18696594
254207787033491	0.76893616	6.5549927	0.14208984
254207795425825	0.23576355	6.498291	0.52568054
254207803818159	0.0101623535	6.763214	0.6874542
254207812210493	0.013366699	7.113495	0.44187927
254207820602827	-0.06913757	7.4598236	0.36854553
254207828995161	-0.32312012	7.9683533	0.6521759
254207837387495	-0.48979187	8.333954	0.5572357
254207845779829	-0.7359772	8.746567	0.32325745
254207854172163	-1.0671387	9.250412	0.16999817
254207862564497	-1.1921234	9.574402	0.004699707
254207870956831	-1.1444092	9.535629	-0.57977295
254207879349165	-0.8885956	9.555939	-0.85424805
254207887741499	-0.85987854	9.413315	-1.2016907
254207896133833	-0.7320404	9.148895	-1.466217
254207904526167	-0.31295776	8.86261	-1.3927917
254207912918501	0.032684326	8.60759	-0.9087982
254207921310835	0.11743164	8.398224	-0.36143494
254207929703169	0.23750305	8.19397	-0.15048218
254207938095503	0.48431396	8.249023	-0.14401245
254207946487837	0.87142944	8.409607	-0.37097168
254207954880171	1.2038269	8.567703	-0.69088745
254207963272505	1.12854	8.866562	-0.71969604
254207971664839	1.2023163	9.031052	-0.55519104
254207980057173	1.2358704	9.247757	-0.05357361
254207988449507	1.369751	9.636429	0.33035278
254207996841841	1.2879333	10.20311	0.68200684
254208005234175	0.8185272	10.838074	1.0574188
254208013626509	0.23254395	11.284836	1.2629852
254208022018843	-0.6444855	11.501785	1.6408844
254208030411177	-1.3250275	11.478149	1.7374725
254208038803511	-1.6503601	11.361267	1.4491882
254208047195845	-1.5754242	11.437668	0.819046
254208055588179	-1.1278229	11.92627	-0.023513794
254208063980513	-0.43962097	12.820236	-0.837677
254208072372847	0.36695862	13.899002	-1.2075653
254208080765181	1.0061951	14.472794	-1.1246796
254208089157515	1.3740082	14.487106	-0.5012207
254208097549849	1.3756866	14.207962	0.21128845
254208105942183	1.0998077	13.919235	0.4909973
254208114334517	0.89756775	13.648514	0.21669006
254208122726851	0.8299713	13.235016	0.17990112
254208131119185	0.72117615	12.5516205	0.30047607
254208139511519	0.76467896	11.733246	0.3980713
254208147903853	1.059494	10.886475	0.33894348
254208156296187	1.5169373	10.135452	0.10444641
254208164688521	1.8320007	9.625702	-0.1822052
254208173080855	2.0154572	9.346527	-0.6677551
254208181473189	2.853485	9.170761	-1.0382233
254208189865523	3.9509125	9.148468	-0.98583984
254208198257857	4.7702637	9.357758	-0.90448
254208206650191	5.0739746	9.753693	-1.138794
254208215042525	5.1330566	10.103638	-1.5665894
254208223434859	4.53685	10.651993	-1.3422699
254208231827193	4.2428436	11.204514	-0.93362427
254208240219527	3.2787476	11.415146	-0.31962585
254208248611861	2.356598	11.585449	-0.2592163
254208257004195	1.9069672	11.963425	-1.0832062
254208265396529	0.7888794	12.24118	-1.6902618
254208273788863	0.4877777	11.77359	-2.193756
254208282181196	0.48892212	11.471085	-2.4174194
254208290573530	0.44319153	11.316391	-2.5039825
254208298965864	0.3849945	10.994278	-1.9426117
254208307358198	0.49728394	10.360764	-0.5101013
254208315750532	0.9139557	9.797394	1.1075745
254208324142866	0.6598511	9.145447	2.1978912
254208332535200	0.6875	8.382797	2.3594055
254208340927534	0.82125854	7.289154	2.4301147
254208349319868	0.8890686	6.2676086	2.0922089
254208357712202	0.957077	5.749359	0.956604
254208366104536	1.5654297	5.5345	-0.28373718
254208374496870	2.0758972	5.399887	-1.904892
254208382889204	2.487503	5.039551	-2.9641266
254208391281538	2.7363892	4.820526	-3.765976
254208399673872	2.6508331	4.790146	-4.2207947
254208408066206	2.2148132	4.8811646	-4.215088
254208416458540	1.9107819	5.039612	-3.9844208
254208424850874	1.8451691	5.2940674	-3.7378845
254208433243208	1.9503937	5.4924164	-3.5088654
254208441635542	1.8782501	5.68573	-3.077362
254208450027876	1.7675476	5.8224335	-2.5808716
254208458420210	1.8943481	5.8394623	-2.2528992
254208466812544	2.1749115	5.7903137	-2.0335693
254208475204878	2.56456	5.3867493	-2.0962067
254208483597212	2.729187	5.076416	-2.1337128
254208491989546	2.7896118	4.6833496	-2.4683533
254208500381880	2.7359772	4.249954	-2.971466
254208508774214	2.5357666	3.922943	-3.3819885
254208517166548	2.2725525	3.770401	-3.7977448
254208525558882	1.9785614	3.8572693	-3.9949493
254208533951216	1.7548065	4.1569214	-4.236801
254208542343550	1.4951019	4.8287964	-4.496277
254208550735884	1.070404	5.8996735	-4.7604675
254208559128218	0.37902832	7.4189453	-5.0639496
254208567520552	-0.5428314	9.622208	-5.5579834
254208575912886	-1.6580658	11.774139	-6.0386353
254208584305220	-2.1976013	13.612427	-6.2832184
254208592697554	-2.4631348	14.71489	-6.27211
254208601089888	-2.5356445	15.0660095	-6.0989227
254208609482222	-2.3115082	14.695374	-5.9102936
254208617874556	-1.498169	13.21788	-5.890869
254208626266890	-0.34172058	11.40332	-5.8522644
254208634659224	0.83413696	9.489166	-6.1726837
254208643051558	1.7100067	7.44606	-6.49765
254208651443892	2.1390533	5.500107	-6.620178
254208659836226	2.2235718	4.033676	-6.4926453
254208668228560	2.22258	3.4596405	-6.1516266
254208676620894	2.1540375	4.3703156	-5.8644867
254208685013228	2.3874512	5.7029114	-5.292282
254208693405562	2.8206177	7.5238495	-3.984909
254208701797896	3.2601929	10.166214	-1.988327
254208710190230	3.7761688	14.008453	0.32896423
254208718582564	5.2907867	18.73439	2.2796783
254208726974898	7.3555603	21.973907	2.3915863
254208735367232	7.791443	20.694748	0.19914246
254208743759566	5.2832336	16.73555	-2.1909485
254208752151900	1.3937683	11.635544	-3.6108856
254208760544234	-0.8256836	6.588043	-3.58078
254208768936568	1.9317322	3.0880737	-2.0538635
254208777328902	3.5075378	2.5796356	-1.5399475
254208785721236	2.5131073	2.8457031	-1.0717773
254208794113570	1.2528229	3.543106	-0.3154297
254208802505904	0.4933014	4.200241	0.7029114
254208810898238	0.027572632	4.559189	1.9132233
254208819290571	-0.2845459	5.4945526	3.670639
254208827682905	-0.48188782	7.665024	3.9571533
254208836075239	-0.04058838	10.299866	2.1452637
254208844467573	0.36688232	12.772827	-0.35987854
254208852859907	0.23286438	14.578033	-2.367279
254208861252241	-0.53448486	15.266998	-3.1806335
254208869644575	-1.0640106	14.453232	-3.5018463
254208878036909	-1.0634613	13.284302	-3.1287842
254208886429243	-1.1544342	12.109711	-1.5697021
254208894821577	-1.2859344	10.940903	-0.10862732
254208903213911	-1.3454895	9.776306	0.54452515
254208911606245	-1.2169647	8.62616	0.1831665
254208919998579	-0.80441284	7.511795	-0.8894348
254208928390913	-0.43075562	6.9091797	-1.2690125
254208936783247	-0.3724823	6.5161896	-1.5304718
254208945175581	-0.6059265	6.4819946	-1.6555176
254208953567915	-0.9656677	6.7944336	-1.5755005
254208961960249	-1.2475586	7.352951	-1.2499695
254208970352583	-1.3887177	8.137909	-0.86816406
254208978744917	-0.5794678	8.736389	-0.95362854
254208987137251	0.19818115	9.05481	-1.1921539
254208995529585	0.35484314	9.14801	-1.3145752
254209003921919	0.04034424	9.062302	-1.2653809
254209012314253	-0.030807495	8.86348	-1.1481628
254209020706587	0.5743866	8.686005	-0.98464966
254209029098921	0.719574	8.713089	-1.0200348
254209037491255	0.44976807	8.654373	-0.9275665
254209045883589	0.08836365	8.548584	-0.71876526
254209054275923	-0.2720337	8.460678	-0.42279053
254209062668257	-0.7145691	8.394669	-0.06236267
254209071060591	-1.1865387	8.070557	0.37142944
254209079452925	-1.2828369	7.829727	0.53323364
254209087845259	-1.2957916	7.6078033	0.26254272
254209096237593	-1.0907593	7.5353394	-0.20443726
254209104629927	-0.7390137	7.614685	-0.65226746
254209113022261	-0.4528656	7.756485	-0.94369507
254209121414595	-0.32125854	7.963867	-0.7712097
254209129806929	0.07685852	8.161728	-0.39666748
254209138199263	0.19038391	8.459122	-0.13162231
254209146591597	0.42900085	8.774231	-0.21835327
254209154983931	0.8009949	9.198074	-0.6032257
254209163376265	1.0119781	9.878906	-0.9322357
254209171768599	1.1735077	10.485107	-0.46662903
254209180160933	1.0256653	10.948715	0.5710602
254209188553267	0.7970886	11.252014	1.1619568
254209196945601	0.8274231	11.302887	1.1842041
254209205337935	1.0684662	11.133255	0.8777466
254209213730269	1.1363525	10.88945	0.6703644
254209222122603	0.8540497	10.549515	0.44969177
254209230514937	0.65283203	10.413101	0.08407593
254209238907271	0.83457947	10.522507	-0.37091064
254209247299605	1.0863953	10.940247	-0.575058
254209255691939	1.1870117	11.623413	-0.49650574
254209264084273	1.1224976	12.404129	-0.4139862
254209272476607	0.8549957	13.041641	-0.38078308
254209280868941	0.32322693	13.637222	-0.21725464
254209289261275	-0.18952942	14.079773	-0.010147095
254209297653609	-0.20822144	14.173325	0.060546875
254209306045943	0.07194519	13.967834	-0.10546875
254209314438277	0.055419922	13.666748	-0.5034332
254209322830611	0.15696716	13.198608	-0.8588562
254209331222945	0.39608765	12.655167	-0.72991943
254209339615279	0.5983124	11.993744	-0.4471588
254209348007613	0.693985	11.237564	-0.3008423
254209356399946	0.75665283	10.380905	-0.3506012
254209364792280	0.9386139	9.385315	-0.4234314
254209373184614	1.1529694	8.301559	-0.13926697
254209381576948	1.0219879	8.513321	0.9059143
254209389969282	1.8011627	9.020264	0.9772949
254209398361616	2.5937042	9.526428	0.16314697
254209406753950	2.711792	10.006012	-1.0398102
254209415146284	2.1075745	10.56015	-1.9183044
254209423538618	1.6026154	10.812607	-2.2045746
254209431930952	0.83766174	10.7892	-1.1326447
254209440323286	0.008895874	10.824738	-0.51316833
254209448715620	-0.37213135	11.05661	-0.6338959
254209457107954	-0.4537506	11.523102	-1.1115112
254209465500288	-0.743515	12.125351	-1.3666229
254209473892622	0.6423187	11.865128	-1.8063049
254209482284956	1.9638214	11.3862	-2.2639618
254209490677290	2.307541	10.648972	-2.2280273
254209499069624	2.4738312	9.93428	-1.7038574
254209507461958	2.524704	9.437363	-0.9302826
254209515854292	1.7036133	9.185593	-0.24157715
254209524246626	0.75009155	8.686996	0.11180115
254209532638960	0.7490692	7.9457245	-0.10884094
254209541031294	1.1483002	7.294739	-0.65919495
254209549423628	1.6383209	6.8505554	-1.3719025
254209557815962	1.9581604	6.6902466	-2.084198
254209566208296	1.857666	6.809677	-2.5516663
254209574600630	1.1409912	6.783844	-2.131195
254209582992964	0.94174194	6.8811646	-2.0252533
254209591385298	1.0000458	6.9750977	-2.0577545
254209599777632	1.0323334	7.0592957	-2.0239258
254209608169966	0.9516144	7.1307526	-1.8760834
254209616562300	0.9621887	7.151062	-1.8237762
254209624954634	1.1715546	6.975586	-2.2265625
254209633346968	1.0691223	6.7150116	-2.381363
254209641739302	1.1920166	6.3682556	-2.5426788
254209650131636	1.5252686	6.0102234	-2.9031372
254209658523970	1.8663635	5.700897	-3.346344
254209666916304	2.024704	5.446594	-3.5214996
254209675308638	2.1336975	5.2622223	-3.5184479
254209683700972	2.2724762	5.1671143	-3.527832
254209692093306	2.173172	5.038147	-3.2941742
254209700485640	2.0999756	4.9633636	-3.15477
254209708877974	2.132248	4.964676	-3.2423248
254209717270308	2.0622406	4.9572296	-3.3576965
254209725662642	2.0622406	4.9353027	-3.4424286
254209734054976	2.0569458	4.911606	-3.541275
254209742447310	2.0563812	4.9499664	-3.5638123
254209750839644	2.1571503	5.22995	-3.6243591
254209759231978	2.4031067	5.865326	-3.7813416
254209767624312	2.723236	6.8237	-3.9767303
254209776016646	2.9972382	8.147736	-4.373749
254209784408980	3.3773804	10.002686	-5.1194
254209792801314	3.6150208	11.989304	-5.5804443
254209801193648	3.4909973	13.447845	-6.2774506
254209809585982	2.6484833	14.042236	-6.937439
254209817978316	0.75852966	13.828232	-6.226486
254209826370650	1.175293	13.106384	-6.3211975
254209834762984	2.5100098	11.526627	-6.790924
254209843155318	3.6486206	9.690155	-6.6730347
254209851547652	4.289505	7.9487305	-5.7715454
254209859939986	4.3576202	6.4174194	-4.3981934
254209868332320	3.9328156	4.968384	-3.2479858
254209876724654	4.0835724	3.536209	-3.336609
254209885116988	3.709381	3.1353302	-3.6894379
254209893509321	3.6400146	3.695404	-4.2606506
254209901901655	3.4343567	5.1410675	-4.595825
254209910293989	2.6662445	7.377411	-4.2422333
254209918686323	1.5456543	10.337952	-2.8620605
254209927078657	3.725525	12.839874	-1.0460205
254209935470991	5.8732147	14.753693	-1.9034729
254209943863325	6.286392	16.440979	-4.0926666
254209952255659	4.9502563	16.8629	-5.7831726
254209960647993	2.4404602	15.079803	-5.803192
254209969040327	-0.12132263	11.150833	-4.395111
254209977432661	-0.55500793	7.5985107	-2.8328094
254209985824995	0.03262329	5.3638916	-1.4289398
254209994217329	0.8460083	4.2743073	0.033050537
254210002609663	1.4670105	4.202362	1.1738892
254210011001997	1.556488	4.870865	1.5363464
254210019394331	0.8815155	5.83963	0.94122314
254210027786665	0.063568115	6.6209106	0.95140076
254210036178999	-0.8230438	7.2661896	1.627655
254210044571333	-1.0041809	8.1245575	1.7718964
254210052963667	-0.68013	9.429749	1.3413239
254210061356001	-0.24468994	11.144043	0.7602844
254210069748335	0.0625	12.9162445	0.6164093
254210078140669	0.793869	13.944031	0.040893555
254210086533003	1.7851868	13.935226	-1.0332489
254210094925337	2.5457	12.981094	-2.0723267
254210103317671	2.702942	11.518433	-2.9281921
254210111710005	2.1370392	9.985809	-3.4686127
254210120102339	1.3003845	8.662964	-3.5155182
254210128494673	1.1035767	7.5447083	-3.081131
254210136887007	1.124115	7.0056458	-2.9080658
254210145279341	1.4285431	6.696594	-2.756836
254210153671675	1.5353546	6.5966034	-2.66568
254210162064009	1.1577301	6.682617	-2.674942
254210170456343	0.71435547	6.7355804	-2.6690826
254210178848677	0.60668945	6.9110565	-2.6202393
254210187241011	0.5383606	7.084015	-2.4147797
254210195633345	0.1723175	7.312149	-2.1417694
254210204025679	-0.14953613	7.5823517	-1.8766632
254210212418013	-0.24423218	7.8384094	-1.692337
254210220810347	-0.5303955	7.989334	-1.6694794
254210229202681	-0.5324402	8.118683	-1.6481018
254210237595015	-0.6081085	8.187515	-1.5716858
254210245987349	-0.72694397	8.337738	-1.5749817
254210254379683	-0.7344055	8.505264	-1.5613556
254210262772017	-0.60498047	8.620483	-1.4379883
254210271164351	-0.6075592	8.725632	-1.2516327
254210279556685	-0.63150024	8.735596	-1.0452423
254210287949019	-0.4611969	8.603195	-0.78456116
254210296341353	-0.19633484	8.518585	-0.6387634
254210304733687	0.09233093	8.526093	-0.71698
254210313126021	0.2990265	8.597824	-1.0544586
254210321518355	0.21406555	8.650696	-1.5108948
254210329910689	-0.15072632	8.771957	-1.2902069
254210338303023	-0.29603577	9.107376	-0.79042053
254210346695357	-0.22015381	9.417313	-0.49172974
254210355087691	0.0970459	9.500214	-0.6557312
254210363480025	0.6026306	9.42807	-1.2118225
254210371872359	1.1168213	9.763306	-1.6529083
254210380264693	1.5644836	10.325623	-1.323883
254210388657027	1.5471802	10.357712	-0.14732361
254210397049361	1.7960663	10.168289	0.834671
254210405441695	2.077423	9.993179	1.0772858
254210413834029	2.1456604	9.95488	0.53460693
254210422226363	2.4856415	10.028671	-0.32980347
254210430618696	3.107956	9.977066	-1.1351624
254210439011030	3.095642	10.223068	-1.3258209
254210447407749	2.6146545	10.538376	-1.069931
254210455800083	1.5699463	10.726181	-0.56796265
254210464192417	0.22729492	10.799042	-0.2615204
254210472584751	-0.15141296	11.174789	-1.1521454
254210480977085	-1.4343567	11.45047	-1.9197388
254210489369419	-2.1328888	11.822403	-1.8833618
254210497761753	-2.5648499	12.281982	-1.4314575
254210506154087	-2.7304993	12.801147	-0.85943604
254210514546421	-2.5527344	13.322189	-0.3216858
254210522938755	-2.165207	13.720322	0.24433899
254210531331089	-1.4137421	13.711395	0.8655853
254210539723423	-0.986557	13.782547	0.82092285
254210548115757	-0.88113403	14.09053	0.4245758
254210556508091	-0.6345978	14.081421	-0.36720276
254210564900425	0.11856079	13.498627	-1.6470032
254210573292759	1.1544647	13.390945	-3.3190002
254210581685093	3.7436218	12.7966	-2.340561
254210590077427	7.787018	12.126389	0.32234192
254210598469761	9.975906	11.999954	2.4023438
254210606862095	8.871384	12.223114	3.6762085
254210615254429	5.2602234	12.436859	4.2299957
254210623646763	2.67482	12.773819	2.4646301
254210632039097	1.463028	13.069397	-0.0038604736
254210640431431	-0.5084076	13.485565	-2.4457245
254210648823765	-1.9489594	13.382507	-4.1154633
254210657216099	-1.7145844	12.765808	-4.9156036
254210665608433	0.4260559	11.838303	-4.9828796
254210674000767	2.3333588	10.500305	-4.305893
254210682393101	3.4700317	8.629257	-2.9661713
254210690785435	4.235153	7.3847504	-1.7078247
254210699177769	4.2903595	6.844696	-0.7311554
254210707570103	3.8831635	6.8860626	-0.28562927
254210715962437	3.3761902	7.269577	-0.5052643
254210724354771	2.6483002	7.557083	-1.004364
254210732747105	2.1949615	7.6651	-1.6257935
254210741139439	1.1607971	7.5197296	-1.2379761
254210749531773	0.11651611	7.213867	-0.85220337
254210757924107	-0.7387848	6.751297	-0.58935547
254210766316441	-1.3234558	6.101013	-0.2476654
254210774708775	-1.1579437	5.244583	-0.18386841
254210783101109	-0.5585022	4.261795	-0.14631653
254210791493443	0.15881348	3.4514313	-0.5067749
254210799885777	0.18518066	2.9511108	-0.9889984
254210808278111	0.14804077	2.7085724	-1.5069122
254210816670445	0.8806915	2.6128693	-2.0792542
254210825062779	1.6753082	2.7065887	-2.68544
254210833455113	1.6345215	2.69458	-2.73732
254210841847447	1.7714844	2.597519	-2.9837952
254210850239781	2.0957947	2.4771423	-3.3671875
254210858632115	2.5858917	2.3211365	-3.7846985
254210867024449	3.174347	2.106598	-4.178116
254210875416783	3.5479126	1.9365234	-4.6488647
254210883809117	3.7047882	1.9213257	-5.114624
254210892201451	4.050949	2.361908	-5.860214
254210900593785	4.654114	3.4532776	-6.573639
254210908986119	5.4845734	5.212723	-7.072174
254210917378453	6.19928	7.5124664	-7.507309
254210925770787	5.4136353	10.205368	-8.868225
254210934163121	3.812851	12.810516	-10.718918
254210942555455	3.4256592	14.114136	-9.834473
254210950947789	3.6609497	14.57016	-7.2309113
254210959340123	4.0037537	13.936584	-4.5845337
254210967732456	4.2416534	11.82048	-3.174057
254210976124790	4.5856323	8.657974	-2.6296997
254210984517124	4.7407837	6.2973785	-1.9785767
254210992909458	5.8923798	4.983917	-1.8613892
254211001301792	6.765335	5.3131866	-2.4487152
254211009694126	6.7411957	7.3683014	-3.302414
254211018086460	6.1793823	10.784958	-3.6882477
254211026478794	7.6107635	14.249084	-3.116684
254211034871128	8.086044	16.319077	-5.3470154
254211043263462	6.224991	15.88121	-9.066406
254211051655796	3.1886597	12.953064	-10.210312
254211060048130	0.6696472	8.769638	-7.696045
254211068440464	0.07420349	5.09227	-2.7990265
254211076832798	0.1804657	3.1314392	0.87228394
254211085225132	1.4183044	2.9117126	0.93156433
254211093617466	1.6416016	3.8897247	0.70521545
254211102009800	1.1562958	5.4559784	1.1499023
254211110402134	0.51057434	7.075775	2.2301178
254211118794468	0.25323486	8.419418	3.217041
254211127186802	0.9364929	9.501556	3.111267
254211135579136	1.7788696	10.4062195	1.3525848
254211143971470	1.9542999	11.4664	-0.20509338
254211152363804	1.5317688	12.7044525	-0.7072449
254211160756138	0.83903503	13.913269	-0.24150085
254211169148472	0.2825775	14.786331	0.44651794
254211177540806	0.29951477	14.955811	0.13745117
254211185933140	0.9113617	14.333618	-1.141159
254211194325474	1.6883545	12.989899	-2.4084778
254211202717808	1.806076	11.323257	-3.1146393
254211211110142	1.1248779	9.658234	-3.0608978
254211219502476	0.1797638	8.187363	-2.3525085
254211227894810	0.17588806	7.2304993	-1.9115448
254211236287144	0.5198517	6.748123	-1.3332672
254211244679478	0.72236633	6.4888763	-0.7403259
254211253071812	0.9288635	6.473633	-0.35383606
254211261464146	0.9600525	6.6228027	-0.4764862
254211269856480	0.4335327	6.807129	-1.3212128
254211278248814	0.13841248	7.081299	-1.7738495
254211286641148	-0.47584534	7.565399	-1.8106232
254211295033482	-0.5629425	7.7031555	-1.56987
254211303425816	-0.7515106	7.7824554	-1.1601257
254211311818150	-1.1865234	7.9470673	-0.6689911
254211320210484	-1.443512	8.116394	-0.21028137
254211328602818	-0.8144684	8.129395	-0.22628784
254211336995152	-0.67681885	8.070282	-0.5286102
254211345387486	-0.59742737	7.8948364	-0.6249542
254211353779820	-0.7320099	7.8896027	-0.35758972
254211362172154	-0.9783783	8.030197	0.052093506
254211370564488	-0.9760437	8.043335	0.15309143
254211378956822	-0.65419006	8.156754	-0.24029541
254211387349156	-0.24584961	8.284821	-0.31993103
254211395741490	-0.053451538	8.391922	-0.0027923584
254211404133824	-0.07833862	8.528641	0.39482117
254211412526158	-0.12509155	8.710068	0.52500916
254211420918492	0.05050659	8.91246	0.15846252
254211429310826	0.19311523	9.172211	-0.55966187
254211437703160	0.21629333	9.340424	-0.87435913
254211446095494	0.25971985	9.449646	-0.91090393
254211454487828	0.2661438	9.537308	-0.8973541
254211462880162	0.21520996	9.625961	-0.93678284
254211471272496	0.13546753	9.712799	-0.9090576
254211479664830	-0.14074707	9.807236	-0.35968018
254211488057164	-0.3605957	9.786026	0.30023193
254211496449498	-0.32833862	9.898346	0.78286743
254211504841831	-0.14193726	10.087418	0.8983307
254211513234165	0.07258606	10.352615	0.6992645
254211521626499	0.22662354	10.768768	0.44882202
254211530018833	0.23768616	11.201401	0.3542328
254211538411167	-0.095962524	11.467789	0.24824524
254211546803501	-0.03666687	11.690414	-0.049331665
254211555195835	0.118011475	11.751694	-0.52207947
254211563588169	0.12689209	11.657028	-1.0223694
254211571980503	0.051712036	11.588989	-1.3564453
254211580372837	-0.46388245	11.8508	-1.404602
254211588765171	-1.0586243	12.476181	-1.3009796
254211597157505	-1.347168	13.0655365	-1.340805
254211605549839	-1.4775085	13.355316	-1.3071136
254211613942173	-1.6206512	13.227753	-0.95240784
254211622334507	-1.711319	12.6992035	-0.23468018
254211630726841	-1.2113342	11.775772	0.32891846
254211639119175	-0.6766815	10.977997	0.5992279
254211647511509	-0.13186646	10.215622	0.56378174
254211655903843	0.4102173	9.5963745	0.33195496
254211664296177	0.967865	9.245651	0.03538513
254211672688511	1.6247253	9.231415	-0.22392273
254211681080845	2.8205109	9.466019	-0.42173767
254211689473179	3.9816132	10.214142	-0.75935364
254211697865513	5.0260468	11.43335	-1.9797821
254211706257847	5.7738953	12.923325	-2.70578
254211714650181	5.840912	14.172455	-2.4257507
254211723042515	4.7321777	14.491104	-2.080246
254211731434849	2.4390411	13.967682	-1.1948853
254211739827183	1.4152832	13.38472	-0.29237366
254211748219517	0.29655457	12.987396	-0.006652832
254211756611851	-0.36073303	12.57901	-0.5209503
254211765004185	-0.04714966	12.108246	-1.6944885
254211773396519	0.91778564	11.814819	-3.1217499
254211781788853	0.2856598	11.289383	-2.8056793
254211790181187	-0.35107422	11.026337	-3.4097748
254211798573521	-0.09022522	10.8376465	-3.4623108
254211806965855	0.75112915	10.41507	-3.2430878
254211815358189	1.630539	9.721695	-2.932663
254211823750523	2.292221	9.083633	-2.0304718
254211832142857	2.1117554	8.270081	-1.7134247
254211840535191	2.0392456	7.7972717	-1.6377411
254211848927525	1.9988251	7.3708344	-0.72940063
254211857319859	1.7429504	7.0605774	0.24433899
254211865712193	1.1753693	6.9229584	0.5296478
254211874104527	0.52189636	6.8611145	0.20881653
254211882496861	0.6212921	6.7467957	0.25454712
254211890889195	0.7827606	6.466461	0.3671875
254211899281529	0.98742676	6.030075	0.223526
254211907673863	1.1623688	5.5642242	-0.014129639
254211916066197	1.2740021	5.1918945	-0.20300293
254211924458531	1.3738708	4.935852	-0.48605347
254211932850865	1.4187317	4.7324524	-0.80708313
254211941243199	1.4885254	4.599869	-1.1538544
254211949635533	1.5476074	4.2661285	-1.4749603
254211958027867	1.5465546	3.7713013	-1.3704224
254211966420201	1.5796356	3.3724518	-1.069809
254211974812535	1.9131165	3.3864746	-1.7450867
254211983204869	2.1633606	3.283783	-2.4051056
254211991597203	2.1837158	3.2443848	-2.993744
254211999989537	1.9843597	3.3493042	-3.6285248
254212008381871	1.6309814	3.542633	-4.2723846
254212016774205	1.2224426	3.7447662	-4.8361206
254212025166539	0.8256378	3.9591827	-5.2573395
254212033558873	0.65815735	4.370941	-5.612259
254212041951206	0.98464966	5.1463623	-5.8758698
254212050343540	1.0894165	6.553543	-6.072876
254212058735874	0.9645996	8.633026	-6.3776855
254212067128208	0.7340088	11.110779	-7.0314026
254212075520542	0.33421326	13.348465	-8.242981
254212083912876	-0.3397522	14.717346	-9.146271
254212092305210	-0.91352844	15.0401	-9.407898
254212100697544	-1.3399048	14.666412	-8.809402
254212109089878	-1.3565216	13.712463	-7.757263
254212117482212	-0.9511261	12.328171	-6.936676
254212125874546	-0.6310272	10.695175	-6.794525
254212134266880	-0.30999756	8.746994	-7.027832
254212142659214	-0.10305786	6.863907	-6.995163
254212151051548	0.2146759	4.8021545	-6.3432465
254212159443882	0.5038147	2.9573975	-5.316345
254212167836216	0.78559875	1.9294128	-4.3855133
254212176228550	1.6623535	2.1043243	-3.73938
254212184620884	1.8899841	3.6609344	-2.0058289
254212193013218	2.4730835	5.923935	-0.22195435
254212201405552	3.8760529	8.574539	0.6320343
254212209797886	5.7498016	11.417221	0.312912
254212218190220	7.4884033	14.5159	-1.2361755
254212226582554	8.700348	18.297012	-4.349121
254212234974888	9.581696	19.002884	-7.904434
254212243367222	7.0577545	16.808914	-7.81221
254212251759556	3.1758118	13.011597	-6.266571
254212260151890	0.04322815	9.303818	-4.2512817
254212268544224	-0.8094177	6.8135223	-1.9124298
254212276936558	0.8873596	5.1624756	1.1550751
254212285328892	0.086761475	5.068741	2.8290558
254212293721226	-1.0533447	5.656311	3.0823975
254212302113560	-2.054718	6.213669	3.1284027
254212310505894	-2.6041565	6.4526825	3.2671356
254212318898228	-2.6917114	6.534485	3.2114716
254212327290562	-2.6887207	7.0449524	2.4547424
254212335682896	-2.3817596	8.668991	0.19207764
254212344075230	-1.6195526	10.419006	-2.1896973
254212352467564	-0.18087769	11.628754	-3.4887695
254212360859898	1.3825378	11.902832	-3.2882843
254212369252232	2.23703	11.386124	-2.0758362
254212377644566	2.0017395	10.876648	-1.0050659
254212386036900	1.5170288	10.8511505	0.55270386
254212394429234	1.8826447	10.862366	1.5177155
254212402821568	2.8797455	10.731934	1.46315
254212411213902	3.9500885	10.372894	0.5768585
254212419606236	4.308777	9.792236	-0.69747925
254212427998570	3.041565	9.094315	-2.0923157
254212436390904	2.130127	8.55481	-2.3661041
254212444783238	1.8734894	8.112213	-2.4244843
254212453175572	1.7424316	7.767639	-2.5695953
254212461567906	1.5409088	7.5019073	-2.657959
254212469960240	1.2702179	7.2331543	-2.363968
254212478352574	0.89520264	6.797119	-1.569931
254212486744908	0.3294525	6.572342	-0.66700745
254212495137242	-6.713867E-4	6.534668	0.38064575
254212503529576	-0.013671875	6.658249	1.4490204
254212511921910	0.104782104	6.9313507	2.2904816
254212520314244	0.06906128	7.299835	2.7128143
254212528706578	-0.1589508	7.638855	2.8068085
254212537098912	-0.27044678	7.8558197	2.1039124
254212545491246	0.17004395	8.283615	0.74835205
254212553883580	0.41908264	8.940247	-0.8478546
254212562275914	0.5601196	9.652832	-2.216217
254212570668248	0.9306946	10.16922	-2.9305573
254212579060581	1.2338715	10.284546	-2.6900024
254212587452915	1.7208862	10.251099	-2.013153
254212595845249	1.6646271	9.956512	-1.5599518
254212604237583	1.1865997	9.720459	-0.9513397
254212612629917	0.53271484	9.581253	-0.017333984
254212621022251	-0.046905518	9.499619	1.1094513
254212629414585	-0.4467163	9.750839	1.6019745
254212637806919	-0.54852295	10.544067	0.59877014
254212646199253	-0.39212036	11.579895	-1.0214844
254212654591587	0.12875366	12.323212	-2.4745789
254212662983921	0.8110504	12.442734	-2.8023682
254212671376255	1.2157898	12.005096	-1.5532379
254212679768589	0.97821045	11.531952	0.2916565
254212688160923	0.42219543	11.13591	0.57984924
254212696553257	0.09339905	10.973373	-0.0053863525
254212704945591	-0.11697388	10.918396	-0.9732361
254212713337925	-0.331604	10.8806	-2.0140228
254212721730259	-0.65286255	10.832565	-2.8938599
254212730122593	-1.0765991	10.880432	-3.3395233
254212738514927	-1.0149994	11.292511	-2.839325
254212746907261	-0.30534363	12.054535	-1.7484741
254212755299595	0.4304657	12.8004	-0.7251587
254212763691929	0.7063751	12.9639435	-0.48272705
254212772084263	0.48042297	12.101883	-1.2532806
254212780476597	1.6702423	11.116913	-0.22071838
254212788868931	3.8551636	11.222885	-0.3583374
254212797261265	5.800827	12.79422	-1.2231598
254212805653599	7.1946564	14.71109	-0.8966675
254212814045933	7.271469	15.97522	1.0914764
254212822438267	5.4229584	16.06047	3.0113678
254212830830601	3.810669	16.199646	0.61383057
254212839222935	1.1534424	16.52417	-0.16043091
254212847615269	-0.22865295	16.668869	-0.2801361
254212856007603	-1.7113342	16.432404	-0.86343384
254212864399937	-3.5922852	15.559311	-1.7876434
254212872792271	-4.996689	13.828217	-2.1683197
254212881184605	-5.0493774	10.919739	-2.5042725
254212889576939	-3.1107788	8.699478	-3.2393494
254212897969273	-0.7959595	7.474945	-3.4989624
254212906361607	1.0680695	6.671509	-3.1878052
254212914753941	1.9854584	6.0385895	-2.3472443
254212923146275	1.9025421	5.6195374	-1.1834106
254212931538609	1.6475372	5.3135223	-0.24836731
254212939930943	2.0508423	5.114914	0.2843628
254212948323277	2.687912	4.929886	0.07325745
254212956715611	3.2472382	5.008835	-0.7438202
254212965107945	3.406784	5.3121033	-1.7275085
254212973500279	3.0438995	5.5293884	-2.2616425
254212981892613	3.4024658	5.7371826	-2.459259
254212990284947	3.1769104	5.7725677	-2.177765
254212998677281	2.73526	5.5546722	-1.5343018
254213007069615	2.3592987	5.156479	-0.7468872
254213015461949	2.207901	4.698288	0.007888794
254213023854283	2.2934875	4.3177032	0.5689392
254213032246617	2.5091858	3.9976501	0.63752747
254213040638951	2.8112183	3.7651672	0.24897766
254213049031285	2.9503021	3.582016	-0.3373413
254213057423619	2.9652252	3.4104767	-1.0786285
254213065815953	2.92099	3.2061157	-1.9224548
254213074208287	2.8827515	2.9602203	-2.7750244
254213082600621	3.0506897	2.8147583	-3.4428253
254213090992955	3.0922089	2.71521	-3.8172607
254213099385289	3.2577057	2.7208862	-4.0299683
254213107777623	3.388214	2.7777863	-3.9167023
254213116169956	3.6052094	2.9752502	-3.7215729
254213124562290	4.242096	3.5412903	-4.0503235
254213132954624	4.3852844	4.58519	-4.2341156
254213141346958	4.180359	5.889038	-3.9174957
254213149739292	4.1627502	7.578766	-3.3755646
254213158131626	4.0240784	9.712616	-2.7593994
254213166523960	3.5680847	12.298309	-2.4008331
254213174916294	2.8763885	15.264221	-2.8066864
254213183308628	2.7694397	17.60704	-4.293869
254213191700962	3.465973	17.842041	-6.2407684
254213200093296	3.5147705	17.084427	-7.662369
254213208485630	3.178543	15.373947	-8.426514
254213216877964	2.8901367	12.823746	-8.5776825
254213225270298	2.8734741	10.012207	-8.393082
254213233662632	2.6591187	7.6782227	-8.464859
254213242054966	2.2411957	5.7828674	-8.396683
254213250447300	1.9434052	4.1795044	-8.089706
254213258839634	1.3894348	3.266693	-7.668762
254213267231968	0.5027008	3.3743439	-7.173523
254213275624302	-0.036315918	4.558182	-6.480774
254213284016636	1.7454987	6.20224	-5.8406067
254213292408970	2.7979126	8.195862	-4.5235596
254213300801304	3.5775452	10.822159	-2.3298798
254213309193638	4.346878	13.876785	0.29745483
254213317585972	5.474655	16.606049	3.222931
254213325978306	7.3533173	17.78595	6.6023254
254213334370640	7.951889	16.778427	6.860626
254213342762974	6.776932	14.337936	2.089386
254213351155308	4.3875427	10.722122	-3.3052979
254213359547642	1.4111633	7.0164948	-6.0836487
254213367939976	-1.3642273	4.2095184	-5.2167816
254213376332310	-2.863739	2.8257904	-1.8972626
254213384724644	0.9079132	2.7619781	0.4177704
254213393116978	1.2096558	3.879547	0.3982849
254213401509312	0.2556305	5.0380554	0.23548889
254213409901646	-0.6914215	6.208191	0.21789551
254213418293980	-1.0510559	7.4346924	0.37590027
254213426686314	-1.089798	8.530365	0.85806274
254213435078648	-1.047821	9.067322	1.8236389
254213443470982	-1.1854858	9.490906	2.3293304
254213451863316	-1.6439209	10.018692	2.3001404
254213460255650	-2.0644531	10.624786	1.875412
254213468647984	-2.0589142	11.344559	0.93089294
254213477040318	-1.4310303	12.377136	-1.0704498
254213485432652	1.05896	13.043121	-2.7214966
254213493824986	4.1158752	13.194504	-2.4696045
254213502217320	5.303879	12.97464	-1.0828094
254213510609654	3.562851	12.2435	0.0748291
254213519001988	0.32743835	10.99559	0.19064331
254213527394322	-0.87734985	9.428314	-0.49830627
254213535786656	-1.4528503	7.9696503	-0.82528687
254213544178990	-1.3069916	7.0654144	-0.6748657
254213552571324	-0.46305847	6.7165527	-0.3211975
254213560963658	0.55088806	6.763962	0.041534424
254213569355992	1.1393738	7.0107727	0.17230225
254213577748326	1.0528107	7.394638	-0.20637512
254213586140660	0.7816162	7.919052	-0.5593109
254213594532994	0.9282379	8.312561	-0.66929626
254213602925328	0.7109833	8.507416	-0.5380249
254213611317662	0.43014526	8.537018	-0.17131042
254213619709996	0.31814575	8.520081	0.3005371
254213628102330	-0.16320801	8.597717	0.5893402
254213636494664	-0.5555115	8.48674	0.4141388
254213644886998	-0.5901947	8.505249	-0.022003174
254213653279331	-0.50912476	8.623978	-0.63378906
254213661671665	-0.47607422	8.719772	-1.230484
254213670063999	-0.49674988	8.716522	-1.6356812
254213678456333	-0.34933472	8.708572	-1.7999573
254213686848667	-0.29534912	8.700424	-1.4566803
254213695241001	-0.26474	8.615204	-1.0547028
254213703633335	-0.22442627	8.4396515	-0.69210815
254213712025669	-0.34669495	8.293732	-0.43441772
254213720418003	-0.7380371	8.299133	-0.28211975
254213728810337	-1.1795197	8.486099	-0.10202026
254213737202671	-1.2004089	9.03479	0.23693848
254213745595005	-1.2262878	9.593124	0.5519409
254213753987339	-0.99612427	10.0239105	0.5815735
254213762379673	-0.50123596	10.3233795	0.17233276
254213770772007	0.05406189	10.549789	-0.58781433
254213779164341	0.23704529	10.803131	-1.1482544
254213787556675	0.2106781	11.02182	-1.0643005
254213795949009	0.5767517	11.1697235	-1.0077515
254213804341343	1.1104584	11.199829	-1.2276306
254213812733677	1.4827881	11.192047	-1.5401611
254213821126011	1.3936615	11.246887	-1.651413
254213829518345	0.7562561	11.377533	-1.5189667
254213837910679	0.17610168	12.021927	-1.5218811
254213846303013	-0.22369385	12.882477	-1.3100891
254213854695347	-0.25737	13.2669525	-0.6275635
254213863087681	0.11734009	12.918167	0.42340088
254213871480015	0.6450043	12.065826	1.4752808
254213879872349	0.78060913	11.110687	2.1372833
254213888264683	0.83447266	10.483658	2.027649
254213896657017	1.1673431	10.267654	1.213089
254213905049351	1.9859314	10.606354	0.2780304
254213913441685	3.1296844	11.372894	-0.6198883
254213921834019	4.2510223	12.465347	-1.5110168
254213930226353	4.849472	13.996506	-2.4585571
254213938618687	5.032364	15.730057	-2.5022888
254213947011021	4.87059	16.704132	-2.4547577
254213955403355	4.2696533	16.446869	-2.1775055
254213963795689	3.379074	15.329315	-1.8721008
254213972188023	2.611786	14.1082	-1.6081085
254213980580357	2.5225067	13.149246	-0.7609558
254213988972691	2.7577972	13.353302	-2.571991
254213997365025	0.047058105	12.703186	-0.6176605
254214005757359	-2.1385345	11.877945	0.7755585
254214014149693	-3.1432648	11.056366	0.5654144
254214022542027	-3.4646454	10.130173	-0.49719238
254214030934361	-1.9142914	9.095276	-2.3596191
254214039326695	-0.113220215	8.344009	-2.6412964
254214047719029	1.1119843	7.8302765	-3.0254517
254214056111363	1.4424133	7.422516	-3.1756744
254214064503697	1.2767029	7.0249634	-2.8855896
254214072896031	1.208664	6.6158295	-2.1091156
254214081288365	1.2126465	6.313736	-0.9884796
254214089680699	1.1349487	6.178711	0.19604492
254214098073033	1.1560669	5.9242706	0.808548
254214106465367	1.1445923	5.633011	0.89782715
254214114857701	1.1454773	5.416519	0.5908356
254214123250035	1.3401947	5.3539124	0.0640564
254214131642369	1.9799347	5.346817	-0.5787201
254214140034703	2.0894623	5.338852	-0.072280884
254214148427037	2.2030334	5.518341	0.25639343
254214156819371	2.272049	5.7233124	0.26600647
254214165211705	2.2610931	5.8300476	-0.12524414
254214173604039	2.2615204	5.7449036	-0.7301178
254214181996373	2.6535492	5.427902	-0.76112366
254214190388706	2.8194427	5.4655	-1.1874847
254214198781040	3.003891	5.387329	-1.4437866
254214207173374	3.1196442	5.24263	-1.4955597
254214215565708	3.1273346	5.105194	-1.4940338
254214223958042	3.0082397	5.017395	-1.6503448
254214232350376	2.7317505	4.929199	-2.1428833
254214240742710	2.3824158	4.7234497	-2.8005676
254214249135044	1.9079895	4.4108734	-3.1581879
254214257527378	1.5799408	4.209839	-3.6210327
254214265919712	1.4390717	4.335739	-4.251465
254214274312046	1.3333282	4.9586334	-4.8556213
254214282704380	1.0104065	6.1483765	-5.2253876
254214291096714	0.6419983	7.981903	-5.839325
254214299489048	0.17167664	10.177933	-6.581665
254214307881382	-0.0869751	12.5456085	-7.291916
254214316273716	-0.16926575	14.743057	-7.8203583
254214324666050	-0.33776855	16.249496	-8.07518
254214333058384	-0.66677856	16.460876	-8.147949
254214341450718	-0.97561646	15.234955	-7.686554
254214349843052	-1.090805	13.681351	-6.969162
254214358235386	-1.0926514	11.892899	-6.2489777
254214366627720	-1.0087585	9.924973	-5.5776215
254214375020054	-0.87649536	7.839691	-4.968506
254214383412388	-0.9323425	5.62294	-4.9177246
254214391804722	-0.86660767	3.6830597	-4.608322
254214400197056	0.1407013	2.7352448	-4.614441
254214408589390	1.5291595	2.8080597	-4.6013184
254214416981724	2.6243896	3.8254852	-4.1410065
254214425374058	2.9811401	5.661682	-2.9604492
254214433766392	2.7687836	8.122299	-1.3143921
254214442158726	3.8326416	10.690521	1.0213165
254214450551060	5.7661133	13.2326355	3.0937042
254214458943394	7.868271	15.878189	3.9546814
254214467335728	8.818054	18.5251	2.8650055
254214475728062	7.1872253	20.387451	-0.53463745
254214484120396	3.4743652	17.94989	-4.6060486
254214492512730	-0.78334045	12.52504	-3.744156
254214500905064	-1.9477234	8.33197	-1.7949524
254214509297398	0.4562378	5.677231	-0.37167358
254214517689732	3.616562	4.420456	-0.1751709
254214526082066	3.2227936	4.078018	-0.95814514
254214534474400	2.0672607	3.9563751	-1.4247437
254214542866734	1.6074066	4.255493	-0.84043884
254214551259068	0.8233948	4.344864	0.215271
254214559651402	-0.5392151	4.821472	1.5231628
254214568043736	-2.1240845	5.987137	2.7520142
254214576436070	-3.0841827	7.6111755	3.5635529
254214584828404	-2.399231	8.737808	3.992279
254214593220738	-1.9363556	9.759293	3.0723267
254214601613072	-1.7636108	11.764221	0.79800415
254214610005406	-0.44947815	13.877274	-1.1779785
254214618397740	2.527954	15.277817	-1.9264832
254214626790074	5.996826	15.523102	-1.5927734
254214635182408	4.824341	14.136276	-0.8978729
254214643574742	0.059539795	12.137482	-0.47154236
254214651967076	-1.9596558	10.846039	-0.647522
254214660359410	-1.4229889	9.514648	-1.0757599
254214668751744	0.24409485	7.973526	-1.3708038
254214677144078	1.1987915	6.764984	-1.1876373
254214685536412	1.470581	6.1488495	-0.43356323
254214693928746	1.243515	6.061508	0.17321777
254214702321080	1.0243683	6.0751953	0.31430054
254214710713414	1.1112823	6.310837	0.39512634
254214719105748	1.4500122	6.774811	0.6354828
254214727498081	1.6470795	7.305588	0.96939087
254214735890415	1.4066925	7.8281403	1.0427399
254214744282749	0.9437561	8.209457	0.9776459
254214752675083	0.40934753	8.4135895	0.48667908
254214761067417	0.119277954	8.548935	-0.26887512
254214769459751	0.095687866	8.665878	-0.95466614
254214777852085	0.05218506	8.699158	-1.194046
254214786244419	-0.027572632	8.436935	-0.7264404
254214794636753	0.047210693	8.258591	-0.05380249
254214803029087	0.121917725	8.255554	0.3072815
254214811421421	0.1864624	8.379791	0.2725067
254214819813755	0.2975464	8.621353	-0.07551575
254214828206089	0.52693176	8.980759	-0.48464966
254214836598423	0.7153778	9.220139	-0.5742798
254214844990757	0.62568665	9.485992	-0.2854309
254214853383091	0.5110626	9.718658	0.1796112
254214861775425	0.39694214	10.035095	0.6642151
254214870167759	0.3274994	10.513779	0.9916229
254214878560093	0.37228394	11.132187	1.0124054
254214886952427	0.44743347	11.649078	0.8854675
254214895344761	0.34220886	11.781006	1.0510406
254214903737095	0.1428833	11.364349	1.1733551
254214912129429	0.099731445	10.886398	1.0487518
254214920521763	0.33013916	10.669006	0.545105
254214928914097	0.71733093	10.745697	-0.27560425
254214937306431	0.79045105	11.33873	-0.45228577
254214945698765	0.8726959	12.191711	-0.41490173
254214954091099	0.7847595	13.059494	-0.1730957
254214962483433	0.5716553	13.726425	0.3972473
254214970875767	0.30807495	14.147781	1.2255707
254214979268101	0.022140503	14.483505	1.9902649
254214987660435	-0.46640015	14.88829	2.163742
254214996052769	-0.083221436	14.878891	1.6936951
254215004445103	0.5883026	14.302048	1.0564117
254215012837437	1.3006287	13.432144	0.4359436
254215021229771	1.9116974	12.481689	-0.12083435
254215029622105	2.2991333	11.502869	-0.648407
254215038014439	2.134613	10.425446	-1.1652832
254215046406773	2.0221252	9.788986	-1.3807373
254215054799107	2.5920563	9.3871	-1.2875061
254215063191441	3.3867035	9.251511	-0.5920563
254215071583775	3.8517609	9.35498	0.45785522
254215079976109	3.6229858	9.549942	0.9476471
254215088368443	3.260086	9.813156	1.1480408
254215096760777	2.8212585	9.834137	0.84135437
254215105153111	2.1698456	10.140427	0.047821045
254215113545445	1.8352356	10.919357	-0.89967346
254215121937779	1.9188995	11.946426	-1.6942749
254215130330113	1.795578	12.630295	-2.2397308
254215138722447	1.5101624	13.120834	-2.620285
254215147114781	1.8525543	12.637482	-2.6053314
254215155507115	2.3595734	11.730804	-2.2044525
254215163899449	2.8113403	10.8901825	-1.6599731
254215172291783	3.173874	10.266907	-1.1912231
254215180684117	3.532257	9.599777	-0.861496
254215189076451	3.3281555	8.982376	-0.34666443
254215197468785	2.693039	8.146759	-0.14932251
254215205861119	2.3403778	7.411392	-0.054397583
254215214253453	2.2658691	6.7876587	-0.3965149
254215222645787	2.2559967	6.2548065	-1.1355133
254215231038121	2.0005035	5.8226166	-1.534668
254215239430455	1.5398865	5.417679	-1.6095886
254215247822789	1.4709167	5.2052307	-1.7216339
254215256215123	1.4525452	5.115036	-1.771698
254215264607456	1.4249878	4.984421	-1.7462311
254215272999790	1.3738251	4.7335205	-1.6878204
254215281392124	1.2746124	4.443161	-1.6944122
254215289784458	1.3296051	4.205826	-1.8492432
254215298176792	1.2679901	4.1655273	-1.9273529
254215306569126	1.164505	4.141556	-2.0442352
254215314961460	1.0388184	4.0891266	-2.164978
254215323353794	0.96084595	4.0118713	-2.2742462
254215331746128	1.0732727	3.9371796	-2.462082
254215340138462	1.0891113	3.8905945	-2.6820831
254215348530796	1.246933	3.7963867	-3.0860138
254215356923130	1.3401184	3.6659698	-3.4381256
254215365315464	1.4907074	3.4877625	-3.789917
254215373707798	1.707016	3.2881622	-4.2203674
254215382100132	1.6523895	3.1809082	-4.701294
254215390492466	1.7196198	3.357132	-5.31044
254215398884800	1.7270813	3.942459	-5.8389893
254215407277134	1.7653198	4.9486084	-6.335388
254215415669468	1.7321014	6.6912384	-6.6655884
254215424061802	1.5186157	9.409271	-6.641037
254215432454136	1.1363525	12.920929	-6.121521
254215440846470	1.3617706	17.023468	-5.464493
254215449238804	1.1622925	20.345886	-4.604843
254215457631138	1.0977173	21.540298	-4.3400574
254215466023472	1.0617981	20.2845	-4.81691
254215474415806	0.8338165	17.106995	-5.7604675
254215482808140	0.45736694	13.338409	-6.558182
254215491200474	0.75997925	10.357986	-6.689163
254215499592808	1.3783569	8.062973	-6.409973
254215507985142	1.9607086	6.180832	-6.066971
254215516377476	2.4274445	4.7743683	-5.6941986
254215524769810	2.6671753	3.9511871	-5.24086
254215533162144	2.3697815	3.7437897	-4.689728
254215541554478	2.1275024	4.5035095	-3.9728851
254215549946812	2.1752167	5.873535	-2.4031982
254215558339146	2.8066711	7.3924866	-0.19709778
254215566731480	3.776703	8.801666	1.749588
254215575123814	4.758774	9.9136505	2.4110565
254215583516148	5.5477753	10.492035	0.81056213
254215591908482	6.3530426	11.330826	-2.0409088
254215600300816	6.229553	11.491058	-3.426178
254215608693150	4.48674	10.594894	-4.329605
254215617085484	1.9891663	8.993729	-4.564636
254215625477818	0.32333374	7.3216248	-3.8860626
254215633870152	1.4618835	6.3539124	-2.813736
254215642262486	1.1671906	6.6597137	-0.884079
254215650654820	0.6310425	7.432022	0.8720398
254215659047154	0.378891	8.463959	1.8262634
254215667439488	0.1712799	9.43158	2.5451355
254215675831822	-0.32824707	10.099091	3.459259
254215684224156	-0.91944885	10.58165	3.4891663
254215692616490	-0.8292389	11.020493	1.2333374
254215701008824	-0.9298706	11.155746	-0.9549866
254215709401158	-1.1440582	11.022629	-2.4310455
254215717793492	-1.053421	10.791687	-3.2889252
254215726185826	-0.4238739	10.633789	-3.699646
254215734578160	0.20333862	10.566193	-3.1579132
254215742970494	0.9638977	10.862198	-1.9888
254215751362828	1.7078857	10.937256	-0.756485
254215759755162	2.0138397	10.595535	-0.21463013
254215768147496	1.6499023	9.898163	-0.38615417
254215776539830	0.61932373	9.021866	-0.895401
254215784932164	-0.5893402	8.261398	-1.0273895
254215793324498	-1.0459595	7.443451	-1.1780396
254215801716831	-0.78160095	6.9883423	-1.0883179
254215810109165	-0.18457031	6.742523	-0.92422485
254215818501499	0.48719788	6.681366	-0.82499695
254215826893833	1.0505066	6.8095703	-0.8786621
254215835286167	1.4592896	7.039871	-1.0262299
254215843678501	1.7000427	7.3104553	-1.1963654
254215852070835	1.8542175	7.5474396	-1.165802
254215860463169	1.8281555	7.9427643	-0.809845
254215868855503	1.4302368	8.349899	-0.4678955
254215877247837	0.7315216	8.550522	-0.46243286
254215885640171	0.42866516	8.528381	-0.59524536
254215894032505	0.40553284	8.651306	-0.19241333
254215902424839	0.08047485	8.592972	0.038742065
254215910817173	-0.49960327	8.496796	0.22467041
254215919209507	-1.0247955	8.401062	0.34309387
254215927601841	-1.2227631	8.29744	0.29109192
254215935994175	-1.2416992	8.229645	-0.017974854
254215944386509	-1.1125336	8.2421875	-0.3096161
254215952778843	-0.9378967	8.569702	-0.38571167
254215961171177	-0.6025543	8.816742	-0.5955353
254215969563511	-0.2876892	8.955353	-0.8399811
254215977955845	-0.17573547	9.162155	-0.8655548
254215986348179	-0.019454956	9.6371765	-0.6506653
254215994740513	-0.25021362	10.300781	-0.31262207
254216003132847	-0.22166443	10.754578	-0.02696228
254216011525181	-0.2469635	10.988251	0.24534607
254216019917515	-0.36845398	10.972641	0.51904297
254216028309849	-0.50250244	10.762558	0.8336487
254216036702183	-0.70373535	10.541199	1.3689117
254216045094517	-0.6957245	10.511124	1.2696075
254216053486851	-0.37934875	10.569656	0.3091278
254216061879185	0.14335632	10.7548065	-0.94285583
254216070271519	0.6465149	11.050476	-1.9071198
254216078663853	0.8740387	11.429184	-2.128357
254216087056187	0.67863464	11.974548	-1.3387299
254216095448521	0.36836243	13.005157	-0.13082886
254216103840855	0.023345947	14.3125305	0.63082886
254216112233189	-0.14987183	15.003662	0.7971649
254216120625523	-0.11349487	14.754211	0.8490753
254216129017857	0.03125	13.843628	1.2257996
254216137410191	0.0513916	13.234894	1.605133
254216145802525	0.65296936	12.986176	1.3709106
254216154194859	1.1547089	12.606979	0.9445038
254216162587193	1.5842896	11.847961	0.59698486
254216170979527	1.9797211	10.8216095	0.27755737
254216179371861	2.42865	9.82782	-0.24897766
254216187764195	3.2924347	9.2751465	-1.209198
254216196156529	4.040207	9.396866	-2.0015106
254216204548863	4.8452454	10.012238	-1.9745636
254216212941197	5.3139343	10.871231	-1.8567352
254216221333531	5.323166	11.7582855	-2.0810852
254216229725865	4.9879303	12.453018	-2.7073517
254216238118199	4.429291	12.7313385	-3.2719421
254216246510533	3.6541595	12.504257	-3.057663
254216254902867	2.917801	12.179657	-2.6408844
254216263295201	2.7618256	11.612152	-2.3190765
254216271687535	2.8885193	10.970306	-2.078476
254216280079869	2.6648407	10.537598	-1.7656097
254216288472203	2.4933472	10.104904	-1.5143738
254216296864537	3.7425537	10.21492	-2.024643
254216305256871	3.3984985	10.381561	-0.2785492
254216313649205	2.321167	10.281158	1.6344299
254216322041539	1.6160889	9.843536	2.2912292
254216330433873	1.7898865	9.182312	1.4321594
254216338826206	1.454834	8.65509	0.44110107
254216347218540	1.1063385	8.157089	-0.3932953
254216355610874	1.2504578	7.683792	-0.99394226
254216364003208	1.6956177	7.143799	-1.435852
254216372395542	2.2245483	6.6478577	-1.8902283
254216380787876	2.6119843	6.386032	-2.4308167
254216389180210	2.6361237	6.2572327	-2.3070526
254216397572544	2.6665955	5.945999	-2.1331024
254216405964878	2.787674	5.6081696	-2.0085754
254216414357212	2.7227936	5.2505646	-2.115982
254216422749546	2.5440674	4.89888	-2.5076752
254216431141880	2.4300385	4.5660553	-2.9986572
254216439534214	1.565628	4.0954895	-2.9697418
254216447926548	1.7054901	3.925003	-3.3393402
254216456318882	1.7692261	3.7746887	-3.502182
254216464711216	1.7124786	3.6345215	-3.4545898
