gyroscope_timestamp	gyroscope_x_data	gyroscope_y_data	gyroscope_z_data
1368027263786926	1.0489438	-0.87615603	1.6144309
1368027273786926	0.9162986	-0.43458736	1.3840473
1368027283786926	0.7976161	-0.15184377	1.546363
1368027293786926	1.150173	-0.16231576	1.4468791
1368027303786926	1.1414464	-0.47996596	1.1484276
1368027313786926	1.150173	-0.58294046	0.9634226
1368027323786926	1.1728623	-0.38746342	0.90059066
1368027333686926	0.8953547	-0.2722716	0.7539829
1368027342886926	0.6457724	0.026179962	0.57944983
1368027350686926	0.51836324	0.28623423	0.464258
1368027358686926	0.42411536	0.41189805	0.33684883
1368027373786926	1.0105464	0.649263	0.15707977
1368027383686926	1.9006652	1.0803597	-0.11693716
1368027393786926	2.5726175	1.0070559	-0.14137179
1368027403786926	1.6441016	0.8185601	-0.06457724
1368027413786926	1.1903156	1.6790081	0.02094397
1368027423786926	1.1205024	1.9024105	0.13264513
1368027433786926	1.0000745	1.2618741	0.12391848
1368027443786926	0.3106689	0.58294046	0.28797957
1368027453786926	-0.83077747	0.73478425	0.69464165
1368027463786926	-0.68416965	0.87615603	0.912808
1368027473786926	-0.6283191	-0.057595916	1.3107435
1368027483786926	-0.6300644	-0.51312727	1.6388656
1368027493786926	-0.7731815	-0.5166179	2.1118503
1368027503786926	-1.0297451	-0.60562974	2.7977653
1368027513786926	-1.2164955	-0.65624434	3.3091471
1368027523786926	-1.1013037	-0.98436654	3.6215613
1368027533786926	-0.26529026	-0.43982336	2.816964
1368027543786926	0.3804821	0.40666208	2.6302135
1368027553786926	0.24958229	0.6632257	2.839653
1368027563686926	-0.6998776	1.160645	1.6772629
1368027572786926	-1.4887671	1.5027298	1.3700846
1368027580686926	-1.6004683	1.6894802	1.4573512
1368027593786926	-1.2793274	1.061161	1.4870218
1368027603786926	-0.918044	0.59341246	1.6807535
1368027613786926	-0.9756399	0.120427825	1.6772629
1368027623786926	-1.2269676	-0.26354495	1.6737722
1368027633686926	-1.3159794	-0.3752461	1.747076
1368027643786926	-1.4119725	-0.4782206	1.6807535
1368027652686926	-1.4468791	-0.46251264	1.6301389
1368027669686926	-1.4503698	-0.20245837	1.4538605
1368027679686926	-1.4556059	-0.013962646	1.2583835
1368027689686926	-1.4782951	-0.12740915	1.0454531
1368027693686926	-1.857032	-0.464258	0.8045975
1368027709686926	-1.2828181	-0.35430214	0.3351035
1368027719686926	-1.0384718	-0.51487255	-0.059341244
1368027729686926	-0.91106266	-0.51836324	-0.39968073
1368027739686926	-0.86393875	-0.49741927	-0.70162296
1368027749686926	-0.7504922	-0.39619008	-1.0210185
1368027759686926	-0.58294046	-0.26354495	-1.6371202
1368027769686926	-0.108210504	-1.0559251	-1.4573512
1368027779686926	-0.07504922	-0.8272868	-0.6894056
1368027789686926	-1.3264514	-0.040142607	-0.9651679
1368027799686926	-1.1484276	-0.42411536	-1.2164955
1368027808686926	-1.392774	-0.3071782	-1.366594
1368027810586926	-1.5428724	-0.3298675	-1.0995584
1368027818586926	-1.6824988	-0.06981323	-0.469494
1368027826686926	-1.6458468	-1.6161762	0.72431225
1368027843786926	-2.6878095	-1.9984037	2.8623424
1368027853786926	-2.9461184	-2.448699	4.096291
1368027863786926	-2.6232321	-2.2252967	4.637344
1368027873786926	-1.5079658	-1.0227638	3.155558
1368027883686926	-0.30368754	-1.2758368	1.6371202
1368027893786926	0.15707977	-1.3421594	1.3089981
1368027903786926	0.22514766	-1.8308519	0.9773852
1368027912786926	0.20245837	-1.7505667	0.6091204
1368027920786926	0.04886926	-1.7261322	0.2670356
1368027933686926	-0.18325973	-1.2671101	0.15009844
1368027943786926	-0.34208483	-0.56897783	0.12915447
1368027953786926	-0.50265527	-0.1308998	-0.054105252
1368027963786926	-0.41538873	-0.052359924	-0.2548183
1368027973686926	0.019198637	-0.18325973	-0.41189805
1368027983786926	0.49916458	-0.30368754	-0.2391103
1368027993786926	0.7731815	-0.38920876	0.0017453308
1368028003786926	0.92327994	-0.27576226	0.16406108
1368028013786926	1.0175278	-0.28448892	0.06981323
1368028023786926	1.2391849	-0.8412494	-0.14137179
1368028033786926	1.4119725	-1.4992391	-0.2670356
1368028043786926	1.387538	-1.8797212	-0.28972492
1368028053786926	1.0489438	-1.7662747	-0.040142607
1368028063786926	0.6353004	-1.4643325	0.28623423
1368028073786926	0.39619008	-1.2723461	0.34383017
1368028083786926	0.39269942	-1.2077689	0.24260098
1368028093786926	0.49218327	-1.0925771	0.13788113
1368028103686926	0.5515245	-0.83077747	0.0453786
1368028113786926	0.4817113	-0.459022	-0.07504922
1368028123686926	0.3228862	-0.14835311	-0.25830895
1368028132786926	0.085521206	-0.038397275	-0.3682648
1368028143686926	-0.25307295	-0.02094397	-0.5061459
1368028153686926	-0.32114086	-0.17453307	-0.4206247
1368028163686926	-0.19373171	-0.16406108	-0.36651945
1368028173786926	-0.11519183	-0.07679455	-0.3735008
1368028183686926	-0.1535891	-0.0453786	-0.44331402
1368028193786926	-0.28623423	0.14660779	-0.41713405
1368028203786926	-0.28448892	0.649263	-0.34383017
1368028213786926	0.087266535	1.3002714	-0.085521206
1368028226686926	0.64402705	1.7261322	0.22514766
1368028239686926	0.84648544	0.92327994	0.80983347
1368028249686926	0.72431225	0.043633267	1.118757
1368028259686926	0.79238015	-0.9861119	1.123993
1368028269686926	0.5916671	-1.1100304	1.1449369
1368028279686926	0.2600543	-0.12566382	1.0349811
1368028289686926	0.04188794	0.40491673	1.1955515
1368028299686926	0.16057043	0.9058267	1.4329165
1368028309686926	0.37175545	1.0245092	1.572543
1368028319686926	0.5951578	1.1309743	1.6283937
1368028329686926	0.7539829	0.23736498	1.4224446
1368028339686926	0.53232586	0.14137179	1.3526313
1368028349686926	0.44505933	-0.59341246	1.408482
1368028359686926	1.2531475	-1.9477891	1.583015
1368028369686926	2.0350556	-2.6686108	1.5079658
1368028379686926	2.042037	-2.099633	1.5271645
1368028389686926	2.3125632	-0.6824243	1.4346619
1368028399686926	2.5691268	1.0506891	1.3910286
1368028409686926	2.068217	1.8517959	1.7243868
1368028419686926	1.0838504	2.495823	1.0297451
1368028429686926	0.5235992	1.8186346	1.9024105
1368028439686926	1.4416432	0.5672325	0.62657374
1368028449686926	1.8186346	0.7609642	0.72780293
1368028453586926	1.8029267	0.928516	0.9756399
1368028463686926	1.82038	0.6981323	1.0489438
1368028479686926	1.8517959	0.41189805	0.8342681
1368028483586926	2.1502476	0.7435109	0.5410525
1368028493586926	1.6301389	0.6527537	0.4031714
1368028509686926	1.2077689	-0.20769437	0.32637686
1368028513586926	1.0663971	-0.05061459	0.26878095
1368028529686926	0.86393875	0.5986484	0.17802374
1368028539686926	0.7609642	0.928516	0.1308998
1368028549686926	0.6824243	0.86568403	0.19373171
1368028551686926	0.74525625	0.7208216	0.3176502
1368028560686926	0.92153466	0.58643115	0.54628855
1368028573686926	1.1379557	0.57944983	0.7976161
1368028583686926	1.1815889	0.7941255	0.8342681
1368028593786926	1.0332358	1.176353	0.7208216
1368028602786926	0.80285215	1.5184377	0.5637418
1368028613786926	0.5218539	1.6545736	0.36128345
1368028623786926	0.25656363	1.4503698	0.25132763
1368028633786926	0.015707977	0.96865857	0.14835311
1368028643786926	-0.108210504	0.5515245	0.057595916
1368028653686926	-0.09424786	0.3630288	0.04188794
1368028663786926	-0.085521206	0.49567392	0.029670622
1368028673786926	-0.21642101	0.83950406	0.14835311
1368028683786926	-0.44680467	0.88313735	0.25307295
1368028693786926	-0.7801629	0.76270956	-0.09424786
1368028703786926	-1.0210185	0.3054329	-0.54279786
1368028713786926	-1.356122	-0.19373171	-0.7976161
1368028723686926	-1.804672	-0.5811951	-0.8290321
1368028733786926	-2.2759113	-0.8552121	-0.881392
1368028743786926	-2.6738467	-0.97389454	-0.9773852
1368028753786926	-2.965317	-1.1170117	-1.0367265
1368028763586926	-3.2550418	-1.366594	-1.0332358
1368028779686926	-3.6006174	-1.4974937	-0.9459693
1368028789686926	-3.5220776	-1.3980099	-0.7801629
1368028799686926	-3.0630555	-0.90408134	-0.46774864
1368028803586926	-2.7558773	-0.38222742	-0.031415954
1368028819686926	-2.71748	0.012217315	0.53581655
1368028828686926	-2.7977653	0.41713405	1.0210185
1368028830586926	-2.8326719	0.918044	1.377066
1368028849686926	-2.748896	1.7016975	1.2828181
1368028859686926	-2.4713883	1.6196669	0.5497792
1368028869686926	-2.2165701	1.7226415	-0.5061459
1368028879686926	-2.0542543	1.8448147	-1.3072528
1368028889686926	-1.788964	1.3980099	-1.4556059
1368028899686926	-1.9041559	0.3298675	-1.588251
1368028909686926	-2.0943968	-0.6824243	-1.6598096
1368028919686926	-2.146757	-1.2147502	-1.6126856
1368028929686926	-1.9774598	-1.2828181	-1.6545736
1368028939686926	-1.7400948	-1.0751238	-1.7174054
1368028949686926	-1.6283937	-1.061161	-1.76802
1368028959686926	-1.4119725	-1.0053105	-1.783728
1368028969686926	-1.2618741	-1.2740915	-1.809908
1368028973686926	-0.8726654	-1.2531475	-1.7715107
1368028989686926	-0.6178471	-1.298526	-1.3962646
1368028999686926	-0.5410525	-1.1693716	-1.34565
1368029009686926	-0.5393072	-1.2723461	-1.1170117
1368029019686926	-0.5166179	-1.3578674	-1.0227638
1368029029686926	-0.3228862	-1.4311712	-0.78539884
1368029039686926	-0.07155856	-1.4608419	-0.5201086
1368029049686926	0.14311711	-1.535891	-0.31415954
1368029053586926	0.35081148	-1.6388656	-0.20594902
1368029063586926	0.5846858	-1.6528282	-0.1588251
1368029080686926	0.8377588	-1.6161762	-0.13264513
1368029082586926	1.1658809	-1.4852765	-0.17976907
1368029090586926	1.4503698	-1.4329165	-0.21991168
1368029103786926	1.9181185	-1.3124887	-0.22514766
1368029113686926	2.2305326	-1.1780982	-0.2443463
1368029123686926	2.368414	-1.0541798	-0.23561965
1368029133686926	2.1677008	-1.0524344	-0.17104241
1368029143686926	1.5498537	-1.0786144	-0.25307295
1368029153686926	0.6632257	-0.8988453	-0.2775076
1368029163686926	-0.16231576	-0.34557548	-0.2670356
1368029173786926	-0.7714362	-0.04886926	-0.44156867
1368029183786926	-1.2618741	-0.7941255	-0.49567392
1368029193786926	-1.176353	-1.1327196	-0.7731815
1368029203786926	-1.0838504	-1.4905125	-0.7801629
1368029213686926	-0.9965839	-1.377066	-0.5707232
1368029223686926	-0.74525625	-0.8883734	-0.33161286
1368029232586926	-0.5270899	-0.3298675	-0.2094397
1368029243786926	-0.2600543	0.45553133	-0.16057043
1368029253686926	-0.0907572	1.2863088	-0.21816635
1368029263786926	0.11868249	2.2863834	-0.38746342
1368029273786926	0.3246315	2.8152184	-0.64053637
1368029283786926	0.469494	3.0089502	-0.7836535
1368029293786926	0.37873676	3.3091471	-0.9320066
1368029306686926	0.453786	3.2969298	-0.98960257
1368029319686926	0.78190815	2.427755	-0.7470016
1368029323586926	0.69115096	1.2950354	-0.28623423
1368029338686926	0.24260098	0.77492684	0.019198637
1368029349686926	0.052359924	1.0698878	0.14486246
1368029359686926	0.60388446	1.4852765	0.28099826
1368029369686926	1.2810727	1.6737722	0.27576226
1368029379686926	1.7016975	2.0036397	0.35255682
1368029389686926	1.8395786	2.0717075	0.6684617
1368029399686926	1.857032	2.026329	0.89710003
1368029403686926	1.7226415	1.8709946	0.94073325
1368029419686926	1.624903	1.6929709	0.83077747
1368029429686926	1.6196669	1.6702815	0.70162296
1368029433586926	1.6650455	1.7575481	0.7435109
1368029443586926	1.7208961	1.7208961	0.97389454
1368029459686926	1.7156601	1.4556059	1.3089981
1368029469686926	1.7016975	0.9773852	1.5324004
1368029473586926	1.6353749	0.47996596	1.4870218
1368029489686926	1.4276806	0.3054329	1.2583835
1368029499686926	1.1013037	0.48694727	1.1484276
1368029509686926	0.90059066	0.5846858	1.3212154
1368029519686926	1.1170117	0.74525625	1.2287128
1368029523686926	1.387538	0.71209496	1.0157825
1368029539686926	1.5760337	0.84299475	0.8272868
1368029543586926	1.7034428	1.0594158	0.83077747
1368029553586926	1.7592934	1.0262545	0.9320066
1368029568686926	1.7104242	1.0070559	1.0384718
1368029570686926	1.583015	0.9267706	1.1519183
1368029581686926	1.4451338	0.8552121	1.2252222
1368029593786926	1.2322035	0.73478425	1.2583835
1368029603786926	1.2339488	0.7539829	1.2269676
1368029613786926	1.1309743	0.7836535	1.2077689
1368029623786926	0.87615603	0.72431225	1.1205024
1368029633786926	0.6126111	0.57944983	0.94422394
1368029643686926	0.4939286	0.43458736	0.7435109
1368029653786926	0.48694727	0.459022	0.60562974
1368029663786926	0.4834566	0.47996596	0.5375619
1368029673786926	0.33684883	0.34033948	0.51836324
1368029683686926	0.10471985	0.12915447	0.49043795
1368029693786926	-0.0453786	-0.04712393	0.39968073
1368029703786926	-0.12566382	-0.16406108	0.25132763
1368029713686926	-0.18325973	-0.23038366	0.12740915
1368029723686926	-0.25656363	-0.34383017	-0.0017453308
1368029733786926	-0.33684883	-0.5707232	-0.16929708
1368029743786926	-0.31415954	-0.81332415	-0.46251264
1368029753786926	-0.4834566	-0.7976161	-0.6248284
1368029763786926	-0.83252275	-0.86568403	-0.7766722
1368029773786926	-1.2653648	-1.1274836	-0.9372426
1368029783786926	-1.788964	-1.2950354	-1.0140371
1368029793786926	-2.375395	-1.4346619	-0.9930932
1368029803786926	-2.8518705	-1.7942001	-0.9704039
1368029813786926	-3.1573033	-1.9809504	-0.97214925
1368029823686926	-3.1695206	-1.6929709	-1.0000745
1368029833786926	-2.954845	-0.9861119	-0.97214925
1368029842586926	-2.834417	-0.5270899	-0.928516
1368029859686926	-2.6616294	0.15533444	-0.8517214
1368029867686926	-2.5551643	0.4363327	-0.7504922
1368029869686926	-2.4399724	0.66148037	-0.68766034
1368029877786926	-2.3457246	0.9669132	-0.68067896
1368029893786926	-2.4469538	1.4974937	-0.84299475
1368029903786926	-2.5132763	1.6982068	-0.8220508
1368029913786926	-2.384122	1.5097111	-0.7435109
1368029923786926	-1.9966583	1.3124887	-0.9250253
1368029933686926	-1.5184377	0.6928963	-1.408482
1368029943786926	-1.2391849	-0.19198638	-1.8168893
1368029953786926	-1.134465	-1.2461661	-2.0123663
1368029963786926	-1.335178	-1.6126856	-2.0699623
1368029973686926	-1.5341457	-1.6004683	-1.9600065
1368029983786926	-1.6475922	-1.7784921	-1.7976906
1368029993786926	-1.7313681	-1.984441	-1.5987229
1368030003686926	-1.7016975	-2.1991167	-1.3892833
1368030013686926	-1.624903	-2.4521897	-1.2269676
1368030023686926	-1.4922578	-2.6668653	-1.0890864
1368030032686926	-1.335178	-2.6738467	-0.99832916
1368030043686926	-1.0594158	-2.5429468	-0.88313735
1368030052786926	-0.8796467	-2.490587	-0.7504922
1368030060786926	-0.7295483	-2.4399724	-0.6073751
1368030073786926	-0.48694727	-2.3823764	-0.37873676
1368030083786926	-0.25656363	-2.279402	-0.27401692
1368030093686926	0.027925292	-2.0943968	-0.24085565
1368030103786926	0.3630288	-1.8308519	-0.27052626
1368030113786926	0.75223756	-1.567307	-0.3124142
1368030123786926	1.176353	-1.3439047	-0.35604748
1368030133786926	1.6301389	-1.1588997	-0.35604748
1368030143786926	2.0786889	-1.0245092	-0.32114086
1368030153786926	2.501059	-0.9250253	-0.25307295
1368030163786926	2.8675785	-0.7871442	-0.120427825
1368030173786926	3.0002236	-0.5044006	0.09250253
1368030183786926	2.7768211	-0.087266535	0.36477414
1368030193786926	2.1607194	0.4206247	0.5201086
1368030203786926	1.2095143	1.0384718	0.57595915
1368030213786926	0.033161283	1.3491406	0.4660033
1368030223786926	-0.92327994	0.5445432	-0.057595916
1368030233786926	-1.1938063	-0.73478425	-0.5672325
1368030243786926	-1.1117756	-1.4590966	-0.7714362
1368030253786926	-0.9197893	-1.4660778	-0.75223756
1368030263786926	-0.5986484	-0.8848827	-0.56897783
1368030273786926	-0.3071782	-0.07679455	-0.3298675
1368030283786926	-0.04886926	0.86044806	0.006981323
1368030293686926	0.20594902	1.8081627	0.4136434
1368030303786926	0.44331402	2.6913	0.7033683
1368030313786926	0.42411536	2.9670622	0.9599319
1368030323786926	0.16231576	2.0751982	1.0402172
1368030333786926	-0.10122918	0.8744107	0.79587084
1368030343786926	-0.1308998	0.51312727	0.5235992
1368030353786926	0.40491673	0.9250253	0.33684883
1368030363786926	0.88313735	1.4748045	0.3228862
1368030373786926	1.171117	2.0455277	0.45204067
1368030386686926	1.535891	2.3963392	0.5166179
1368030399686926	2.0874157	2.516767	0.45029533
1368030403586926	2.516767	2.4539351	0.5393072
1368030413586926	2.5778534	1.9896771	0.5777045
1368030423586926	2.4260097	1.392774	0.5846858
1368030439686926	2.1572287	0.79238015	0.6579897
1368030449686926	1.7924547	0.58294046	0.82030547
1368030458686926	1.5132017	0.4939286	0.89710003
1368030466686926	1.3264514	0.6998776	0.95120525
1368030479686926	1.4835311	0.7976161	0.9756399
1368030489686926	1.556835	0.8517214	0.96167725
1368030499686926	1.5324004	1.0297451	0.97913057
1368030510686926	1.4643325	1.1938063	1.0000745
1368030518686926	1.4416432	1.2426755	1.0070559
1368030520686926	1.3823019	1.3439047	0.9808759
1368030528786926	1.34565	1.514947	0.9756399
1368030543786926	1.3857926	1.4451338	0.93375194
1368030553786926	1.3543767	1.1449369	0.87092006
1368030563786926	1.3596127	0.7400202	0.79936147
1368030573786926	1.3788112	0.453786	0.72780293
1368030583786926	1.3980099	0.29845157	0.6928963
1368030593786926	1.4608419	0.24085565	0.6579897
1368030603786926	1.514947	0.35255682	0.6091204
1368030613786926	1.4695685	0.3735008	0.5986484
1368030623786926	1.2810727	0.32637686	0.6126111
1368030633786926	1.1065397	0.24609163	0.6318097
1368030643786926	1.0384718	0.30194223	0.68416965
1368030653786926	1.0541798	0.4834566	0.7662002
1368030662786926	1.113521	0.5742138	0.8447401
1368030673786926	1.1938063	0.6126111	0.9093173
1368030683786926	1.1833342	0.64053637	0.9197893
1368030693786926	1.0629064	0.67195237	0.8552121
1368030703786926	0.8377588	0.6579897	0.72780293
1368030713786926	0.56897783	0.73129356	0.64402705
1368030723786926	0.31939554	0.80983347	0.6457724
1368030733686926	0.11868249	0.7731815	0.6998776
1368030743786926	0.010471985	0.6108658	0.70685893
1368030753786926	-0.013962646	0.44331402	0.6091204
1368030763686926	-0.031415954	0.3001969	0.4363327
1368030773786926	-0.16580643	0.16929708	0.26354495
1368030783786926	-0.39968073	0.04712393	0.11519183
1368030793786926	-0.54803383	-0.15009844	-0.09424786
1368030803786926	-0.5375619	-0.34557548	-0.39968073
1368030813786926	-0.6318097	-0.46774864	-0.6143564
1368030823786926	-0.85346675	-0.5393072	-0.7365296
1368030833786926	-1.1449369	-0.5707232	-0.86393875
1368030843786926	-1.609195	-0.65100837	-0.9197893
1368030853686926	-2.1519928	-0.78190815	-0.90408134
1368030863786926	-2.6686108	-0.918044	-0.82030547
1368030873786926	-3.0805087	-1.1362103	-0.77492684
1368030883786926	-3.2358432	-1.2234769	-0.7888895
1368030893786926	-3.1381047	-0.9599319	-0.7801629
1368030903786926	-2.933901	-0.60388446	-0.659735
1368030913786926	-2.7715852	-0.2548183	-0.4031714
1368030926686926	-2.6616294	0.0907572	-0.16057043
1368030939686926	-2.6005428	0.5777045	-0.108210504
1368030943586926	-2.5307295	1.1117756	-0.28972492
1368030959686926	-2.5621455	1.3247061	-0.649263
1368030968686926	-2.6406853	1.0053105	-0.78539884
1368030973686926	-2.675592	0.881392	-0.7941255
1368030989686926	-2.480115	1.1484276	-0.7766722
1368030991686926	-2.148502	1.3735753	-0.8779014
1368030999686926	-1.7575481	1.314234	-1.0506891
1368031019686926	-1.366594	0.26529026	-1.530655
1368031029686926	-1.4294258	-1.0297451	-1.809908
1368031039686926	-1.6057043	-1.6231576	-1.8587773
1368031049686926	-1.7366041	-1.7558028	-1.809908
1368031053586926	-1.8238707	-1.9250998	-1.7662747
1368031062586926	-1.8919386	-1.8901932	-1.6563189
1368031070586926	-1.9303358	-1.9303358	-1.5603257
1368031089686926	-1.857032	-2.1240675	-1.4102273
1368031093586926	-1.7174054	-2.3143086	-1.3089981
1368031103686926	-1.5446178	-2.3719044	-1.1641356
1368031113586926	-1.3334327	-2.310818	-1.0053105
1368031123686926	-1.0454531	-2.1502476	-0.88662803
1368031133586926	-0.7592189	-2.0088756	-0.7539829
1368031143586926	-0.46774864	-1.9041559	-0.63704574
1368031159686926	-0.15009844	-1.841324	-0.5235992
1368031168686926	0.12915447	-1.7959453	-0.45204067
1368031173586926	0.5270899	-1.7121694	-0.39793542
1368031189686926	0.902336	-1.5865057	-0.3351035
1368031193586926	1.3281966	-1.4590966	-0.2617996
1368031209686926	1.7505667	-1.2863088	-0.15009844
1368031213686926	2.148502	-1.097813	-0.008726654
1368031229686926	2.4626617	-0.9145533	0.16231576
1368031239686926	2.6406853	-0.67718834	0.3577928
1368031249686926	2.6179962	-0.34906614	0.5061459
1368031259686926	2.3404884	0.11868249	0.5811951
1368031261586926	1.8814665	0.46774864	0.6108658
1368031270686926	1.0629064	0.4939286	0.57246846
1368031278586926	0.2775076	0.17627841	0.44331402
1368031293786926	-0.8691747	-0.51312727	-0.18500505
1368031303786926	-1.0349811	-0.79587084	-0.5672325
1368031313686926	-1.0192732	-0.8482307	-0.7225669
1368031323686926	-0.8080881	-0.47996596	-0.5916671
1368031333786926	-0.4886926	0.4939286	-0.46251264
1368031343786926	-0.061086576	1.4870218	-0.26354495
1368031353786926	0.4834566	2.0036397	0.07679455
1368031363786926	1.0454531	2.7139893	0.43458736
1368031373786926	1.2897995	3.0264034	0.77492684
1368031383686926	1.1938063	2.4120471	0.9197893
1368031393686926	0.7400202	0.8744107	0.92327994
1368031403686926	-0.13962646	-0.76270956	0.7033683
1368031413786926	-0.4782206	-0.90059066	0.5445432
1368031423786926	-0.078539886	0.012217315	0.51312727
1368031433786926	0.5497792	0.86044806	0.52883524
1368031443786926	1.176353	1.392774	0.43458736
1368031453686926	1.7610388	1.5638163	0.3246315
1368031462586926	2.2602034	1.3631033	0.3228862
1368031479686926	2.5935614	0.87615603	0.45029533
1368031489686926	2.5778534	0.57944983	0.5672325
1368031499686926	2.3457246	0.6632257	0.659735
1368031509686926	2.021093	1.2723461	0.7888895
1368031519686926	1.7488214	1.8238707	0.8674294
1368031529686926	1.6894802	1.9792051	0.8587027
1368031539686926	1.8640132	1.7366041	0.73827493
1368031549686926	2.0507636	1.4241899	0.5811951
1368031559686926	2.146757	1.392774	0.38746342
1368031569686926	2.19039	1.4940032	0.22340234
1368031573686926	2.1624649	1.5795243	0.19896771
1368031583586926	1.9826957	1.567307	0.33859417
1368031593686926	1.7453308	1.4713138	0.5567605
1368031609686926	1.6196669	1.1466823	0.685915
1368031619686926	1.5428724	0.8377588	0.7365296
1368031623586926	1.4573512	0.5550152	0.76445484
1368031633586926	1.4713138	0.39444476	0.7609642
1368031643586926	1.5289097	0.3630288	0.7138403
1368031659686926	1.556835	0.49218327	0.64402705
1368031663586926	1.4451338	0.649263	0.57944983
1368031672586926	1.2828181	0.84299475	0.5567605
1368031688786926	1.1519183	0.9826212	0.59341246
1368031688886926	1.0873411	1.0471984	0.64402705
1368031703786926	1.139701	0.97913057	0.7662002
1368031713786926	1.2164955	0.8115788	0.86393875
1368031723786926	1.2758368	0.66671634	0.91106266
1368031733786926	1.2915448	0.62308306	0.8726654
1368031743686926	1.139701	0.6475177	0.79936147
1368031753786926	0.7871442	0.6632257	0.7470016
1368031763786926	0.35255682	0.60388446	0.73827493
1368031773786926	0.05061459	0.55326986	0.7400202
1368031783786926	-0.04886926	0.39619008	0.7225669
1368031793786926	-0.057595916	0.14137179	0.6475177
1368031803786926	-0.02443463	-0.010471985	0.51312727
1368031813686926	-0.085521206	-0.080285214	0.36128345
1368031823786926	-0.28972492	-0.1535891	0.20245837
1368031833786926	-0.4834566	-0.33859417	0.061086576
1368031843786926	-0.65624434	-0.5881765	-0.08901187
1368031853786926	-0.6073751	-0.7103496	-0.3857181
1368031863786926	-0.6073751	-0.5270899	-0.57595915
1368031873786926	-0.9704039	-0.48520195	-0.69115096
1368031883786926	-1.4835311	-0.7888895	-0.79587084
1368031893786926	-2.0943968	-1.0855957	-0.7574735
1368031903786926	-2.7104986	-1.2566382	-0.67369765
1368031913786926	-3.2445698	-1.3735753	-0.68416965
1368031923786926	-3.724536	-1.4398979	-0.7260576
1368031933786926	-3.8379824	-1.0838504	-0.7609642
1368031942786926	-3.4540095	-0.33684883	-0.7941255
1368031953686926	-3.0490928	0.17976907	-0.84648544
1368031963786926	-2.5185122	0.7888895	-0.7470016
1368031973786926	-2.4120471	1.2391849	-0.5567605
1368031983786926	-2.4260097	1.8483052	-0.5445432
1368031993686926	-2.384122	2.4923322	-0.71209496
1368032003686926	-2.3492153	2.8955038	-0.92153466
1368032016686926	-2.2828927	2.6616294	-1.0279998
1368032029686926	-2.2043529	1.4538605	-1.1205024
1368032039686926	-2.1415207	0.24260098	-1.3543767
1368032049686926	-1.9652424	-0.085521206	-1.7104242
1368032059686926	-1.6790081	-0.30194223	-1.9739691
1368032069686926	-1.7278775	-0.58643115	-2.0769436
1368032079686926	-1.8029267	-0.8412494	-2.0490184
1368032082586926	-1.7697654	-1.1065397	-1.9687331
1368032099686926	-1.8238707	-1.5603257	-1.788964
1368032109686926	-1.9879317	-1.8430693	-1.562071
1368032113586926	-2.0280743	-2.036801	-1.3386687
1368032123586926	-1.9442985	-2.3404884	-1.1990422
1368032133586926	-1.841324	-2.516767	-1.0262545
1368032149686926	-1.6790081	-2.4923322	-0.8342681
1368032159686926	-1.4556059	-2.375395	-0.6789337
1368032163686926	-1.150173	-2.2183154	-0.51836324
1368032173586926	-0.84997606	-2.1397755	-0.3804821
1368032189686926	-0.5166179	-2.0664716	-0.27576226
1368032193586926	-0.17453307	-2.000149	-0.20071304
1368032209686926	0.17278774	-1.8797212	-0.17976907
1368032219686926	0.5550152	-1.7313681	-0.19547704
1368032223586926	0.9756399	-1.5742884	-0.2391103
1368032233586926	1.4241899	-1.4224446	-0.28274357
1368032249686926	1.877976	-1.3124887	-0.29845157
1368032253586926	2.326526	-1.2095143	-0.27052626
1368032269686926	2.74366	-1.1082851	-0.21467568
1368032279686926	3.0194223	-0.96167725	-0.099483855
1368032289786926	3.0054595	-0.7260576	0.09424786
1368032289886926	2.6895547	-0.45029533	0.30368754
1368032303786926	1.5289097	0.6283191	0.43807802
1368032313686926	0.33684883	1.5219284	0.34383017
1368032323686926	-0.79238015	1.2897995	-0.052359924
1368032333786926	-1.4015006	-0.19722238	-0.46076733
1368032343686926	-1.5236738	-1.387538	-0.68766034
1368032353686926	-1.4311712	-1.5428724	-0.7731815
1368032363786926	-1.061161	-1.0297451	-0.5881765
1368032373686926	-0.5445432	-0.1535891	-0.33335817
1368032383786926	0.034906615	1.0000745	-0.16231576
1368032392686926	0.33335817	1.6196669	0.09424786
1368032403786926	0.907572	2.5848348	0.47996596
1368032413686926	1.350886	3.3492897	0.69115096
1368032421686926	1.4625871	3.361507	0.7766722
1368032429586926	1.3788112	2.7192254	0.7225669
1368032443786926	0.5707232	1.2583835	0.453786
1368032453786926	0.15533444	1.160645	0.28797957
1368032463786926	0.3054329	1.1990422	0.17104241
1368032473786926	0.5951578	1.2950354	0.19896771
1368032483686926	0.86044806	1.5254191	0.3176502
1368032493786926	1.113521	1.7086788	0.43284202
1368032503686926	1.6109403	1.6109403	0.5393072
1368032513786926	2.3788857	1.3002714	0.5619965
1368032523786926	2.8797958	1.0995584	0.5619965
1368032533786926	2.9426277	1.1798435	0.68766034
1368032543786926	2.6267228	1.4625871	0.9162986
1368032553586926	2.1118503	1.7523121	1.2130048
1368032563586926	1.5533444	1.7313681	1.4224446
1368032573586926	1.2671101	1.0192732	1.37183
1368032589686926	1.2496568	0.06457724	1.0768691
1368032592586926	1.2897995	-0.36651945	0.6213378
1368032606686926	1.2723461	-0.26878095	0.17976907
1368032614686926	1.2339488	-0.057595916	0.055850584
1368032616686926	1.2374395	-0.04712393	0.1867504
1368032624586926	1.2374395	0.10471985	0.34383017
1368032633586926	1.31947	0.23038366	0.40142608
1368032649686926	1.3700846	0.3176502	0.4084074
1368032659686926	1.3735753	0.5113819	0.43284202
1368032669686926	1.4276806	0.66148037	0.469494
1368032679686926	1.5603257	0.6998776	0.52883524
1368032683686926	1.5969776	0.8115788	0.670207
1368032699686926	1.6231576	0.62308306	0.7504922
1368032703686926	1.6493375	0.2949609	0.7906348
1368032713586926	1.6755176	0.20769437	0.83950406
1368032723586926	1.6231576	0.21991168	0.891864
1368032739686926	1.5254191	0.21816635	0.9145533
1368032743586926	1.4416432	0.232129	0.95469594
1368032759686926	1.4172086	0.30368754	0.9669132
1368032763586926	1.4137179	0.3857181	0.97214925
1368032773586926	1.3857926	0.48694727	0.95120525
1368032783686926	1.3072528	0.5602512	0.881392
1368032809886926	1.171117	0.57944983	0.7539829
1368032809986926	1.0053105	0.5637418	0.6073751
1368032810086926	0.7539829	0.62308306	0.4834566
1368032817586926	0.51836324	0.7470016	0.469494
1368032825586926	0.24609163	0.8063428	0.52883524
1368032840686926	0.006981323	0.6579897	0.6126111
1368032841586926	-0.15707977	0.35255682	0.67369765
1368032850586926	-0.21467568	0.033161283	0.65100837
1368032863686926	-0.120427825	-0.07504922	0.4084074
1368032872686926	-0.11519183	0.09424786	0.15533444
1368032880686926	-0.18500505	0.120427825	-0.055850584
1368032893786926	-0.43982336	-0.14311711	-0.2949609
1368032903686926	-0.5009099	-0.3176502	-0.51312727
1368032913786926	-0.6108658	-0.37873676	-0.6021391
1368032923786926	-0.95469594	-0.459022	-0.6457724
1368032933786926	-1.3735753	-0.62308306	-0.7225669
1368032943786926	-1.8989198	-0.7208216	-0.7365296
1368032951686926	-2.4417176	-0.7504922	-0.696387
1368032963786926	-3.1782472	-0.9267706	-0.67195237
1368032973686926	-3.6128347	-1.0629064	-0.6684617
1368032983786926	-3.7489705	-0.8220508	-0.66148037
1368032993686926	-3.598872	-0.5061459	-0.7103496
1368033003786926	-3.3964136	-0.28797957	-0.80983347
1368033013786926	-3.1171608	0.28099826	-0.7504922
1368033023786926	-2.816964	0.9878572	-0.6318097
1368033033786926	-2.6005428	1.8430693	-0.6632257
1368033043686926	-2.4190285	2.6476667	-0.7679455
1368033053786926	-2.326526	3.0176768	-0.83252275
1368033063686926	-2.3300166	2.7768211	-0.8883734
1368033073786926	-2.284638	2.0594902	-1.0367265
1368033086686926	-2.0769436	1.2322035	-1.4172086
1368033099686926	-1.7366041	0.8377588	-1.9669877
1368033109686926	-1.3247061	0.36651945	-2.2078433
1368033119686926	-1.2915448	-0.14835311	-2.3387432
1368033123586926	-1.4992391	-0.8290321	-2.3230352
1368033139686926	-1.7558028	-1.2496568	-2.1764274
1368033149686926	-1.9547704	-1.788964	-2.0071304
1368033159686926	-2.052509	-2.0455277	-1.7523121
1368033169686926	-2.042037	-2.227042	-1.5341457
1368033179686926	-1.9408078	-2.432991	-1.366594
1368033189686926	-1.7854733	-2.5115309	-1.2042782
1368033193586926	-1.567307	-2.4766243	-1.0733784
1368033209686926	-1.335178	-2.368414	-0.9250253
1368033219686926	-1.0803597	-2.211334	-0.8045975
1368033229686926	-0.7696909	-2.0298197	-0.7260576
1368033239686926	-0.4310967	-1.8814665	-0.6318097
1368033249686926	-0.13439047	-1.8465599	-0.52883524
1368033259686926	0.13788113	-1.8343426	-0.45029533
1368033269686926	0.4363327	-1.747076	-0.39444476
1368033279686926	0.7784175	-1.6144309	-0.38222742
1368033289686926	1.1588997	-1.4730592	-0.38920876
1368033299686926	1.5638163	-1.3526313	-0.38746342
1368033309686926	1.9652424	-1.2514021	-0.34208483
1368033313686926	2.3614326	-1.1676263	-0.25132763
1368033329686926	2.7471507	-1.1257384	-0.14486246
1368033333686926	3.0176768	-1.0629064	0.015707977
1368033349686926	3.0019689	-0.86044806	0.2548183
1368033358686926	2.7000268	-0.5340712	0.4206247
1368033360686926	2.1589742	-0.006981323	0.48520195
1368033371686926	1.4800404	0.6178471	0.47298464
1368033383786926	-0.17976907	0.5375619	0.054105252
1368033393786926	-0.92153466	-0.38920876	-0.4310967
1368033403786926	-1.1257384	-1.0506891	-0.78539884
1368033413786926	-1.0786144	-1.1449369	-0.9756399
1368033423786926	-0.8621934	-0.7836535	-0.80983347
1368033433786926	-0.5305805	-0.026179962	-0.53232586
1368033443786926	-0.16755176	0.8290321	-0.30194223
1368033453786926	0.1867504	1.4608419	0.029670622
1368033463686926	0.6003938	2.179918	0.42760605
1368033473786926	0.881392	2.775076	0.7487469
1368033483686926	0.7766722	2.5865803	0.928516
1368033493786926	0.40666208	1.8849572	0.7592189
1368033503786926	0.055850584	1.2426755	0.4136434
1368033513786926	0.13962646	0.7295483	0.14311711
1368033523786926	0.45553133	0.57246846	0.08203054
1368033533786926	0.70511365	0.7539829	0.2391103
1368033543786926	0.8848827	1.2775822	0.4084074
1368033553786926	1.2304581	1.6842442	0.43284202
1368033563786926	1.8936839	1.7645293	0.42760605
1368033573686926	2.6354494	1.5201831	0.4363327
1368033583786926	3.029894	1.5219284	0.5235992
1368033593786926	3.0368755	1.788964	0.7365296
1368033603786926	2.654648	2.0280743	1.0437078
1368033613786926	2.0874157	2.2340233	1.3473953
1368033623586926	1.6563189	1.7016975	1.3997552
1368033639686926	1.3892833	0.76270956	1.0681424
1368033643686926	1.3229607	0.3106689	0.39269942
1368033653586926	1.4381526	0.17802374	0.13788113
1368033661586926	1.5009844	0.14486246	0.2094397
1368033673586926	1.366594	0.42760605	0.45029533
1368033689686926	1.2531475	0.675443	0.6789337
1368033699686926	1.2514021	0.70511365	0.79587084
1368033709686926	1.340414	0.8953547	0.78539884
1368033713586926	1.4329165	1.0786144	0.74176556
1368033729686926	1.5533444	1.0053105	0.7225669
1368033739686926	1.7034428	0.86568403	0.7208216
1368033743586926	1.7261322	0.68766034	0.7504922
1368033759686926	1.7016975	0.44855002	0.72431225
1368033767686926	1.6894802	0.32114086	0.6894056
1368033779686926	1.603959	0.3228862	0.6527537
1368033783586926	1.4852765	0.38222742	0.65100837
1368033793586926	1.3910286	0.38222742	0.65624434
1368033809686926	1.340414	0.4136434	0.69115096
1368033820686926	1.3473953	0.46251264	0.7295483
1368033828686926	1.3613579	0.47996596	0.7871442
1368033830686926	1.3648486	0.469494	0.84299475
1368033838786926	1.329942	0.4834566	0.881392
1368033853786926	1.1362103	0.6108658	0.81332415
1368033863786926	0.88313735	0.7155856	0.7260576
1368033873786926	0.5986484	0.7679455	0.6248284
1368033883686926	0.32114086	0.7609642	0.59341246
1368033893686926	0.099483855	0.71733093	0.63704574
1368033903686926	-0.0226893	0.55326986	0.6632257
1368033913786926	-0.040142607	0.35255682	0.5672325
1368033923686926	-0.017453307	0.25830895	0.37699145
1368033933686926	-0.14835311	0.226893	0.2094397
1368033943786926	-0.4031714	0.09424786	0.0226893
1368033953786926	-0.4886926	-0.17278774	-0.24260098
1368033963786926	-0.38746342	-0.3298675	-0.5550152
1368033973686926	-0.5567605	-0.3630288	-0.6981323
1368033983686926	-0.9651679	-0.469494	-0.7941255
1368033993786926	-1.3945193	-0.57595915	-0.94073325
1368034003786926	-1.8901932	-0.6178471	-0.9651679
1368034013786926	-2.495823	-0.6091204	-0.8953547
1368034023786926	-3.0665462	-0.7435109	-0.85346675
1368034033786926	-3.4505188	-0.8744107	-0.83252275
1368034043786926	-3.4627361	-0.696387	-0.8080881
1368034053786926	-3.2009366	-0.28448892	-0.70162296
1368034063786926	-2.965317	0.12566382	-0.53232586
1368034073786926	-2.8466344	0.58643115	-0.3682648
1368034083786926	-2.775076	1.2618741	-0.39269942
1368034093786926	-2.6354494	2.005385	-0.4764753
1368034103786926	-2.5342202	2.3893578	-0.55326986
1368034113786926	-2.5726175	2.375395	-0.659735
1368034123686926	-2.6982813	2.3177993	-0.69464165
1368034133786926	-2.5726175	2.2759113	-0.76445484
1368034143786926	-2.2165701	1.9774598	-1.0419625
1368034153786926	-1.8535413	1.3700846	-1.4102273
1368034163786926	-1.577779	0.36128345	-1.6807535
1368034173586926	-1.588251	-0.5166179	-1.8832119
1368034189686926	-1.788964	-1.1152663	-2.0193477
1368034193586926	-1.9687331	-1.4416432	-1.9792051
1368034209686926	-2.2095888	-1.7610388	-1.7976906
1368034219686926	-2.3317618	-1.9739691	-1.5550897
1368034229686926	-2.3474698	-2.1345396	-1.3037621
1368034239686926	-2.258458	-2.2881286	-1.1152663
1368034243586926	-2.1240675	-2.2916193	-0.9564412
1368034259686926	-1.9373171	-2.1938808	-0.8080881
1368034269686926	-1.6004683	-2.026329	-0.7086043
1368034279686926	-1.171117	-1.815144	-0.68067896
1368034289686926	-0.7609642	-1.7069335	-0.6353004
1368034293586926	-0.39619008	-1.6859895	-0.5619965
1368034308686926	-0.10471985	-1.7313681	-0.5201086
1368034316686926	0.14486246	-1.783728	-0.4834566
1368034329686926	0.57944983	-1.8517959	-0.4136434
1368034339686926	0.94422394	-1.8552866	-0.38746342
1368034343586926	1.350886	-1.8727399	-0.34208483
1368034353686926	1.747076	-1.9495344	-0.3071782
1368034363586926	2.148502	-1.8919386	-0.27925292
1368034379686926	2.532475	-1.7208961	-0.23387432
1368034389686926	2.7977653	-1.4678231	-0.17802374
1368034399686926	2.7942746	-1.0943223	-0.04886926
1368034409686926	2.4940777	-0.5951578	0.106465176
1368034419686926	1.9931678	0.24085565	0.19198638
1368034429686926	1.2479115	0.9302613	0.20594902
1368034439686926	0.23038366	0.7435109	0.108210504
1368034449686926	-0.6579897	-0.08203054	-0.25656363
1368034459686926	-1.0594158	-0.81506944	-0.5637418
1368034469686926	-1.155409	-1.1798435	-0.7086043
1368034479686926	-1.0349811	-0.87092006	-0.64402705
1368034489686926	-0.78539884	-0.043633267	-0.46251264
1368034499686926	-0.5201086	0.7766722	-0.19373171
1368034509686926	-0.21816635	1.7016975	0.20769437
1368034511686926	-0.08901187	2.4103017	0.54628855
1368034520686926	-0.14137179	2.8885224	0.81506944
1368034533686926	-0.45029533	2.7227159	0.685915
1368034543786926	-0.46774864	2.3666685	0.47996596
1368034553786926	0.1308998	2.1868994	0.37873676
1368034563686926	0.8674294	1.7139148	0.4258607
1368034573786926	1.2583835	1.392774	0.64053637
1368034583786926	1.4224446	1.567307	0.7260576
1368034593786926	1.984441	2.2881286	0.51312727
1368034603786926	2.9426277	2.8850317	0.22340234
1368034613786926	3.6843932	2.8885224	0.28099826
1368034623786926	3.715809	2.5237482	0.56548715
1368034633786926	3.1154153	1.815144	0.7574735
1368034643786926	2.1258128	0.73827493	0.95120525
1368034653786926	1.2095143	-0.008726654	1.0995584
1368034663786926	0.7260576	-0.10297451	1.1623902
1368034673786926	0.8080881	0.07330389	1.0803597
1368034683786926	1.4172086	0.06283191	0.7696909
1368034693786926	2.0455277	0.3176502	0.30194223
1368034703686926	2.2235513	0.56897783	0.38746342
1368034716686926	2.16421	0.7696909	0.5619965
1368034723686926	1.9547704	1.150173	0.75223756
1368034739686926	1.7488214	1.2618741	0.8237961
1368034749686926	1.6842442	1.1065397	0.8063428
1368034753586926	1.7226415	0.7836535	0.76445484
1368034769686926	1.7942001	0.5916671	0.7714362
1368034773586926	1.8727399	0.57944983	0.7539829
1368034788686926	1.9146278	0.60562974	0.7225669
1368034789686926	1.9303358	0.5497792	0.6318097
1368034797786926	1.8867025	0.4258607	0.57595915
1368034813786926	1.5952322	0.37175545	0.7225669
1368034823786926	1.4137179	0.34208483	0.81506944
1368034833786926	1.3159794	0.32114086	0.8587027
1368034843786926	1.2950354	0.3246315	0.8883734
1368034853786926	1.3596127	0.43982336	0.93375194
1368034863686926	1.4486245	0.54279786	0.97913057
1368034873786926	1.4835311	0.59690315	0.98436654
1368034883686926	1.4276806	0.65624434	0.9197893
1368034893786926	1.2723461	0.7365296	0.76270956
1368034903786926	1.0210185	0.7487469	0.5672325
1368034913786926	0.70511365	0.7696909	0.4031714
1368034923786926	0.3752461	0.8045975	0.39269942
1368034933786926	0.0907572	0.75572824	0.4660033
1368034943786926	-0.08901187	0.5881765	0.49741927
1368034953786926	-0.13264513	0.4363327	0.39269942
1368034963786926	-0.17453307	0.41189805	0.1815144
1368034973786926	-0.32637686	0.34906614	-0.026179962
1368034983686926	-0.5602512	0.17802374	-0.13788113
1368034993686926	-0.8045975	-0.07679455	-0.25307295
1368035003786926	-0.8517214	-0.49916458	-0.47472996
1368035013686926	-1.0018198	-0.6387911	-0.5951578
1368035023786926	-1.5062205	-0.5846858	-0.7225669
1368035033786926	-2.0961423	-0.6422817	-0.88662803
1368035043786926	-2.748896	-0.7487469	-0.94422394
1368035053686926	-3.3545258	-0.9494599	-0.8988453
1368035063686926	-3.6686852	-1.1972969	-0.89360934
1368035073786926	-3.5395308	-0.84997606	-0.84299475
1368035083786926	-3.176502	-0.37699145	-0.7888895
1368035093686926	-2.9932423	-0.07330389	-0.7365296
1368035103686926	-2.8955038	0.43458736	-0.6824243
1368035113786926	-2.7558773	1.0838504	-0.7155856
1368035123686926	-2.5848348	1.7523121	-0.8691747
1368035133786926	-2.5289843	2.1537383	-0.99134785
1368035143786926	-2.6179962	2.19039	-0.9878572
1368035153786926	-2.7052627	1.8465599	-0.99832916
1368035163686926	-2.6563933	1.5132017	-1.097813
1368035173786926	-2.2933645	1.4625871	-1.3997552
1368035183786926	-1.6755176	1.5760337	-1.6598096
1368035193686926	-1.155409	0.50789124	-2.0280743
1368035203686926	-1.1309743	-0.459022	-2.3160539
1368035213686926	-1.3980099	-0.902336	-2.3666685
1368035223686926	-1.6824988	-1.5865057	-2.3335073
1368035233686926	-2.0176024	-2.1415207	-2.1345396
1368035243786926	-2.2602034	-2.506295	-1.8116534
1368035252586926	-2.3020914	-2.7087533	-1.5550897
1368035263586926	-2.2549672	-2.9112117	-1.2252222
1368035273586926	-2.1589742	-2.9426277	-0.9494599
1368035283586926	-1.9617518	-2.733188	-0.7330389
1368035299686926	-1.6441016	-2.5185122	-0.5707232
1368035309686926	-1.3386687	-2.4975684	-0.3857181
1368035313686926	-0.97214925	-2.4539351	-0.24958229
1368035329686926	-0.59341246	-2.4033206	-0.1867504
1368035339686926	-0.20594902	-2.3282712	-0.16406108
1368035349686926	0.19373171	-2.195626	-0.14311711
1368035359686926	0.6108658	-2.1432662	-0.1134465
1368035369686926	1.0594158	-2.0437822	-0.10995584
1368035379686926	1.530655	-1.9198638	-0.11170117
1368035389686926	2.031565	-1.7854733	-0.11170117
1368035399686926	2.5569096	-1.6161762	-0.10297451
1368035409686926	2.981025	-1.34565	-0.05061459
1368035419686926	3.045602	-1.061161	0.05061459
1368035429686926	2.6790826	-0.7103496	0.17278774
1368035439686926	2.0228384	0.0034906615	0.2670356
1368035449686926	1.0576705	0.8796467	0.26878095
1368035459686926	-0.1867504	1.1676263	0.087266535
1368035469686926	-1.0698878	0.5497792	-0.3298675
1368035479686926	-1.340414	-0.5044006	-0.64053637
1368035489686926	-1.3002714	-1.1536636	-0.77492684
1368035499686926	-1.0576705	-1.0053105	-0.5672325
1368035509686926	-0.7330389	-0.40491673	-0.22863832
1368035513686926	-0.39444476	0.3298675	-0.0017453308
1368035523686926	-0.11519183	1.0157825	0.3054329
1368035539686926	0.16231576	1.8814665	0.7103496
1368035549686926	0.28099826	2.8256905	0.9477146
1368035559686926	0.080285214	2.9478636	1.0384718
1368035569686926	-0.31939554	1.9879317	0.83252275
1368035573586926	-0.67195237	1.1309743	0.44331402
1368035581686926	-0.4084074	1.2479115	0.1588251
1368035592686926	0.19722238	1.1379557	0.034906615
1368035603786926	1.0070559	1.2234769	0.1134465
1368035613786926	1.4224446	1.8029267	0.16406108
1368035623786926	1.8133986	2.0943968	0.07330389
1368035633786926	2.4295003	2.2392592	-0.11170117
1368035643786926	3.0194223	2.1135955	0.015707977
1368035653786926	3.1974459	1.7819827	0.32114086
1368035663786926	2.7803118	1.3840473	0.675443
1368035673786926	2.0350556	0.8168148	0.99832916
1368035683686926	1.3840473	0.62657374	1.1780982
1368035693686926	1.1449369	0.7766722	1.1641356
1368035703786926	1.4486245	0.71733093	0.7487469
1368035713786926	1.9722238	0.44156867	0.23561965
1368035723786926	2.1921353	0.40666208	0.08901187
1368035732586926	2.1781728	0.47472996	0.1134465
1368035749686926	2.0507636	0.42760605	0.2094397
1368035759686926	1.9146278	0.4712393	0.3001969
1368035769686926	1.8517959	0.5410525	0.4712393
1368035779686926	1.8064173	0.928516	0.6789337
1368035783586926	1.7976906	1.1449369	0.82554144
1368035799686926	1.8168893	0.9267706	0.82554144
1368035809686926	1.815144	0.6387911	0.7714362
1368035819686926	1.8640132	0.5410525	0.69464165
1368035823586926	1.9355718	0.685915	0.696387
1368035839686926	1.9652424	0.9756399	0.79936147
1368035849686926	1.9390625	1.160645	0.9267706
1368035859686926	1.8919386	1.1257384	1.0332358
1368035869686926	1.8273613	0.7888895	1.0873411
1368035879686926	1.6790081	0.43982336	1.0855957
1368035883686926	1.5324004	0.2949609	1.1013037
1368035899686926	1.4643325	0.28448892	1.0768691
1368035909686926	1.4276806	0.33859417	0.99483854
1368035913586926	1.3072528	0.464258	0.8587027
1368035929686926	1.1082851	0.6108658	0.7260576
1368035939686926	0.9459693	0.8220508	0.6126111
1368035943686926	0.7888895	1.0506891	0.49916458
1368035959686926	0.59341246	1.1693716	0.459022
1368035969686926	0.3577928	1.0838504	0.5096366
1368035973586926	0.12391848	0.80285215	0.6073751
1368035983686926	0.008726654	0.45204067	0.6248284
1368035993686926	-0.0034906615	0.28972492	0.49043795
1368036003686926	-0.04712393	0.23038366	0.21816635
1368036013586926	-0.17278774	0.085521206	-0.14660779
1368036023586926	-0.12217315	-0.019198637	-0.5951578
1368036039686926	-0.0680679	0.052359924	-0.9162986
1368036049686926	-0.43982336	0.015707977	-1.0227638
1368036053586926	-0.881392	-0.44505933	-1.1571543
1368036063586926	-1.2671101	-0.7731815	-1.1815889
1368036073686926	-1.747076	-0.7888895	-1.1152663
1368036083586926	-2.284638	-0.84299475	-1.0925771
1368036099686926	-2.7611132	-0.8552121	-1.123993
1368036101686926	-3.0630555	-0.7784175	-1.0663971
1368036110786926	-3.2847126	-0.48694727	-0.95818657
1368036123786926	-3.2515512	0.061086576	-0.7906348
1368036133686926	-3.19221	0.17976907	-0.78190815
1368036143786926	-3.0246582	0.20769437	-0.8342681
1368036153686926	-2.7576225	0.35081148	-0.8587027
1368036163786926	-2.597052	0.8237961	-0.8447401
1368036173786926	-2.7035174	1.4189539	-0.80983347
1368036183786926	-2.8571064	1.9181185	-0.7330389
1368036193786926	-2.8134732	2.1677008	-0.71209496
1368036203786926	-2.5359657	2.3561964	-0.8482307
1368036211686926	-2.253222	2.4521897	-1.0419625
1368036223686926	-1.7191508	1.9390625	-1.546363
1368036233786926	-1.2967807	0.675443	-1.9460437
1368036243786926	-1.3700846	-0.7086043	-2.179918
1368036253786926	-1.9093919	-0.95469594	-2.1013782
1368036263786926	-2.384122	-1.3089981	-2.0193477
1368036273786926	-2.7087533	-1.7086788	-1.8867025
1368036283786926	-2.8553612	-1.8814665	-1.6633002
1368036293786926	-2.8256905	-2.2148247	-1.4276806
1368036303786926	-2.6651201	-2.4783697	-1.155409
1368036313786926	-2.4818604	-2.4713883	-0.9354973
1368036326686926	-2.253222	-2.32129	-0.86393875
1368036339686926	-1.9338264	-2.0978875	-0.7906348
1368036349686926	-1.567307	-1.9285905	-0.6684617
1368036359686926	-1.2182409	-1.8814665	-0.52534455
1368036369686926	-0.8796467	-1.8448147	-0.37873676
1368036379686926	-0.54628855	-1.8238707	-0.2443463
1368036389686926	-0.20594902	-1.809908	-0.14137179
1368036399686926	0.15533444	-1.8762306	-0.05061459
1368036409686926	0.5497792	-1.9931678	-0.010471985
1368036419686926	1.0000745	-2.1275582	-0.043633267
1368036423586926	1.4870218	-2.2881286	-0.12391848
1368036439686926	2.0071304	-2.3561964	-0.16929708
1368036449686926	2.522003	-2.3317618	-0.1867504
1368036459686926	2.8588517	-2.1554835	-0.19373171
1368036469686926	2.7646039	-1.609195	-0.108210504
1368036479686926	2.279402	-0.6248284	0.006981323
1368036489686926	1.6510829	0.5619965	0.07330389
1368036493686926	0.80285215	0.907572	0.07504922
1368036503686926	-0.09599319	0.34383017	-0.08901187
1368036519686926	-0.51836324	-0.3682648	-0.232129
1368036529686926	-0.52534455	-0.58294046	-0.34906614
1368036539686926	-0.5515245	-0.65100837	-0.43982336
1368036543586926	-0.70511365	-0.4258607	-0.39444476
1368036559686926	-0.7330389	0.17104241	-0.2949609
1368036569686926	-0.5305805	0.5742138	-0.19373171
1368036579686926	-0.13788113	0.9477146	0.04886926
1368036589686926	0.27052626	1.6947162	0.41189805
1368036599686926	0.52534455	2.5412016	0.7714362
1368036609686926	0.4834566	2.8466344	1.0332358
1368036619686926	0.0453786	2.2043529	1.0960677
1368036629686926	-0.18849573	1.7278775	0.9197893
1368036639686926	0.1535891	1.9652424	0.8080881
1368036649686926	0.5567605	2.1258128	0.7330389
1368036651586926	0.8447401	2.13803	0.7976161
1368036660786926	1.1885703	2.2741659	0.8342681
1368036668586926	1.4556059	2.532475	0.70685893
1368036683786926	2.448699	2.7576225	0.19198638
1368036693786926	3.124142	2.342234	-0.06981323
1368036703786926	3.2847126	1.857032	0.029670622
1368036713786926	2.850125	1.3107435	0.19198638
1368036723686926	2.2497313	0.7260576	0.39444476
1368036733786926	1.6999521	0.6073751	0.5916671
1368036743786926	1.3648486	0.7696909	0.7941255
1368036753786926	1.3020167	0.9197893	0.94422394
1368036763786926	1.5969776	0.81506944	0.8569574
1368036773686926	1.9565158	0.79238015	0.47996596
1368036783686926	2.148502	0.8377588	0.41189805
1368036793786926	2.1013782	0.8237961	0.60562974
1368036803786926	1.877976	0.7190763	0.7696909
1368036813786926	1.6458468	0.47996596	0.89360934
1368036823686926	1.5481083	0.38746342	0.9093173
1368036833786926	1.5097111	0.4834566	0.8185601
1368036843786926	1.4713138	0.6143564	0.7504922
1368036853786926	1.5201831	0.57944983	0.68766034
1368036866686926	1.6528282	0.7295483	0.6213378
1368036879686926	1.8378333	0.86568403	0.6091204
1368036883686926	1.9198638	0.8744107	0.664971
1368036893686926	1.8395786	0.74525625	0.7976161
1368036903586926	1.7366041	0.51312727	0.92153466
1368036919686926	1.6650455	0.35081148	1.0367265
1368036929686926	1.5812696	0.22165701	1.0629064
1368036939686926	1.5114565	0.18500505	1.0629064
1368036943686926	1.4416432	0.28972492	1.0471984
1368036953686926	1.3823019	0.4764753	0.9930932
1368036963586926	1.2793274	0.7155856	0.8674294
1368036979686926	1.0786144	0.902336	0.71209496
1368036983686926	0.881392	0.8517214	0.5515245
1368036999686926	0.7714362	0.71733093	0.4363327
1368037009686926	0.6422817	0.76445484	0.4188794
1368037019686926	0.39095408	0.66148037	0.4939286
1368037023586926	0.07330389	0.38746342	0.63704574
1368037039686926	-0.15533444	0.04188794	0.71209496
1368037049686926	-0.25132763	-0.226893	0.61610174
1368037059686926	-0.22165701	-0.24609163	0.3752461
1368037063686926	-0.120427825	-0.04886926	0.07330389
1368037079686926	-0.16929708	-0.13788113	-0.14660779
1368037089686926	-0.2391103	-0.41015273	-0.39444476
1368037099686926	-0.25132763	-0.57595915	-0.6126111
1368037109686926	-0.5619965	-0.63704574	-0.675443
1368037119686926	-1.0245092	-0.7539829	-0.7435109
1368037129686926	-1.5219284	-0.8011068	-0.7592189
1368037139686926	-2.057745	-0.8744107	-0.7260576
1368037143686926	-2.6075242	-1.0471984	-0.70685893
1368037160686926	-3.0089502	-1.2758368	-0.7487469
1368037162686926	-3.2306073	-1.2409302	-0.7504922
1368037171586926	-3.2777312	-0.9529506	-0.74176556
1368037179686926	-3.1642847	-0.52534455	-0.71733093
1368037193786926	-3.0019689	-0.06457724	-0.6457724
1368037203786926	-2.8536158	0.38222742	-0.5515245
1368037213686926	-2.6476667	1.0559251	-0.56897783
1368037223686926	-2.4417176	1.7750014	-0.7086043
1368037233786926	-2.3998299	2.0769436	-0.8237961
1368037243686926	-2.532475	1.9949131	-0.8517214
1368037253786926	-2.6145055	1.7872187	-0.9250253
1368037263786926	-2.5516737	1.6929709	-0.98960257
1368037273786926	-2.1816635	1.6633002	-1.2269676
1368037283786926	-1.603959	1.9250998	-1.5603257
1368037293686926	-1.0489438	0.9808759	-1.9460437
1368037303786926	-0.98960257	-0.3351035	-2.2514768
1368037313786926	-1.3543767	-0.9756399	-2.3090725
1368037323686926	-1.7191508	-1.4608419	-2.279402
1368037333786926	-1.9984037	-1.7715107	-2.1327941
1368037343686926	-2.2095888	-2.1659555	-1.8448147
1368037353786926	-2.2724206	-2.4260097	-1.5341457
1368037363686926	-2.19039	-2.71748	-1.2967807
1368037373786926	-2.042037	-2.897249	-1.0855957
1368037383686926	-1.8273613	-2.823945	-0.89710003
1368037393786926	-1.5655617	-2.6005428	-0.71733093
1368037406686926	-1.2147502	-2.32129	-0.6073751
1368037413586926	-0.8482307	-2.1275582	-0.5061459
1368037429686926	-0.5270899	-2.0123663	-0.3682648
1368037439686926	-0.2042037	-1.8971745	-0.26354495
1368037449686926	0.106465176	-1.8605226	-0.17104241
1368037453586926	0.4084074	-1.8867025	-0.1134465
1368037469686926	0.7592189	-1.9006652	-0.12217315
1368037479686926	1.1693716	-1.9093919	-0.16929708
1368037489686926	1.5952322	-1.8727399	-0.21293035
1368037499686926	2.015857	-1.7907094	-0.22514766
1368037509686926	2.4137924	-1.6598096	-0.17453307
1368037519686926	2.7349334	-1.4556059	-0.05061459
1368037529686926	2.7872932	-1.1257384	0.108210504
1368037533586926	2.4556804	-0.69464165	0.2617996
1368037543586926	1.8552866	-0.052359924	0.3176502
1368037553586926	0.9773852	0.5305805	0.30368754
1368037569686926	-0.057595916	0.41713405	0.16755176
1368037579686926	-0.83077747	-0.25656363	-0.17104241
1368037589686926	-1.0716331	-0.8726654	-0.46774864
1368037599686926	-1.0419625	-1.1728623	-0.7138403
1368037609686926	-0.8412494	-0.9564412	-0.6928963
1368037619686926	-0.5201086	-0.33859417	-0.5096366
1368037629686926	-0.1867504	0.47472996	-0.37175545
1368037632586926	0.0680679	1.103049	-0.18325973
1368037640586926	0.32637686	1.7662747	0.12391848
1368037648786926	0.5707232	2.5359657	0.42411536
1368037663786926	0.44855002	2.754132	0.659735
1368037673786926	0.120427825	1.9582611	0.469494
1368037683786926	-0.1535891	1.4538605	0.2443463
1368037693786926	0.019198637	1.2391849	0.12740915
1368037703786926	0.459022	0.63355505	0.15533444
1368037713786926	0.7103496	0.6422817	0.4136434
1368037723786926	1.0000745	1.1257384	0.6195924
1368037733786926	1.4887671	1.5707977	0.59341246
1368037743786926	2.326526	1.7784921	0.4310967
1368037753686926	3.0490928	1.7208961	0.44156867
1368037763686926	3.1991913	1.5393817	0.5637418
1368037773686926	2.7977653	1.1274836	0.7714362
1368037783786926	2.0455277	0.73478425	0.98436654
1368037793686926	1.298526	0.54279786	1.139701
1368037803686926	0.9267706	0.5044006	1.1222477
1368037813786926	1.1205024	0.1867504	0.7539829
1368037823686926	1.5132017	0.078539886	0.22340234
1368037833786926	1.6772629	0.30194223	0.13264513
1368037843786926	1.6772629	0.43458736	0.25830895
1368037853786926	1.6824988	0.42760605	0.3246315
1368037863786926	1.7034428	0.5305805	0.3700101
1368037873786926	1.7750014	0.70162296	0.4258607
1368037883686926	1.7802373	0.90408134	0.5375619
1368037893686926	1.7086788	1.1309743	0.675443
1368037903686926	1.7435855	1.097813	0.7033683
1368037913786926	1.8029267	0.9634226	0.7086043
1368037923786926	1.8395786	0.7714362	0.6981323
1368037933786926	1.76802	0.5986484	0.7086043
1368037946686926	1.7226415	0.41189805	0.7330389
1368037959686926	1.7278775	0.35953814	0.78190815
1368037969686926	1.6964614	0.42935136	0.81332415
1368037979686926	1.556835	0.50789124	0.8342681
1368037983686926	1.387538	0.55850583	0.8552121
1368037999686926	1.3055074	0.6283191	0.87615603
1368038009686926	1.3020167	0.72431225	0.8726654
1368038019686926	1.2793274	0.86044806	0.84299475
1368038029686926	1.1990422	0.8953547	0.7504922
1368038039686926	1.0506891	0.83252275	0.62308306
1368038049686926	0.87092006	0.7679455	0.5270899
1368038059686926	0.664971	0.8185601	0.49916458
1368038069686926	0.40142608	0.8272868	0.58294046
1368038079686926	0.106465176	0.685915	0.7103496
1368038089686926	-0.08377588	0.41015273	0.7888895
1368038099686926	-0.10471985	0.07155856	0.72780293
1368038110686926	-0.057595916	-0.11693716	0.52883524
1368038118686926	-0.099483855	-0.15009844	0.3246315
1368038120686926	-0.17976907	-0.2391103	0.12740915
1368038128786926	-0.24609163	-0.37873676	-0.078539886
1368038143786926	-0.18325973	-0.56897783	-0.5951578
1368038153786926	-0.34383017	-0.45727664	-0.75572824
1368038163786926	-0.7330389	-0.5445432	-0.84299475
1368038173786926	-1.1903156	-0.7260576	-0.891864
1368038183786926	-1.8029267	-0.8691747	-0.83252275
1368038193786926	-2.3980844	-0.891864	-0.71733093
1368038203786926	-2.850125	-1.0105464	-0.670207
1368038213786926	-3.1625392	-1.2688555	-0.7138403
1368038223786926	-3.2602777	-1.1658809	-0.7190763
1368038233786926	-3.1677754	-0.76270956	-0.7086043
1368038243786926	-3.0490928	-0.4136434	-0.6894056
1368038253786926	-2.9530997	0.019198637	-0.6143564
1368038263786926	-2.8204546	0.5742138	-0.57944983
1368038273786926	-2.7000268	1.2444208	-0.6579897
1368038283786926	-2.5726175	1.8954293	-0.73827493
1368038293786926	-2.5446923	2.195626	-0.7365296
1368038303686926	-2.6406853	2.0402915	-0.70511365
1368038313786926	-2.6406853	1.7366041	-0.72780293
1368038323786926	-2.359687	1.6074497	-0.891864
1368038333686926	-1.8971745	1.562071	-1.2164955
1368038343786926	-1.4538605	1.2374395	-1.6161762
1368038353786926	-1.2112595	0.106465176	-1.8832119
1368038363686926	-1.5166924	-0.685915	-1.9861864
1368038373686926	-1.9250998	-1.2461661	-1.9111372
1368038383786926	-2.1851542	-1.6336296	-1.76802
1368038393686926	-2.3282712	-1.9565158	-1.5707977
1368038403786926	-2.4085565	-2.1973715	-1.3107435
1368038413686926	-2.3614326	-2.4190285	-1.103049
1368038423786926	-2.2514768	-2.6022882	-0.90059066
1368038433686926	-2.0699623	-2.7576225	-0.7714362
1368038443786926	-1.8064173	-2.659884	-0.67369765
1368038453786926	-1.4782951	-2.4399724	-0.6021391
1368038463786926	-1.1484276	-2.26893	-0.49567392
1368038473786926	-0.8342681	-2.146757	-0.37699145
1368038483686926	-0.55850583	-2.0664716	-0.28623423
1368038499686926	-0.25830895	-2.0036397	-0.21467568
1368038503686926	0.0680679	-1.9111372	-0.19198638
1368038519686926	0.453786	-1.7715107	-0.22514766
1368038529686926	0.8848827	-1.7034428	-0.2775076
1368038539686926	1.3159794	-1.6964614	-0.32114086
1368038543686926	1.7400948	-1.6667908	-0.35430214
1368038553586926	2.1572287	-1.5917417	-0.3857181
1368038563686926	2.5429468	-1.4590966	-0.3752461
1368038573586926	2.7820573	-1.2182409	-0.3106689
1368038590686926	2.707008	-0.86044806	-0.12391848
1368038598686926	2.3788857	-0.469494	0.055850584
1368038603686926	1.7348588	0.30368754	0.15184377
1368038613586926	0.7941255	0.87092006	0.19373171
1368038629686926	-0.30368754	0.52883524	0.0453786
1368038639686926	-1.0332358	-0.3857181	-0.35430214
1368038643586926	-1.1850796	-1.0751238	-0.61610174
1368038659686926	-1.1082851	-1.2880541	-0.74525625
1368038669686926	-0.8674294	-0.9773852	-0.60562974
1368038673686926	-0.5305805	-0.3700101	-0.34906614
1368038689686926	-0.22340234	0.34557548	-0.15707977
1368038693586926	0.0	1.0646517	0.0680679
1368038703586926	0.3176502	1.7400948	0.4660033
1368038719686926	0.5619965	2.563891	0.81506944
1368038729686926	0.47996596	2.8117278	1.0506891
1368038739686926	0.09250253	2.1205769	1.0053105
1368038749686926	-0.28797957	1.1798435	0.81332415
1368038759686926	-0.29147023	0.9320066	0.7103496
1368038759786926	0.12915447	1.0751238	0.5881765
1368038773786926	0.99483854	1.4608419	0.6248284
1368038783686926	1.4678231	2.1607194	0.64053637
1368038793786926	2.062981	2.7366786	0.41713405
1368038803786926	2.823945	2.8832865	0.12740915
1368038813686926	3.429575	2.6145055	0.12391848
1368038823786926	3.5500028	2.0769436	0.21118502
1368038833786926	3.241079	1.4172086	0.3054329
1368038843786926	2.621487	0.71733093	0.4136434
1368038853786926	1.7383494	0.23038366	0.6021391
1368038863786926	1.0925771	0.26529026	0.7365296
1368038873786926	0.94073325	0.6457724	0.6684617
1368038883786926	1.3107435	0.89360934	0.26354495
1368038893786926	1.7435855	1.1833342	0.012217315
1368038903786926	1.9704784	1.3316873	0.1588251
1368038913786926	1.9547704	1.3107435	0.28797957
1368038923786926	1.8517959	1.1903156	0.38920876
1368038933786926	1.788964	0.8691747	0.44680467
1368038943786926	1.6685362	0.87092006	0.5096366
1368038953786926	1.5952322	1.1100304	0.54628855
1368038963686926	1.624903	1.2706008	0.5497792
1368038973786926	1.6650455	1.2199862	0.5393072
1368038983786926	1.7121694	1.0437078	0.5044006
1368038993686926	1.7348588	0.99134785	0.5305805
1368039003786926	1.7592934	0.7801629	0.5881765
1368039013586926	1.7383494	0.51836324	0.6387911
1368039029686926	1.6772629	0.3700101	0.7033683
1368039039686926	1.5428724	0.3054329	0.7470016
1368039049686926	1.3683393	0.23736498	0.7871442
1368039059686926	1.2566382	0.226893	0.8272868
1368039068686926	1.2374395	0.30368754	0.8482307
1368039073686926	1.2514021	0.4886926	0.8272868
1368039083586926	1.2287128	0.5672325	0.7766722
1368039099686926	1.1362103	0.5218539	0.7260576
1368039103586926	0.9494599	0.41189805	0.6789337
1368039119686926	0.7435109	0.36651945	0.62308306
1368039129686926	0.5235992	0.47996596	0.6003938
1368039139686926	0.3228862	0.51312727	0.62657374
1368039143686926	0.19373171	0.4188794	0.670207
1368039153586926	0.1588251	0.28099826	0.6457724
1368039161586926	0.16406108	0.1588251	0.53232586
1368039169686926	0.1361358	0.09424786	0.3735008
1368039177786926	0.04712393	0.1361358	0.20769437
1368039193786926	-0.28099826	0.012217315	-0.0017453308
1368039203686926	-0.44505933	-0.2042037	-0.21991168
1368039213786926	-0.38920876	-0.23038366	-0.5340712
1368039223786926	-0.6178471	-0.16057043	-0.66671634
1368039233786926	-1.0838504	-0.4206247	-0.7400202
1368039243786926	-1.4643325	-0.7679455	-0.81506944
1368039253786926	-1.9111372	-0.94073325	-0.8412494
1368039263786926	-2.474879	-0.98960257	-0.8482307
1368039273686926	-3.0106955	-1.0402172	-0.918044
1368039283786926	-3.345799	-1.0245092	-1.0070559
1368039293786926	-3.3929229	-0.90408134	-1.0768691
1368039303786926	-3.2428246	-0.62308306	-1.0559251
1368039313786926	-3.0421114	-0.3228862	-0.9773852
1368039323786926	-2.8448892	0.1308998	-0.8272868
1368039333786926	-2.6738467	0.83950406	-0.76445484
1368039343786926	-2.5429468	1.788964	-0.80983347
1368039353686926	-2.4295003	2.6459215	-0.8185601
1368039363686926	-2.4469538	2.9042304	-0.73827493
1368039373686926	-2.5289843	2.6529028	-0.7784175
1368039383786926	-2.5761082	1.9792051	-0.8569574
1368039393786926	-2.4626617	1.5498537	-1.1431917
1368039403686926	-2.0769436	1.2967807	-1.5498537
1368039413686926	-1.5027298	0.5305805	-1.9320811
1368039423786926	-1.3980099	-0.2670356	-2.1450114
1368039433686926	-1.6737722	-0.78190815	-2.1415207
1368039443686926	-1.9408078	-1.3473953	-2.115341
1368039453786926	-2.1659555	-1.8081627	-1.9530251
1368039463786926	-2.3125632	-2.0402915	-1.6772629
1368039473786926	-2.3771405	-2.3474698	-1.3683393
1368039483786926	-2.3492153	-2.6319587	-1.061161
1368039493786926	-2.2340233	-2.6982813	-0.8168148
1368039503786926	-2.0350556	-2.5883255	-0.6213378
1368039513686926	-1.747076	-2.368414	-0.44156867
1368039523686926	-1.3631033	-2.1432662	-0.3246315
1368039533786926	-1.0297451	-2.0455277	-0.20594902
1368039545686926	-0.76445484	-1.9792051	-0.10297451
1368039559686926	-0.4188794	-1.9146278	-0.006981323
1368039569686926	-0.09599319	-1.9076465	0.06283191
1368039579686926	0.2443463	-1.9425532	0.09250253
1368039589686926	0.6143564	-1.9373171	0.040142607
1368039599686926	1.0594158	-1.9059012	-0.055850584
1368039609686926	1.546363	-1.9128824	-0.18500505
1368039613586926	2.0350556	-1.877976	-0.3071782
1368039623686926	2.5150216	-1.8430693	-0.39444476
1368039639686926	2.8710692	-1.804672	-0.4136434
1368039649686926	2.8780503	-1.5969776	-0.30194223
1368039659686926	2.5342202	-1.2130048	-0.026179962
1368039669686926	2.0123663	-0.41713405	0.22340234
1368039679686926	1.2583835	0.6579897	0.31939554
1368039689686926	0.26878095	1.1798435	0.2670356
1368039699686926	-0.57944983	0.6387911	-0.07330389
1368039709686926	-1.0088012	-0.32812217	-0.5044006
1368039719686926	-1.1850796	-1.1274836	-0.66148037
1368039723586926	-1.1903156	-1.1222477	-0.6300644
1368039733586926	-0.99832916	-0.459022	-0.4363327
1368039749686926	-0.69464165	0.23561965	-0.23038366
1368039759686926	-0.5061459	0.8115788	0.14137179
1368039769686926	-0.47298464	1.5132017	0.6422817
1368039779686926	-0.685915	2.3282712	0.95120525
1368039789686926	-1.0245092	2.6476667	0.89710003
1368039799686926	-0.918044	2.2549672	0.649263
1368039809686926	-0.20769437	1.9687331	0.51312727
1368039813586926	0.6457724	1.5184377	0.47298464
1368039829686926	1.1815889	0.9529506	0.6632257
1368039833686926	1.4713138	1.2339488	0.7871442
1368039849686926	2.0559995	2.195626	0.5707232
1368039859686926	3.0525835	2.965317	0.23387432
1368039869686926	3.8222744	3.0194223	0.15533444
1368039871686926	3.8816156	2.7104986	0.33684883
1368039880686926	3.265514	1.984441	0.4712393
1368039888686926	2.5604002	1.1117756	0.5445432
1368039903786926	1.3177247	-0.3857181	0.6178471
1368039913786926	1.0000745	-0.17802374	0.6021391
1368039923786926	1.1903156	0.33684883	0.49043795
1368039933786926	1.862268	0.45727664	0.20245837
1368039943686926	2.3474698	0.7260576	0.12740915
1368039953786926	2.4190285	1.0210185	0.34383017
1368039963786926	2.1729367	1.0995584	0.5951578
1368039973786926	1.9146278	0.9878572	0.7906348
1368039983686926	1.8343426	0.69464165	0.8377588
1368039993786926	1.7802373	0.5445432	0.8587027
1368040003786926	1.7278775	0.33859417	0.8342681
1368040013686926	1.7400948	0.1588251	0.7592189
1368040022586926	1.7453308	0.3054329	0.67718834
1368040039686926	1.8849572	0.69115096	0.5340712
1368040043586926	2.031565	0.8412494	0.4660033
1368040053686926	2.083925	1.1047944	0.5567605
1368040069686926	1.9949131	1.0559251	0.6894056
1368040079686926	1.8116534	0.6248284	0.78539884
1368040089686926	1.567307	0.2548183	0.86568403
1368040099686926	1.3596127	0.17976907	0.92153466
1368040109686926	1.2374395	0.29845157	0.94073325
1368040119686926	1.2164955	0.45553133	0.9320066
1368040129686926	1.1990422	0.67195237	0.88313735
1368040139686926	1.118757	0.8185601	0.7539829
1368040149686926	1.0122918	0.83950406	0.6003938
1368040159686926	0.9320066	0.8115788	0.49043795
1368040169686926	0.8185601	0.94422394	0.45553133
1368040179686926	0.5497792	1.171117	0.5445432
1368040189686926	0.16231576	1.1519183	0.69464165
1368040199686926	-0.10995584	0.87092006	0.83950406
1368040209686926	-0.17104241	0.5096366	0.8848827
1368040219686926	-0.12566382	0.14835311	0.7470016
1368040229686926	-0.09250253	-0.21642101	0.45204067
1368040239686926	-0.12566382	-0.41189805	0.14137179
1368040249686926	-0.1588251	-0.43807802	-0.21467568
1368040259686926	-0.20245837	-0.6213378	-0.6073751
1368040269686926	-0.39968073	-0.7574735	-0.8883734
1368040279686926	-0.7836535	-0.82554144	-0.9634226
1368040283586926	-1.2234769	-0.9599319	-1.0314904
1368040299686926	-1.8011813	-1.0681424	-1.0262545
1368040303686926	-2.4242644	-1.1833342	-0.9826212
1368040319686926	-2.9164476	-1.3578674	-0.95120525
1368040329686926	-3.2148993	-1.3980099	-0.93375194
1368040339686926	-3.3370724	-1.0349811	-0.84997606
1368040343586926	-3.2882032	-0.46076733	-0.6998776
1368040353586926	-3.2114086	-0.0907572	-0.6091204
1368040369686926	-3.092726	0.4363327	-0.5113819
1368040373586926	-2.8431437	1.2426755	-0.42760605
1368040383586926	-2.6092694	2.0437822	-0.53581655
1368040399686926	-2.5237482	2.5254936	-0.6422817
1368040401586926	-2.563891	2.5569096	-0.6579897
1368040412686926	-2.7104986	2.310818	-0.6003938
1368040423786926	-2.8309264	1.7174054	-0.54803383
1368040433786926	-2.548183	1.3753207	-0.73827493
1368040443786926	-2.115341	1.1955515	-1.1972969
1368040453786926	-1.6790081	0.92327994	-1.762784
1368040463786926	-1.340414	0.038397275	-2.062981
1368040473786926	-1.3229607	-0.24958229	-2.1293035
1368040483786926	-1.5271645	-0.54279786	-2.0926516
1368040492786926	-1.7767467	-0.938988	-1.9128824
1368040503686926	-1.9390625	-1.2444208	-1.7331134
1368040513786926	-2.1083596	-1.6144309	-1.3840473
1368040523686926	-2.052509	-1.9652424	-1.1641356
1368040533786926	-1.9495344	-2.284638	-1.0018198
1368040543786926	-1.809908	-2.4207737	-0.84648544
1368040553686926	-1.567307	-2.368414	-0.7225669
1368040563786926	-1.2356942	-2.279402	-0.61610174
1368040573686926	-0.9162986	-2.2340233	-0.4764753
1368040583786926	-0.57944983	-2.2410047	-0.3735008
1368040593686926	-0.232129	-2.2933645	-0.28448892
1368040606686926	0.09599319	-2.3073273	-0.2391103
1368040619686926	0.464258	-2.2741659	-0.18500505
1368040623686926	0.87092006	-2.1694462	-0.20071304
1368040639686926	1.2915448	-2.005385	-0.24260098
1368040649686926	1.7121694	-1.8378333	-0.28972492
1368040659686926	2.148502	-1.6493375	-0.3228862
1368040669686926	2.6092694	-1.4573512	-0.3682648
1368040679686926	3.0333848	-1.2950354	-0.39968073
1368040689686926	3.1363595	-1.0070559	-0.3246315
1368040691586926	2.907721	-0.69115096	-0.17104241
1368040699586926	2.4609163	-0.2391103	0.006981323
1368040708586926	1.7139148	0.5218539	0.14137179
1368040716786926	0.7766722	1.0646517	0.1867504
1368040733786926	-1.1065397	-0.11519183	-0.3682648
1368040743786926	-1.3892833	-1.1746076	-0.7714362
1368040753786926	-1.3439047	-1.8168893	-0.92153466
1368040763786926	-1.1362103	-1.6912255	-0.85346675
1368040773786926	-0.7784175	-1.0437078	-0.61610174
1368040783786926	-0.34732082	-0.2094397	-0.459022
1368040793786926	-0.059341244	0.59341246	-0.21991168
1368040803786926	0.17278774	1.3840473	0.15707977
1368040813786926	0.41538873	2.342234	0.5235992
1368040823686926	0.469494	3.0909808	0.81332415
1368040833686926	0.23038366	2.6424308	0.83950406
1368040843786926	-0.09250253	1.8814665	0.6143564
1368040853786926	-0.080285214	1.5114565	0.41538873
1368040863786926	0.42935136	1.0088012	0.2670356
1368040873686926	0.79936147	0.74525625	0.31590486
1368040883786926	1.0576705	1.2391849	0.4660033
1368040893786926	1.4974937	1.9914224	0.45029533
1368040903786926	2.3282712	2.4504445	0.24260098
1368040913786926	3.1957006	2.5150216	0.16929708
1368040923786926	3.5709467	2.2392592	0.25307295
1368040933786926	3.4435375	1.8675039	0.40666208
1368040943786926	2.8553612	1.4329165	0.6021391
1368040953786926	2.0350556	1.3526313	0.81332415
1368040963786926	1.4800404	1.3596127	0.9651679
1368040972786926	1.3910286	1.2217315	0.8517214
1368040983686926	1.6458468	1.103049	0.35953814
1368040993786926	1.9512798	1.1588997	0.15184377
1368041003786926	2.036801	1.2007875	0.21991168
1368041013786926	1.9739691	1.2618741	0.42411536
1368041023786926	1.7610388	1.1850796	0.6387911
1368041033786926	1.6301389	0.9930932	0.8011068
1368041043786926	1.5707977	1.0855957	0.90059066
1368041053786926	1.551599	1.0524344	0.90059066
1368041063786926	1.624903	0.76270956	0.8587027
1368041073786926	1.7942001	0.44156867	0.7592189
1368041083786926	1.857032	0.56897783	0.75223756
1368041093786926	1.9390625	0.70511365	0.696387
1368041103786926	2.0176024	0.6213378	0.6353004
1368041113786926	1.9949131	0.49218327	0.6318097
1368041123786926	1.825616	0.4886926	0.67195237
1368041136686926	1.5393817	0.4939286	0.6928963
1368041143586926	1.2897995	0.5567605	0.7086043
1368041153686926	1.2199862	0.73129356	0.72780293
1368041169686926	1.2444208	0.8517214	0.7609642
1368041179686926	1.2234769	0.8552121	0.7976161
1368041189686926	1.1327196	0.7696909	0.80285215
1368041199686926	0.97214925	0.7260576	0.7435109
1368041209686926	0.76270956	0.70685893	0.6300644
1368041213586926	0.4886926	0.7731815	0.52883524
1368041229686926	0.20594902	0.8552121	0.5270899
1368041239686926	0.006981323	0.9058267	0.5742138
1368041249686926	-0.12391848	0.7871442	0.6003938
1368041259686926	-0.1867504	0.5619965	0.49567392
1368041269686926	-0.20071304	0.36477414	0.24783696
1368041273586926	-0.29321557	0.32114086	-0.006981323
1368041289686926	-0.39619008	0.21816635	-0.21293035
1368041293586926	-0.5777045	-0.099483855	-0.40666208
1368041308686926	-0.6527537	-0.43807802	-0.64402705
1368041319686926	-0.7679455	-0.49916458	-0.85346675
1368041329686926	-1.2252222	-0.4817113	-0.9145533
1368041339686926	-1.7784921	-0.6928963	-1.0279998
1368041349686926	-2.401575	-0.8412494	-1.0088012
1368041359686926	-3.0194223	-0.9564412	-0.92153466
1368041369686926	-3.377215	-1.0995584	-0.9145533
1368041379686926	-3.4208484	-0.9302613	-1.0000745
1368041383686926	-3.2882032	-0.4084074	-1.0384718
1368041399686926	-3.1433406	-0.1361358	-1.0314904
1368041408686926	-3.0037143	0.26529026	-0.9354973
1368041410686926	-2.775076	0.9494599	-0.79936147
1368041421686926	-2.5289843	1.7435855	-0.7609642
1368041433786926	-2.3404884	2.9007397	-0.85346675
1368041443786926	-2.3666685	3.4156122	-0.8237961
1368041452786926	-2.4661524	3.4260843	-0.7138403
1368041463686926	-2.579599	2.3893578	-0.6353004
1368041473786926	-2.4103017	1.3316873	-0.97389454
1368041483786926	-2.0280743	0.7504922	-1.4765499
1368041493786926	-1.6057043	0.25307295	-1.8011813
1368041503786926	-1.7156601	-0.453786	-1.9442985
1368041513686926	-2.0804343	-0.7871442	-1.9163731
1368041523786926	-2.2671847	-1.0524344	-1.82038
1368041533786926	-2.422519	-1.4590966	-1.6074497
1368041543786926	-2.5394561	-1.6667908	-1.3386687
1368041553786926	-2.5237482	-1.809908	-1.1065397
1368041563786926	-2.3649232	-2.115341	-0.9634226
1368041573786926	-2.206098	-2.2706754	-0.8621934
1368041583786926	-1.984441	-2.1624649	-0.7260576
1368041593786926	-1.7139148	-2.057745	-0.52534455
1368041603786926	-1.4241899	-2.1118503	-0.2443463
1368041615686926	-1.1850796	-2.122322	-0.108210504
1368041623786926	-0.67195237	-2.042037	0.036651947
1368041633786926	-0.232129	-1.9460437	0.087266535
1368041643786926	0.20071304	-1.8640132	0.13264513
1368041653786926	0.659735	-1.8291066	0.09424786
1368041666686926	1.0960677	-1.8483052	0.04886926
1368041679686926	1.5952322	-1.8081627	-0.019198637
1368041689686926	2.122322	-1.7540574	-0.1134465
1368041699686926	2.6563933	-1.6475922	-0.19373171
1368041709686926	3.124142	-1.4660778	-0.2600543
1368041719686926	3.3178737	-1.1257384	-0.2617996
1368041723586926	3.071782	-0.66671634	-0.14137179
1368041739686926	2.4661524	-0.029670622	0.02443463
1368041749686926	1.6004683	1.1170117	0.13788113
1368041759686926	0.39968073	1.804672	0.15009844
1368041769686926	-0.7766722	1.2618741	-0.22863832
1368041779686926	-1.3526313	0.07679455	-0.73129356
1368041789686926	-1.2950354	-0.938988	-0.94422394
1368041799686926	-1.1013037	-1.1257384	-0.9599319
1368041803686926	-0.78539884	-0.5619965	-0.6579897
1368041813686926	-0.37699145	0.41713405	-0.31590486
1368041823586926	-0.054105252	1.0943223	-0.019198637
1368041833586926	0.1867504	1.7645293	0.48694727
1368041849686926	0.39095408	2.5953069	1.0384718
1368041853586926	0.37699145	3.330091	1.4154632
1368041869686926	-0.07504922	2.8047466	1.5254191
1368041879686926	-0.67369765	1.5097111	1.329942
1368041889686926	-0.84997606	0.902336	0.9302613
1368041899686926	-0.12217315	0.9267706	0.5375619
1368041909686926	0.65624434	0.8848827	0.35081148
1368041920686926	1.3002714	1.3700846	0.3176502
1368041928686926	1.8919386	1.9076465	0.099483855
1368041930586926	2.480115	2.2933645	-0.2094397
1368041939786926	3.1730113	2.6825733	-0.4188794
1368041950686926	3.487171	2.644176	-0.3700101
1368041963786926	3.1381047	2.1938808	0.1588251
1368041973786926	2.4190285	1.7505667	0.5811951
1368041983786926	1.7156601	1.4782951	0.9826212
1368041993786926	1.2636194	1.1274836	1.1327196
1368042003786926	1.1885703	0.7976161	0.83950406
1368042013786926	1.5097111	0.5846858	0.37873676
1368042022786926	1.76802	0.5235992	0.2600543
1368042033686926	1.9093919	0.53232586	0.29147023
1368042043786926	1.9442985	0.9930932	0.4310967
1368042053786926	1.8465599	1.1728623	0.5811951
1368042063686926	1.7645293	1.2897995	0.65100837
1368042073686926	1.6894802	1.3962646	0.67195237
1368042083786926	1.6214123	1.3700846	0.69464165
1368042093786926	1.5899963	1.103049	0.74176556
1368042103686926	1.6737722	0.8988453	0.7086043
1368042113786926	1.8448147	0.8988453	0.68766034
1368042122586926	1.9722238	0.9477146	0.6824243
1368042133786926	2.042037	1.1152663	0.84299475
1368042143786926	1.9652424	1.0646517	1.0175278
1368042153686926	1.8465599	0.8220508	1.1257384
1368042163786926	1.7435855	0.44680467	1.1623902
1368042173786926	1.5865057	0.09424786	1.1152663
1368042183786926	1.4276806	0.07155856	1.0506891
1368042193786926	1.2950354	0.2949609	0.99832916
1368042203686926	1.1571543	0.4084074	0.938988
1368042219686926	0.9773852	0.53581655	0.88313735
1368042222686926	0.8045975	0.71209496	0.83950406
1368042230686926	0.68766034	0.8482307	0.7696909
1368042238586926	0.61610174	0.8447401	0.70162296
1368042246686926	0.5742138	0.83252275	0.57246846
1368042254686926	0.4782206	0.8063428	0.5201086
1368042263686926	0.30368754	0.7871442	0.56897783
1368042279686926	0.106465176	0.70162296	0.59341246
1368042289686926	-0.036651947	0.44331402	0.62657374
1368042293586926	-0.10471985	0.1535891	0.5393072
1368042309686926	-0.11868249	0.010471985	0.3857181
1368042313586926	-0.20071304	-0.13962646	0.1867504
1368042329686926	-0.20594902	-0.16929708	-0.04188794
1368042333586926	-0.3735008	-0.10995584	-0.27576226
1368042349686926	-0.4939286	-0.37699145	-0.5619965
1368042359686926	-0.5899218	-0.37175545	-0.7574735
1368042369686926	-1.1082851	-0.3054329	-0.72780293
1368042379686926	-1.9425532	-0.49218327	-0.6475177
1368042390686926	-2.6267228	-0.68766034	-0.675443
1368042398686926	-2.9949875	-0.86044806	-0.7801629
1368042407686926	-3.2794764	-0.9669132	-0.8342681
1368042409686926	-3.5395308	-0.7190763	-0.90059066
1368042418786926	-3.6215613	-0.0680679	-0.8482307
1368042433786926	-3.3108923	0.5951578	-0.664971
1368042443786926	-3.1154153	0.9250253	-0.5009099
1368042453786926	-2.912957	1.3020167	-0.3630288
1368042463786926	-2.8448892	1.5324004	-0.3246315
1368042473786926	-2.965317	1.6475922	-0.37873676
1368042483786926	-3.0997074	1.6336296	-0.49567392
1368042493786926	-3.0002236	1.5533444	-0.7504922
1368042503786926	-2.6511574	1.5952322	-1.0157825
1368042513786926	-2.3073273	1.387538	-1.2077689
1368042523786926	-1.9093919	1.3613579	-1.4643325
1368042533786926	-1.5481083	0.9058267	-1.8186346
1368042543786926	-1.5271645	-0.3071782	-1.9896771
1368042553786926	-1.6912255	-0.7714362	-1.9792051
1368042563786926	-1.7523121	-0.81332415	-2.010621
1368042573786926	-1.9128824	-1.1955515	-1.8500506
1368042583786926	-2.0594902	-1.6406109	-1.6336296
1368042593786926	-2.1083596	-2.0298197	-1.392774
1368042603786926	-2.052509	-2.3125632	-1.2060236
1368042613786926	-1.8081627	-2.1834087	-1.0559251
1368042623786926	-1.514947	-2.0088756	-0.8988453
1368042633786926	-1.2322035	-1.9006652	-0.6824243
1368042643786926	-0.928516	-1.8291066	-0.4310967
1368042653786926	-0.5811951	-1.6231576	-0.24783696
1368042663786926	-0.29321557	-1.5550897	-0.06283191
1368042673786926	0.010471985	-1.6144309	0.0680679
1368042682686926	0.21293035	-1.6528282	0.11170117
1368042693786926	0.5777045	-1.7191508	0.12391848
1368042703786926	0.928516	-1.7872187	0.087266535
1368042713786926	1.31947	-1.8797212	0.026179962
1368042723786926	1.7453308	-1.9355718	-0.055850584
1368042736686926	2.16421	-1.8954293	-0.12566382
1368042749686926	2.5761082	-1.7174054	-0.16057043
1368042759686926	2.8605971	-1.3840473	-0.14311711
1368042769686926	2.7715852	-0.9808759	-0.033161283
1368042779686926	2.2462406	-0.53232586	0.13439047
1368042787686926	1.5865057	0.059341244	0.24260098
1368042799686926	0.24609163	1.2444208	0.27401692
1368042809686926	-0.86393875	1.2636194	-0.006981323
1368042819686926	-1.4748045	0.0052359924	-0.38222742
1368042829686926	-1.6179216	-1.1990422	-0.6318097
1368042839686926	-1.556835	-1.4887671	-0.696387
1368042849686926	-1.3089981	-1.0105464	-0.5375619
1368042859686926	-0.8726654	-0.19722238	-0.3735008
1368042870686926	-0.3630288	0.6195924	-0.20071304
1368042878686926	-0.16929708	1.1571543	0.17976907
1368042887686926	0.087266535	2.0769436	0.51836324
1368042889586926	0.3682648	2.9461184	0.6632257
1368042898686926	0.5044006	3.0333848	0.6387911
1368042907786926	0.37175545	1.877976	0.5393072
1368042923786926	-0.30892354	0.5986484	0.34033948
1368042933686926	0.013962646	0.7260576	0.1867504
1368042943786926	0.55326986	0.907572	0.27052626
1368042953786926	1.0943223	1.3543767	0.4660033
1368042963786926	1.4503698	1.799436	0.6073751
1368042973686926	1.9373171	2.0176024	0.51312727
1368042983786926	2.6337042	1.8884479	0.36477414
1368042993786926	2.8640878	1.3037621	0.54279786
1368043003786926	2.5900707	0.71209496	0.7400202
1368043013786926	2.1868994	0.32114086	0.84997606
1368043023786926	1.9216092	0.12566382	0.80983347
1368043033786926	1.8919386	-0.034906615	0.5881765
1368043043786926	2.0298197	-0.14835311	0.24783696
1368043053786926	2.1677008	-0.026179962	-0.054105252
1368043063786926	2.2776566	0.54279786	-0.28623423
1368043073786926	2.3282712	1.1170117	-0.3176502
1368043083786926	2.2759113	1.392774	-0.11693716
1368043092786926	2.062981	1.3055074	0.12391848
1368043103786926	1.6772629	1.0157825	0.44855002
1368043113786926	1.4468791	0.8377588	0.6091204
1368043123786926	1.3997552	0.8342681	0.6318097
1368043133786926	1.5079658	0.92327994	0.5515245
1368043143786926	1.6493375	1.0576705	0.47298464
1368043153786926	1.7400948	1.2496568	0.4712393
1368043163786926	1.7453308	1.3439047	0.51312727
1368043173786926	1.6929709	1.2496568	0.55850583
1368043183786926	1.6458468	1.0541798	0.6353004
1368043193786926	1.6231576	0.8115788	0.75572824
1368043203786926	1.5393817	0.5218539	0.90059066
1368043213786926	1.4451338	0.35255682	1.0053105
1368043223686926	1.3823019	0.3351035	1.0524344
1368043233786926	1.335178	0.34732082	1.0524344
1368043243786926	1.3264514	0.35430214	1.0122918
1368043256686926	1.298526	0.3735008	0.9564412
1368043269686926	1.2095143	0.36128345	0.88662803
1368043273686926	1.1013037	0.33335817	0.7696909
1368043289686926	0.907572	0.34732082	0.65449905
1368043298686926	0.63704574	0.37699145	0.6108658
1368043309686926	0.17453307	0.3351035	0.62657374
1368043313686926	-0.043633267	0.25830895	0.649263
1368043329686926	-0.031415954	0.2600543	0.5567605
1368043339686926	0.06283191	0.37175545	0.34033948
1368043342586926	0.017453307	0.4136434	0.12740915
1368043356686926	-0.1134465	0.34906614	0.029670622
1368043366786926	-0.3071782	0.22340234	-0.0034906615
1368043366886926	-0.459022	0.06457724	-0.09773852
1368043383786926	-0.63704574	-0.04712393	-0.43807802
1368043393786926	-1.0192732	-0.17278774	-0.5201086
1368043403686926	-1.4416432	-0.41713405	-0.63704574
1368043413786926	-1.857032	-0.54803383	-0.7103496
1368043423786926	-2.375395	-0.51836324	-0.7365296
1368043433786926	-2.8675785	-0.453786	-0.7504922
1368043443786926	-3.1991913	-0.464258	-0.7592189
1368043453786926	-3.4068856	-0.35953814	-0.73129356
1368043463786926	-3.4068856	-0.13439047	-0.70685893
1368043473786926	-3.202682	0.04188794	-0.7033683
1368043483786926	-2.876305	0.14660779	-0.6824243
1368043493786926	-2.5987976	0.28972492	-0.66148037
1368043503686926	-2.464407	0.8988453	-0.61610174
1368043513786926	-2.4295003	1.6161762	-0.6353004
1368043523786926	-2.4242644	2.131049	-0.7155856
1368043533786926	-2.422519	2.1991167	-0.7470016
1368043543786926	-2.3143086	1.8483052	-0.7871442
1368043553786926	-2.021093	1.2374395	-1.0070559
1368043563786926	-1.6929709	0.41713405	-1.3631033
1368043573786926	-1.4905125	-0.06283191	-1.6720269
1368043583786926	-1.6772629	-0.9965839	-1.8535413
1368043593786926	-1.8535413	-0.90408134	-1.8587773
1368043602786926	-1.7715107	-0.98436654	-1.8465599
1368043613686926	-1.7505667	-1.2356942	-1.7767467
1368043623786926	-1.7976906	-1.7366041	-1.5585804
1368043633786926	-1.7558028	-1.9233545	-1.3980099
1368043643786926	-1.7523121	-2.1415207	-1.2007875
1368043653786926	-1.7016975	-2.211334	-0.9651679
1368043663786926	-1.6004683	-2.148502	-0.74176556
1368043673786926	-1.4276806	-2.021093	-0.5515245
1368043683786926	-1.2130048	-1.9495344	-0.4084074
1368043693786926	-0.92153466	-1.8325973	-0.29147023
1368043702786926	-0.7103496	-1.7174054	-0.2391103
1368043713786926	-0.39444476	-1.556835	-0.1867504
1368043723786926	-0.10471985	-1.4782951	-0.15009844
1368043733686926	0.19722238	-1.4730592	-0.11170117
1368043743786926	0.51312727	-1.5341457	-0.09424786
1368043753786926	0.8726654	-1.5899963	-0.12217315
1368043763786926	1.2740915	-1.624903	-0.17104241
1368043773786926	1.6894802	-1.6318842	-0.19722238
1368043783786926	2.122322	-1.562071	-0.19896771
1368043796686926	2.516767	-1.4276806	-0.17976907
1368043809686926	2.8431437	-1.1571543	-0.13788113
1368043813686926	2.8989944	-0.7592189	0.0453786
1368043828686926	2.5097857	-0.35255682	0.21991168
1368043830586926	1.8657585	0.15533444	0.29845157
1368043838786926	1.0053105	0.75223756	0.3351035
1368043853686926	-0.83601344	0.6928963	-0.20071304
1368043863686926	-1.31947	-0.4136434	-0.5846858
1368043873686926	-1.340414	-1.0297451	-0.82030547
1368043883786926	-1.1885703	-0.9267706	-0.8272868
1368043893786926	-0.92153466	-0.39269942	-0.6318097
1368043903786926	-0.6021391	0.30892354	-0.3752461
1368043913786926	-0.2775076	1.082105	-0.043633267
1368043923786926	-0.07330389	1.9355718	0.39619008
1368043933786926	0.012217315	2.6895547	0.6894056
1368043943786926	-0.22514766	2.6494122	0.7400202
1368043953686926	-0.41538873	1.7819827	0.55850583
1368043963786926	-0.23038366	1.0925771	0.34208483
1368043973786926	0.27576226	1.0297451	0.15707977
1368043983786926	0.86044806	0.7103496	0.13962646
1368043993786926	1.2042782	0.9564412	0.29147023
1368044003786926	1.4713138	1.6493375	0.38746342
1368044013786926	1.9250998	2.2200608	0.33684883
1368044023786926	2.4190285	2.2968552	0.33161286
1368044033786926	2.5813441	1.9233545	0.48694727
1368044043786926	2.2916193	1.2845634	0.6998776
1368044053786926	1.788964	0.43458736	0.7871442
1368044063786926	1.3439047	-0.25656363	0.7504922
1368044073786926	1.0925771	-0.5811951	0.6283191
1368044083786926	1.1205024	-0.53581655	0.41015273
1368044093686926	1.3439047	-0.46774864	0.25307295
1368044103786926	1.5707977	-0.0034906615	0.18500505
1368044113786926	1.7331134	0.64402705	0.15184377
1368044123686926	1.7750014	0.912808	0.20071304
1368044133686926	1.804672	0.93375194	0.22863832
1368044143786926	1.7156601	0.8115788	0.31415954
1368044153786926	1.609195	0.7435109	0.3630288
1368044163786926	1.609195	0.7504922	0.34557548
1368044173786926	1.6999521	0.9250253	0.3106689
1368044183786926	1.7331134	1.0349811	0.28623423
1368044193686926	1.7453308	0.97913057	0.23038366
1368044203686926	1.7942001	0.9250253	0.25132763
1368044212686926	1.8430693	1.0524344	0.36477414
1368044223786926	1.841324	1.1885703	0.63704574
1368044233786926	1.7453308	1.1274836	0.8674294
1368044243786926	1.7208961	1.0192732	0.95120525
1368044253786926	1.7400948	0.7801629	0.94073325
1368044263786926	1.7750014	0.5044006	0.8587027
1368044273786926	1.7505667	0.2949609	0.9372426
1368044283786926	1.5952322	0.13439047	0.9861119
1368044293786926	1.5289097	0.19896771	0.99134785
1368044302586926	1.5236738	0.3071782	0.87615603
1368044319686926	1.4782951	0.45553133	0.74176556
1368044329686926	1.2828181	0.5497792	0.68766034
1368044339686926	0.9878572	0.63704574	0.65100837
1368044343586926	0.74176556	0.76445484	0.5637418
1368044359686926	0.50789124	0.77492684	0.5201086
1368044369686926	0.27925292	0.6143564	0.5375619
1368044379686926	0.099483855	0.39968073	0.5619965
1368044383686926	-0.06283191	0.17104241	0.5445432
1368044399686926	-0.120427825	0.07679455	0.3857181
1368044403586926	-0.16755176	0.14660779	0.18500505
1368044417686926	-0.26878095	0.04712393	0.080285214
1368044423586926	-0.38746342	-0.11519183	-0.09599319
1368044439686926	-0.39269942	-0.13962646	-0.35081148
1368044449686926	-0.47298464	-0.031415954	-0.5445432
1368044459686926	-0.81332415	-0.04886926	-0.57944983
1368044463586926	-1.2548928	-0.40142608	-0.59341246
1368044473586926	-1.7540574	-0.70162296	-0.66671634
1368044483586926	-2.2567127	-0.8272868	-0.685915
1368044499686926	-2.738424	-0.86568403	-0.6003938
1368044509686926	-3.1171608	-0.9459693	-0.57944983
1368044519686926	-3.3475444	-0.90408134	-0.62657374
1368044529686926	-3.4208484	-0.675443	-0.6998776
1368044539686926	-3.3335817	-0.39793542	-0.73827493
1368044549686926	-2.965317	0.13962646	-0.68766034
1368044559686926	-2.5359657	0.649263	-0.6387911
1368044569686926	-2.3125632	1.1082851	-0.6283191
1368044579686926	-2.3090725	1.5812696	-0.66671634
1368044583586926	-2.3561964	2.0088756	-0.6684617
1368044593586926	-2.4033206	2.2305326	-0.6527537
1368044603586926	-2.2828927	2.0594902	-0.73129356
1368044619686926	-1.799436	1.6144309	-1.0908318
1368044629686926	-1.3421594	0.87615603	-1.4678231
1368044639686926	-1.1658809	0.029670622	-1.7942001
1368044649686926	-1.3526313	-0.26878095	-1.8448147
1368044659686926	-1.5655617	-0.7714362	-1.9076465
1368044661686926	-1.6388656	-1.0890864	-1.9460437
1368044670786926	-1.6528282	-1.097813	-1.9268452
1368044683786926	-1.7907094	-1.583015	-1.7610388
1368044693786926	-1.9303358	-2.0123663	-1.5550897
1368044703786926	-2.0280743	-2.284638	-1.3596127
1368044713786926	-1.9739691	-2.5028043	-1.2199862
1368044723686926	-1.7715107	-2.5185122	-1.0803597
1368044733786926	-1.5009844	-2.3282712	-0.9424786
1368044743686926	-1.2112595	-2.0751982	-0.81506944
1368044753786926	-0.92327994	-1.9425532	-0.659735
1368044763686926	-0.6422817	-1.8640132	-0.5270899
1368044773786926	-0.38397276	-1.862268	-0.38920876
1368044781586926	-0.19547704	-1.8517959	-0.2949609
1368044793786926	0.14486246	-1.7558028	-0.2042037
1368044803786926	0.45029533	-1.6859895	-0.19198638
1368044813786926	0.81332415	-1.6528282	-0.19373171
1368044822586926	1.0716331	-1.6318842	-0.17627841
1368044833686926	1.5236738	-1.6615549	-0.12566382
1368044843786926	1.9111372	-1.6859895	-0.0680679
1368044853786926	2.300346	-1.7034428	-0.008726654
1368044863586926	2.6110148	-1.624903	0.08377588
1368044879686926	2.759368	-1.3648486	0.2443463
1368044883686926	2.5097857	-0.9930932	0.42935136
1368044899686926	1.8762306	-0.36651945	0.5445432
1368044909686926	0.9965839	0.459022	0.5742138
1368044919686926	-0.080285214	0.6928963	0.3682648
1368044929686926	-0.90059066	0.026179962	-0.20245837
1368044939686926	-1.2095143	-0.75223756	-0.6998776
1368044943586926	-1.2810727	-1.2339488	-0.9145533
1368044959686926	-1.2095143	-0.9930932	-0.8883734
1368044969686926	-0.99832916	-0.28623423	-0.7033683
1368044973586926	-0.65100837	0.70685893	-0.4310967
1368044989686926	-0.1588251	1.6685362	-0.036651947
1368044999686926	0.13264513	2.3177993	0.4310967
1368045003586926	-0.057595916	2.5499282	0.696387
1368045019686926	-0.39095408	2.808237	0.58643115
1368045029686926	-0.4782206	2.459171	0.23736498
1368045039686926	-0.17453307	1.6353749	0.06283191
1368045049686926	0.44505933	0.44331402	0.06981323
1368045053586926	0.8848827	-0.12915447	0.35953814
1368045069686926	1.0838504	0.3071782	0.59341246
1368045079686926	1.4957484	1.2374395	0.63355505
1368045083586926	2.342234	2.0176024	0.56897783
1368045099686926	2.9356463	2.3666685	0.6824243
1368045103586926	2.9775343	2.1345396	0.83950406
1368045119686926	2.6529028	1.4329165	0.92153466
1368045128686926	2.115341	0.76270956	0.938988
1368045130686926	1.5201831	-0.08901187	0.92153466
1368045139786926	1.0279998	-0.93375194	0.7714362
1368045150686926	0.91106266	-0.9599319	0.5567605
1368045163686926	1.4189539	0.07155856	-0.055850584
1368045173786926	1.7086788	0.4258607	-0.027925292
1368045183786926	1.8186346	0.7504922	0.16580643
1368045193786926	1.8500506	0.9826212	0.33161286
1368045203786926	1.8884479	1.2671101	0.41713405
1368045213786926	1.9390625	1.5097111	0.46076733
1368045223786926	1.8395786	1.6493375	0.59341246
1368045233786926	1.6999521	1.4538605	0.71209496
1368045243686926	1.6214123	1.2007875	0.72431225
1368045252786926	1.567307	0.83601344	0.71209496
1368045263786926	1.535891	0.5410525	0.63704574
1368045273786926	1.6057043	0.6684617	0.6073751
1368045283686926	1.7348588	0.9145533	0.64053637
1368045293786926	1.8395786	0.95818657	0.73129356
1368045303786926	1.809908	0.7539829	0.83950406
1368045313786926	1.6737722	0.46076733	0.9494599
1368045323786926	1.5393817	0.23038366	1.0506891
1368045335686926	1.5166924	0.10471985	1.1117756
1368045343786926	1.5795243	-0.0226893	1.1484276
1368045353686926	1.6214123	-0.0017453308	1.1082851
1368045363786926	1.5638163	0.17453307	0.98960257
1368045373786926	1.3596127	0.40142608	0.83252275
1368045383786926	1.1431917	0.54628855	0.6126111
1368045396686926	0.93375194	0.6248284	0.40666208
1368045409686926	0.6195924	0.7103496	0.3176502
1368045413586926	0.20769437	0.6632257	0.42760605
1368045423586926	-0.16231576	0.3577928	0.60562974
1368045438686926	-0.34557548	0.120427825	0.675443
1368045446686926	-0.39269942	-0.017453307	0.659735
1368045454686926	-0.40666208	-0.078539886	0.53581655
1368045456686926	-0.41713405	-0.05061459	0.35081148
1368045465786926	-0.49741927	-0.013962646	0.12391848
1368045476686926	-0.5951578	-0.04712393	-0.11170117
1368045489686926	-0.56548715	-0.17453307	-0.49567392
1368045493586926	-0.6126111	-0.26529026	-0.7365296
1368045509686926	-0.95818657	-0.4886926	-0.7941255
1368045513686926	-1.4643325	-0.7609642	-0.87092006
1368045529686926	-2.073453	-0.8744107	-0.9197893
1368045539686926	-2.785548	-0.9564412	-0.83950406
1368045543586926	-3.3737245	-1.0524344	-0.7400202
1368045559686926	-3.740244	-0.9808759	-0.7400202
1368045563586926	-3.7262812	-0.5637418	-0.77492684
1368045579686926	-3.3999043	0.012217315	-0.7801629
1368045589686926	-3.103198	0.42760605	-0.76445484
1368045599686926	-2.8152184	0.7784175	-0.675443
1368045609686926	-2.5586548	1.340414	-0.6894056
1368045619686926	-2.3125632	2.026329	-0.8674294
1368045629686926	-2.247986	2.4207737	-1.0751238
1368045638686926	-2.359687	2.6476667	-1.1047944
1368045640686926	-2.4242644	2.7977653	-1.0576705
1368045648786926	-2.32129	2.6494122	-1.0524344
1368045659686926	-2.1083596	2.4103017	-1.171117
1368045673786926	-1.2095143	1.0838504	-1.7488214
1368045683786926	-1.0873411	-0.14835311	-2.0036397
1368045693786926	-1.408482	-0.80285215	-2.0856702
1368045703786926	-1.7313681	-1.0733784	-2.0751982
1368045713786926	-1.9128824	-1.5411271	-1.9949131
1368045722786926	-2.0123663	-1.8936839	-1.815144
1368045733686926	-2.0909061	-2.211334	-1.5027298
1368045742686926	-2.1432662	-2.3300166	-1.2706008
1368045753686926	-2.0751982	-2.6162508	-1.0140371
1368045763786926	-1.9163731	-2.5918162	-0.8447401
1368045773686926	-1.6580642	-2.3928485	-0.7103496
1368045783786926	-1.3247061	-2.1432662	-0.5899218
1368045793786926	-0.928516	-1.9495344	-0.50789124
1368045803786926	-0.54628855	-1.8325973	-0.45029533
1368045813786926	-0.21642101	-1.8168893	-0.3804821
1368045823786926	0.07330389	-1.8116534	-0.3124142
1368045833786926	0.37175545	-1.7784921	-0.2617996
1368045843786926	0.6894056	-1.7575481	-0.22514766
1368045853786926	1.0437078	-1.7051882	-0.20071304
1368045863786926	1.4503698	-1.6406109	-0.17627841
1368045873786926	1.8867025	-1.5603257	-0.13788113
1368045883786926	2.326526	-1.4730592	-0.080285214
1368045893786926	2.7611132	-1.4556059	-0.019198637
1368045903786926	3.134614	-1.3788112	0.09773852
1368045913786926	3.2375886	-1.0873411	0.22514766
1368045923786926	2.8361626	-0.36128345	0.3804821
1368045933586926	2.083925	0.66148037	0.4764753
1368045949686926	0.8744107	1.6144309	0.3804821
1368045959686926	-0.38222742	1.551599	-0.11868249
1368045963686926	-1.2130048	0.20769437	-0.7731815
1368045973586926	-1.4556059	-1.1449369	-1.1065397
1368045983586926	-1.3683393	-1.5795243	-1.118757
1368045993586926	-1.0873411	-1.2793274	-0.85346675
1368046003586926	-0.69464165	-0.2775076	-0.6283191
1368046019686926	-0.27401692	1.0210185	-0.40142608
1368046029686926	0.10471985	2.206098	0.059341244
1368046039686926	0.24958229	3.0141861	0.5113819
1368046049686926	0.006981323	3.2323525	0.7225669
1368046059686926	-0.24085565	2.5254936	0.5201086
1368046069686926	-0.21991168	1.4940032	0.19547704
1368046079686926	0.09424786	0.7260576	-0.006981323
1368046089686926	0.43982336	-0.17802374	-0.031415954
1368046099686926	0.51312727	-0.32637686	0.08377588
1368046109686926	0.52883524	0.33161286	0.27401692
1368046119686926	0.99832916	1.2130048	0.28274357
1368046129686926	1.9949131	1.6510829	0.23387432
1368046139686926	2.8797958	1.8011813	0.3246315
1368046149686926	3.2323525	1.8186346	0.5201086
1368046159686926	2.9321556	1.7383494	0.7976161
1368046163586926	2.0926516	1.356122	1.0576705
1368046173586926	1.2147502	1.0402172	1.1798435
1368046183586926	0.9965839	0.3630288	0.9058267
1368046199786926	1.160645	-0.3071782	0.49741927
1368046199886926	1.3334327	-0.5515245	0.26354495
1368046207586926	1.408482	-0.226893	0.22340234
1368046223686926	1.562071	0.64402705	0.31939554
1368046233786926	1.7261322	0.7801629	0.459022
1368046243786926	1.7959453	0.8988453	0.5846858
1368046253686926	1.7418401	1.0070559	0.6457724
1368046263786926	1.577779	1.0960677	0.78190815
1368046273786926	1.4433886	1.0786144	0.84648544
1368046283786926	1.4015006	0.8569574	0.83077747
1368046293786926	1.4835311	0.59341246	0.7662002
1368046302786926	1.5760337	0.5061459	0.72780293
1368046313786926	1.7069335	0.57246846	0.70685893
1368046323786926	1.7418401	0.72431225	0.7836535
1368046333786926	1.7505667	0.8272868	0.9058267
1368046343786926	1.7418401	0.8220508	1.0297451
1368046353786926	1.6650455	0.59341246	1.1170117
1368046363786926	1.546363	0.26354495	1.134465
1368046373786926	1.4433886	0.07679455	1.1170117
1368046383686926	1.4119725	0.015707977	1.1257384
1368046393786926	1.4067366	-0.026179962	1.0908318
1368046405686926	1.3892833	0.012217315	1.0279998
1368046413786926	1.3072528	0.14486246	0.8587027
1368046423786926	1.1571543	0.2775076	0.6789337
1368046433786926	0.95120525	0.39095408	0.5305805
1368046443786926	0.6824243	0.47472996	0.464258
1368046453686926	0.3577928	0.43458736	0.5061459
1368046463686926	0.06981323	0.232129	0.6195924
1368046479686926	-0.054105252	0.061086576	0.664971
1368046483586926	-0.0680679	0.07679455	0.5916671
1368046499686926	-0.16580643	0.11693716	0.42411536
1368046509686926	-0.34383017	0.017453307	0.2094397
1368046519686926	-0.48694727	-0.1134465	-0.0680679
1368046529686926	-0.42935136	-0.14311711	-0.42760605
1368046539686926	-0.44505933	-0.12740915	-0.64402705
1368046549686926	-0.82030547	-0.33335817	-0.67369765
1368046559686926	-1.3264514	-0.659735	-0.7033683
1368046563586926	-1.9163731	-0.85346675	-0.73827493
1368046573586926	-2.5289843	-0.9145533	-0.7033683
1368046583586926	-3.0438569	-0.9756399	-0.6894056
1368046599686926	-3.3946683	-0.95469594	-0.75572824
1368046608686926	-3.5569842	-0.7435109	-0.8185601
1368046616686926	-3.5709467	-0.46076733	-0.8517214
1368046618686926	-3.440047	-0.21816635	-0.87092006
1368046629686926	-3.2009366	0.1535891	-0.81506944
1368046643786926	-2.5865803	1.0768691	-0.65449905
1368046653786926	-2.3893578	1.567307	-0.76270956
1368046663686926	-2.3317618	1.8971745	-0.83252275
1368046672786926	-2.4539351	2.16421	-0.8185601
1368046680786926	-2.6022882	2.3544512	-0.7330389
1368046693686926	-2.5115309	2.4626617	-0.69115096
1368046703786926	-2.148502	2.2759113	-0.8482307
1368046713686926	-1.7366041	1.7854733	-1.1780982
1368046723786926	-1.1955515	0.4136434	-1.5795243
1368046733786926	-1.335178	-0.8482307	-1.841324
1368046743786926	-1.7418401	-1.2479115	-1.9198638
1368046753786926	-2.0071304	-1.4922578	-1.9059012
1368046763786926	-2.0699623	-1.6877348	-1.825616
1368046773786926	-2.1659555	-1.8465599	-1.6022136
1368046783786926	-2.2567127	-2.052509	-1.340414
1368046793786926	-2.227042	-2.2008622	-1.129229
1368046803686926	-2.0856702	-2.4382272	-0.9372426
1368046812786926	-1.9303358	-2.4452083	-0.8482307
1368046823786926	-1.5847603	-2.211334	-0.7470016
1368046833686926	-1.2147502	-1.9600065	-0.664971
1368046843786926	-0.81506944	-1.7418401	-0.5881765
1368046853786926	-0.44156867	-1.609195	-0.5218539
1368046863786926	-0.12915447	-1.6074497	-0.4310967
1368046873686926	0.17278774	-1.5865057	-0.35430214
1368046883686926	0.47298464	-1.551599	-0.3106689
1368046893686926	0.7976161	-1.5498537	-0.3106689
1368046903786926	1.150173	-1.5812696	-0.3351035
1368046913786926	1.5062205	-1.603959	-0.3298675
1368046923786926	1.8797212	-1.5324004	-0.29147023
1368046933786926	2.2602034	-1.4276806	-0.23387432
1368046943786926	2.6162508	-1.2758368	-0.15184377
1368046953786926	2.839653	-0.96167725	-0.015707977
1368046963786926	2.7715852	-0.48520195	0.13962646
1368046973786926	2.3020914	0.17104241	0.25132763
1368046986686926	1.5585804	0.8080881	0.29670623
1368046999686926	0.47996596	1.097813	0.20769437
1368047003586926	-0.6021391	0.44156867	-0.1308998
1368047013686926	-1.1955515	-0.6527537	-0.5550152
1368047023686926	-1.2740915	-1.2618741	-0.9459693
1368047039686926	-1.1798435	-1.1833342	-1.0419625
1368047049686926	-0.9058267	-0.6387911	-0.8447401
1368047059686926	-0.49043795	0.26878095	-0.5235992
1368047069686926	0.04886926	1.2479115	-0.2670356
1368047079686926	0.43284202	1.799436	0.1134465
1368047089686926	0.7609642	2.432991	0.51836324
1368047099686926	0.9320066	2.912957	0.73478425
1368047109686926	0.6353004	2.4661524	0.64053637
1368047119686926	0.0017453308	1.8587773	0.1134465
1368047129686926	-0.33161286	1.4800404	-0.12217315
1368047139686926	0.036651947	0.45727664	-0.26529026
1368047150686926	0.47298464	-0.4886926	-0.11693716
1368047158686926	0.5096366	-0.4817113	0.23736498
1368047160686926	0.44855002	0.080285214	0.53232586
1368047168586926	0.7155856	0.84997606	0.7138403
1368047183786926	2.5045497	1.5952322	0.459022
1368047193786926	3.330091	1.7558028	0.45204067
1368047203686926	3.3911777	1.9774598	0.67195237
1368047213686926	2.8291812	1.8517959	1.0768691
1368047223786926	1.8291066	1.4556059	1.4398979
1368047233786926	0.99134785	0.8168148	1.4905125
1368047243786926	0.7976161	0.019198637	1.0768691
1368047253786926	0.9808759	-0.7662002	0.5270899
1368047263786926	1.1903156	-0.670207	0.3071782
1368047273786926	1.366594	-0.1134465	0.2775076
1368047283786926	1.6388656	0.31939554	0.32114086
1368047293786926	1.984441	0.6894056	0.3630288
1368047303786926	2.2026074	1.2025329	0.38920876
1368047313786926	2.146757	1.593487	0.49916458
1368047323786926	1.8954293	1.6196669	0.66148037
1368047333786926	1.6336296	1.2374395	0.7574735
1368047343786926	1.5254191	0.65100837	0.7731815
1368047353786926	1.5184377	0.17453307	0.7400202
1368047363786926	1.6144309	0.18325973	0.7260576
1368047373786926	1.7453308	0.5899218	0.8011068
1368047383786926	1.9111372	0.84648544	0.8779014
1368047393786926	1.8919386	0.78190815	0.9529506
1368047403686926	1.7366041	0.5672325	0.99483854
1368047413786926	1.4800404	0.33335817	1.0000745
1368047422786926	1.3212154	0.226893	0.97913057
1368047433686926	1.2479115	0.22340234	0.9651679
1368047443686926	1.2583835	0.22514766	0.95469594
1368047453686926	1.2618741	0.23387432	0.9197893
1368047463686926	1.2199862	0.34208483	0.8569574
1368047473786926	1.1362103	0.464258	0.73827493
1368047483686926	1.0000745	0.51312727	0.58643115
1368047493786926	0.7888895	0.49043795	0.4310967
1368047503586926	0.48694727	0.43982336	0.3857181
1368047519686926	0.108210504	0.27401692	0.49567392
1368047529686926	-0.22340234	-0.017453307	0.6579897
1368047539686926	-0.33859417	-0.17627841	0.685915
1368047549686926	-0.34383017	-0.2094397	0.56897783
1368047559686926	-0.44505933	-0.32812217	0.33859417
1368047569686926	-0.57944983	-0.50789124	0.0226893
1368047579686926	-0.5707232	-0.6283191	-0.39444476
1368047589686926	-0.50265527	-0.649263	-0.7731815
1368047593686926	-0.73478425	-0.8011068	-0.9302613
1368047609686926	-1.1693716	-0.9773852	-1.0192732
1368047613586926	-1.6336296	-1.103049	-1.1274836
1368047629686926	-2.2619486	-1.1117756	-1.0314904
1368047638686926	-2.8780503	-1.1309743	-0.86568403
1368047639586926	-3.3231099	-1.2618741	-0.8063428
1368047648686926	-3.551748	-1.2514021	-0.8045975
1368047656786926	-3.4976428	-0.87092006	-0.80285215
1368047673786926	-3.118906	-0.20594902	-0.7696909
1368047683786926	-2.8885224	0.24609163	-0.6579897
1368047693786926	-2.6895547	0.86393875	-0.6283191
1368047703786926	-2.5289843	1.4940032	-0.7836535
1368047713786926	-2.4417176	2.0228384	-0.8953547
1368047723786926	-2.5394561	2.3457246	-0.79587084
1368047733686926	-2.628468	2.6371949	-0.6248284
1368047743786926	-2.4417176	2.6040335	-0.6108658
1368047753786926	-2.131049	2.1031237	-0.94073325
1368047763786926	-1.788964	1.4189539	-1.2514021
1368047773786926	-1.6022136	0.49741927	-1.4416432
1368047783686926	-1.6545736	-0.7208216	-1.6126856
1368047793686926	-1.8552866	-1.1117756	-1.7488214
1368047803786926	-1.9268452	-1.2147502	-1.815144
1368047813786926	-1.9826957	-1.5812696	-1.7523121
1368047823786926	-2.0961423	-1.7313681	-1.5446178
1368047832686926	-2.1188316	-1.8727399	-1.3840473
1368047843786926	-2.115341	-2.1188316	-1.0803597
1368047853686926	-2.0455277	-2.2898738	-0.83601344
1368047863786926	-1.8675039	-2.2026074	-0.6824243
1368047873686926	-1.6126856	-1.9250998	-0.5340712
1368047883786926	-1.2915448	-1.6318842	-0.43284202
1368047893686926	-0.92153466	-1.4276806	-0.35081148
1368047903786926	-0.5742138	-1.4137179	-0.28099826
1368047913786926	-0.2548183	-1.4922578	-0.18500505
1368047923786926	0.07155856	-1.4678231	-0.12740915
1368047933686926	0.4258607	-1.4364072	-0.14311711
1368047943786926	0.8045975	-1.5166924	-0.12915447
1368047953786926	1.2077689	-1.6702815	-0.11693716
1368047963786926	1.6545736	-1.7418401	-0.120427825
1368047973686926	2.1083596	-1.7348588	-0.12915447
1368047983786926	2.5464375	-1.7051882	-0.10297451
1368047993786926	2.8885224	-1.6057043	-0.043633267
1368048003686926	2.9530997	-1.3578674	0.054105252
1368048013686926	2.5778534	-0.8342681	0.16231576
1368048023786926	1.8954293	0.16755176	0.21118502
1368048036686926	0.94073325	1.2199862	0.19896771
1368048043686926	-0.15009844	1.4067366	-0.033161283
1368048059686926	-0.9826212	0.4712393	-0.45029533
1368048069686926	-1.314234	-0.5061459	-0.675443
1368048079686926	-1.2915448	-0.8080881	-0.7400202
1368048089686926	-1.082105	-0.34557548	-0.59690315
1368048100686926	-0.7731815	0.30368754	-0.2775076
1368048108686926	-0.49916458	0.91106266	0.11519183
1368048110586926	-0.39095408	1.5550897	0.5777045
1368048118586926	-0.5393072	2.1345396	0.938988
1368048127686926	-1.0768691	2.406811	0.95818657
1368048136786926	-1.4364072	2.5359657	0.5567605
1368048153786926	0.087266535	2.211334	0.08377588
1368048163786926	0.9459693	1.2095143	0.120427825
1368048173786926	1.3107435	0.58643115	0.45029533
1368048183786926	1.4102273	0.96865857	0.64053637
1368048193786926	2.106614	1.7016975	0.453786
1368048203686926	3.1782472	2.4504445	0.2391103
1368048213786926	3.7384984	2.6511574	0.4363327
1368048223786926	3.4156122	2.1921353	0.8726654
1368048233786926	2.359687	1.2304581	1.0629064
1368048243786926	1.392774	-0.06457724	1.0646517
1368048253786926	0.8115788	-1.150173	0.9267706
1368048263786926	0.5393072	-0.7714362	0.81506944
1368048273786926	0.79587084	-0.1308998	0.5166179
1368048283686926	1.5027298	-0.31590486	0.17104241
1368048293786926	1.9181185	-0.2722716	0.108210504
1368048303786926	2.036801	0.16057043	0.19373171
1368048313786926	2.0559995	0.61610174	0.3054329
1368048323786926	2.062981	1.1082851	0.2949609
1368048333786926	2.0490184	1.4748045	0.32812217
1368048343786926	1.9931678	1.6231576	0.41189805
1368048353786926	1.9425532	1.5533444	0.44680467
1368048363686926	1.857032	1.2496568	0.5113819
1368048373786926	1.7767467	0.92153466	0.53232586
1368048383786926	1.7296227	0.7592189	0.56548715
1368048393786926	1.6842442	0.7731815	0.6894056
1368048403686926	1.7261322	0.83252275	0.8290321
1368048413686926	1.7592934	0.7871442	0.97913057
1368048423686926	1.7453308	0.63704574	1.0768691
1368048433786926	1.6545736	0.3351035	1.0768691
1368048442686926	1.546363	0.066322565	1.0855957
1368048453686926	1.392774	-0.13788113	1.1152663
1368048463786926	1.3089981	-0.06283191	1.113521
1368048473786926	1.2322035	0.23038366	1.0803597
1368048483786926	1.0646517	0.51836324	1.0105464
1368048493786926	0.71209496	0.41713405	1.0035652
1368048503686926	0.63704574	0.23561965	0.55850583
1368048513786926	0.7260576	0.30368754	0.53232586
1368048523686926	0.47298464	0.27052626	0.54803383
1368048533686926	0.12566382	0.3124142	0.6108658
1368048545686926	-0.07330389	0.33161286	0.6684617
1368048559686926	-0.31415954	0.2094397	0.67718834
1368048567686926	-0.37873676	0.066322565	0.5672325
1368048580686926	-0.35604748	-0.057595916	0.26878095
1368048588686926	-0.36128345	-0.06283191	0.0017453308
1368048590586926	-0.39619008	-0.120427825	-0.2617996
1368048598586926	-0.3752461	-0.22514766	-0.5672325
1368048606686926	-0.35604748	-0.33161286	-0.80285215
1368048617686926	-0.50789124	-0.45204067	-0.89360934
1368048629686926	-0.86044806	-0.63704574	-0.9354973
1368048639686926	-1.4608419	-0.8011068	-0.95818657
1368048643586926	-2.1537383	-0.84997606	-0.94422394
1368048659686926	-2.8361626	-0.89360934	-0.8517214
1368048663686926	-3.3475444	-0.9878572	-0.7662002
1368048679686926	-3.4906616	-0.8272868	-0.74525625
1368048683686926	-3.2969298	-0.13264513	-0.7138403
1368048699686926	-3.1154153	0.4206247	-0.67369765
1368048709686926	-3.0141861	0.68766034	-0.5916671
1368048713586926	-2.748896	0.912808	-0.5201086
1368048723686926	-2.5237482	1.1571543	-0.5044006
1368048739686926	-2.4452083	1.4468791	-0.58294046
1368048749686926	-2.4539351	1.9146278	-0.6632257
1368048753686926	-2.4364817	2.3998299	-0.7138403
1368048769686926	-2.2549672	2.5150216	-0.7888895
1368048779686926	-1.9338264	2.0804343	-1.1047944
1368048789686926	-1.5533444	1.2060236	-1.5097111
1368048799686926	-1.350886	0.12915447	-1.7610388
1368048809686926	-1.5533444	-0.9459693	-1.9250998
1368048819686926	-1.7505667	-1.0088012	-1.9617518
1368048829686926	-1.7662747	-0.8517214	-1.9303358
1368048839686926	-1.6824988	-0.8482307	-1.8657585
1368048842586926	-1.567307	-1.1431917	-1.8517959
1368048850586926	-1.5899963	-1.5044751	-1.6982068
1368048859786926	-1.7697654	-2.0559995	-1.4241899
1368048870686926	-1.9198638	-2.417283	-1.1728623
1368048883786926	-1.8483052	-2.3038366	-0.8045975
1368048893786926	-1.5411271	-1.8291066	-0.69464165
1368048903786926	-1.2583835	-1.5969776	-0.52534455
1368048913786926	-0.95469594	-1.5236738	-0.36477414
1368048923686926	-0.6457724	-1.4416432	-0.20769437
1368048933786926	-0.31415954	-1.2810727	-0.106465176
1368048943786926	0.010471985	-1.2234769	-0.027925292
1368048953786926	0.28099826	-1.3107435	0.08377588
1368048963686926	0.54803383	-1.4172086	0.15533444
1368048973686926	0.86568403	-1.514947	0.16929708
1368048983786926	1.2269676	-1.6004683	0.13788113
1368048993686926	1.6423563	-1.6353749	0.09599319
1368049003786926	2.0699623	-1.6336296	0.08203054
1368049013786926	2.4469538	-1.562071	0.080285214
1368049023786926	2.74366	-1.34565	0.10471985
1368049033786926	2.7663493	-0.95818657	0.15707977
1368049043786926	2.391103	-0.51836324	0.30368754
1368049052586926	1.825616	0.13962646	0.37175545
1368049069686926	0.76270956	1.103049	0.3804821
1368049079686926	-0.32637686	1.0663971	0.1867504
1368049089686926	-1.0018198	0.17627841	-0.27925292
1368049099686926	-1.1833342	-0.65100837	-0.6318097
1368049109686926	-1.1780982	-0.96167725	-0.81332415
1368049119686926	-1.1082851	-0.67195237	-0.7766722
1368049129686926	-0.9424786	-0.027925292	-0.6073751
1368049139686926	-0.8011068	0.7033683	-0.17278774
1368049149686926	-0.8552121	1.6755176	0.3752461
1368049159686926	-1.2566382	2.3143086	0.62657374
1368049169686926	-1.7662747	2.6371949	0.3176502
1368049179686926	-1.2514021	2.516767	0.061086576
1368049189686926	-0.078539886	1.8587773	0.14311711
1368049199686926	0.8779014	0.84997606	0.41713405
1368049209686926	1.171117	0.30892354	0.8482307
1368049213586926	1.155409	0.649263	1.134465
1368049229686926	1.7802373	1.9774598	1.0035652
1368049239686926	2.7960198	3.2777312	0.670207
1368049243586926	3.2951844	3.5849094	0.659735
1368049258686926	3.1363595	2.5534189	1.160645
1368049263686926	2.148502	0.34383017	1.2880541
1368049273586926	1.4015006	-0.9773852	0.938988
1368049289686926	1.0506891	-1.392774	0.55326986
1368049299686926	1.1309743	-1.3788112	0.23736498
1368049309686926	1.4852765	-1.2601289	0.11170117
1368049319686926	1.8849572	-0.8796467	0.07504922
1368049329686926	2.0961423	-0.28448892	0.16231576
1368049339686926	2.0612357	0.14486246	0.3804821
1368049349686926	1.9181185	0.33859417	0.5619965
1368049359686926	1.8605226	0.45553133	0.5811951
1368049360686926	1.8221253	0.39619008	0.6283191
1368049371686926	1.8064173	0.22340234	0.65100837
1368049383786926	1.8308519	0.3001969	0.55326986
1368049393686926	1.9442985	0.44505933	0.3804821
1368049403786926	1.9861864	0.8237961	0.3246315
1368049413786926	2.0036397	1.0402172	0.30368754
1368049423786926	2.0559995	1.0925771	0.37175545
1368049433786926	2.0559995	1.1222477	0.49741927
1368049443786926	1.9861864	1.0541798	0.6422817
1368049453786926	1.8395786	0.83601344	0.79238015
1368049463786926	1.6720269	0.42935136	0.8779014
1368049473786926	1.5498537	0.057595916	0.9459693
1368049483786926	1.5707977	-0.015707977	1.0140371
1368049493786926	1.6057043	0.008726654	1.0053105
1368049503786926	1.5812696	0.078539886	0.95469594
1368049513686926	1.4957484	0.23038366	0.8569574
1368049522786926	1.3840473	0.33684883	0.7435109
1368049533686926	1.2182409	0.3228862	0.61610174
1368049543686926	1.0524344	0.2600543	0.5009099
1368049553686926	0.7592189	0.2042037	0.43458736
1368049565686926	0.469494	0.19722238	0.45029533
1368049573786926	0.0052359924	0.20071304	0.5550152
1368049583786926	-0.3001969	0.052359924	0.6108658
1368049593786926	-0.40666208	-0.11170117	0.5340712
1368049606686926	-0.3176502	0.07155856	0.3351035
1368049619686926	-0.3106689	0.19547704	0.099483855
1368049629686926	-0.5602512	0.1588251	-0.08901187
1368049639686926	-0.8587027	0.0	-0.33335817
1368049649686926	-1.0018198	-0.25132763	-0.5777045
1368049653586926	-1.2671101	-0.5846858	-0.6300644
1368049669686926	-1.783728	-0.9424786	-0.64402705
1368049679686926	-2.2776566	-1.2042782	-0.7504922
1368049689686926	-2.8256905	-1.1065397	-0.8080881
1368049699686926	-3.3859417	-0.7766722	-0.9704039
1368049709686926	-3.7454798	-0.5445432	-1.134465
1368049719686926	-3.656468	-0.35255682	-1.2671101
1368049729686926	-3.2951844	0.066322565	-1.2147502
1368049739686926	-2.8099825	0.73478425	-0.9878572
1368049749686926	-2.384122	1.392774	-0.88313735
1368049753586926	-2.2444954	1.8919386	-0.8726654
1368049768686926	-2.3457246	2.0961423	-0.8377588
1368049777686926	-2.5237482	2.1519928	-0.8237961
1368049778686926	-2.6563933	2.1345396	-0.8168148
1368049787786926	-2.6459215	1.9076465	-0.88662803
1368049798686926	-2.485351	1.3072528	-1.0925771
1368049809686926	-2.2986007	0.6248284	-1.160645
1368049819686926	-2.1170862	-0.036651947	-1.2828181
1368049829686926	-1.9652424	-0.16057043	-1.3962646
1368049839686926	-1.7261322	-0.4206247	-1.6196669
1368049843586926	-1.3264514	-0.13962646	-1.9966583
1368049853586926	-1.3247061	-0.3176502	-1.9442985
1368049868686926	-1.4049913	-0.7400202	-1.9268452
1368049870586926	-1.4887671	-1.1693716	-1.8884479
1368049879686926	-1.6196669	-1.6301389	-1.7400948
1368049893786926	-1.8762306	-2.0018945	-1.340414
1368049903786926	-1.8936839	-2.0856702	-1.0751238
1368049913686926	-1.7802373	-1.9216092	-0.8674294
1368049923786926	-1.5114565	-1.6214123	-0.72780293
1368049933786926	-1.1850796	-1.3840473	-0.6283191
1368049943786926	-0.8447401	-1.2444208	-0.51312727
1368049953786926	-0.54279786	-1.2025329	-0.3700101
1368049963786926	-0.1867504	-1.1798435	-0.2949609
1368049973786926	0.14486246	-1.2706008	-0.21293035
1368049983786926	0.469494	-1.4468791	-0.15707977
1368049992786926	0.77492684	-1.6563189	-0.16755176
1368050003686926	1.0210185	-1.8430693	-0.16929708
1368050013786926	1.5184377	-2.0647264	-0.16929708
1368050023786926	1.8709946	-2.0926516	-0.085521206
1368050033786926	2.237514	-2.0542543	-0.019198637
1368050043786926	2.5586548	-1.9547704	0.066322565
1368050053786926	2.7244613	-1.7104242	0.18500505
1368050063786926	2.501059	-1.2095143	0.3228862
1368050073786926	1.9250998	-0.34557548	0.41538873
1368050083786926	1.2042782	0.6475177	0.40491673
1368050093786926	0.28448892	1.0192732	0.24085565
1368050103686926	-0.44331402	0.659735	-0.2391103
1368050113786926	-0.7906348	-0.033161283	-0.8011068
1368050126686926	-0.9477146	-0.75223756	-1.0506891
1368050139686926	-0.9651679	-1.0000745	-0.9826212
1368050149686926	-0.87092006	-0.7539829	-0.7400202
1368050153586926	-0.6091204	0.04188794	-0.4817113
1368050163586926	-0.34732082	1.0349811	-0.09424786
1368050173686926	-0.18325973	2.0437822	0.43284202
1368050189686926	-0.31415954	2.7785666	0.8412494
1368050193586926	-0.8220508	2.8361626	0.65624434
1368050203686926	-1.0262545	2.0333104	0.22340234
1368050219686926	-0.5497792	1.2758368	0.07330389
1368050223586926	0.07330389	0.21118502	0.11170117
1368050239686926	0.3752461	-0.45204067	0.3752461
1368050249686926	0.38397276	-0.09599319	0.6632257
1368050253586926	0.79587084	1.0838504	0.6579897
1368050263686926	1.8186346	2.448699	0.23038366
1368050279686926	3.045602	3.3178737	-0.087266535
1368050289686926	3.872889	2.9757888	0.3071782
1368050299686926	3.7367532	2.342234	0.7330389
1368050309686926	2.7838025	1.2932901	1.0140371
1368050313686926	1.6057043	0.04886926	1.1588997
1368050329686926	0.8220508	-0.99483854	1.2025329
1368050339686926	0.5393072	-1.6231576	1.129229
1368050343586926	0.48520195	-1.0925771	0.94422394
1368050359686926	0.88662803	-0.5637418	0.5567605
1368050363586926	1.5969776	-0.44331402	0.31415954
1368050373586926	2.13803	-0.15533444	0.2949609
1368050389686926	2.3893578	0.4310967	0.40491673
1368050399686926	2.336998	1.0122918	0.5916671
1368050409686926	2.1572287	1.0873411	0.77492684
1368050413686926	1.8954293	0.7976161	0.93375194
1368050429686926	1.6388656	0.33335817	1.0576705
1368050439686926	1.4503698	-0.08901187	1.0890864
1368050441686926	1.4137179	-0.28099826	1.0088012
1368050450786926	1.5899963	-0.13439047	0.79238015
1368050463786926	1.9547704	0.5916671	0.59690315
1368050472786926	2.1205769	1.0506891	0.5497792
1368050481786926	2.148502	1.2095143	0.59690315
1368050489686926	2.0909061	1.2374395	0.69115096
1368050503686926	1.8273613	0.8552121	0.912808
1368050513786926	1.6737722	0.2548183	1.0122918
1368050523686926	1.6493375	-0.20071304	1.0559251
1368050533786926	1.6598096	-0.18849573	1.0454531
1368050543786926	1.514947	0.10297451	0.95469594
1368050553786926	1.2444208	0.30194223	0.77492684
1368050563786926	1.0157825	0.43458736	0.5201086
1368050573786926	0.88662803	0.6021391	0.29321557
1368050582586926	0.82554144	0.76270956	0.19373171
1368050593786926	0.5986484	0.912808	0.1588251
1368050603786926	0.21816635	0.69464165	0.28448892
1368050613786926	-0.19198638	0.3054329	0.4363327
1368050623786926	-0.44680467	0.0017453308	0.5044006
1368050633786926	-0.5305805	-0.08901187	0.464258
1368050643686926	-0.5567605	-0.0907572	0.32812217
1368050653586926	-0.6579897	-0.18849573	0.12740915
1368050669686926	-0.7138403	-0.22340234	-0.22514766
1368050679686926	-0.696387	-0.1588251	-0.62657374
1368050689686926	-0.8953547	-0.1134465	-0.8045975
1368050699686926	-1.2391849	-0.28274357	-0.86393875
1368050703586926	-1.7383494	-0.45727664	-0.87092006
1368050713586926	-2.4539351	-0.5986484	-0.74176556
1368050723586926	-3.1887193	-0.7836535	-0.5881765
1368050739686926	-3.6948652	-1.0122918	-0.51312727
1368050749686926	-3.935721	-1.2496568	-0.51836324
1368050759686926	-3.825765	-0.9162986	-0.65100837
1368050769686926	-3.5133507	-0.12566382	-0.8674294
1368050773586926	-3.0962167	0.59341246	-0.9878572
1368050789686926	-2.6790826	1.1170117	-0.9477146
1368050799686926	-2.4137924	1.7418401	-0.912808
1368050803586926	-2.2916193	2.5446923	-0.8517214
1368050819686926	-2.1991167	3.3039112	-0.69115096
1368050829686926	-2.0786889	3.4505188	-0.67369765
1368050839686926	-1.7784921	2.8099825	-0.9878572
1368050849686926	-1.4608419	1.7034428	-1.3089981
1368050859686926	-1.3578674	0.5096366	-1.6423563
1368050869686926	-1.6737722	-0.5619965	-1.8081627
1368050879686926	-1.9059012	-1.0873411	-1.9024105
1368050889686926	-1.963497	-0.8272868	-1.9477891
1368050899686926	-1.7907094	-0.84299475	-1.9163731
1368050909686926	-1.6336296	-1.3037621	-1.8640132
1368050919686926	-1.577779	-1.562071	-1.7523121
1368050929686926	-1.6458468	-1.8989198	-1.556835
1368050939686926	-1.7453308	-2.1450114	-1.4346619
1368050949686926	-1.7854733	-2.1764274	-1.2897995
1368050951686926	-1.7645293	-2.1275582	-1.0751238
1368050960686926	-1.6545736	-1.9233545	-0.86568403
1368050973786926	-1.3055074	-1.6493375	-0.6283191
1368050983686926	-0.93375194	-1.4451338	-0.4712393
1368050992686926	-0.70685893	-1.3753207	-0.36128345
1368051003786926	-0.35255682	-1.2897995	-0.29321557
1368051013786926	-0.0052359924	-1.2810727	-0.24260098
1368051023786926	0.32812217	-1.3386687	-0.1867504
1368051033786926	0.670207	-1.4451338	-0.13264513
1368051043786926	1.0349811	-1.5289097	-0.09773852
1368051053786926	1.4608419	-1.5481083	-0.14137179
1368051063686926	1.9460437	-1.4922578	-0.26529026
1368051073686926	2.4155378	-1.4276806	-0.21991168
1368051083686926	2.8274357	-1.329942	-0.15184377
1368051093686926	3.0839994	-1.2217315	-0.036651947
1368051103786926	2.9513543	-0.8848827	0.120427825
1368051113786926	2.3788857	-0.24085565	0.26529026
1368051123786926	1.5009844	0.89011866	0.38746342
1368051133786926	0.3124142	1.8692492	0.3106689
1368051143786926	-0.68766034	1.6563189	-0.106465176
1368051153786926	-1.2025329	0.40491673	-0.685915
1368051163586926	-1.3369234	-0.6178471	-0.97389454
1368051179686926	-1.2304581	-0.9704039	-0.891864
1368051189686926	-1.0437078	-0.7086043	-0.6108658
1368051198686926	-0.70162296	-0.08377588	-0.38397276
1368051206686926	-0.40491673	0.56897783	-0.1535891
1368051214686926	-0.18849573	1.3055074	0.22863832
1368051216586926	0.010471985	2.0856702	0.6248284
1368051227686926	0.043633267	2.74366	0.86393875
1368051239686926	-0.17627841	2.8797958	0.8412494
1368051249686926	-0.35255682	2.3177993	0.5881765
1368051259686926	-0.31415954	1.8587773	0.3682648
1368051269686926	0.087266535	1.4608419	0.2722716
1368051279686926	0.5881765	0.47996596	0.35953814
1368051289686926	0.7766722	0.41189805	0.54279786
1368051297686926	0.9529506	0.83601344	0.63704574
1368051306686926	1.4556059	1.5044751	0.5113819
1368051308686926	2.2828927	2.1554835	0.24783696
1368051316786926	3.108434	2.4521897	0.2617996
1368051333786926	3.1642847	2.2165701	0.5096366
1368051343786926	2.5935614	1.7488214	0.6998776
1368051353786926	1.8867025	0.938988	0.86393875
1368051363786926	1.340414	0.11693716	0.89710003
1368051373786926	1.0210185	-0.32637686	0.881392
1368051383686926	1.0053105	-0.2548183	0.7679455
1368051393786926	1.2897995	0.0034906615	0.55326986
1368051403686926	1.5341457	0.1308998	0.5515245
1368051412786926	1.530655	0.0	0.649263
1368051420786926	1.3578674	0.054105252	0.7365296
1368051433786926	1.4486245	0.24783696	0.89360934
1368051443786926	1.5481083	0.4188794	0.9494599
1368051453786926	1.5812696	0.664971	0.89011866
1368051463786926	1.6475922	0.9145533	0.74176556
1368051473686926	1.7208961	1.0227638	0.6073751
1368051483786926	1.7400948	1.0471984	0.5218539
1368051493786926	1.6790081	1.0227638	0.55326986
1368051502786926	1.6371202	0.9861119	0.5846858
1368051513786926	1.5795243	1.0245092	0.675443
1368051523786926	1.5376364	0.9965839	0.7784175
1368051533786926	1.4660778	0.7941255	0.89710003
1368051543786926	1.3491406	0.40666208	1.0192732
1368051553786926	1.2147502	-0.04188794	1.1100304
1368051563786926	1.1484276	-0.3735008	1.1484276
1368051573786926	1.1362103	-0.39968073	1.123993
1368051583786926	1.0943223	-0.18849573	1.0122918
