accelerometer_timestamp	accelerometer_x_data	accelerometer_y_data	accelerometer_z_data
1451387623520699422	-5.0217133	13.665161	-1.107132
1451387623529091756	-4.8531036	13.9767	-0.9128113
1451387623537484090	-4.275421	13.643188	0.089782715
1451387623545876424	-3.4680023	13.034103	1.3444214
1451387623554268758	-2.7651215	12.585739	2.433487
1451387623562661092	-2.1856384	12.49501	3.1773376
1451387623571053426	-1.7408447	12.61792	3.3842163
1451387623579445760	-1.5452728	12.577499	2.8232727
1451387623587838094	-1.444519	12.163162	1.6686401
1451387623596230428	-0.24458313	11.044418	0.9168091
1451387623604622762	-0.11479187	10.066498	0.6799164
1451387623613015096	0.0435791	9.377289	0.70040894
1451387623621407430	0.42778015	8.868927	0.56632996
1451387623629799764	0.9363861	8.403	0.25170898
1451387623638192098	1.5025482	7.948395	0.056015015
1451387623646584432	1.8171692	7.6039734	-0.25242615
1451387623654976766	2.1103516	7.204422	-0.47003174
1451387623663369100	2.344574	6.6143646	-0.39204407
1451387623671761434	2.1705017	6.0179596	-0.40170288
1451387623680153768	1.6177368	5.568619	-0.3126526
1451387623688546102	0.96980286	5.243988	-0.062286377
1451387623696938436	0.5405121	4.907501	0.2104187
1451387623705330770	0.36886597	4.5617523	0.68733215
1451387623713723104	-0.44851685	4.3766785	1.0564423
1451387623722115438	-0.94706726	4.2778473	0.8732605
1451387623730507772	-1.0964661	4.141144	0.5708313
1451387623738900106	-1.0611267	3.93161	0.6068115
1451387623747292440	-0.9410553	3.6904755	1.0123138
1451387623755684774	-0.7601776	3.5073853	1.5187225
1451387623764077108	-0.6163788	3.4698944	2.0785217
1451387623772469442	-0.40867615	3.4164276	2.6203766
1451387623780861776	0.0018920898	3.5115662	3.1052704
1451387623789254110	0.5378113	3.6799927	3.451889
1451387623797646444	1.1777649	3.9193726	3.7306519
1451387623806038778	1.9120636	4.278015	3.8967743
1451387623814431112	2.657486	4.824951	3.7605438
1451387623822823446	3.3422546	5.780075	3.3490906
1451387623831215780	4.197693	7.036499	3.0488586
1451387623839608113	5.135544	8.581009	3.4500122
1451387623848000447	6.2570343	10.564667	4.342804
1451387623856392781	7.1148376	12.462769	5.4246216
1451387623864785115	7.6142883	13.929321	6.5155945
1451387623873177449	7.986145	14.863312	7.801178
1451387623881569783	8.541351	14.764618	9.227234
1451387623889962117	8.761841	14.176056	9.946823
1451387623898354451	8.126144	13.566055	9.636002
1451387623906746785	6.399658	12.908798	8.680054
1451387623915139119	4.2964478	11.798019	7.2620544
1451387623923531453	2.277069	10.047455	5.861267
1451387623931923787	0.30673218	8.0525055	5.1769867
1451387623940316121	0.102142334	6.6356964	4.5641937
1451387623948708455	0.3908081	6.7235565	4.6117554
1451387623957100789	0.815979	8.167023	4.5172424
1451387623965493123	1.1789703	10.385941	3.7995605
1451387623973885457	1.1266022	12.419998	2.5036469
1451387623982277791	0.63723755	13.469742	1.3139191
1451387623990670125	0.022460938	13.279861	1.0167084
1451387623999062459	-0.84428406	12.270203	1.0300751
1451387624007454793	-1.9319	11.127808	2.3018188
1451387624015847127	-2.4490662	9.927704	3.3665771
1451387624024239461	-2.3430939	8.73172	4.103592
1451387624032631795	-1.789978	7.7348633	4.362274
1451387624041024129	-1.0731201	7.0696716	3.6325989
1451387624049416463	-0.52241516	6.8763733	1.3156738
1451387624057808797	-0.5091858	7.6560364	-2.3775482
1451387624066201131	0.033691406	8.523819	-3.8210907
1451387624074593465	0.5187073	9.255997	-4.0779877
1451387624082985799	0.58380127	10.268326	-3.0267944
1451387624091378133	1.0009308	11.518799	-1.50737
1451387624099770467	2.2436829	12.662628	-0.51956177
1451387624108162801	3.9502563	13.251541	-0.544693
1451387624116555135	5.175064	12.97554	-1.0354309
1451387624124947469	5.4886627	12.033752	-0.8472595
1451387624133339803	5.0734253	10.94548	-0.08824158
1451387624141732137	4.2378387	9.736603	0.6908722
1451387624150124471	3.1906433	8.527893	1.0552368
1451387624158516805	2.0794525	7.5913086	0.7610016
1451387624166909139	1.0632629	7.064377	0.017425537
1451387624175301473	0.3630371	6.563446	-0.32669067
1451387624183693807	-0.6342926	6.156296	-0.8109436
1451387624192086141	-0.87564087	6.1464844	-0.6149292
1451387624200478475	-1.011795	6.454361	-0.07598877
1451387624208870809	-0.82392883	6.8710785	0.036346436
1451387624217263143	-0.2612915	7.260849	-0.27905273
1451387624225655477	0.4136505	7.6346893	-0.48646545
1451387624234047811	0.9016266	8.105804	-0.36134338
1451387624242440145	1.7827606	8.363876	-0.59062195
1451387624250832479	1.9400787	8.701965	-0.25057983
1451387624259224813	1.9053345	8.781952	-0.08465576
1451387624267617147	1.8826294	8.694626	-0.12652588
1451387624276009481	1.7476196	8.52533	-0.17160034
1451387624284401815	1.3924866	8.282898	-0.02017212
1451387624292794149	1.0598297	7.948868	0.31970215
1451387624301186483	0.85728455	7.641449	0.36802673
1451387624309578817	0.82740784	7.5066986	0.29904175
1451387624317971151	0.79248047	7.668808	0.23117065
1451387624326363485	0.91104126	7.9603424	0.15899658
1451387624334755819	0.95996094	8.288284	-0.057052612
1451387624343148153	0.8126221	8.603821	-0.40933228
1451387624351540487	0.84724426	8.819397	-0.60076904
1451387624359932821	1.1052246	8.844635	-0.70544434
1451387624368325155	1.2862244	8.74295	-0.7164917
1451387624376717488	1.4124603	8.613342	-0.7314911
1451387624385109822	1.4816437	8.594894	-0.8381653
1451387624393502156	1.4930267	8.672836	-1.0035706
1451387624401894490	1.4056244	8.807724	-1.1917572
1451387624410286824	1.1670837	8.981491	-1.4179688
1451387624418679158	0.85583496	9.362183	-1.5089417
1451387624427071492	0.60765076	9.801849	-1.5052338
1451387624435463826	0.40315247	10.251144	-1.5362701
1451387624443856160	0.28985596	10.734772	-1.6655731
1451387624452248494	0.33512878	11.182678	-1.8492126
1451387624460640828	0.60565186	11.438446	-1.9470825
1451387624469033162	1.1675873	11.429428	-1.785965
1451387624477425496	1.8379669	11.227921	-1.3664703
1451387624485817830	2.2327423	11.166382	-1.0056
1451387624494210164	2.4916077	11.423325	-0.5362854
1451387624502602498	2.4904175	11.919006	-0.28375244
1451387624510994832	2.2962952	12.411743	-0.49153137
1451387624519387166	2.1460266	12.664642	-1.0249176
1451387624527779500	2.1231995	12.655197	-1.3105164
1451387624536171834	2.155075	12.731293	-0.88998413
1451387624544564168	2.2396698	13.005737	-0.55792236
1451387624552956502	2.203827	13.463852	-0.31680298
1451387624561348836	1.907135	13.908722	0.089660645
1451387624569741170	1.4445496	14.167191	0.54945374
1451387624578133504	0.9992676	14.116089	0.71295166
1451387624586525838	0.5613861	13.6358185	0.46662903
1451387624594918172	0.1254425	12.712524	0.017318726
1451387624603310506	-0.13807678	11.938843	0.48937988
1451387624611702840	-0.6557312	11.762268	0.8545685
1451387624620095174	-1.4768677	11.964813	0.7605591
1451387624628487508	-2.5180054	12.224533	0.43162537
1451387624636879842	-3.6526642	12.52182	0.1796112
1451387624645272176	-4.7395935	13.287933	-0.12220764
1451387624653664510	-5.3852997	14.152618	-0.54273987
1451387624662056844	-5.3923492	14.446625	-0.29762268
1451387624670449178	-5.068817	14.244766	0.56614685
1451387624678841512	-4.4982758	13.685989	1.6365051
1451387624687233846	-3.8512115	13.0867	2.5135498
1451387624695626180	-3.2646637	12.706009	2.9507446
1451387624704018514	-2.697937	12.512909	2.897995
1451387624712410848	-2.0645905	12.268204	2.433258
1451387624720803182	-1.5632477	11.867767	1.4452667
1451387624729195516	-0.5469208	10.5894165	0.98757935
1451387624737587850	-0.043914795	9.581177	0.89494324
1451387624745980184	0.08514404	8.941971	0.9410553
1451387624754372518	0.43215942	8.365921	0.8204651
1451387624762764852	1.0576019	7.9756927	0.2194519
1451387624771157186	1.6159058	7.746414	-0.18563843
1451387624779549520	1.6342926	7.564041	-0.363266
1451387624787941854	1.8537903	7.1170044	-0.6688385
1451387624796334188	1.8530273	6.7644653	-0.8777771
1451387624804726522	1.5709534	6.5187225	-0.79452515
1451387624813118856	1.1731873	6.2157135	-0.4257965
1451387624821511190	0.8712158	6.0016785	-0.46377563
1451387624829903524	0.61213684	5.48349	0.06881714
1451387624838295858	-0.1618042	5.1056213	0.8440857
1451387624846688192	-0.52308655	4.8407288	1.0430603
1451387624855080526	-0.69651794	4.5570984	0.9328766
1451387624863472860	-0.81851196	4.172516	0.945755
1451387624871865194	-0.91119385	3.8059082	1.1993713
1451387624880257528	-0.9770355	3.6818085	1.4616241
1451387624888649862	-0.8084259	3.673584	1.8163452
1451387624897042196	-0.41207886	3.6680145	2.386383
1451387624905434530	0.06314087	3.5638123	2.8897247
1451387624913826863	0.48794556	3.465149	3.2481995
1451387624922219197	0.92082214	3.4978333	3.4674988
1451387624930611531	1.4837646	3.7279053	3.5879822
1451387624939003865	2.1106567	4.13533	3.6618347
1451387624947396199	2.888977	4.571274	3.7317505
1451387624955788533	3.6555328	5.1927032	3.7681885
1451387624964180867	4.5957794	6.20253	3.9230652
1451387624972573201	5.918564	7.750519	4.4085083
1451387624980965535	7.437134	9.797684	5.1804657
1451387624989357869	8.698364	12.001633	5.958359
1451387624997750203	9.343628	13.7148285	6.4524536
1451387625006142537	9.342606	14.542511	7.111511
1451387625014534871	9.096863	14.813324	7.797348
1451387625022927205	8.296219	14.906982	8.40918
1451387625031319539	6.9311676	14.566727	8.2982025
1451387625039711873	5.257431	13.464432	7.3219147
1451387625048104207	3.6950226	11.499023	6.0065613
1451387625056496541	2.6300812	9.000885	5.2184906
1451387625064888875	1.8754272	6.9322357	4.7794495
1451387625073281209	1.246048	5.9630585	4.410141
1451387625081673543	0.892807	6.2404327	4.5703735
1451387625090065877	0.72280884	7.4776	4.62204
1451387625098458211	0.5390625	9.107651	3.9794464
1451387625106850545	0.042816162	10.593613	2.6738892
1451387625115242879	-1.0520325	11.734329	1.4905853
1451387625123635213	-2.3814392	12.945496	1.158493
1451387625132027547	-3.45047	14.055786	1.2904968
1451387625140419881	-3.038086	14.444077	2.6756134
1451387625148812215	-1.8399811	13.4236145	3.6598969
1451387625157204549	-0.72784424	11.378586	4.049988
1451387625165596883	-0.04699707	9.046295	4.094574
1451387625173989217	0.4723053	6.940338	3.3880463
1451387625182381551	0.52371216	6.0190887	1.2669525
1451387625190773885	0.14411926	6.395752	-0.91096497
1451387625199166219	0.24938965	7.0380554	-2.8410187
1451387625207558553	0.49383545	8.152756	-3.9548798
1451387625215950887	0.6665344	9.638275	-3.5845337
1451387625224343221	1.0140991	11.224869	-2.0435028
1451387625232735555	1.9576569	12.640579	-0.7468262
1451387625241127889	2.780182	13.546387	-0.47436523
1451387625249520223	3.832306	13.119553	-0.65112305
1451387625257912557	4.6531067	12.196259	-0.6902771
1451387625266304891	4.949829	11.234131	-0.19770813
1451387625274697225	4.4889374	10.307388	0.54067993
1451387625283089559	3.4722137	9.325821	0.9732208
1451387625291481893	2.4444427	8.262802	0.7518158
1451387625299874227	1.5386353	7.360077	0.19763184
1451387625308266561	0.7121277	6.631241	-0.33721924
1451387625316658895	-0.16108704	6.225052	-0.7384033
1451387625325051229	-1.0417633	6.177185	-0.62875366
1451387625333443563	-1.6511383	6.4621124	-0.20852661
1451387625341835897	-1.7280273	6.823532	-0.029663086
1451387625350228231	-1.2893982	7.1546936	-0.13858032
1451387625358620565	-0.92541504	7.4729004	-0.094955444
1451387625367012899	-0.311615	7.56131	-0.17823792
1451387625375405233	0.2657776	8.000168	0.009109497
1451387625383797567	0.75346375	8.417526	0.054595947
1451387625392189901	1.157135	8.722092	-0.04800415
1451387625400582235	1.4394073	8.8710785	-0.16792297
1451387625408974569	1.5388336	8.852234	-0.069381714
1451387625417366903	1.5295868	8.645569	-0.038528442
1451387625425759237	1.4511566	8.33049	-0.0058135986
1451387625434151571	1.4639282	7.9263763	-0.02658081
1451387625442543905	1.4402008	7.6714478	-0.123672485
1451387625450936238	1.397995	7.6186066	-0.20141602
1451387625459328572	1.4160156	7.727829	-0.19683838
1451387625467720906	1.4647217	8.00235	-0.20617676
1451387625476113240	1.3526459	8.266586	-0.27815247
1451387625484505574	1.2682343	8.503174	-0.4206848
1451387625492897908	1.2864685	8.670853	-0.49101257
1451387625501290242	1.3339691	8.745712	-0.4527588
1451387625509682576	1.3923492	8.776489	-0.3985443
1451387625518074910	1.4492798	8.845276	-0.4264984
1451387625526467244	1.4347839	9.010422	-0.53938293
1451387625534859578	1.20961	9.247925	-0.6925812
1451387625543251912	0.829895	9.404755	-0.97991943
1451387625551644246	0.42918396	9.616409	-1.2380371
1451387625560036580	0.039718628	9.940628	-1.285614
1451387625568428914	-0.27572632	10.33815	-1.2969055
1451387625576821248	-0.3846283	10.727081	-1.4310455
1451387625585213582	-0.16235352	11.063202	-1.602768
1451387625593605916	0.18106079	11.462128	-1.7323151
1451387625601998250	0.8108063	11.707489	-1.6438904
1451387625610390584	1.5163269	11.754578	-1.254425
1451387625618782918	2.0463867	11.679611	-0.7616577
1451387625627175252	2.3269348	11.606628	-0.29640198
1451387625635567586	2.4103394	11.620163	0.033493042
1451387625643959920	2.4432373	11.725632	0.09422302
1451387625652352254	2.7177582	11.88295	-0.30366516
1451387625660744588	3.2254639	11.906998	-1.0296631
1451387625669136922	3.5557861	11.895782	-1.7154388
1451387625677529256	3.4971313	12.017944	-1.8444824
1451387625685921590	2.942047	12.415207	-1.203598
1451387625694313924	2.2440033	13.090103	-0.12225342
1451387625702706258	1.9170685	13.909531	0.7125397
1451387625711098592	1.5849762	14.739258	0.905838
1451387625719490926	0.818985	14.81842	0.65600586
1451387625727883260	0.20661926	13.948807	0.7050171
1451387625736275594	-0.32312012	12.915588	0.85375977
1451387625744667928	-0.77667236	12.08725	0.9057617
1451387625753060262	-1.4298401	11.663986	0.72869873
1451387625761452596	-2.5179596	11.755737	0.26750183
1451387625769844930	-3.579773	12.251129	-0.5849304
1451387625778237264	-4.613098	13.110153	-1.1220398
1451387625786629598	-5.379532	13.973694	-1.1541748
1451387625795021932	-5.458359	14.1553955	-0.5745697
1451387625803414266	-4.949417	13.834625	0.36361694
1451387625811806600	-3.976532	13.224899	1.5399933
1451387625820198934	-3.026474	12.662781	2.6872253
1451387625828591268	-2.4151611	12.559753	3.183319
1451387625836983602	-2.1338348	12.602753	3.2029572
1451387625845375936	-1.9595184	12.391602	2.8671265
1451387625853768270	-1.6307678	11.973022	2.2997742
1451387625862160604	-1.0813293	11.322601	1.7199707
1451387625870552938	-0.5326843	10.485306	1.2917023
1451387625878945272	-0.30674744	9.702377	1.0259094
1451387625887337606	0.04385376	9.232498	0.701004
1451387625895729940	0.38867188	8.84462	0.53334045
1451387625904122274	0.85336304	8.422333	0.24064636
1451387625912514608	1.266983	7.8697357	0.023498535
1451387625920906942	1.5908661	7.2203674	-0.28875732
1451387625929299276	1.5895691	6.5967712	-0.6334686
1451387625937691610	0.89108276	6.113159	-0.55018616
1451387625946083944	0.30296326	5.694687	-0.5799866
1451387625954476278	0.33825684	5.0559845	-0.6088257
1451387625962868612	-0.14408875	4.5865173	-0.28878784
1451387625971260946	-0.54800415	4.2447815	0.24797058
1451387625979653280	-0.58747864	3.9052582	0.8117981
1451387625988045613	-0.3817749	3.5684662	1.1998138
1451387625996437947	-0.24398804	3.3730774	1.2562714
1451387626004830281	-0.1894989	3.2671661	1.0043793
1451387626013222615	-0.20213318	3.4227753	1.262497
1451387626021614949	-0.06062317	3.570221	1.7882233
1451387626030007283	0.12590027	3.690216	2.349945
1451387626038399617	0.31614685	3.8697357	2.7478333
1451387626046791951	0.56092834	4.177124	2.991211
1451387626055184285	0.95280457	4.595642	3.236267
1451387626063576619	1.500824	5.036728	3.4110565
1451387626071968953	2.2509308	5.5166016	3.5735931
1451387626080361287	2.9385834	6.0095367	3.661026
1451387626088753621	3.6691742	6.6658936	3.702896
1451387626097145955	4.5920258	7.5970917	3.877182
1451387626105538289	5.734787	8.911423	4.3137665
1451387626113930623	6.984833	10.596298	4.944992
1451387626122322957	8.206314	12.264526	5.4249725
1451387626130715291	8.683395	13.421219	5.8897095
1451387626139107625	8.91394	13.897537	6.97641
1451387626147499959	9.287003	13.767654	8.156982
1451387626155892293	9.285736	13.291534	8.955383
1451387626164284627	8.377975	12.593567	9.081238
1451387626172676961	6.506592	11.676865	8.415756
1451387626181069295	4.2406006	10.658234	6.917145
1451387626189461629	2.0464935	9.340134	5.536316
1451387626197853963	1.2858887	8.202652	4.465149
1451387626206246297	0.45736694	8.225418	4.2214203
1451387626214638631	0.09458923	9.443024	4.2324524
1451387626223030965	0.17010498	11.248505	3.8075104
1451387626231423299	-0.051864624	12.752411	2.6591797
1451387626239815633	-0.99269104	13.264954	1.1740875
1451387626248207967	-2.4732513	13.435638	0.79985046
1451387626256600301	-3.469574	13.280151	1.482193
1451387626264992635	-3.475296	12.284439	3.356369
1451387626273384969	-2.6555176	10.413513	4.976944
1451387626281777303	-1.6526489	8.565552	5.2475586
1451387626290169637	-0.93566895	7.5451355	4.1963806
1451387626298561971	-0.23072815	6.8596344	2.8634033
1451387626306954305	0.0869751	6.3835907	-0.0031280518
1451387626315346639	-0.3139038	7.0656433	-2.0991364
1451387626323738973	-0.26631165	8.016464	-3.043396
1451387626332131307	0.076797485	9.07225	-3.2290497
1451387626340523641	0.57637024	10.23909	-2.7832794
1451387626348915975	1.2927551	11.50116	-1.8372192
1451387626357308309	2.693039	12.66272	-0.9398041
1451387626365700643	3.7397156	13.182968	-0.44833374
1451387626374092977	4.6180115	12.794205	-0.38536072
1451387626382485311	5.0483093	11.957718	-0.21932983
1451387626390877645	4.874344	11.054413	0.16604614
1451387626399269979	4.15036	10.212738	0.6888275
1451387626407662313	3.306137	9.372055	1.033432
1451387626416054647	2.267685	8.480637	1.0385742
1451387626424446981	1.2089844	7.583145	0.33851624
1451387626432839315	0.3206482	7.0455017	-0.38967896
1451387626441231649	-0.46435547	6.6671143	-0.90179443
1451387626449623983	-1.1071167	6.579544	-1.114624
1451387626458016317	-1.510437	6.79747	-0.94877625
1451387626466408651	-1.579071	7.136322	-0.4355011
1451387626474800985	-1.2834167	7.5594025	-0.10069275
1451387626483193319	-1.1178894	7.840088	0.13476563
1451387626491585653	-0.75457764	8.012833	0.18971252
1451387626499977987	-0.108810425	8.110062	0.24156189
1451387626508370321	0.4152832	8.304367	0.23617554
1451387626516762655	0.70487976	8.548416	0.104019165
1451387626525154988	0.9676666	8.632919	-0.110076904
1451387626533547322	1.1716156	8.566132	-0.20559692
1451387626541939656	1.2538605	8.363586	-0.20457458
1451387626550331990	1.323761	8.167206	0.039978027
1451387626558724324	1.2802124	7.998291	0.30763245
1451387626567116658	1.3099518	7.906479	0.4247589
1451387626575508992	1.4084625	7.906906	0.43666077
1451387626583901326	1.5021057	7.9912415	0.40144348
1451387626592293660	1.8243408	8.170319	0.039398193
1451387626600685994	1.7369537	8.30397	-0.3256073
1451387626609078328	1.7820129	8.4096985	-0.3635254
1451387626617470662	1.7380371	8.489517	-0.32304382
1451387626625862996	1.7381439	8.621429	-0.30516052
1451387626634255330	1.8033752	8.833527	-0.27366638
1451387626642647664	1.8197937	9.0589905	-0.22250366
1451387626651039998	1.6960144	9.158707	-0.34236145
1451387626659432332	1.465683	9.191605	-0.47192383
1451387626667824666	1.0891418	9.149094	-0.741272
1451387626676217000	0.60443115	9.125488	-1.0173187
1451387626684609334	0.20695496	9.236938	-1.2967834
1451387626693001668	-0.05067444	9.560211	-1.5027466
1451387626701394002	-0.19560242	10.070587	-1.5115204
1451387626709786336	-0.1771698	10.617493	-1.2978821
1451387626718178670	0.2012024	11.039047	-1.4850006
1451387626726571004	0.763504	11.223175	-1.6552429
1451387626734963338	1.2424774	11.347626	-1.5658417
1451387626743355672	1.6985168	11.377228	-1.2142639
1451387626751748006	2.0464172	11.276459	-0.86920166
1451387626760140340	2.1644592	11.145477	-0.69039917
1451387626768532674	2.0794678	11.243149	-0.47792053
1451387626776925008	2.007492	11.646194	-0.30827332
1451387626785317342	2.0637817	11.893219	-0.33291626
1451387626793709676	2.419098	12.041107	-0.77905273
1451387626802102010	2.9056854	12.10968	-1.0619202
1451387626810494344	3.3574219	12.165283	-1.0351105
1451387626818886678	3.6706085	12.277603	-0.8250427
1451387626827279012	3.6798553	12.542862	-0.46417236
1451387626835671346	3.068634	13.040115	-0.14642334
1451387626844063680	2.4004822	13.297897	0.24855042
1451387626852456014	1.9307404	13.356918	0.42533875
1451387626860848348	1.517868	13.209564	0.16966248
1451387626869240682	1.089508	12.810822	-0.13682556
1451387626877633016	0.68188477	12.309692	-0.027023315
1451387626886025350	0.22172546	12.104263	0.5496216
1451387626894417684	-0.5550995	12.400162	0.4879303
1451387626902810018	-1.5081329	12.201904	0.10346985
1451387626911202352	-2.7054596	12.447693	-0.3650055
1451387626919594686	-3.778122	12.941391	-0.78330994
1451387626927987020	-4.5176697	13.51799	-1.0564728
1451387626936379354	-4.9134216	14.094742	-1.0606232
1451387626944771688	-4.764679	14.301102	-0.4510193
1451387626953164022	-4.078888	13.890854	0.64193726
1451387626961556356	-3.456543	13.283142	2.1816406
1451387626969948690	-2.997528	12.892288	3.2606354
1451387626978341024	-2.523056	12.651764	3.4322815
1451387626986733358	-2.115738	12.359894	2.8103943
1451387626995125692	-1.6536865	11.818512	1.9259033
1451387627003518026	-0.24354553	10.90834	1.3743286
1451387627011910360	0.0073394775	9.897644	1.0823364
1451387627020302694	0.21076965	9.460785	0.80584717
1451387627028695028	0.72810364	9.181625	0.51867676
1451387627037087362	1.4113922	8.866928	0.4172516
1451387627045479696	2.0430603	8.538376	0.15299988
1451387627053872030	2.4334564	8.259247	-0.55114746
1451387627062264363	2.4572144	7.9111023	-1.098175
1451387627070656697	2.4407501	7.111191	-1.1331329
1451387627079049031	1.7819519	6.696686	-1.1103668
1451387627087441365	1.0560608	6.267517	-0.6956482
1451387627095833699	0.5964966	5.818054	-0.42539978
1451387627104226033	0.18760681	5.4367676	-0.21792603
1451387627112618367	-0.47962952	5.1555634	0.32673645
1451387627121010701	-1.238678	4.8892517	1.1705933
1451387627129403035	-1.2263336	4.6980286	0.8179321
1451387627137795369	-1.2158966	4.4488525	0.71595764
1451387627146187703	-1.4353485	4.085495	0.8628998
1451387627154580037	-1.5814209	3.7225494	1.2658539
1451387627162972371	-1.5219421	3.5483093	1.7385864
1451387627171364705	-1.3493195	3.6073456	2.14151
1451387627179757039	-1.2155304	3.7021332	2.552719
1451387627188149373	-0.7929535	3.71138	2.989685
1451387627196541707	-0.17575073	3.6780396	3.202011
1451387627204934041	0.381485	3.7564545	3.5380554
1451387627213326375	0.97758484	4.0349426	3.7951813
1451387627221718709	1.673523	4.5032806	3.8177795
1451387627230111043	2.4929352	5.1573486	3.5995789
1451387627238503377	3.4691162	6.098877	3.3164368
1451387627246895711	4.72554	7.6287994	3.3729706
1451387627255288045	6.1132355	9.898972	4.085907
1451387627263680379	7.5432434	12.4366455	5.368225
1451387627272072713	8.756287	14.446075	6.669449
1451387627280465047	9.694687	15.381638	7.766617
1451387627288857381	10.245758	15.181412	8.610687
1451387627297249715	10.225784	14.260208	9.096054
1451387627305642049	9.848434	13.202225	8.797897
1451387627314034383	8.416092	12.040649	7.8379517
1451387627322426717	7.004608	10.254501	6.5860443
1451387627330819051	5.3950806	8.190842	5.4296265
1451387627339211385	3.7230377	6.4791565	4.4154053
1451387627347603719	2.3904572	5.544586	3.7667236
1451387627355996053	1.6839447	5.564087	3.799057
1451387627364388387	1.1061096	6.9706116	4.0550537
1451387627372780721	0.65530396	9.488647	3.0664063
1451387627381173055	-0.13406372	12.115189	0.9319
1451387627389565389	-1.247467	14.662964	-0.55610657
1451387627397957723	-2.4905548	16.51387	-0.90527344
1451387627406350057	-3.0738678	17.038177	0.17727661
1451387627414742391	-2.2319489	15.86673	2.6360931
1451387627423134725	-0.7283325	13.032547	4.840576
1451387627431527059	-0.9370575	10.439514	5.72789
1451387627439919393	-0.98965454	8.436798	5.934143
1451387627448311727	-0.81088257	6.649185	4.684204
1451387627456704061	-0.8079071	5.5920258	1.7590485
1451387627465096395	-1.3092499	5.622879	-1.8487396
1451387627473488729	-1.8482666	6.1687927	-4.4036255
1451387627481881063	-1.9171448	7.388199	-5.313553
1451387627490273397	-1.270935	9.148407	-4.3316193
1451387627498665731	-0.27542114	11.219559	-3.0106049
1451387627507058065	0.810379	13.052612	-2.035263
1451387627515450399	2.3485565	13.941391	-1.4174957
1451387627523842733	4.3400726	13.613052	-0.93911743
1451387627532235067	5.7249146	12.588989	-0.52259827
1451387627540627401	5.6920166	11.574173	0.19711304
1451387627549019735	4.820282	10.450806	0.91970825
1451387627557412069	3.5878143	9.267502	1.2422485
1451387627565804403	2.3211517	8.046188	1.035614
1451387627574196737	1.0626221	6.9353027	0.34703064
1451387627582589071	-0.23657227	6.168289	-0.5891113
1451387627590981405	-1.4512787	5.8994446	-1.3121796
1451387627599373738	-1.9118958	5.759613	-0.8896179
1451387627607766072	-2.0286865	5.8803406	-0.4552765
1451387627616158406	-1.5491486	6.2476654	-0.38302612
1451387627624550740	-0.917984	6.6973724	-0.4443512
1451387627632943074	-0.38085938	7.131958	-0.38993835
1451387627641335408	0.15989685	7.6150055	-0.4065094
1451387627649727742	0.9163513	8.293884	-0.86621094
1451387627658120076	1.3800507	9.020782	-0.67189026
1451387627666512410	1.7838593	9.427261	-0.8059845
1451387627674904744	1.8405914	9.425735	-0.68185425
1451387627683297078	1.7348175	9.225189	-0.39311218
1451387627691689412	1.4845276	8.84523	-0.06199646
1451387627700081746	1.1549683	8.3497925	0.25273132
1451387627708474080	0.9202423	7.9456177	0.5410919
1451387627716866414	0.8605957	7.848984	0.70661926
1451387627725258748	0.8070679	7.9963837	0.77656555
1451387627733651082	0.74850464	8.266159	0.46269226
1451387627742043416	0.6773071	8.621811	-0.09202576
1451387627750435750	0.6124878	8.93721	-0.6649475
1451387627758828084	0.60476685	9.089737	-1.0775757
1451387627767220418	0.7139282	9.044434	-1.2320404
1451387627775612752	0.95861816	8.919571	-1.0625305
1451387627784005086	1.2012634	8.875381	-0.7705231
1451387627792397420	1.3398285	8.97168	-0.6433258
1451387627800789754	1.2899017	9.198898	-0.66134644
1451387627809182088	1.0743408	9.535461	-0.78375244
1451387627817574422	0.77134705	9.900665	-0.8728943
1451387627825966756	0.48349	10.207504	-0.848114
1451387627834359090	0.32138062	10.481857	-0.9761658
1451387627842751424	0.40878296	10.789276	-1.401825
1451387627851143758	0.45098877	11.08342	-1.8992615
1451387627859536092	0.77523804	11.210312	-2.2524414
1451387627867928426	1.3828278	11.1597595	-2.3047028
1451387627876320760	2.0249023	11.034393	-1.9171295
1451387627884713094	2.4467163	10.955826	-1.0771637
1451387627893105428	2.6848755	10.955048	-0.06149292
1451387627901497762	2.6663513	11.230606	0.49987793
1451387627909890096	2.6065674	11.45697	0.48664856
1451387627918282430	2.5840912	11.61763	-0.14837646
1451387627926674764	2.6351166	11.697235	-0.9034271
1451387627935067098	2.759552	11.776978	-1.1072083
1451387627943459432	2.9008331	12.017166	-0.7307739
1451387627951851766	2.9272156	12.314041	-0.5493164
1451387627960244100	2.4799652	12.622498	-0.4382782
1451387627968636434	1.9542236	12.942947	-0.31059265
1451387627977028768	1.4633789	13.182449	-0.2482605
1451387627985421102	1.0781708	13.195557	-0.26834106
1451387627993813436	0.7242584	12.9813385	-0.20639038
1451387628002205770	0.2813568	12.699005	0.09880066
1451387628010598104	-0.41059875	12.743225	0.8175049
1451387628018990438	-1.5399323	12.92868	1.1871033
1451387628027382772	-2.752655	12.971191	0.82206726
1451387628035775106	-4.230377	13.0755005	0.3411255
1451387628044167440	-5.5051575	13.355209	-0.08242798
1451387628052559774	-6.3344116	13.770172	-0.46870422
1451387628060952108	-6.590851	14.218658	-0.7867737
1451387628069344442	-6.118927	14.299896	-0.4063568
1451387628077736776	-5.371414	13.863266	0.7917328
1451387628086129110	-4.565796	13.396851	2.0150604
1451387628094521444	-3.836563	13.057846	2.9485626
1451387628102913778	-3.2492523	12.824799	3.5381317
1451387628111306112	-2.7016602	12.531204	3.6213226
1451387628119698446	-2.0658112	12.005508	3.0321655
1451387628128090780	-1.601059	11.325897	2.2589722
1451387628136483113	-0.21099854	9.961502	1.6225586
1451387628144875447	0.12998962	9.164673	1.1615295
1451387628153267781	0.21452332	8.765244	0.9229889
1451387628161660115	0.5667572	8.512451	0.6074066
1451387628170052449	1.3165741	8.259628	0.21348572
1451387628178444783	2.1923828	8.000809	-0.097579956
1451387628186837117	2.6446228	7.768448	-0.7474823
1451387628195229451	2.755661	7.147415	-1.0703278
1451387628203621785	2.3834686	6.481598	-0.70433044
1451387628212014119	1.65979	5.913986	-0.5833893
1451387628220406453	0.7571106	5.368805	-0.3887024
1451387628228798787	0.08236694	4.9156647	-0.05659485
1451387628237191121	-0.16687012	4.6970825	0.20661926
1451387628245583455	-0.67658997	4.6158905	0.7126312
1451387628253975789	-1.1793518	4.5356903	1.2225952
1451387628262368123	-1.2630768	4.486908	1.1941833
1451387628270760457	-0.9824219	4.3391724	1.0435181
1451387628279152791	-0.7063141	4.1461487	0.988739
1451387628287545125	-0.47409058	3.9480438	1.1230469
1451387628295937459	-0.1326294	3.796875	1.4318848
1451387628304329793	0.22276306	3.8380737	1.8212433
1451387628312722127	0.4294281	4.0231323	2.240738
1451387628321114461	0.62783813	4.192642	2.5109253
1451387628329506795	0.9598541	4.4432373	2.7987213
1451387628337899129	1.4321442	4.8530273	3.1625519
1451387628346291463	2.025406	5.4080353	3.5954132
1451387628354683797	2.6979523	6.0381927	4.0146484
1451387628363076131	3.3789978	6.7016754	4.270447
1451387628371468465	4.0781403	7.5396423	4.2745667
1451387628379860799	5.188568	8.586029	4.450653
1451387628388253133	6.747864	9.956009	4.988861
1451387628396645467	8.263947	11.409637	5.585602
1451387628405037801	9.332855	12.627213	6.1716003
1451387628413430135	9.774963	13.34584	6.8298798
1451387628421822469	9.62738	13.477539	7.5526733
1451387628430214803	9.062912	13.312012	8.100693
1451387628438607137	8.328751	13.1540985	8.127197
1451387628446999471	7.044235	12.744751	7.7390594
1451387628455391805	5.2615967	11.887878	6.7368164
1451387628463784139	3.5605469	10.327026	5.5422363
1451387628472176473	2.404602	8.118439	4.690262
1451387628480568807	1.7842407	5.848419	4.2782745
1451387628488961141	2.1852264	4.3102875	3.9358826
1451387628497353475	2.0574036	3.6703491	4.0542755
1451387628505745809	1.6567383	3.8606415	4.552124
1451387628514138143	0.8430176	4.987213	4.680496
1451387628522530477	-0.4656067	7.8947296	3.0119019
1451387628530922811	-1.9540558	12.969177	-1.0476379
1451387628539315145	-2.8976898	18.373901	-4.03627
1451387628547707479	-4.847107	20.016922	-2.8055573
1451387628556099813	-4.9773865	20.030716	-0.052597046
1451387628564492147	-2.6479187	18.465393	3.1734772
1451387628572884481	0.32720947	15.170578	5.377594
1451387628581276815	2.3492584	10.958206	6.336197
1451387628589669149	2.2142487	6.925659	5.8043823
1451387628598061483	0.9109497	4.7711945	3.7438812
1451387628606453817	0.5953064	4.2149506	1.2361908
1451387628614846151	-0.10092163	4.203842	-2.117447
1451387628623238485	-0.71821594	4.75502	-4.44458
1451387628631630819	-0.7532501	6.0085907	-5.276291
1451387628640023153	-0.121276855	8.051071	-4.627487
1451387628648415487	0.7727814	10.536346	-3.3364716
1451387628656807821	1.5271912	12.802048	-2.132309
1451387628665200155	2.8360443	13.9618225	-1.2563171
1451387628673592488	4.5873566	13.862381	-0.6537781
1451387628681984822	5.7699127	13.186264	-0.22052002
1451387628690377156	5.716156	12.2079315	0.3319702
1451387628698769490	4.6901245	10.988419	0.8803253
1451387628707161824	3.3106232	9.550644	1.0724335
1451387628715554158	1.6825714	8.055389	0.7512665
1451387628723946492	0.04777527	6.746521	-0.22138977
1451387628732338826	-1.3246002	5.978241	-0.44763184
1451387628740731160	-2.4073334	5.6042633	-0.5781708
1451387628749123494	-2.8823395	5.609192	-0.78630066
1451387628757515828	-2.7355194	6.0051575	-0.88417053
1451387628765908162	-2.2997284	6.65123	-0.52967834
1451387628774300496	-1.9085846	7.170822	0.31170654
1451387628782692830	-0.1493988	7.457672	-0.39772034
1451387628791085164	0.60523987	8.205185	-0.5140686
1451387628799477498	1.2655182	8.768799	-0.7499237
1451387628807869832	1.8150787	9.067688	-1.0128632
1451387628816262166	2.0721436	9.070572	-0.92567444
1451387628824654500	2.0946503	8.803009	-0.5218506
1451387628833046834	2.2017975	8.400787	-0.41127014
1451387628841439168	1.7031403	8.096451	0.13056946
1451387628849831502	1.3954773	7.7911377	0.48623657
1451387628858223836	1.1776276	7.674515	0.8591156
1451387628866616170	1.0639343	7.7227325	1.0835419
1451387628875008504	0.98799133	7.904907	0.9389343
1451387628883400838	0.89530945	8.217087	0.36242676
1451387628891793172	0.81851196	8.639923	-0.4486084
1451387628900185506	0.8421631	8.928833	-1.1374664
1451387628908577840	0.86875916	9.034851	-1.3838654
1451387628916970174	1.0022736	9.064056	-1.1088104
1451387628925362508	1.1733856	9.123245	-0.62506104
1451387628933754842	1.3440094	9.240311	-0.3319702
1451387628942147176	1.3470612	9.354828	-0.40563965
1451387628950539510	0.97998047	9.392029	-0.7042389
1451387628958931844	0.61909485	9.475327	-1.0312042
1451387628967324178	0.3443756	9.644775	-1.2579651
1451387628975716512	0.16362	9.885681	-1.4479218
1451387628984108846	0.12869263	10.201279	-1.6372223
1451387628992501180	0.29386902	10.581619	-1.9100647
1451387629000893514	0.6861267	10.966385	-2.2033844
1451387629009285848	1.2584686	11.231979	-2.2783203
1451387629017678182	1.8177948	11.205246	-1.9143524
1451387629026070516	2.1750183	11.123398	-1.0941315
1451387629034462850	2.1292572	11.267899	-0.18960571
1451387629042855184	1.9466858	11.628815	0.37928772
1451387629051247518	1.8133087	12.040985	0.39076233
1451387629059639852	1.8920288	12.3199005	-0.064971924
1451387629068032186	2.292038	12.400757	-0.6652069
1451387629076424520	2.950058	12.465256	-1.1185303
1451387629084816854	3.742981	12.745926	-0.9558258
1451387629093209188	3.951889	13.243927	-0.2081604
1451387629101601522	3.7328491	13.601501	0.40904236
1451387629109993856	3.3214111	13.684204	0.5726776
1451387629118386190	2.7582397	13.4713745	0.43344116
1451387629126778524	1.8453674	12.853317	0.33091736
1451387629135170858	0.9467621	11.798431	-0.11633301
1451387629143563192	-0.041015625	10.867401	-1.0994263
1451387629151955526	-1.027298	10.736099	-0.9938965
1451387629160347860	-1.8820038	11.246155	0.18988037
1451387629168740194	-2.8115997	12.199951	1.5545654
1451387629177132528	-4.028015	13.395966	2.037323
1451387629185524862	-5.3912506	14.564865	1.1550751
1451387629193917196	-6.51709	15.466568	-0.30903625
1451387629202309530	-6.865753	15.570984	-1.4467621
1451387629210701863	-6.3434143	15.067978	-1.4211426
1451387629219094197	-5.240448	14.320435	-0.3406067
1451387629227486531	-4.140335	13.740509	1.3052826
1451387629235878865	-3.3834686	13.527618	2.9221344
1451387629244271199	-2.7888947	13.523285	3.977005
1451387629252663533	-2.2244263	13.339249	3.8176422
1451387629261055867	-1.8053589	12.914169	2.6327057
1451387629269448201	-0.4750824	11.726761	1.5518341
1451387629277840535	0.08268738	10.77832	1.2131805
1451387629286232869	0.12719727	10.042725	1.1652985
1451387629294625203	0.5695648	9.301804	0.91200256
1451387629303017537	1.6009369	8.769882	0.50434875
1451387629311409871	2.2713013	8.638275	-0.18658447
1451387629319802205	2.6383362	8.213287	-0.37927246
1451387629328194539	2.5109253	7.6726074	-0.66911316
1451387629336586873	2.1046448	7.0949097	-0.7209778
1451387629344979207	1.4709015	6.613266	-0.71047974
1451387629353371541	0.7902527	6.1792145	-0.5482483
1451387629361763875	0.35395813	5.6273956	0.07548523
1451387629370156209	0.009521484	5.2181854	0.22764587
1451387629378548543	-0.25283813	4.9609528	0.38589478
1451387629386940877	-0.4607544	4.741455	0.57380676
1451387629395333211	-0.7180481	4.437622	0.71061707
1451387629403725545	-0.9479828	4.071747	0.65992737
1451387629412117879	-1.0308685	3.674652	0.5444031
1451387629420510213	-0.95295715	3.2603607	0.7305298
1451387629428902547	-0.9476013	2.9287872	1.4484253
1451387629437294881	-0.8838501	2.7395935	1.9491577
1451387629445687215	-0.6862488	2.6566467	2.4593658
1451387629454079549	-0.28233337	2.6391296	2.8538666
1451387629462471883	0.22181702	2.7333984	3.2527618
1451387629470864217	0.7910156	3.0349884	3.6931152
1451387629479256551	1.4780426	3.60141	4.0474854
1451387629487648885	2.2593384	4.336075	4.1557617
1451387629496041219	3.1733704	5.142166	4.231842
1451387629504433553	3.924179	6.0700073	4.1058807
1451387629512825887	4.7087708	7.169754	4.068222
1451387629521218221	5.702057	8.616058	4.2522736
1451387629529610555	6.992035	10.468338	4.7594757
1451387629538002889	8.360245	12.292084	5.5330505
1451387629546395223	9.279831	13.445267	6.418213
1451387629554787557	9.567734	13.787643	7.2983093
1451387629563179891	9.441956	13.751343	7.991989
1451387629571572225	9.07576	13.555084	8.339859
1451387629579964559	8.137894	13.194641	8.076828
1451387629588356893	6.6026917	12.535828	7.166977
1451387629596749227	5.033905	11.33493	5.9225464
1451387629605141561	3.3970642	9.628189	4.8234406
1451387629613533895	2.6762695	7.7083893	4.5638885
1451387629621926229	2.6761627	6.1530914	4.1585693
1451387629630318563	2.48497	5.3878326	4.3628845
1451387629638710897	2.0834808	5.5193024	5.1434784
1451387629647103231	1.8732605	6.378067	5.736435
1451387629655495565	1.906601	7.679901	5.062317
1451387629663887899	0.90826416	9.369186	2.1022186
1451387629672280233	-0.73757935	11.526306	-0.33572388
1451387629680672567	-2.9188843	13.697205	-1.0725708
1451387629689064901	-4.9244385	16.042282	-0.09126282
1451387629697457235	-5.3620605	17.934189	1.9178467
1451387629705849569	-3.7086792	18.256271	3.7278748
1451387629714241903	-1.0063171	16.114487	4.393341
1451387629722634237	0.92663574	12.01828	5.2282104
1451387629731026571	1.367096	8.407822	4.25679
1451387629739418905	1.2189941	6.3801575	2.1404266
1451387629747811238	0.48336792	5.455948	0.07371521
1451387629756203572	-0.32621765	5.2196655	-1.9441986
1451387629764595906	-0.82328796	5.592621	-3.7296753
1451387629772988240	-0.9120941	6.712799	-4.502655
1451387629781380574	-0.2849121	8.396927	-3.8117218
1451387629789772908	0.51846313	10.641418	-2.7520142
1451387629798165242	1.4757538	12.376831	-2.0565338
1451387629806557576	2.73555	13.143448	-1.5335541
1451387629814949910	4.07518	12.947479	-0.8932648
1451387629823342244	4.9467163	12.186264	0.0011138916
1451387629831734578	4.8715057	11.3268585	0.99832153
1451387629840126912	4.1079407	10.38324	1.6502991
1451387629848519246	3.0201263	8.828644	1.7520905
1451387629856911580	1.5718994	7.3108063	1.0139923
1451387629865303914	0.21665955	6.3979187	0.22625732
1451387629873696248	-0.8871765	6.0868683	-0.35935974
1451387629882088582	-1.6351776	6.0985107	-0.6822815
1451387629890480916	-1.9916687	6.168915	-0.7755585
1451387629898873250	-2.1124878	6.320526	-0.78842163
1451387629907265584	-1.3979034	6.698883	-0.5735321
1451387629915657918	-0.6804962	7.3893433	-0.35450745
1451387629924050252	0.29707336	7.972824	-0.54104614
1451387629932442586	1.2235413	8.5289	-0.8525696
1451387629940834920	1.763916	9.102921	-0.8748627
1451387629949227254	2.0909119	9.387482	-0.69895935
1451387629957619588	2.3169556	9.335571	-0.65057373
1451387629966011922	2.2421722	9.040207	-0.5309448
1451387629974404256	1.890564	8.57782	-0.30142212
1451387629982796590	1.5128784	8.063293	-0.093551636
1451387629991188924	1.1792755	7.6739655	0.083740234
1451387629999581258	0.8959961	7.5464325	0.26013184
1451387630007973592	0.7398224	7.689865	0.39509583
1451387630016365926	0.7562866	7.884186	0.34472656
1451387630024758260	0.93336487	8.118683	0.278656
1451387630033150594	1.1427765	8.39328	0.07714844
1451387630041542928	1.2963257	8.618927	-0.17321777
1451387630049935262	1.4134521	8.759293	-0.40089417
1451387630058327596	1.5442657	8.852875	-0.5861206
1451387630066719930	1.6890259	8.974976	-0.75860596
1451387630075112264	1.7332306	9.108643	-0.9560089
1451387630083504598	1.5558319	9.2382965	-0.95077515
1451387630091896932	1.2423096	9.4300995	-0.9593811
1451387630100289266	0.8852997	9.62352	-0.9634857
1451387630108681600	0.4744568	9.864899	-0.91804504
1451387630117073934	0.12210083	10.170059	-0.8495178
1451387630125466268	0.04548645	10.497147	-0.899353
1451387630133858602	0.18838501	10.89917	-1.305481
1451387630142250936	0.6821594	11.215759	-1.5733032
1451387630150643270	1.3300171	11.415131	-1.6605225
1451387630159035604	1.8333893	11.4232025	-1.4077606
1451387630167427938	2.2180328	11.296417	-0.9473419
1451387630175820272	2.4633636	11.220352	-0.42259216
1451387630184212606	2.4788818	11.37059	0.055374146
1451387630192604940	2.4441376	11.646561	0.20175171
1451387630200997274	2.2970886	11.9817505	0.11846924
1451387630209389608	2.3981476	12.285706	-0.64398193
1451387630217781942	2.7416382	12.6328125	-1.3980865
1451387630226174276	2.943985	13.073029	-1.5692596
1451387630234566610	2.7646942	13.531372	-0.9903259
1451387630242958944	2.3237305	13.904114	-0.045455933
1451387630251351278	2.0314026	14.27594	0.37760925
1451387630259743612	1.3332825	14.3582	0.07121277
1451387630268135946	0.46858215	13.840561	-0.08985901
1451387630276528280	-0.5025177	13.048004	0.21885681
1451387630284920613	-1.2937164	12.557404	0.8013916
1451387630293312947	-1.9932404	12.588821	1.4569397
1451387630301705281	-2.8352814	12.95668	1.9806366
1451387630310097615	-3.6204376	13.369339	1.9312286
1451387630318489949	-4.7131042	13.834808	0.7535095
1451387630326882283	-5.7346954	14.288544	-0.8779144
1451387630335274617	-5.9423676	14.432419	-1.9490967
1451387630343666951	-5.59639	14.075745	-1.8996124
1451387630352059285	-4.9112244	13.360977	-0.8928375
1451387630360451619	-3.8246307	12.625259	0.83169556
1451387630368843953	-2.72052	12.313095	2.4533386
1451387630377236287	-2.133438	12.412842	3.313919
1451387630385628621	-1.9480591	12.5559845	3.1134338
1451387630394020955	-1.8052063	12.478973	2.3100586
1451387630402413289	-1.3343201	11.8029175	1.4091644
1451387630410805623	-0.8307495	10.806107	0.8987732
1451387630419197957	-0.5853424	9.968689	0.8722687
1451387630427590291	0.016143799	9.541992	0.84347534
1451387630435982625	0.6205902	8.788345	0.66012573
1451387630444374959	0.87145996	8.219772	0.40597534
1451387630452767293	1.0587769	7.7777557	0.11985779
1451387630461159627	1.1227417	7.498459	-0.09259033
1451387630469551961	1.0409241	7.3759003	-0.22242737
1451387630477944295	0.9567108	7.245529	-0.3375244
1451387630486336629	0.75827026	6.7478943	-0.2408905
1451387630494728963	0.50027466	6.464279	-0.25932312
1451387630503121297	0.34465027	6.238449	-0.06283569
1451387630511513631	0.17837524	5.7843323	0.3009796
1451387630519905965	-0.031417847	5.159012	0.71151733
1451387630528298299	-0.24433899	4.507126	1.0198364
1451387630536690633	-0.39253235	3.9152222	1.0730743
1451387630545082967	-0.45729065	3.4247894	0.72039795
1451387630553475301	-0.47169495	3.052597	0.9352875
1451387630561867635	-0.4121399	2.8627014	1.3195648
1451387630570259969	-0.3215027	2.9056091	1.7702179
1451387630578652303	-0.15057373	3.0868073	2.1187134
1451387630587044637	0.10423279	3.3177643	2.353836
1451387630595436971	0.3872528	3.5741577	2.583023
1451387630603829305	0.6809845	3.8717804	2.780136
1451387630612221639	1.2351685	4.3067017	3.0166016
1451387630620613973	1.8895111	4.8558197	3.311081
1451387630629006307	2.7214508	5.400955	3.6225128
1451387630637398641	3.6121979	5.951874	3.9328003
1451387630645790975	4.4961395	6.6246643	4.232086
1451387630654183309	5.466522	7.5652313	4.5493774
1451387630662575643	6.7535706	8.8355255	4.9949646
1451387630670967977	8.171417	10.364395	5.613907
1451387630679360311	9.011398	11.785614	5.9833984
1451387630687752645	9.316528	12.878342	6.245819
1451387630696144979	9.219238	13.598251	6.6614685
1451387630704537313	8.928818	13.997406	7.2989044
1451387630712929647	8.487671	14.076584	7.903427
1451387630721321981	7.530304	13.639877	7.931656
1451387630729714315	5.804001	12.370102	7.04126
1451387630738106649	4.1418304	10.324448	5.890732
1451387630746498983	3.2225647	8.334106	5.182419
1451387630754891317	2.4711456	6.8788147	4.5545197
1451387630763283651	1.625885	6.350235	4.260803
1451387630771675985	0.83291626	6.8003235	4.608078
1451387630780068319	0.53782654	8.309662	5.150955
1451387630788460653	0.34031677	10.472153	3.7051544
1451387630796852987	-0.56987	12.181915	1.0548706
1451387630805245321	-1.762558	13.243301	0.17869568
1451387630813637655	-3.0310059	13.984314	0.46055603
1451387630822029988	-3.7999115	14.672333	1.7439575
1451387630830422322	-2.987442	14.923691	4.0353546
1451387630838814656	-1.0179443	13.572769	4.896759
1451387630847206990	0.23744202	11.019821	4.7487183
1451387630855599324	0.8357544	8.684708	4.517807
1451387630863991658	1.1490936	6.790283	2.6698303
1451387630872383992	0.76535034	5.8611603	0.1191864
1451387630880776326	0.08308411	5.91951	-1.9491119
1451387630889168660	0.10397339	6.5420837	-3.2788086
1451387630897560994	0.36512756	7.8776703	-4.0108643
1451387630905953328	0.7048645	9.676651	-3.3445892
1451387630914345662	1.3265076	11.485855	-2.0312805
1451387630922737996	2.2120514	12.576004	-0.9760132
1451387630931130330	3.1867065	12.780258	-0.3728943
1451387630939522664	4.07782	12.300842	-0.08798218
1451387630947914998	4.6860046	11.448349	0.16070557
1451387630956307332	4.5860596	10.34845	0.82818604
1451387630964699666	3.5332184	9.363464	1.607544
1451387630973092000	2.2887268	8.465591	1.7048035
1451387630981484334	1.0082855	7.848419	1.3606873
1451387630989876668	-0.110824585	7.467743	0.7125702
1451387630998269002	-0.9895172	7.087784	0.03564453
1451387631006661336	-1.6379089	6.6075745	-0.3903656
1451387631015053670	-1.988678	6.5112457	-0.6360016
1451387631023446004	-1.6586456	6.8721466	-0.7069397
1451387631031838338	-1.2502899	7.127136	-0.418396
1451387631040230672	-0.77204895	7.4031982	-0.3048706
1451387631048623006	-0.09275818	7.665863	-0.323761
1451387631057015340	0.7853546	7.96344	-0.36668396
1451387631065407674	1.6755829	8.388458	-0.3474884
1451387631073800008	2.2900696	8.919739	-0.13064575
1451387631082192342	2.4000854	9.548981	0.063690186
1451387631090584676	2.362915	9.589493	-0.004547119
1451387631098977010	2.2834167	9.155685	0.10435486
1451387631107369344	2.0685883	8.520111	0.3682251
1451387631115761678	1.7028656	7.953659	0.5410614
1451387631124154012	1.2714996	7.618622	0.45874023
1451387631132546346	0.89160156	7.516968	0.2992096
1451387631140938680	0.68084717	7.578659	0.22517395
1451387631149331014	0.69259644	7.770157	0.23088074
1451387631157723348	0.71492004	7.9628754	0.113983154
1451387631166115682	0.7713928	8.102005	-0.10029602
1451387631174508016	0.8220825	8.212433	-0.25926208
1451387631182900350	0.81929016	8.3484955	-0.24861145
1451387631191292684	0.81832886	8.53685	-0.13424683
1451387631199685018	0.9643097	8.806229	-0.096206665
1451387631208077352	1.041275	9.068985	-0.24923706
1451387631216469686	1.0733185	9.387939	-0.48886108
1451387631224862020	1.0593414	9.605728	-0.77786255
1451387631233254354	0.9707184	9.777191	-0.94499207
1451387631241646688	0.7983856	10.005737	-0.8681488
1451387631250039022	0.6052551	10.269409	-0.6611481
1451387631258431356	0.5949707	10.609634	-0.7050781
1451387631266823690	0.58639526	10.876419	-1.0077972
1451387631275216024	0.63298035	11.053543	-1.3774567
1451387631283608358	0.81022644	11.131317	-1.6378174
1451387631292000692	1.1838074	11.073593	-1.6596069
1451387631300393026	1.7326355	10.872772	-1.4150085
1451387631308785360	2.2294922	10.697189	-1.0630035
1451387631317177694	2.797287	10.867416	-0.60946655
1451387631325570028	3.0246124	11.249481	-0.23667908
1451387631333962362	3.2225647	11.6102295	-0.3313141
1451387631342354696	3.3258057	11.9427185	-0.67601013
1451387631350747030	3.392868	12.187302	-1.0732574
1451387631359139363	3.453125	12.307663	-1.3260803
1451387631367531697	3.3316956	12.508301	-1.1318817
1451387631375924031	2.8361206	12.85376	-0.758667
1451387631384316365	2.0714264	13.476288	-0.27514648
1451387631392708699	1.4300842	13.884659	0.103775024
1451387631401101033	0.92749023	13.964203	0.18141174
1451387631409493367	0.52835083	13.6827545	0.15005493
1451387631417885701	0.18911743	13.076218	0.34379578
1451387631426278035	-0.23016357	12.373032	0.6724701
1451387631434670369	-0.74320984	12.1406555	0.8205414
1451387631443062703	-1.4580994	12.051559	1.1289673
1451387631451455037	-2.4725952	12.129242	1.2042999
1451387631459847371	-3.7804108	12.475983	0.86209106
1451387631468239705	-5.1331787	13.083588	0.13284302
1451387631476632039	-6.11615	13.768234	-0.66674805
1451387631485024373	-6.342102	14.188065	-0.94166565
1451387631493416707	-5.698471	13.947479	-0.39056396
1451387631501809041	-4.805603	13.468674	0.5219879
1451387631510201375	-3.6353455	12.761887	1.363678
1451387631518593709	-2.7050629	12.348373	2.1221771
1451387631526986043	-2.154892	12.277374	2.7519836
1451387631535378377	-1.8361511	12.319687	3.0157318
1451387631543770711	-1.5906677	12.358414	2.5468597
1451387631552163045	-0.5769043	11.559525	1.7418213
1451387631560555379	-0.43774414	10.487564	1.5298462
1451387631568947713	-0.014831543	9.901657	1.3114319
1451387631577340047	0.47694397	9.306717	1.0791016
1451387631585732381	0.90174866	8.656769	0.80807495
1451387631594124715	1.3900299	8.198807	0.40507507
1451387631602517049	2.1250916	7.983856	-0.19267273
1451387631610909383	2.396515	7.561264	-0.6759186
1451387631619301717	2.0783844	7.0496826	-0.7026062
1451387631627694051	1.7101593	6.643509	-0.77272034
1451387631636086385	1.1109924	6.234085	-0.67700195
1451387631644478719	0.50894165	5.7943115	-0.4718933
1451387631652871053	0.04800415	5.3493195	-0.11645508
1451387631661263387	-0.5298767	4.9454193	0.64442444
1451387631669655721	-1.0676117	4.817917	1.1060638
1451387631678048055	-1.1554871	4.795822	1.0466156
1451387631686440389	-1.1956024	4.665283	1.1203766
1451387631694832723	-1.1789856	4.534897	1.1495209
1451387631703225057	-1.1033325	4.4615326	1.0743713
1451387631711617391	-0.95903015	4.4431458	1.0743713
1451387631720009725	-0.61190796	4.432419	1.5984344
1451387631728402059	-0.4402008	4.342972	2.2646942
1451387631736794393	-0.105392456	4.2008057	2.7032013
1451387631745186727	0.25889587	4.1432495	2.9823456
1451387631753579061	0.6236572	4.1861725	3.2537994
1451387631761971395	1.0534668	4.349823	3.5664063
1451387631770363729	1.6314697	4.6477203	3.8764038
1451387631778756063	2.3089905	5.145645	4.066559
1451387631787148397	3.0461884	5.742996	4.133377
1451387631795540731	3.828064	6.445801	4.063507
1451387631803933065	4.7653503	7.5409393	4.06514
1451387631812325399	5.9546967	9.080688	4.3798676
1451387631820717733	7.3132324	10.848358	4.9280243
1451387631829110067	8.5334015	12.462952	5.5149384
1451387631837502401	9.174301	13.56749	6.2446594
1451387631845894735	9.419006	13.910904	7.122711
1451387631854287069	9.482162	13.796356	8.237961
1451387631862679403	9.124954	13.369919	8.720413
1451387631871071737	8.082275	12.635849	8.36586
1451387631879464071	6.284439	11.59845	7.167465
1451387631887856405	4.0639496	10.303909	5.483078
1451387631896248738	2.1671753	8.926559	4.2085724
1451387631904641072	0.6886749	8.537918	3.9926605
1451387631913033406	0.077819824	9.863144	4.5187225
1451387631921425740	0.047973633	12.537338	4.474701
1451387631929818074	0.36302185	14.843582	3.4515533
1451387631938210408	0.61631775	15.138107	2.1704102
1451387631946602742	0.4546051	13.102585	1.5208893
1451387631954995076	-0.20368958	10.288162	1.6117249
1451387631963387410	-1.424118	8.308929	2.5987701
1451387631971779744	-2.306488	6.957443	4.037842
1451387631980172078	-2.722519	6.6041107	4.43985
1451387631988564412	-2.499176	6.7850647	4.6466675
1451387631996956746	-1.7387848	7.0052643	3.9993286
1451387632005349080	-0.9980011	7.3797913	1.5040436
1451387632013741414	-0.9985657	8.610687	-2.3216553
1451387632022133748	-0.8556366	9.9216	-3.5996552
1451387632030526082	-0.5316467	10.966217	-3.1017303
1451387632038918416	-0.037246704	11.935181	-1.9916229
1451387632047310750	1.0541382	12.539734	-1.00177
1451387632055703084	2.3158112	12.698227	-0.5132904
1451387632064095418	3.196045	12.392883	-0.57058716
1451387632072487752	3.640808	11.621307	-0.94189453
1451387632080880086	3.9441223	10.817261	-1.1392975
1451387632089272420	4.0460815	10.068512	-0.66848755
1451387632097664754	3.6033325	9.408051	0.097091675
1451387632106057088	2.772995	8.809235	0.72535706
1451387632114449422	1.9009552	8.297134	0.86486816
1451387632122841756	1.2157745	7.8829956	0.5762787
1451387632131234090	0.68655396	7.522415	0.2635193
1451387632139626424	0.07879639	6.9546356	-0.10661316
1451387632148018758	-0.41822815	6.725998	-0.47575378
1451387632156411092	-0.8499603	6.7880096	-0.2736969
1451387632164803426	-0.8939667	7.103882	-0.09887695
1451387632173195760	-0.6795654	7.455185	-0.18273926
1451387632181588094	-0.34080505	7.689316	-0.38417053
1451387632189980428	0.13058472	7.839798	-0.4678192
1451387632198372762	0.6045685	8.073196	-0.6559906
1451387632206765096	1.1287537	8.321762	-0.47413635
1451387632215157430	1.7488708	8.556534	-0.34188843
1451387632223549764	2.0511475	8.781265	-0.14970398
1451387632231942098	2.0155487	8.870712	-0.035461426
1451387632240334432	1.8603821	8.698807	-0.06086731
1451387632248726766	1.5588684	8.337158	0.20565796
1451387632257119100	1.1753693	7.948517	0.4914856
1451387632265511434	1.0162659	7.711319	0.43655396
1451387632273903768	0.90223694	7.7193604	0.4343872
1451387632282296102	0.9755249	7.8926086	0.3284607
1451387632290688436	1.1695862	8.145233	0.05065918
1451387632299080770	1.3172607	8.425583	-0.27235413
1451387632307473104	1.3799438	8.6996	-0.40777588
1451387632315865438	1.359375	8.802429	-0.36254883
1451387632324257772	1.4546967	8.773346	-0.46710205
1451387632332650106	1.5404816	8.665665	-0.74324036
1451387632341042440	1.630539	8.58699	-0.95251465
1451387632349434774	1.6875458	8.57399	-1.068039
1451387632357827108	1.6381836	8.641312	-1.1749878
1451387632366219442	1.4190369	8.83757	-1.2843475
1451387632374611776	0.97177124	9.193329	-1.2555695
1451387632383004110	0.49378967	9.651886	-1.0999451
1451387632391396444	-0.0069885254	10.001129	-1.0337219
1451387632399788778	-0.3427887	10.311996	-1.1065979
1451387632408181112	-0.39190674	10.641434	-1.3267059
1451387632416573446	-0.0975647	10.953705	-1.650711
1451387632424965780	0.52290344	11.147614	-1.9453278
1451387632433358113	1.2251434	11.29155	-1.8538208
1451387632441750447	1.6207886	11.314529	-1.249527
1451387632450142781	2.0012054	11.331497	-0.6197815
1451387632458535115	2.096756	11.454254	-0.12922668
1451387632466927449	2.0050812	11.667877	0.0015869141
1451387632475319783	1.9904022	11.910568	-0.2664032
1451387632483712117	2.2077484	12.143997	-0.7275696
1451387632492104451	2.704712	12.262817	-1.8642731
1451387632500496785	2.9866943	12.396042	-2.0470734
1451387632508889119	3.049759	12.872498	-1.6767578
1451387632517281453	2.9326477	13.454666	-0.97314453
1451387632525673787	2.6093597	14.104828	-0.12515259
1451387632534066121	2.0661163	14.702972	0.61439514
1451387632542458455	1.5616455	14.881424	0.924881
1451387632550850789	1.0876617	14.504089	0.7675781
1451387632559243123	0.421463	13.556976	0.4219513
1451387632567635457	-0.26142883	12.532333	0.2741394
1451387632576027791	-0.98731995	11.794769	0.39733887
1451387632584420125	-1.8414001	11.460144	0.6603546
1451387632592812459	-2.894394	11.482391	0.77005005
1451387632601204793	-4.0993958	11.99614	0.40252686
1451387632609597127	-5.3753357	12.878311	-0.48991394
1451387632617989461	-5.974365	13.852066	-1.1066589
1451387632626356446	-6.027649	14.363724	-1.1811523
1451387632634748780	-5.5793457	14.146194	-0.72421265
1451387632643141114	-4.753723	13.374863	0.15280151
1451387632651533448	-3.7578583	12.5138855	1.262558
1451387632659925782	-2.8390503	12.0168915	2.343933
1451387632668318116	-2.2920685	12.026138	3.1335602
1451387632676710450	-1.8423004	12.044754	3.203476
1451387632685102784	-1.5149078	11.983032	2.490921
1451387632693495118	-0.9478302	11.31871	1.6266785
1451387632701887452	-0.3209839	10.395981	1.0595398
1451387632710279786	0.19746399	9.668976	0.8399658
1451387632718672120	0.93167114	8.903839	0.67349243
1451387632727064454	1.2863922	8.332169	0.30233765
1451387632735456788	1.6992645	8.12471	-0.12033081
1451387632743849122	1.9659576	7.8829956	-0.523468
1451387632752241456	2.1026917	7.4164124	-0.54977417
1451387632760633790	1.9259491	6.856842	-0.38090515
1451387632769026124	1.3685913	6.4129486	-0.3251953
1451387632777418458	0.7014618	6.1182404	-0.3795166
1451387632785810792	0.16990662	5.7594147	-0.3065033
1451387632794203126	0.03591919	5.354889	0.22822571
1451387632802595460	-0.23106384	5.163971	0.44636536
1451387632810987794	-0.36297607	4.936783	0.58461
1451387632819380128	-0.38597107	4.6153564	0.8172455
1451387632827772462	-0.4115448	4.2673645	1.1352539
1451387632836164796	-0.43629456	3.970749	1.3661194
1451387632844557130	-0.44041443	3.7764282	1.2694855
1451387632852949464	-0.5079193	3.7435913	1.4581757
1451387632861341798	-0.44787598	3.686432	2.0384674
1451387632869734132	-0.31674194	3.6072693	2.476471
1451387632878126466	-0.13438416	3.5694427	2.6990356
1451387632886518800	0.16471863	3.6485748	2.814911
1451387632894911134	0.68392944	3.8903503	2.922699
1451387632903303468	1.390274	4.2779694	3.216751
1451387632911695802	2.0822144	4.817276	3.4001312
1451387632920088136	2.8424683	5.5257263	3.7348175
1451387632928480470	3.6663513	6.3642273	4.0916595
1451387632936872804	4.532318	7.3640747	4.3884125
1451387632945265138	5.5992737	8.685944	4.733902
1451387632953657472	7.321106	10.7005005	5.377762
1451387632962049806	9.020676	12.676651	5.873337
1451387632970442139	9.906952	14.08728	5.9514923
1451387632978834473	10.119202	14.694122	6.409851
1451387632987226807	10.1091	14.668777	7.39386
1451387632995619141	9.776901	14.185562	8.451401
1451387633004011475	8.8069	13.513565	8.776291
1451387633012403809	6.9957275	12.550003	8.079025
1451387633020796143	5.2499237	10.61499	6.7187805
1451387633029188477	3.566208	7.985489	5.3909607
1451387633037580811	1.8406982	6.279953	4.357361
1451387633045973145	0.6703644	5.608261	4.0825806
1451387633054365479	-0.038909912	6.057312	4.265045
1451387633062757813	-0.6341095	7.6809235	4.0962677
1451387633071150147	-1.1069489	10.225433	2.8390045
1451387633079542481	-2.2657013	13.21843	0.017715454
1451387633087934815	-3.4045715	15.865219	-0.4255829
1451387633096327149	-3.8884888	17.186325	0.43444824
1451387633104719483	-2.798111	16.529373	2.5971527
1451387633113111817	-0.82792664	14.173538	4.6433105
1451387633121504151	0.5323944	11.212601	5.197464
1451387633129896485	0.3993683	8.906631	4.4793243
1451387633138288819	0.11764526	6.8019714	3.9837341
1451387633146681153	0.19282532	5.6869965	2.274704
1451387633155073487	-0.72062683	5.6645355	-0.082107544
1451387633163465821	-1.2717285	6.2193604	-2.3309784
1451387633171858155	-1.2608795	7.185486	-3.788681
1451387633180250489	-1.0263672	8.519913	-3.9730988
1451387633188642823	-0.57751465	10.074524	-2.8919983
1451387633197035157	0.5843048	11.780258	-1.9882355
1451387633205427491	1.8208618	13.027771	-1.5810394
1451387633213819825	3.165985	13.154877	-1.1810303
1451387633222212159	4.294739	12.611572	-0.83451843
1451387633230604493	4.84758	11.78125	-0.33387756
1451387633238996827	4.660843	10.880569	0.32781982
1451387633247389161	3.8840485	9.968109	0.79200745
1451387633255781495	2.9371033	8.982101	0.8166809
1451387633264173829	1.836853	8.007111	0.5467682
1451387633272566163	0.6984253	7.015732	-0.0309906
1451387633280958497	-0.37878418	6.339905	-0.69537354
1451387633289350831	-1.3829498	6.132538	-0.8103943
1451387633297743165	-2.138855	6.3036194	-0.440094
1451387633306135499	-2.3253021	6.638855	-0.36921692
1451387633314527833	-1.853363	7.1241455	-0.64271545
1451387633322920167	-1.3140717	7.6798706	-0.54467773
1451387633331312501	-0.9575653	8.074142	-0.3552704
1451387633339704835	-0.4493103	8.367981	-0.11747742
1451387633348097169	0.21910095	8.614365	-0.17063904
1451387633356489503	0.88446045	8.882141	-0.3768921
1451387633364881837	1.3155365	9.240601	-0.08000183
1451387633373274171	1.784378	9.077118	-0.2033844
1451387633381666505	1.9846649	8.6892395	0.022735596
1451387633390058839	1.8774872	8.33876	0.19386292
1451387633398451173	1.7667542	8.114456	0.19544983
1451387633406843507	1.7199707	7.980072	0.024551392
1451387633415235841	1.679718	7.8833313	-0.20974731
1451387633423628175	1.7130585	7.853668	-0.31658936
1451387633432020509	1.7768097	7.850586	-0.4225006
1451387633440412843	1.7617188	7.917877	-0.4955597
1451387633448805177	1.7514343	8.093567	-0.5200348
1451387633457197511	1.6904907	8.279846	-0.53530884
1451387633465589845	1.6224213	8.463806	-0.5505066
1451387633473982179	1.5980072	8.681702	-0.5947876
1451387633482374513	1.5728912	8.9362335	-0.72120667
1451387633490766847	1.5338287	9.147018	-0.66978455
1451387633499159181	1.2487793	9.33577	-0.50831604
1451387633507551514	0.92575073	9.454269	-0.54930115
1451387633515943848	0.56881714	9.623322	-0.8285675
1451387633524336182	0.20845032	9.922012	-1.1739502
1451387633532728516	-0.05845642	10.324097	-1.4443665
1451387633541120850	-0.09136963	10.701721	-1.6705475
1451387633549513184	0.18315125	10.927933	-1.8237457
1451387633557905518	0.7777405	11.157043	-1.9603577
1451387633566297852	1.3289337	11.4040985	-1.7956696
1451387633574690186	1.7906952	11.528778	-1.444046
1451387633583082520	2.1308746	11.513901	-0.9862671
1451387633591474854	2.3291168	11.404877	-0.50016785
1451387633599867188	2.3894043	11.269012	-0.07583618
1451387633608259522	2.3379974	11.282379	0.28504944
1451387633616651856	2.4387512	11.671677	0.13775635
1451387633625044190	2.64711	11.994354	-0.29281616
1451387633633436524	2.9601135	12.200287	-0.6719208
1451387633641828858	3.3541565	12.370529	-0.7891083
1451387633650221192	3.6539764	12.581696	-0.5762634
1451387633658613526	3.5760345	12.798523	-0.109802246
1451387633667005860	3.0239105	12.797485	0.37239075
1451387633675398194	2.3177795	12.496567	0.5982666
1451387633683790528	1.6609192	12.328918	0.1900177
1451387633692182862	1.0964508	12.102493	-0.40159607
1451387633700575196	0.541214	11.982803	-0.5446472
1451387633708967530	-0.027862549	12.217026	-0.06983948
1451387633717359864	-0.52441406	13.1645355	0.8627014
1451387633725752198	-1.0199738	13.912018	1.1434021
1451387633734144532	-2.289154	14.415909	0.061065674
1451387633742536866	-3.4329224	14.419037	-1.1019135
1451387633750929200	-4.4322357	14.444199	-1.8089447
1451387633759321534	-5.1128387	14.431671	-1.8804932
1451387633767713868	-5.15361	14.187042	-1.1454773
1451387633776106202	-4.450409	13.666977	0.13327026
1451387633784498536	-3.789566	13.291229	1.5091553
1451387633792890870	-3.267212	12.873077	2.5134125
1451387633801283204	-2.6860657	12.668625	2.879364
1451387633809675538	-2.2298584	12.453323	2.6413574
1451387633818067872	-1.9259796	12.023376	2.0296936
1451387633826460206	-1.6038818	11.269592	1.4560394
1451387633834852540	-1.072052	10.206238	1.3379517
1451387633843244874	-0.7954712	9.344635	1.0387573
1451387633851637208	-0.6461487	8.775528	0.71961975
1451387633860029542	-0.1822815	8.402496	0.32147217
1451387633868421876	0.4964447	8.138336	-0.060028076
1451387633876814210	0.9779358	7.979187	-0.24954224
1451387633885206544	1.1442108	7.8710785	-0.23019409
1451387633893598878	1.4218597	7.653	-0.2742157
1451387633901991212	1.6562805	7.3815613	-0.70913696
1451387633910383546	1.3639221	6.9241943	-0.5988617
1451387633918775880	1.0558167	6.216934	-0.008468628
1451387633927168214	1.1973419	5.6103973	-0.3055725
1451387633935560548	0.9396057	5.3210754	-0.55207825
1451387633943952882	0.018371582	5.1710663	0.09480286
1451387633952345216	-0.48025513	4.747879	0.7745819
1451387633960737550	-0.8401184	4.4661713	0.6902771
1451387633969129884	-1.1328583	4.2555084	0.724411
1451387633977522218	-1.2361145	3.847229	0.9354248
1451387633985914552	-1.2734222	3.5522308	1.5631714
1451387633994306886	-1.2866516	3.4342651	2.144928
1451387634002699220	-1.2428284	3.431488	2.484375
1451387634011091554	-1.0541534	3.475006	2.9425354
1451387634019483888	-0.5637207	3.4832306	3.367157
1451387634027876222	0.10070801	3.6865692	3.7002869
1451387634036268556	0.8954773	3.9838715	3.9207916
1451387634044660889	1.6962891	4.412674	4.062607
1451387634053053223	2.4390259	4.960022	4.0390778
1451387634061445557	3.1930695	5.658371	3.8457031
1451387634069837891	4.181427	6.7214355	3.5702667
1451387634078230225	5.311371	8.324356	3.6802673
1451387634086622559	6.5608673	10.540405	4.227295
1451387634095014893	7.7169647	12.461075	5.1678314
1451387634103407227	8.329269	13.77626	6.075989
1451387634111799561	8.5780945	14.511017	7.0068054
1451387634120191895	8.625092	14.559692	8.099197
1451387634128584229	8.439346	13.968826	9.159576
1451387634136976563	7.7551575	13.371567	9.298843
1451387634145368897	6.5117493	12.483307	8.845749
1451387634153761231	4.7404785	11.440475	7.795334
1451387634162153565	2.9674683	10.064331	6.644882
1451387634170545899	1.5831146	8.656586	5.6490784
1451387634178938233	0.77809143	7.9099426	4.8901978
1451387634187330567	0.6206207	8.484421	4.4671783
1451387634195722901	0.9342041	10.309418	3.9088745
1451387634204115235	0.8765869	12.434967	2.2962952
1451387634212507569	0.17834473	13.703369	0.6586914
1451387634220899903	-0.8107147	14.045807	0.13104248
1451387634229292237	-1.5459747	13.576721	0.76860046
1451387634237684571	-1.835144	12.40567	2.0498047
1451387634246076905	-2.0602875	10.610962	3.6080627
1451387634254469239	-2.14357	8.386002	5.2850037
1451387634262861573	-1.4322357	6.9720154	5.591751
1451387634271253907	-0.7056427	6.317093	4.616791
1451387634279646241	-0.15464783	5.9988556	2.3116608
1451387634288038575	-0.07344055	6.1999207	-0.59114075
1451387634296430909	-0.30162048	7.0313263	-2.9115753
1451387634304823243	-0.15019226	8.093414	-3.762558
1451387634313215577	0.011230469	9.288132	-3.9784546
1451387634321607911	0.10800171	10.883499	-3.0140228
1451387634330000245	0.9658203	12.51741	-1.999115
1451387634338392579	2.2279053	13.547974	-1.3316956
1451387634346784913	3.4986572	13.653946	-1.038681
1451387634355177247	4.459961	12.965332	-0.82696533
1451387634363569581	4.868225	11.939728	-0.30862427
1451387634371961915	4.4435883	10.891006	0.455307
1451387634380354249	3.5577698	9.665588	1.2212219
1451387634388746583	2.5776062	8.465576	1.2783813
1451387634397138917	1.5901489	7.464813	0.68322754
1451387634405531251	0.61125183	6.7410736	0.020477295
1451387634413923585	-0.3938141	6.3031464	-0.39224243
1451387634422315919	-1.3155518	6.1366425	-0.7539215
1451387634430708253	-1.4358368	6.267227	-1.2340851
1451387634439100587	-1.1717377	6.7801666	-1.0522156
1451387634447492921	-0.74554443	7.4042816	-0.88594055
1451387634455885255	-0.1940918	7.8945007	-0.8395233
1451387634464277589	0.30503845	8.200012	-0.68692017
1451387634472669923	0.7431488	8.419205	-0.32803345
1451387634481062257	1.3080139	8.696365	0.12562561
1451387634489454591	1.645401	8.789642	-0.26841736
1451387634497846925	1.5652008	9.139221	-0.18411255
1451387634506239259	1.7427063	8.907654	-0.4721527
1451387634514631593	1.7082977	8.3203125	-0.5450897
1451387634523023927	1.3842468	7.563904	-0.37780762
1451387634531416261	0.97821045	6.9772644	-0.13819885
1451387634539808595	0.6825714	6.7218018	0.14309692
1451387634548200929	0.46366882	6.8278046	0.27146912
1451387634556593263	0.406662	7.173645	0.35466003
1451387634564985597	0.56689453	7.7384186	0.4057312
1451387634573377931	0.74508667	8.300766	0.35668945
1451387634581770264	0.81062317	8.745728	0.14900208
1451387634590162598	0.809433	9.056931	-0.17301941
1451387634598554932	0.9167328	9.216293	-0.43688965
1451387634606947266	1.1203156	9.252289	-0.6250458
1451387634615339600	1.1007996	9.385529	-0.7092743
1451387634623731934	1.0920563	9.546005	-0.7343292
1451387634632124268	1.0032196	9.701462	-0.863266
1451387634640516602	0.81881714	9.823486	-1.0127563
1451387634648908936	0.5647583	9.927902	-1.0372467
1451387634657301270	0.27583313	10.093552	-0.9389801
1451387634665693604	0.19667053	10.411255	-0.8947754
1451387634674085938	0.3945465	10.918518	-0.93222046
1451387634682478272	0.6598511	11.38446	-1.1640778
1451387634690870606	1.0742493	11.611465	-1.5124359
1451387634699262940	1.5840454	11.608749	-1.810791
1451387634707655274	2.0417023	11.451508	-1.8737183
1451387634716047608	2.3204346	11.182098	-1.5751953
1451387634724439942	2.4869995	10.898331	-0.9428711
1451387634732832276	2.565384	11.004913	-0.32244873
1451387634741224610	2.5647583	11.241394	0.08203125
1451387634749616944	2.6217804	11.480484	-0.0011444092
1451387634758009278	2.8834229	11.635605	-0.3798523
1451387634766401612	3.2765045	11.729965	-0.61750793
1451387634774793946	3.515976	11.880127	-0.42456055
1451387634783186280	3.483078	12.145386	-0.25183105
1451387634791578614	2.9101105	12.255188	-0.26383972
1451387634799970948	2.131134	12.278839	-0.117752075
1451387634808363282	1.4633942	12.370132	-0.07507324
1451387634816755616	0.9898834	12.431168	-0.07713318
1451387634825147950	0.5920563	12.374313	-0.011016846
1451387634833540284	0.09033203	12.347916	0.16860962
1451387634841932618	-0.5111389	12.890808	0.52537537
1451387634850324952	-0.849411	13.238312	1.27594
1451387634858717286	-1.8045349	13.580505	1.5410309
1451387634867109620	-2.9585419	13.845123	1.2355347
1451387634875501954	-4.209091	14.141495	0.37641907
1451387634883894288	-5.324066	14.60022	-0.5747528
1451387634892286622	-5.8769226	14.963165	-1.0363159
1451387634900678956	-5.4981995	14.726212	-0.79255676
1451387634909071290	-4.599579	14.074341	0.28805542
1451387634917463624	-3.8125458	13.360107	1.4898987
1451387634925855958	-3.124405	12.89389	2.250061
1451387634934248292	-2.4620667	12.595734	2.712494
1451387634942640626	-1.8590088	12.351776	2.936798
1451387634951032960	-1.4631958	12.010208	2.770874
1451387634959425294	-0.88742065	11.294617	1.9246826
1451387634967817628	0.06010437	10.340637	1.4057922
1451387634976209962	0.3042755	9.600006	1.0390167
1451387634984602296	0.4851532	9.075562	0.7809143
1451387634992994630	0.91111755	8.7091675	0.52337646
1451387635001386964	1.419754	8.43364	0.32069397
1451387635009779298	1.6847534	8.192276	0.37994385
1451387635018171632	1.8657074	8.025711	-0.108428955
1451387635026563966	1.624176	7.688431	-0.33732605
1451387635034956300	1.4312439	7.2411346	-0.6669922
1451387635043348634	1.3415833	6.75943	-0.97254944
1451387635051740968	1.2630768	6.1849213	-0.9231415
1451387635060133302	0.97125244	5.487625	-0.30343628
1451387635068525636	0.2765808	4.8115845	0.6445465
1451387635076917970	-0.34750366	4.523697	0.7103424
1451387635085310304	-0.7189026	4.4049377	0.89808655
1451387635093702638	-1.1244049	4.128433	0.93325806
1451387635102094972	-1.189331	3.815796	0.9949951
1451387635110487306	-1.1607971	3.6092682	1.0757294
1451387635118879639	-1.1795197	3.5673065	1.1186218
1451387635127271973	-0.9897766	3.6407013	1.2141876
1451387635135664307	-0.7131958	3.7486572	1.8351898
1451387635144056641	-0.3203888	3.73938	2.2507935
1451387635152448975	0.047943115	3.758728	2.7052307
1451387635160841309	0.39720154	3.902588	3.0847778
1451387635169233643	0.8241272	4.2206726	3.3617096
1451387635177625977	1.4291382	4.671417	3.5220642
1451387635186018311	2.2089233	5.19075	3.5263214
1451387635194410645	2.92453	5.9104767	3.3371277
1451387635202802979	3.7115784	6.9731445	3.1612244
1451387635211195313	4.4445953	8.655487	3.3178558
1451387635219587647	5.2026367	10.72847	4.1492157
1451387635227979981	6.0691833	12.756409	5.435486
1451387635236372315	7.0966644	14.266693	6.7564087
1451387635244764649	8.199738	14.957123	7.7786255
1451387635253156983	8.989975	14.925186	8.439774
1451387635261549317	8.809021	14.421371	8.45108
1451387635269941651	8.211975	13.811462	7.972107
1451387635278333985	7.140793	12.772293	7.3422394
1451387635286726319	5.7739563	11.209747	6.5932465
1451387635295118653	4.6802216	9.270706	5.907669
1451387635303510987	4.0472107	7.5737762	5.5048523
1451387635311903321	3.38591	7.4556885	5.0073853
1451387635320295655	3.027069	9.642593	4.4809723
1451387635328687989	2.2127228	12.662949	2.7275543
1451387635337080323	0.54141235	15.489838	0.5834961
1451387635345472657	-1.1232758	16.506805	-0.38284302
1451387635353864991	-1.6212769	14.823013	0.3307495
1451387635362257325	-1.0942383	11.6107025	0.84342957
1451387635370649659	-1.6052399	8.434692	2.9676208
1451387635379041993	-3.7902374	5.7678833	4.3768463
1451387635387434327	-4.19516	4.554886	5.3693237
1451387635395826661	-3.5222015	4.482025	5.7394867
1451387635404218995	-2.4759827	4.9726257	4.5895386
1451387635412611329	-1.5551758	5.87796	1.174118
1451387635421003663	-1.1323242	7.6005554	-3.8082275
1451387635429395997	-0.8691101	9.7473755	-5.4872284
1451387635437788331	-0.5054016	11.7595215	-4.382248
1451387635446180665	-0.41893005	13.52298	-2.2993164
1451387635454572999	0.4182434	14.63295	-0.7150421
1451387635462965333	1.9912109	14.778351	-0.034317017
1451387635471357667	3.70224	13.996719	-0.08023071
1451387635479750001	5.0000153	12.730072	-0.53648376
1451387635488142335	5.7259064	11.566193	-0.8613739
1451387635496534669	4.7939606	10.718567	-0.308136
1451387635504927003	3.6505585	9.71225	0.42190552
1451387635513319337	2.6304169	8.525711	0.9523163
1451387635521711671	1.700943	7.429535	1.0059204
1451387635530104005	0.7901306	6.679352	0.47427368
1451387635538496339	-0.055786133	6.320938	-0.44152832
1451387635546888673	-0.7652283	6.182144	-0.9566498
1451387635555281007	-1.248703	6.411133	-1.3481598
1451387635563673341	-0.9717865	6.882141	-1.3592834
1451387635572065675	-0.4758911	7.4504547	-1.0995331
1451387635580458009	0.12626648	7.90744	-0.74172974
1451387635588850343	0.75691223	8.127502	-0.4502716
1451387635597242677	1.2747345	8.173859	-0.31515503
1451387635605635011	1.7435913	8.349396	-0.2896881
1451387635614027345	1.9368896	8.731888	-0.048065186
1451387635622419679	2.1310577	8.812088	-0.087142944
1451387635630812013	2.0214844	8.854874	0.22434998
1451387635639204347	1.8497925	8.747681	0.31651306
1451387635647596681	1.6809235	8.429138	0.01953125
1451387635655989014	1.2518005	7.9116516	-0.23953247
1451387635664381348	0.7107849	7.370346	-0.12161255
1451387635672773682	0.34477234	7.196594	0.10971069
1451387635681166016	0.19580078	7.270767	0.24575806
1451387635689558350	0.23622131	7.518753	0.40248108
1451387635697950684	0.39276123	7.879181	0.5015259
1451387635706343018	0.59620667	8.238037	0.43614197
1451387635714735352	0.79841614	8.509827	0.19866943
1451387635723127686	0.9118347	8.753677	-0.048080444
1451387635731520020	0.9230499	8.845276	-0.26678467
1451387635739912354	0.97106934	8.972748	-0.45133972
1451387635748304688	0.98716736	9.117065	-0.56378174
1451387635756697022	0.9333191	9.281143	-0.6356201
1451387635765089356	0.83551025	9.457367	-0.73516846
1451387635773481690	0.75720215	9.597717	-0.89852905
1451387635781874024	0.6338196	9.637817	-0.9910736
1451387635790266358	0.5879059	9.848343	-1.0448608
1451387635798658692	0.6363983	10.143005	-1.0594635
1451387635807051026	0.69462585	10.482025	-1.1969147
1451387635815443360	0.82362366	10.854721	-1.4476318
1451387635823835694	1.0880585	11.174652	-1.6662598
1451387635832228028	1.4560089	11.272842	-1.6854858
1451387635840620362	1.9032745	11.134033	-1.4911652
1451387635849012696	2.3564453	10.936005	-1.0027008
1451387635857405030	2.6362762	11.063843	-0.412735
1451387635865797364	2.815796	11.405762	0.1798706
1451387635874189698	2.940628	11.8072815	0.48057556
1451387635882582032	3.1304932	12.080872	0.28700256
1451387635890974366	3.5468903	12.102478	-0.23950195
1451387635899366700	4.093872	12.111725	-0.343338
1451387635907759034	4.3019257	12.245697	-0.10423279
1451387635916151368	4.0367737	12.2283325	-0.25108337
1451387635924543702	3.1871033	12.110992	-0.36643982
1451387635932936036	2.0216827	11.941788	-0.30960083
1451387635941328370	0.9155121	11.854492	-0.21083069
1451387635949720704	0.10658264	12.037827	-0.20835876
1451387635958113038	-0.47433472	12.546768	0.06616211
1451387635966505372	-0.9230957	13.565872	0.6562042
1451387635974897706	-1.1770172	14.306015	1.4306183
1451387635983290040	-1.7365723	14.757904	1.9033813
1451387635991682374	-2.6967773	14.912735	1.7134857
1451387636000074708	-3.9694214	14.889801	0.7729645
1451387636008467042	-5.291168	14.874069	-0.58348083
1451387636016859376	-6.050308	14.880585	-1.4755402
1451387636025251710	-5.7881165	14.561844	-1.0180054
1451387636033644044	-5.055252	14.158249	0.17616272
1451387636042036378	-4.240616	13.688919	1.5651398
1451387636050428712	-3.4860687	13.278793	2.5721436
1451387636058821046	-2.816986	12.969894	2.976822
1451387636067213380	-2.2889862	12.660461	2.9633026
1451387636075605714	-2.089798	12.1453705	2.8756104
1451387636083998048	-1.2302551	11.266296	2.2319794
1451387636092390382	-0.5020447	10.307678	1.6651917
1451387636100782716	-0.18676758	9.530029	1.3399048
1451387636109175050	0.099746704	8.989319	1.1421814
1451387636117567384	0.5336304	8.616013	0.9554901
1451387636125959718	1.0333099	8.342651	0.75505066
1451387636134352052	1.4137268	8.075272	0.64286804
1451387636142744386	1.4106445	7.864502	0.10720825
1451387636151136720	1.4227448	7.600235	-0.23846436
1451387636159529054	1.5375061	7.069214	-0.5726471
1451387636167921388	1.5951843	6.4799805	-0.9118347
1451387636176313722	1.4255829	6.042145	-1.0866699
1451387636184706056	1.067276	5.6234436	-0.78959656
1451387636193098389	0.7207947	5.0857086	-0.04006958
1451387636201490723	0.38409424	4.7478027	0.2451477
1451387636209883057	0.1355133	4.6283264	0.43675232
1451387636218275391	-0.22019958	4.442398	0.7162323
1451387636226667725	-0.50878906	4.124893	1.1118774
1451387636235060059	-0.6452179	3.78685	1.4647522
1451387636243452393	-0.7872162	3.6029816	1.5567322
1451387636251844727	-0.70495605	3.6914063	1.5392609
1451387636260237061	-0.5727997	3.877655	1.7304077
1451387636268629395	-0.23080444	4.017868	2.0216064
1451387636277021729	0.20593262	4.094116	2.3464508
1451387636285414063	0.61279297	4.2040863	2.7776947
1451387636293806397	1.0468445	4.445709	3.2865753
1451387636302198731	1.6819763	4.8290253	3.6957092
1451387636310591065	2.395523	5.234131	3.9219208
1451387636318983399	3.1416016	5.6819305	3.8948975
1451387636327375733	3.6937103	6.4603577	3.4950562
1451387636335768067	4.32106	7.5970917	3.1843414
1451387636344160401	5.0872803	9.066193	3.5502625
1451387636352552735	5.9252014	10.708801	4.576599
1451387636360945069	6.7813263	12.212433	5.7371674
1451387636369337403	7.8023987	13.160187	6.918274
1451387636377729737	8.416214	13.5169525	7.642105
1451387636386122071	8.754196	13.356781	8.142151
1451387636394514405	8.494324	12.860947	8.146973
1451387636402906739	7.540756	12.1089325	7.5437927
1451387636411299073	6.175537	11.125092	6.4645386
1451387636419691407	4.8257904	9.898483	5.327057
1451387636428083741	3.5750122	8.407028	4.779892
1451387636436476075	2.6979828	7.246216	4.265808
1451387636444868409	2.2542572	7.1177063	4.4278107
1451387636453260743	1.9596863	8.217117	4.896347
1451387636461653077	1.781662	10.1922	4.7276154
1451387636470045411	1.4780273	12.5737	3.4317932
1451387636478437745	0.47612	14.711914	1.0397339
1451387636486830079	-0.9870453	15.377228	0.08718872
1451387636495222413	-2.4069366	14.917633	0.40899658
1451387636503614747	-3.3455048	13.933273	2.0635376
1451387636512007081	-3.2804108	12.386368	3.548584
1451387636520399415	-2.7055054	10.441589	4.4813232
1451387636528791749	-1.9159698	8.376572	4.7736816
1451387636537184083	-1.0725555	6.759598	4.5302124
1451387636545576417	-0.57081604	5.6995544	2.231247
1451387636553968751	-0.9322815	6.0859833	-1.210907
1451387636562361085	-1.2559357	7.0863953	-3.02211
1451387636570753419	-1.0796967	8.220871	-3.731781
1451387636579145753	-0.72058105	9.541122	-3.6058807
1451387636587538087	-0.24284363	11.06926	-2.8601532
1451387636595930421	0.8867645	12.459793	-1.9476471
1451387636604322755	2.2819977	13.33168	-1.2711029
1451387636612715089	3.7445984	13.246475	-1.3079224
1451387636621107423	4.696457	12.708939	-1.083786
1451387636629499757	4.9507904	11.859299	-0.41278076
1451387636637892091	4.5366974	10.75322	0.4253235
1451387636646284425	3.6273804	9.4765625	0.98902893
1451387636654676759	2.4922943	8.188156	0.98480225
1451387636663069093	1.5083466	7.056137	0.55708313
1451387636671461427	0.19833374	6.5035706	-0.12098694
1451387636679853761	-1.1177216	6.119034	-0.6707611
1451387636688246095	-1.9149017	6.1396027	-0.92048645
1451387636696638429	-2.216156	6.521057	-0.9426117
1451387636705030763	-2.0845337	7.0822906	-0.9017029
1451387636713423097	-1.5006866	7.6125183	-0.84284973
1451387636721815431	-0.7336731	7.8993683	-0.43055725
1451387636730207764	-0.14350891	8.372314	-0.18276978
1451387636738600098	0.6048889	8.692215	-0.38557434
1451387636746992432	1.447876	8.962784	-0.4773407
1451387636755384766	1.9198151	9.259018	-0.19163513
1451387636763777100	2.0307617	9.378784	0.064819336
1451387636772169434	2.13031	9.048553	-0.21305847
1451387636780561768	1.9504547	8.487854	-0.3325653
1451387636788954102	1.7191162	8.019012	-0.0765686
1451387636797346436	1.4543915	7.6151886	-0.017349243
1451387636805738770	1.2876892	7.319031	-0.1124115
1451387636814131104	1.2400513	7.1701965	-0.26583862
1451387636822523438	1.2433167	7.199539	-0.39511108
1451387636830915772	1.2431183	7.422653	-0.44363403
1451387636839308106	1.3278656	7.8263855	-0.35888672
1451387636847700440	1.3967438	8.221191	-0.098739624
1451387636856092774	1.3319244	8.66806	-0.15179443
1451387636864485108	1.3074036	9.103546	-0.23007202
1451387636872877442	1.2771149	9.411255	-0.34205627
1451387636881269776	1.1739197	9.541794	-0.5389404
1451387636889662110	0.9929352	9.5372925	-0.8131714
1451387636898054444	0.8054352	9.450577	-1.051712
1451387636906446778	0.59568787	9.484497	-1.1874237
1451387636914839112	0.34547424	9.652252	-1.2371979
1451387636923231446	0.060897827	9.920486	-1.2355194
1451387636931623780	-0.16929626	10.286911	-1.1443024
1451387636940016114	-0.19396973	10.741516	-1.0516052
1451387636948408448	0.14273071	11.215378	-1.1957397
1451387636956800782	0.7072754	11.4817505	-1.4770966
1451387636965193116	1.530365	11.658585	-1.7715759
1451387636973585450	2.3709412	11.534637	-1.9044647
1451387636981977784	2.8818512	11.2703705	-1.6870728
1451387636990370118	3.0381317	11.016022	-1.1436157
1451387636998762452	2.9434357	10.948639	-0.5089569
1451387637007154786	2.7004852	11.233002	-0.11991882
1451387637015547120	2.5133667	11.790268	-0.18365479
1451387637023939454	2.5717316	12.213272	-0.7594147
1451387637032331788	2.8365936	12.343445	-1.4536133
1451387637040724122	3.0123749	12.463394	-1.4282684
1451387637049116456	3.0196838	12.743317	-0.74287415
1451387637057508790	2.817871	13.175232	0.00970459
1451387637065901124	2.3681946	13.5811615	0.2283783
1451387637074293458	1.8222504	13.680893	-0.08728027
1451387637082685792	1.2038269	13.3437805	-0.08242798
1451387637091078126	0.64112854	12.674423	0.042404175
1451387637099470460	0.044189453	12.002899	0.16481018
1451387637107862794	-0.51542664	11.636826	0.34809875
1451387637116255128	-1.1124725	11.659775	0.6583252
1451387637124647462	-1.9438324	11.955856	0.99713135
1451387637133039796	-2.9832764	12.447296	0.9750366
1451387637141432130	-4.112198	13.030258	0.6275177
1451387637149824464	-5.034668	13.916397	-0.009216309
1451387637158216798	-5.621887	14.670898	-0.6980896
1451387637166609132	-5.6044617	14.82756	-0.90579224
1451387637175001466	-4.9499054	14.291351	-0.31829834
1451387637183393800	-3.9304962	13.384872	0.9627991
1451387637191786134	-2.9525452	12.6119995	2.4767456
1451387637200178468	-2.278061	12.364212	3.4236908
1451387637208570802	-1.8429413	12.390488	3.8162842
1451387637216963136	-1.9039764	12.439896	3.4285126
1451387637225355470	-1.3526764	11.96199	2.4497833
1451387637233747804	-0.57147217	11.036011	1.53508
1451387637242140138	-0.5003662	10.178604	1.1309814
1451387637250532472	-0.17315674	9.590515	0.64868164
1451387637258924806	0.57328796	8.920151	0.14385986
1451387637267317139	1.6349945	8.319733	-0.12295532
1451387637275709473	2.2192688	7.777405	-0.16371155
1451387637284101807	2.4633179	7.2626495	-0.19911194
1451387637292494141	2.508545	6.7216187	-0.20501709
1451387637300886475	2.2825623	6.156479	-0.07148743
1451387637309278809	1.6267242	5.694565	0.05406189
1451387637317671143	1.2958374	5.4048004	-0.27401733
1451387637326063477	0.90541077	5.006134	-0.1963501
1451387637334455811	0.41641235	4.6640167	0.636261
1451387637342848145	0.039978027	4.538559	0.9701538
1451387637351240479	-0.1338501	4.547516	0.7824402
1451387637359632813	-0.18635559	4.4921265	0.6568451
1451387637368025147	-0.30075073	4.2370453	0.6666565
1451387637376417481	-0.47460938	3.778122	0.8965759
1451387637384809815	-0.63764954	3.4558105	1.3416443
1451387637393202149	-0.67762756	3.4096985	1.6846466
1451387637401594483	-0.5205536	3.5530853	1.9754333
1451387637409986817	-0.1651001	3.7321014	2.269394
1451387637418379151	0.31785583	3.8578186	2.46167
1451387637426771485	0.8226929	3.9616547	2.5130615
1451387637435163819	1.2677307	4.1303406	2.7296295
1451387637443556153	1.8318787	4.528137	3.049179
1451387637451948487	2.4904022	5.109375	3.3966217
1451387637460340821	3.138153	5.8217316	3.6963806
1451387637468733155	3.8093567	6.724884	3.9013062
1451387637477125489	4.647049	7.968231	4.051697
1451387637485517823	5.6019745	9.617996	4.3628387
1451387637493910157	6.768936	11.432709	4.851227
1451387637502302491	7.7873535	12.931335	5.4967957
1451387637510694825	8.290009	13.740402	6.409424
1451387637519087159	8.563599	13.888794	7.1819763
1451387637527479493	8.807114	13.6571045	7.6259613
1451387637535871827	8.849564	13.311081	7.8427887
1451387637544264161	8.264328	12.771439	7.7640076
1451387637552656495	6.6089783	11.961227	7.0113983
1451387637561048829	5.3480377	10.19635	6.002014
1451387637569441163	3.7980957	8.352951	5.3693695
1451387637577833497	2.5274048	7.0755157	5.085388
1451387637586225831	1.7653656	6.9266663	5.1206665
1451387637594618165	1.2843475	8.250992	5.2027283
1451387637603010499	1.0526886	10.896912	4.251251
1451387637611402833	0.5169983	13.603043	2.2525024
1451387637619795167	-0.86564636	15.103592	0.35105896
1451387637628187501	-2.0717468	15.335587	-0.029312134
1451387637636579835	-2.918579	14.671494	0.74438477
1451387637644972169	-3.123352	13.308945	2.2803497
1451387637653364503	-2.5503235	11.303223	4.135956
1451387637661756837	-1.7508698	8.908447	5.2956543
1451387637670149171	-1.1586456	7.209915	5.422119
1451387637678541505	-0.62161255	6.173584	4.7612915
1451387637686933839	-0.45555115	5.8480835	2.305542
1451387637695326173	-0.63946533	6.3282776	-0.7815552
1451387637703718507	-0.7722168	7.266159	-3.0493011
1451387637712110841	-0.5505829	8.291931	-3.773697
1451387637720503175	-0.2036438	9.541626	-3.399826
1451387637728895509	0.2980957	11.306992	-2.284256
1451387637737287843	1.216507	12.872467	-1.5506287
1451387637745680177	2.5290375	13.583191	-1.3425903
1451387637754072511	3.8645325	13.345245	-1.1382751
1451387637762464845	4.74263	12.468231	-0.7349701
1451387637770857179	4.9813843	11.353806	-0.2079773
1451387637779249513	4.583496	10.175537	0.35751343
1451387637787641847	3.5131989	8.823364	0.8660126
1451387637796034181	2.4609985	7.724701	0.74983215
1451387637804426514	1.5461273	6.986496	0.36132813
1451387637812818848	0.5636444	6.357147	-0.09791565
1451387637821211182	-0.30612183	5.960327	-0.77075195
1451387637829603516	-0.77427673	5.9643555	-1.4187012
1451387637837995850	-0.9472046	6.2615814	-1.2971954
1451387637846388184	-0.78904724	6.593567	-0.95458984
1451387637854780518	-0.30433655	6.908539	-0.7370453
1451387637863172852	0.012527466	7.2634125	-0.4126892
1451387637871565186	0.38034058	7.6288147	-0.24804688
1451387637879957520	0.93759155	8.034134	-0.47506714
1451387637888349854	1.4220581	8.551926	-0.84913635
1451387637896742188	1.335968	9.130707	-0.38641357
1451387637905134522	1.4079285	9.147171	-0.47792053
1451387637913526856	1.28656	8.979019	-0.404953
1451387637921919190	1.0034027	8.647095	-0.11026001
1451387637930311524	0.61468506	8.261826	0.15646362
1451387637938703858	0.27835083	7.9261017	0.32417297
1451387637947096192	0.16226196	7.7160797	0.48208618
1451387637955488526	0.24967957	7.7148895	0.5510254
1451387637963880860	0.24659729	8.07373	0.5304718
1451387637972273194	0.33822632	8.574631	0.2909851
1451387637980665528	0.546402	8.999023	-0.14685059
1451387637989057862	0.7900238	9.248825	-0.6425934
1451387637997450196	1.0287018	9.254547	-0.97766113
1451387638005842530	1.2732697	9.0542755	-1.017273
1451387638014234864	1.5246124	8.900482	-0.8851929
1451387638022627198	1.631546	8.9652405	-0.744339
1451387638031019532	1.5943298	9.151352	-0.74305725
1451387638039411866	1.3661957	9.364777	-0.88153076
1451387638047804200	1.0347137	9.605194	-1.065445
1451387638056196534	0.73373413	9.898315	-1.1730499
1451387638064588868	0.56970215	10.252716	-1.1428833
1451387638072981202	0.5669861	10.630508	-1.0587921
1451387638081373536	0.7078552	10.972885	-1.2685394
1451387638089765870	1.0367584	11.141174	-1.7724762
1451387638098158204	1.488266	11.067047	-2.1217804
1451387638106550538	2.0089111	10.855438	-1.9963989
1451387638114942872	2.3710022	10.705307	-1.396164
1451387638123335206	2.39357	10.8280945	-0.5474243
1451387638131727540	2.1634064	11.32869	0.23971558
1451387638140119874	1.8271942	11.881851	0.36618042
1451387638148512208	1.7426453	12.284958	-0.42662048
1451387638156904542	1.9398956	12.35997	-1.4032593
1451387638165296876	2.1759644	12.399063	-1.9784241
1451387638173689210	2.36055	12.687332	-1.7769165
1451387638182081544	2.4090118	13.477097	-0.6518097
1451387638190473878	2.2088318	14.389893	0.07974243
1451387638198866212	1.9414978	15.047913	0.18769836
1451387638207258546	1.5958252	15.192734	0.34979248
1451387638215650880	1.0508728	14.645782	0.64541626
1451387638224043214	0.43162537	13.50882	0.4678192
1451387638232435548	-0.070373535	12.299561	-0.03488159
1451387638240827882	-0.5497589	11.423126	-0.25154114
1451387638249220216	-1.2828217	11.116104	0.19902039
1451387638257612550	-2.4353943	11.388565	0.39952087
1451387638266004884	-3.6963959	11.942932	0.13943481
1451387638274397218	-4.7642517	12.847382	-0.41018677
1451387638282789552	-5.4440002	13.806519	-0.8727112
1451387638291181886	-5.567383	14.33638	-0.861969
1451387638299574220	-5.089508	14.112579	-0.19174194
1451387638307966554	-4.2905426	13.407654	0.9320679
1451387638316358888	-3.4885712	12.796936	2.0568848
1451387638324751222	-2.881546	12.602646	2.749298
1451387638333143556	-2.6015167	12.640259	3.074463
1451387638341535889	-2.394928	12.561844	3.0707855
1451387638349928223	-2.0059814	12.203537	2.5718231
1451387638358320557	-1.2593384	11.493439	1.6286011
1451387638366712891	-0.06373596	10.222839	1.0773926
1451387638375105225	0.18200684	9.565857	0.70417786
1451387638383497559	0.6032562	9.059952	0.26037598
1451387638391889893	1.5213013	8.582748	-0.0899353
1451387638400282227	2.2787933	7.9769287	-0.37156677
1451387638408674561	2.541214	7.3496094	-0.47824097
1451387638417066895	2.4420166	6.8018494	-0.37065125
1451387638425459229	2.2091217	6.0862427	-0.32580566
1451387638433851563	1.312561	5.6513367	0.07209778
1451387638442243897	0.6191559	5.36232	-0.1265564
1451387638450636231	0.250885	5.1744385	-0.23046875
1451387638459028565	-0.1602478	4.9537506	0.27545166
1451387638467420899	-0.61026	4.746109	0.979599
1451387638475813233	-0.87242126	4.678192	1.2034454
1451387638484205567	-0.8778229	4.745529	0.9228363
1451387638492597901	-0.72052	4.5347443	0.7614136
1451387638500990235	-0.61032104	4.1449585	0.7997284
1451387638509382569	-0.7745056	3.8077087	1.148819
1451387638517774903	-0.87965393	3.5482025	1.5631256
1451387638526167237	-0.7955322	3.468872	1.9322662
1451387638534559571	-0.53959656	3.5717926	2.2983093
1451387638542951905	-0.12680054	3.6407318	2.7194214
1451387638551344239	0.2906494	3.6345673	2.9003754
1451387638559736573	0.7484436	3.7773285	3.1207428
1451387638568128907	1.3818512	4.25708	3.313736
1451387638576521241	2.2002258	4.901306	3.5608368
1451387638584913575	3.1569977	5.6379547	3.8295593
1451387638593305909	4.194824	6.568527	4.080017
1451387638601698243	5.2776184	7.878784	4.338562
1451387638610090577	6.3927155	9.48085	4.5460663
1451387638618482911	7.813492	11.710541	5.0589905
1451387638626875245	8.968277	13.80983	5.627533
1451387638635267579	9.584549	15.116501	6.2730865
1451387638643659913	9.6006775	15.429169	7.1248627
1451387638652052247	9.147446	15.066879	8.179764
1451387638660444581	8.574173	14.636185	9.030151
1451387638668836915	7.9696198	14.100525	9.330383
1451387638677229249	6.6375732	12.461304	8.498062
1451387638685621583	5.131241	9.752686	6.942337
1451387638694013917	3.582306	7.028076	5.30101
1451387638702406251	2.0965118	5.15271	4.0275726
1451387638710798585	0.7627716	4.502487	3.3171234
1451387638719190919	-0.5166321	5.2435303	3.2041779
1451387638727583253	-1.4245148	7.584656	2.251068
1451387638735975587	-2.4732513	10.382523	0.8134155
1451387638744367921	-3.3252869	13.238235	0.18144226
1451387638752760255	-3.5542908	15.56488	1.095108
1451387638761152589	-2.849228	16.971542	2.7436066
1451387638769544923	-1.3652344	17.116959	3.8538818
1451387638777937257	0.027053833	15.446655	4.4831543
1451387638786329591	0.63778687	12.162704	4.703171
1451387638794721925	0.5358734	8.938278	4.4221497
1451387638803114259	0.28312683	6.5279846	3.2310638
1451387638811506593	-0.4344635	5.3486176	1.2865143
1451387638819898927	-1.3684387	5.223175	-0.9082184
1451387638828291261	-1.8315277	5.792267	-2.8796844
1451387638836683595	-1.3815308	7.0264435	-4.441742
1451387638845075929	-0.96203613	8.842178	-4.6175537
1451387638853468263	-0.29858398	10.624268	-3.1913147
1451387638861860597	0.6682434	12.20372	-2.1735535
1451387638870252931	2.0216675	13.08223	-1.7214813
1451387638878645264	3.6180115	13.103378	-1.447403
1451387638887037598	4.9846497	12.471451	-0.90504456
1451387638895429932	5.44928	11.556656	0.044158936
1451387638903822266	4.9876404	10.541855	0.83070374
1451387638912214600	3.8386078	9.446976	1.2254028
1451387638920606934	2.7447815	8.318329	0.99108887
1451387638928999268	1.7038574	7.2805023	0.3050995
1451387638937391602	0.48815918	6.4771423	-0.46479797
1451387638945783936	-0.7945099	6.057083	-0.9430847
1451387638954176270	-1.5953827	6.1197357	-0.9551697
1451387638962568604	-2.2780914	6.50943	-0.8729248
1451387638970960938	-2.0800781	6.8767395	-0.85289
1451387638979353272	-1.3883514	7.2025757	-0.8324127
1451387638987745606	-0.8603058	7.541336	-0.3754425
1451387638996137940	-0.32836914	7.916519	-0.17718506
1451387639004530274	0.3037262	8.414032	-0.4241333
1451387639012922608	0.6523285	9.142563	-0.2170105
1451387639021314942	1.2517548	9.483917	-0.38357544
1451387639029707276	1.5707703	9.361832	-0.12928772
1451387639038099610	1.7601776	8.922607	0.26164246
1451387639046491944	1.6755524	8.327667	0.5479126
1451387639054884278	1.462326	7.6660156	0.66941833
1451387639063276612	1.3128204	7.0619965	0.6000061
1451387639071668946	1.2951508	6.880783	0.4307251
1451387639080061280	1.2272797	7.2725067	0.092453
1451387639088453614	1.1513519	8.141708	-0.116607666
1451387639096845948	1.2139893	8.929199	-0.36524963
1451387639105238282	1.3562012	9.45459	-0.42131042
1451387639113630616	1.427414	9.604004	-0.38882446
1451387639122022950	1.3561707	9.43251	-0.47612
1451387639130415284	1.4595032	9.116394	-0.48544312
1451387639138807618	1.6147614	8.894302	-0.55844116
1451387639147199952	1.5292511	8.784866	-0.70503235
1451387639155592286	1.362442	8.798355	-0.917572
1451387639163984620	1.112854	9.020905	-1.0627594
1451387639172376954	0.74560547	9.438034	-1.0927734
1451387639180769288	0.35455322	9.945587	-1.1173859
1451387639189161622	0.25434875	10.425964	-1.3604431
1451387639197553956	0.47024536	10.733383	-1.7120819
1451387639205946290	0.91519165	10.946228	-2.1026459
1451387639214338624	1.4609528	11.113113	-2.3388367
1451387639222730958	2.0271454	11.215363	-2.215149
1451387639231123292	2.4719238	11.285431	-1.7440796
1451387639239515626	2.6747894	11.3554535	-1.061264
1451387639247907960	2.6345367	11.405258	-0.27928162
1451387639256300294	2.423767	11.538925	0.38490295
1451387639264692628	2.3889313	11.889206	0.2725067
1451387639273084962	2.54982	12.155655	-0.2861328
1451387639281477296	2.902893	12.280563	-0.87231445
1451387639289869630	3.3701324	12.297424	-1.1152191
1451387639298261964	3.766571	12.268021	-0.9366913
1451387639306654298	3.8175964	12.273254	-0.61505127
1451387639315046632	3.2664948	12.623856	-0.27677917
1451387639323438966	2.4655762	12.794083	-0.03593445
1451387639331831300	1.7381744	12.821823	-0.26817322
1451387639340223634	1.0394745	12.796463	-0.59983826
1451387639348615968	0.30421448	12.714142	-0.54499817
1451387639357008302	-0.45082092	12.697205	0.064956665
1451387639365400636	-1.123642	12.970367	0.93733215
1451387639373792970	-1.701477	13.075256	1.7680817
1451387639382185304	-2.702118	12.956909	1.7433777
1451387639390577638	-3.8964844	12.984879	0.91186523
1451387639398969972	-5.0394287	13.186356	-0.027923584
1451387639407362306	-5.931839	13.678024	-0.6916046
1451387639415754639	-6.2319946	14.212082	-0.81066895
1451387639424146973	-5.603302	14.209503	-0.17414856
1451387639432539307	-4.522705	13.761246	0.98869324
1451387639440931641	-3.5002136	13.066467	2.042328
1451387639449323975	-2.6434937	12.644562	2.782135
1451387639457716309	-1.7705078	12.42421	3.1000366
1451387639466108643	-1.2333832	12.198746	2.9624481
1451387639474500977	-0.82806396	11.790863	2.456726
1451387639482893311	0.43743896	11.01622	1.655899
1451387639491285645	0.88778687	10.321182	1.0585327
1451387639499677979	0.90737915	9.681259	0.75819397
1451387639508070313	1.4293365	8.960754	0.45236206
1451387639516462647	2.043167	8.58139	0.31051636
1451387639524854981	2.524414	8.425262	0.06048584
1451387639533247315	2.783142	8.246796	-0.25404358
1451387639541639649	2.7854462	7.9111633	-0.39471436
1451387639550031983	2.4705963	7.435425	-0.8661194
1451387639558424317	1.9481049	6.801712	-0.5436554
1451387639566816651	1.4137268	6.261444	-0.75971985
1451387639575208985	0.93562317	5.8354797	-0.9366913
1451387639583601319	0.32659912	5.4588623	-0.4997406
1451387639591993653	-0.57881165	5.098892	0.50764465
1451387639600385987	-1.5285187	4.8416443	1.2153168
1451387639608778321	-1.690979	4.5321655	0.94389343
1451387639617170655	-1.6376038	4.221756	0.9474182
1451387639625562989	-1.6706238	3.975937	1.2052002
1451387639633955323	-1.6708984	3.7265167	1.511673
1451387639642347657	-1.5544739	3.5112305	1.700943
1451387639650739991	-1.2897797	3.3959503	1.8151245
1451387639659132325	-0.84913635	3.3809357	2.1007843
1451387639667524659	-0.23530579	3.5372162	2.414383
1451387639675916993	0.21195984	3.7480621	2.6686401
1451387639684309327	0.65870667	4.019745	2.9374084
1451387639692701661	1.2071075	4.3899536	3.1467743
1451387639701093995	1.8732758	4.8692017	3.2269287
1451387639709486329	2.59346	5.48349	3.0976563
1451387639717878663	3.2914429	6.2982483	2.7033386
1451387639726270997	4.101639	7.3675537	2.2725372
1451387639734663331	5.102127	9.045746	2.3413544
1451387639743055665	6.222641	11.13858	3.110489
1451387639751447999	7.2849274	13.179779	4.293762
1451387639759840333	8.129623	14.870789	5.718292
1451387639768232667	8.841629	15.923691	7.240494
1451387639776625001	9.628815	16.086288	8.675018
1451387639785017335	9.942413	15.683243	9.878983
1451387639793409669	9.217728	14.657654	10.335098
1451387639801802003	8.015869	12.405472	10.042923
1451387639810194337	6.362503	9.525742	8.972
1451387639818586671	4.645706	6.8157654	7.354248
1451387639826979005	3.1384583	4.867401	5.4230957
1451387639835371339	1.8157501	3.9461975	3.46167
1451387639843763673	0.7073822	4.257736	2.3882751
1451387639852156007	-0.12133789	5.987747	1.8143616
1451387639860548341	-0.9281769	8.609009	0.59976196
1451387639868940675	-1.9009094	11.523987	-0.77822876
1451387639877333009	-2.8746796	14.657547	-1.1867218
1451387639885725343	-3.0374298	17.33612	0.40559387
1451387639894117677	-1.6703644	18.138	2.6329498
1451387639902510011	0.58465576	16.884735	4.122986
1451387639910902345	1.2146454	13.678726	5.1072083
1451387639919294679	0.84562683	9.676117	5.6875763
1451387639927687013	0.06794739	6.9887695	5.837311
1451387639936079347	-0.40646362	5.5484314	5.238632
1451387639944471681	-0.6444092	4.762619	3.4463196
1451387639952864014	-1.0904694	4.727646	-0.32292175
1451387639961256348	-1.4924774	5.6622467	-3.717926
1451387639969648682	-1.1618347	7.3257904	-5.4884186
1451387639978041016	-0.9873047	9.302643	-5.1291046
1451387639986433350	-0.65000916	11.215225	-3.4312897
1451387639994825684	0.15408325	12.871948	-1.8820648
1451387640003218018	1.5401611	13.922577	-1.3832245
1451387640011610352	3.4034576	13.726898	-1.3281555
1451387640020002686	4.828491	12.861191	-0.78323364
1451387640028395020	5.0408325	11.889114	0.044692993
1451387640036787354	4.3277283	10.779312	0.9085083
1451387640045179688	3.2455292	9.65271	1.4372101
1451387640053572022	2.2269135	8.611694	1.3422241
1451387640061964356	1.3834991	7.684906	0.6582489
1451387640070356690	0.4865265	6.8440247	-0.18803406
1451387640078749024	-0.76268005	6.196289	-0.7473602
1451387640087141358	-1.439621	6.100479	-0.8486481
1451387640095533692	-1.5555267	6.3820343	-0.8560486
1451387640103926026	-1.4059601	6.9295044	-0.8314667
1451387640112318360	-1.1189728	7.511917	-0.61868286
1451387640120710694	-0.6457367	7.862915	-0.31681824
1451387640129103028	0.11651611	7.8854218	-0.3451233
1451387640137495362	1.0418854	8.140411	-0.42840576
1451387640145887696	1.6227417	8.4388275	-0.58769226
1451387640154280030	1.856842	8.9109955	-0.3546753
1451387640162672364	2.0338898	9.135696	-0.32432556
1451387640171064698	2.10083	9.0634	-0.34588623
1451387640179457032	1.9044647	8.808151	-0.15533447
1451387640187849366	1.4430542	8.470581	0.17341614
1451387640196241700	1.0328064	8.16214	0.3574524
1451387640204634034	0.6839142	8.007553	0.21765137
1451387640213026368	0.49552917	7.946869	0.058059692
1451387640221418702	0.438385	8.013184	-0.12780762
1451387640229811036	0.4592743	8.116516	-0.31170654
1451387640238203370	0.5562134	8.24501	-0.4467163
1451387640246595704	0.7501221	8.468704	-0.47169495
1451387640254988038	0.9310608	8.684616	-0.28764343
1451387640263380372	1.2677307	8.819611	-0.22244263
1451387640271772706	1.5330658	8.854126	-0.40596008
1451387640280165040	1.7915039	8.98204	-0.63179016
1451387640288557374	1.9398651	9.169708	-0.9354553
1451387640296949708	1.8454437	9.379562	-1.2859344
1451387640305342042	1.4581757	9.595627	-1.535965
1451387640313734376	0.8898926	9.675751	-1.6150055
1451387640322126710	0.48068237	9.8207245	-1.6150055
1451387640330519044	0.34005737	10.109177	-1.5852509
1451387640338911378	0.46496582	10.405731	-1.6000061
1451387640347303712	0.8403778	10.665283	-1.675766
1451387640355696046	1.4522247	10.872467	-1.7853394
1451387640364088380	2.0943298	11.044861	-1.7992401
1451387640372480714	2.4942932	11.166183	-1.5000458
1451387640380873048	2.595581	11.162201	-1.0934448
1451387640389265382	2.463745	11.211029	-0.78692627
1451387640397657716	2.1461792	11.396011	-0.54922485
1451387640406050050	1.7899628	11.656021	-0.33651733
1451387640414442384	1.5859528	11.905731	-0.26460266
1451387640422834718	1.6905975	12.126633	-0.5837097
1451387640431227052	2.218048	12.166733	-0.9250488
1451387640439619386	2.6974487	12.244308	-0.8234558
1451387640448011720	2.9238129	12.377609	-0.54260254
1451387640456404054	2.757553	12.543549	-0.26139832
1451387640464796388	2.2521667	12.664749	0.030761719
1451387640473188722	1.6407776	12.68161	0.3116455
1451387640481581056	1.2145538	12.635727	0.45228577
1451387640489973389	1.0027618	12.787888	0.7082977
1451387640498365723	0.7987976	12.336655	0.8350067
1451387640506758057	0.54167175	11.754868	0.8392792
1451387640515150391	0.2605896	11.339111	0.7019501
1451387640523542725	-0.28219604	11.13765	0.49456787
1451387640531935059	-1.2887878	11.21376	0.30821228
1451387640540327393	-2.6577759	11.734161	0.15187073
1451387640548719727	-3.8514862	12.652298	-0.19668579
1451387640557112061	-4.618927	13.961777	-0.8137512
1451387640565504395	-4.9220886	14.961761	-1.184906
1451387640573896729	-4.697891	15.176971	-0.6682129
1451387640582289063	-4.046936	14.694153	0.53596497
1451387640590681397	-3.216568	13.902298	1.9673004
1451387640599073731	-2.5141144	13.222519	3.2511292
1451387640607466065	-2.147049	12.895554	3.9739227
1451387640615858399	-2.1318665	12.743515	3.682846
1451387640624250733	-1.774292	12.3311615	2.796646
1451387640632643067	-0.8753357	11.715012	1.7801819
1451387640641035401	-0.15612793	10.916	1.0598755
1451387640649427735	0.12174988	10.104782	0.66963196
1451387640657820069	0.49432373	9.505905	0.39697266
1451387640666212403	1.5106964	9.013702	0.4215088
1451387640674604737	2.3208923	8.420441	0.28683472
1451387640682997071	2.6149902	7.9616394	0.15907288
1451387640691389405	2.6176758	7.4886017	-0.37078857
1451387640699781739	2.4076996	6.902115	-0.696579
1451387640708174073	1.9715729	6.3517914	-0.6669769
1451387640716566407	1.343216	6.0251923	-0.66848755
1451387640724958741	0.9144745	5.6221466	-0.74868774
1451387640733351075	0.6446228	5.294815	-0.41481018
1451387640741743409	0.09788513	4.998047	0.5015869
1451387640750135743	-0.53985596	4.837158	0.99617004
1451387640758528077	-0.89253235	4.7416077	0.90515137
1451387640766920411	-0.89212036	4.536743	0.71588135
1451387640775312745	-0.98672485	4.106964	0.8783264
1451387640783705079	-1.0196228	3.5435333	1.3389435
1451387640792097413	-0.97720337	3.2241669	1.7700043
1451387640800489747	-0.8166046	3.2395782	2.0315094
1451387640808882081	-0.42321777	3.3767242	2.3128204
1451387640817274415	0.12728882	3.4872894	2.6270294
1451387640825666749	0.63960266	3.5551453	2.8822937
1451387640834059083	0.98254395	3.6776733	3.021286
1451387640842451417	1.4812012	3.9779053	3.077835
1451387640850843751	2.1324768	4.5629425	3.0177307
1451387640859236085	2.905899	5.279373	2.9075012
1451387640867628419	3.7440033	6.0412292	2.7667084
1451387640876020753	4.575424	7.076782	2.6346283
1451387640884413087	5.4813843	8.594177	2.8144073
1451387640892805421	6.5915527	10.544464	3.7696228
1451387640901197755	7.3123016	12.733429	5.232712
1451387640909590089	7.934967	14.2278595	6.566986
1451387640917982423	8.505386	14.913025	7.9350586
1451387640926374757	9.046661	14.927429	8.904526
1451387640934767091	9.288544	14.607193	9.313583
1451387640943159425	8.907318	13.995941	9.061295
1451387640951551759	7.7693787	12.776245	8.063812
1451387640959944093	6.1253204	10.878235	6.5822296
1451387640968336427	4.1774445	8.621887	5.5559235
1451387640976728761	2.6680908	6.8181915	5.0276337
1451387640985121095	1.7830505	5.865616	4.6915894
1451387640993513429	1.2581787	6.0947266	4.6009827
1451387641001905763	0.94467163	7.486603	4.433197
1451387641010298097	0.83413696	9.619537	3.4936066
1451387641018690431	0.44241333	11.8918	1.6141052
1451387641027082764	-0.7225189	14.213394	-0.24891663
1451387641035475098	-1.8753815	16.03366	-0.07910156
1451387641043867432	-2.6655426	16.746689	0.87094116
1451387641052259766	-2.5077057	15.638046	2.1057892
1451387641060652100	-1.6649017	12.941208	3.382721
1451387641069044434	-1.0713959	9.307175	4.455353
1451387641077436768	-1.1495361	6.9434204	5.164795
1451387641085829102	-1.2952576	5.3823395	4.6698914
1451387641094221436	-1.2094421	5.0247345	2.0027313
1451387641102613770	-1.3010712	5.5597076	-1.0608673
1451387641111006104	-1.2667999	6.428879	-3.135025
1451387641119398438	-0.99435425	7.472336	-3.999054
1451387641127790772	-0.61860657	9.030823	-3.8356323
1451387641136183106	-0.37287903	11.0151825	-2.5350037
1451387641144575440	0.39593506	12.8945465	-1.9154358
1451387641152967774	1.6527405	13.853363	-1.6085968
1451387641161360108	3.3238678	13.687958	-1.289566
1451387641169752442	4.782074	12.76384	-0.7918091
1451387641178144776	5.305893	11.662003	-0.06312561
1451387641186537110	4.6676636	10.73822	0.83366394
1451387641194929444	3.6055756	9.619568	1.2881165
1451387641203321778	2.5087585	8.455582	1.0895386
1451387641211714112	1.515564	7.384186	0.6559906
1451387641220106446	0.4401245	6.6012573	-0.073349
1451387641228498780	-0.510025	6.1871643	-0.6837311
1451387641236891114	-1.1641693	6.1333313	-0.80807495
1451387641245283448	-1.6128235	6.372116	-0.58406067
1451387641253675782	-1.5213165	6.7257996	-0.58714294
1451387641262068116	-1.0168304	7.2299347	-0.40930176
1451387641270460450	-0.37857056	7.5836334	0.005004883
1451387641278852784	0.5005951	7.8547974	-0.19625854
1451387641287245118	1.2671967	8.270004	-0.38316345
1451387641295637452	1.7133484	8.8029785	-0.25177002
1451387641304029786	2.020218	9.118729	-0.47349548
1451387641312422120	2.156952	9.17218	-0.6544647
1451387641320814454	2.02417	8.815826	-0.42158508
1451387641329206788	1.6517334	8.402084	-0.16374207
1451387641337599122	1.3308563	8.014069	0.06945801
1451387641345991456	1.1059265	7.717575	0.28692627
1451387641354383790	0.96499634	7.5939484	0.4624176
1451387641362776124	0.9088898	7.7047577	0.5120392
1451387641371168458	0.8163605	7.9751587	0.3578186
1451387641379560792	0.6932068	8.302734	-0.19242859
1451387641387953126	0.68296814	8.492081	-0.60780334
1451387641396345460	0.68573	8.664932	-0.8525543
1451387641404737794	0.73550415	8.798294	-0.8569641
1451387641413130128	0.84947205	8.875275	-0.7230835
1451387641421522462	0.97958374	8.942688	-0.56933594
1451387641429914796	1.0823975	9.087662	-0.5898895
1451387641438307130	1.0952911	9.293045	-0.874115
1451387641446699464	0.92752075	9.564178	-1.1139221
1451387641455091798	0.6791687	9.925308	-1.103241
1451387641463484132	0.48132324	10.284973	-0.99690247
1451387641471876466	0.4248047	10.610428	-0.96725464
1451387641480268800	0.658371	10.943405	-1.1717072
1451387641488661134	1.1391754	11.285568	-1.5167999
1451387641497053468	1.8136597	11.380157	-2.0894928
1451387641505445802	2.5200195	11.160721	-2.3526
1451387641513838136	3.1236725	10.859909	-2.221405
1451387641522230470	3.4919586	10.651398	-1.5996246
1451387641530622804	3.5393372	10.732666	-0.64404297
1451387641539015138	3.2849426	11.218979	0.236969
1451387641547407472	2.9672394	11.961334	0.47653198
1451387641555799806	2.891693	12.445236	0.25476074
1451387641564192139	2.920105	12.498184	-0.19137573
1451387641572584473	3.0974731	12.301468	-0.53504944
1451387641580976807	3.3148346	12.099289	-0.69215393
1451387641589369141	3.3059082	12.039597	-0.7382355
1451387641597761475	2.7805786	12.094254	-0.7049408
1451387641606153809	1.7863617	12.117905	-0.19908142
1451387641614546143	0.9911804	12.214737	0.1652832
1451387641622938477	0.4166565	12.544846	-0.044036865
1451387641631330811	-0.026351929	12.727905	-0.18170166
1451387641639723145	-0.40776062	12.923813	0.28042603
1451387641648115479	-0.8363037	13.396561	1.1482391
1451387641656507813	-1.4431152	14.062515	1.5489044
1451387641664900147	-2.1741486	14.248611	1.087265
1451387641673292481	-3.5108337	14.268616	0.46450806
1451387641681684815	-4.6911926	14.444138	-0.22485352
1451387641690077149	-5.607895	14.73996	-0.80740356
1451387641698469483	-5.958847	14.812927	-0.9384918
1451387641706861817	-5.5791626	14.442612	-0.38008118
1451387641715254151	-4.6584015	13.750992	0.8140564
1451387641723646485	-3.722763	13.084732	2.2689056
1451387641732038819	-3.0191498	12.724472	3.0297241
1451387641740431153	-2.3493958	12.541092	3.2403717
1451387641748823487	-1.8560944	12.173813	2.940094
1451387641757215821	-1.1652374	11.525345	2.2522125
1451387641765608155	-0.37519836	10.66507	1.4997101
1451387641774000489	-0.02960205	9.788635	1.0342712
1451387641782392823	0.047454834	9.2530365	0.7641907
1451387641790785157	0.67463684	8.735855	0.3046112
1451387641799177491	1.4996033	8.444962	0.22157288
1451387641807569825	2.1181335	8.155457	0.10385132
1451387641815962159	2.4928436	7.8923645	-0.14489746
1451387641824354493	2.6186676	7.5621033	-0.41882324
1451387641832746827	2.4525604	7.0096893	-0.5470123
1451387641841139161	2.057251	6.395523	-0.46209717
1451387641849531495	1.8238525	5.904068	-0.811676
1451387641857923829	1.6628113	5.3234863	-0.8171387
1451387641866316163	1.0738525	4.767456	-0.20516968
1451387641874708497	0.2794037	4.330765	0.5556488
1451387641883100831	-0.34628296	4.0767975	0.9601288
1451387641891493165	-0.6838989	3.984085	0.9063873
1451387641899885499	-1.0979614	3.8848114	0.8961334
1451387641908277833	-1.3817444	3.4509277	1.2816925
1451387641916670167	-1.4231262	3.181015	1.5987701
1451387641925062501	-1.4779663	3.2552185	1.8849487
1451387641933454835	-1.2522278	3.4633179	2.1286774
1451387641941847169	-0.7752075	3.6687775	2.3881989
1451387641950239503	-0.29008484	3.8560028	2.7118988
1451387641958631837	0.19522095	3.9742432	2.9905243
1451387641967024171	0.70181274	4.1573486	3.205246
1451387641975416505	1.3057404	4.5637054	3.3800201
1451387641983808839	2.0924683	5.1254272	3.562851
1451387641992201173	2.9382172	5.820053	3.5800781
1451387642000593507	3.8103485	6.706299	3.358612
1451387642008985841	4.8513794	7.9110565	3.1266174
1451387642017378175	5.801407	9.602386	3.2253265
1451387642025770509	6.873825	11.62735	4.2241974
1451387642034162843	7.7482758	13.310028	5.425171
1451387642042555177	8.347031	14.34996	6.5745544
1451387642050947511	8.841919	14.676605	7.424057
1451387642059339845	9.213333	14.450653	7.970276
1451387642067732179	9.120926	13.922012	8.361252
1451387642076124513	8.326141	13.043945	8.162811
1451387642084516847	7.050644	11.654999	7.4112244
1451387642092909181	5.586014	9.734543	6.53006
1451387642101301514	4.0700684	7.8496094	5.934723
1451387642109693848	2.7753448	6.463562	5.473938
1451387642118086182	1.908081	6.018387	4.9926605
1451387642126478516	1.4846344	6.824341	4.496399
1451387642134870850	1.3211517	8.682236	3.7643433
1451387642143263184	0.8575287	11.116882	2.1809845
1451387642151655518	0.052886963	13.306198	0.6142273
1451387642160047852	-1.0085144	14.726929	0.09225464
1451387642168440186	-1.8882294	15.213165	0.5002899
1451387642176832520	-2.3981018	14.804031	1.415451
1451387642185224854	-2.6324158	13.487778	2.6404572
1451387642193617188	-2.4868774	10.912476	4.38385
1451387642202009522	-2.0241852	8.564148	5.1272125
1451387642210401856	-1.6183777	7.043442	5.2118073
1451387642218794190	-1.2402039	6.083252	3.8214111
1451387642227186524	-1.1564789	6.045944	0.72592163
1451387642235578858	-1.238205	6.8616486	-2.6746826
1451387642243971192	-1.0635986	8.016907	-4.505844
1451387642252363526	-0.54637146	9.217178	-4.8335876
1451387642260755860	-0.45289612	10.550995	-3.634369
1451387642269148194	0.23577881	11.723618	-2.1390228
1451387642277540528	1.6483002	12.519531	-1.2517242
1451387642285932862	3.2832336	12.610825	-1.2338562
1451387642294325196	4.5940094	12.169693	-1.255539
1451387642302717530	5.342819	11.497681	-0.67526245
1451387642311109864	5.1995544	10.739151	0.41386414
1451387642319502198	4.2639313	9.812775	1.2785492
1451387642327894532	3.3383331	8.8581085	1.3705597
1451387642336286866	2.4705505	7.9296265	1.1017456
1451387642344679200	1.4517975	7.1586456	0.6200409
1451387642353071534	0.3028412	6.5604095	0.09005737
1451387642361463868	-0.791214	6.174011	-0.2995453
1451387642369856202	-1.5736542	6.2655334	-0.40750122
1451387642378248536	-1.6057587	6.6548157	-0.36950684
1451387642386640870	-1.351532	7.084839	-0.32669067
1451387642395033204	-0.5966797	7.454941	-0.33920288
1451387642403425538	0.22914124	7.7080536	-0.4352417
1451387642411817872	0.9153595	7.956772	-0.5803833
1451387642420210206	1.7344971	8.401108	-0.67349243
1451387642428602540	2.1879272	8.813385	-0.58506775
1451387642436994874	2.2121124	9.07695	-0.21414185
1451387642445387208	2.3246765	9.1210785	-0.013198853
1451387642453779542	2.2384033	9.0252075	0.19543457
1451387642462171876	1.8583984	8.749939	0.57650757
1451387642470564210	1.3869629	8.30719	0.9789276
1451387642478956544	1.1313171	7.853348	1.0520477
1451387642487348878	0.9575653	7.653885	0.9204407
1451387642495741212	0.9505615	7.6415405	0.50917053
1451387642504133546	0.8308563	7.8519135	0.054092407
1451387642512525880	0.65834045	8.164078	-0.37695313
1451387642520918214	0.5844116	8.516174	-0.71243286
1451387642529310548	0.6781616	8.809982	-0.897583
1451387642537702882	0.9032593	8.926605	-0.89172363
1451387642546095216	1.247345	8.860062	-0.6429596
1451387642554487550	1.5444794	8.693497	-0.402359
1451387642562879884	1.7401428	8.613678	-0.4376068
1451387642571272218	1.6729889	8.595383	-0.64772034
1451387642579664552	1.3662415	8.703583	-0.8725281
1451387642588056886	0.9176178	9.023392	-1.0326385
1451387642596449220	0.45126343	9.5737915	-1.154068
1451387642604841554	0.11210632	10.217224	-1.2986298
1451387642613233888	0.014419556	10.656235	-1.466217
1451387642621626222	0.1648407	10.905655	-1.7702637
1451387642630047996	0.57040405	10.943039	-2.0301514
1451387642638440329	1.1234741	10.887619	-2.087265
1451387642646832663	1.6556702	10.836151	-1.8553925
1451387642655224997	2.0505524	10.820389	-1.3761597
1451387642663617331	2.3480835	10.843582	-0.83551025
1451387642672009665	2.316208	11.059494	-0.16308594
1451387642680401999	2.2942963	11.409317	0.1980896
1451387642688794333	2.244278	11.733215	0.23841858
1451387642697186667	2.398529	11.959488	-0.039489746
1451387642705579001	2.7235413	12.046097	-0.50413513
1451387642713971335	3.0526123	12.005157	-0.9464264
1451387642722363669	3.4388275	11.895813	-0.95095825
1451387642730756003	3.4100494	11.999664	-0.65997314
1451387642739148337	2.8816528	12.036102	-0.48165894
1451387642747540671	2.125183	12.029388	-0.29197693
1451387642755933005	1.3279114	12.022766	-0.18804932
1451387642764325339	0.654953	11.975174	-0.021987915
1451387642772717673	0.1478424	11.880661	0.3403778
1451387642781110007	-0.3387146	11.929153	0.7153778
1451387642789502341	-0.875412	12.665314	1.1461792
1451387642797894675	-1.324585	13.377838	1.7089691
1451387642806287009	-2.0248108	13.922089	1.759018
1451387642814679343	-2.9401093	14.186691	1.1567993
1451387642823071677	-3.9172058	14.243713	0.13165283
1451387642831464011	-4.7955017	14.342346	-0.8747101
1451387642839856345	-5.2643433	14.706314	-1.3785095
1451387642848248679	-4.837784	14.636215	-0.8476105
1451387642856641013	-4.0884247	14.210632	0.31655884
1451387642865033347	-3.3484344	13.700455	1.6710205
1451387642873425681	-2.6851196	13.306503	2.704132
1451387642881818015	-2.072754	13.087616	3.1439972
1451387642890210349	-1.5754089	12.922821	3.0399017
1451387642898602683	-1.5209045	12.504364	2.5772247
1451387642906995017	-0.40740967	11.390854	1.7002106
1451387642915387351	-0.12373352	10.445038	1.1551056
1451387642923779685	-0.072265625	9.740219	0.80636597
1451387642932172019	0.2079773	9.216248	0.5220947
1451387642940564353	0.8637848	8.738098	0.35766602
1451387642948956687	1.6138763	8.233353	0.40925598
1451387642957349021	1.7432404	7.873642	0.4176178
1451387642965741355	1.696991	7.57753	0.54408264
1451387642974133689	1.7324371	7.041565	-0.14831543
1451387642982526023	1.2738647	6.6139374	-0.42744446
1451387642990918357	0.9388275	6.293167	-0.7108612
1451387642999310691	0.8053589	5.963867	-1.0534363
1451387643007703025	0.4598999	5.5299835	-0.93045044
1451387643016095359	0.0546875	4.9928436	-0.10923767
1451387643024487693	-0.4079895	4.55278	0.73179626
1451387643032880027	-0.74324036	4.4240875	1.0183105
1451387643041272361	-0.9906616	4.306549	1.0198059
1451387643049664695	-1.0189819	3.9769745	1.1018677
1451387643058057029	-0.9308014	3.5483704	1.2847443
1451387643066449363	-0.9065552	3.3037262	1.4331512
1451387643074841697	-0.84365845	3.3404236	1.6665192
1451387643083234031	-0.4036255	3.4607086	1.8813934
1451387643091626365	0.1326294	3.5086517	2.1347656
1451387643100018699	0.5901642	3.6082916	2.306839
1451387643108411033	0.9529114	3.7717896	2.4663696
1451387643116803367	1.3187256	4.0658417	2.6012726
1451387643125195701	1.8103638	4.533951	2.6977234
1451387643133588035	2.4598389	5.0928802	2.8536682
1451387643141980369	3.039734	5.738571	2.8876038
1451387643150372703	3.7953339	6.701126	3.1552124
1451387643158765037	4.6575623	8.053696	3.7692719
1451387643167157371	5.68219	9.79686	4.669983
1451387643175549704	6.8580933	11.806473	5.7673035
1451387643183942038	8.06398	13.603531	6.804535
1451387643192334372	9.461258	14.674881	7.552017
1451387643200726706	10.002289	14.868042	8.579697
1451387643209119040	9.8207245	14.53981	9.173279
1451387643217511374	8.97731	14.032898	9.378433
1451387643225903708	7.7638702	13.022293	8.912918
1451387643234296042	6.415039	11.288605	7.748993
1451387643242688376	4.8723145	8.958694	6.185486
1451387643251080710	3.3547516	6.467453	4.623703
1451387643259473044	2.3883362	4.7315063	3.4609985
1451387643267865378	1.6740417	3.7384644	3.6685333
1451387643276257712	1.1757507	3.5987244	4.407669
1451387643284650046	0.6117859	4.1985016	4.2889557
1451387643293042380	-0.37438965	5.5837097	2.5590668
1451387643301434714	-2.0140533	8.0125885	-0.13807678
1451387643309827048	-4.209564	11.680008	-1.5203552
1451387643318219382	-7.0925446	16.837296	-1.7280426
1451387643326611716	-8.640945	22.755081	0.22816467
1451387643335004050	-6.4203033	26.055344	2.6468353
1451387643343396384	-1.72789	24.509445	4.173004
1451387643351788718	3.3871307	18.09349	3.9910736
1451387643360181052	6.2428284	9.632629	2.4511566
1451387643368573386	2.3563385	4.6209106	1.7173615
1451387643376965720	0.494339	3.3357086	2.2643433
1451387643385358054	-0.34794617	2.992813	0.3474121
1451387643393750388	-1.3614349	3.183197	-2.2109222
1451387643402142722	-1.7398071	3.953476	-4.3461456
1451387643410535056	-1.253479	5.4369354	-5.4268494
