gyroscope_timestamp	gyroscope_x_data	gyroscope_y_data	gyroscope_z_data
923709910346175	-1.0365448	-0.09954834	-0.6925659
923709913001204	-0.9253845	-0.39518738	-0.7451019
923709918067122	-0.7787628	-0.43551636	-0.7597809
923709921424056	-0.7787628	-0.5540161	-0.7597809
923709928137923	-0.5991821	-0.5540161	-0.7035675
923709933142806	-0.39515686	-0.8680115	-0.7035675
923709938178206	-0.17524719	-0.8680115	-0.65715027
923709943213606	0.05076599	-1.0243835	-0.60705566
923709948676253	0.27067566	-1.1722107	-0.55451965
923709953284407	0.47103882	-1.3114777	-0.49343872
923709958350325	0.644516	-1.4348755	-0.4201355
923709963812972	0.7862396	-1.5289612	-0.3394928
923709968390608	0.8937378	-1.585144	-0.25886536
923709971717024	0.96339417	-1.6047058	-0.18312073
923709978491927	0.9988251	-1.5888214	-0.11714172
923709983557845	1.00737	-1.5411682	-0.06826782
923709988562727	1.0000458	-1.455658	-0.04385376
923709993567610	0.980484	-1.3322449	-0.054840088
923709999426985	0.9499512	-1.1795349	-0.0927124
923710003668929	0.91085815	-1.0158386	-0.13424683
923710008704329	0.86808777	-0.8557739	-0.14891052
923710014166975	0.82167053	-0.71162415	-0.13058472
923710018775130	0.7703552	-0.5809021	-0.090270996
923710022132063	0.7141571	-0.45628357	-0.046295166
923710028815413	0.6628418	-0.33044434	-0.002319336
923710033850813	0.6200714	-0.20706177	0.04411316
923710038916731	0.58709717	-0.10443115	0.09663391
923710043921614	0.56144714	-0.042114258	0.14550781
923710049292708	0.54190063	-0.025009155	0.18214417
923710053992415	0.52723694	-0.042114258	0.20050049
923710059027815	0.51867676	-0.07998657	0.20050049
923710064337874	0.51501465	-0.1398468	0.18826294
923710069098616	0.51135254	-0.2217102	0.17237854
923710072486067	0.51135254	-0.31944275	0.17237854
923710079169417	0.50401306	-0.31944275	0.16017151
923710084204817	0.48812866	-0.41841125	0.16017151
923710089240218	0.45881653	-0.5124817	0.17481995
923710094306136	0.4160614	-0.59310913	0.20170593
923710100134993	0.36228943	-0.64320374	0.2395935
923710104376936	0.30610657	-0.6419983	0.27989197
923710109381819	0.25479126	-0.5809021	0.31654358
923710115119124	0.20837402	-0.46484375	0.34465027
923710119483138	0.1668396	-0.31455994	0.3592987
923710122809554	0.1326294	-0.15084839	0.36297607
923710129523421	0.10694885	0.0055236816	0.35565186
923710134589339	0.09352112	0.14112854	0.3385315
923710139594222	0.09718323	0.24986267	0.30799866
923710144660140	0.12162781	0.31948853	0.26036072
923710150488997	0.17048645	0.3463745	0.19438171
923710154700423	0.24134827	0.3366089	0.11129761
923710159766341	0.3329773	0.29995728	0.020904541
923710165228987	0.43804932	0.23153687	-0.06706238
923710169806624	0.54556274	0.10813904	-0.14035034
923710173163557	0.54556274	-0.081222534	-0.14035034
923710179938460	0.722702	-0.081222534	-0.22465515
923710184912825	0.7825775	-0.5809021	-0.24053955
923710189948225	0.8204498	-0.8044739	-0.24542236
923710195014143	0.83143616	-0.9633026	-0.23809814
923710200843001	0.8143463	-1.0378265	-0.21853638
923710205054427	0.7776947	-1.0170593	-0.18800354
923710210089827	0.7300415	-0.9046631	-0.14891052
923710215521956	0.6787262	-0.72506714	-0.109817505
923710220191145	0.6787262	-0.5088196	-0.109817505
923710223548079	0.62986755	-0.5088196	-0.07194519
923710230261946	0.58465576	-0.29013062	-0.03895569
923710235266829	0.54800415	-0.09098816	-0.008422852
923710240332747	0.51867676	0.08615112	0.01966858
923710245368147	0.49668884	0.24130249	0.046554565
923710251044417	0.4820404	0.3732605	0.06976318
923710255408431	0.47225952	0.46731567	0.086868286
923710260443831	0.46736145	0.5198517	0.094192505
923710265723372	0.4637146	0.5406189	0.0917511
923710270545149	0.4637146	0.54185486	0.0770874
923710273871565	0.466156	0.5271759	0.051437378
923710280615950	0.4685974	0.4880829	0.01966858
923710285620833	0.47103882	0.41479492	-0.010864258
923710290686751	0.4685974	0.30604553	-0.036499023
923710295691634	0.4612732	0.17900085	-0.057281494
923710301551009	0.45391846	0.0617218	-0.0743866
923710305762434	0.4502716	-0.027450562	-0.090270996
923710310797835	0.4502716	-0.0897522	-0.10371399
923710316107893	0.45147705	-0.13864136	-0.113479614
923710320899153	0.45391846	-0.1850586	-0.11958313
923710324195052	0.45391846	-0.22538757	-0.11958313
923710330969954	0.452713	-0.22538757	-0.11103821
923710336005354	0.4453888	-0.2693634	-0.10003662
923710341040755	0.4295044	-0.27668762	-0.08905029
923710346045638	0.400177	-0.28034973	-0.07926941
923710351874495	0.35864258	-0.27546692	-0.0743866
923710356116438	0.3024292	-0.2546997	-0.0743866
923710361151839	0.3024292	-0.21315002	-0.078048706
923710366583968	0.14848328	-0.21315002	-0.081710815
923710371253157	0.14848328	-0.08731079	-0.081710815
923710374610091	0.05076599	-0.08731079	-0.08415222
923710381293440	-0.05429077	-0.007904053	-0.08049011
923710386359358	-0.15814209	0.08735657	-0.07316589
923710391394759	-0.24975586	0.19488525	-0.060943604
923710396399641	-0.31329346	0.3048401	-0.04385376
923710402228499	-0.34262085	0.39646912	-0.021850586
923710406470442	-0.33161926	0.44044495	0.007461548
923710411536360	-0.28764343	0.41845703	0.04043579
923710416846419	-0.21066284	0.32192993	0.074645996
923710421576643	-0.108047485	0.16311646	0.102752686
923710424933577	0.015335083	-0.037231445	0.11984253
923710431647444	0.14971924	-0.253479	0.1259613
923710436713362	0.281662	-0.4660492	0.11984253
923710441748763	0.400177	-0.64564514	0.102752686
923710446753645	0.49668884	-0.76660156	0.0758667
923710452490950	0.56388855	-0.81791687	0.045318604
923710456854964	0.5809784	-0.8191223	0.018447876
923710461890364	0.52233887	-0.79959106	-0.008422852
923710467261458	0.3794098	-0.75805664	-0.045059204
923710472479964	0.17904663	-0.6566467	-0.0927124
923710475287581	0.17904663	-0.45262146	-0.0927124
923710482001448	-0.18989563	-0.45262146	-0.14279175
923710487036849	-0.27908325	0.12524414	-0.1232605
923710492102766	-0.29740906	0.3292694	-0.08659363
923710497138167	-0.2619934	0.41723633	-0.046295166
923710502631331	-0.19967651	0.41967773	-0.010864258
923710507208968	-0.19967651	0.38180542	-0.010864258
923710512213850	-0.13369751	0.38180542	0.014785767
923710517676497	-0.083602905	0.3280487	0.037994385
923710522284651	-0.056747437	0.26330566	0.037994385
923710525611067	-0.05795288	0.19364929	0.039215088
923710532385970	-0.08483887	0.12646484	0.041671753
923710537390852	-0.12637329	0.07028198	0.050216675
923710542395735	-0.16668701	0.026306152	0.06488037
923710547431136	-0.19233704	-0.011581421	0.08198547
923710552832747	-0.193573	-0.04701233	0.09907532
923710557501936	-0.16546631	-0.07998657	0.11373901
923710562537337	-0.108047485	-0.11419678	0.12840271
923710567908431	-0.023757935	-0.15084839	0.13816833
923710572638655	0.07519531	-0.19117737	0.14550781
923710576056624	0.17048645	-0.2217102	0.15040588
923710582862044	0.23890686	-0.22903442	0.15040588
923710587744856	0.26333618	-0.20706177	0.14550781
923710592780257	0.23646545	-0.15940857	0.13696289
923710597785140	0.16316223	-0.08854675	0.13208008
923710603064681	0.05809021	-5.79834E-4	0.13084412
923710607855940	-0.06283569	0.09347534	0.13328552
923710612921858	-0.18379211	0.18144226	0.13572693
923710618170882	-0.28640747	0.25839233	0.13328552
923710622962141	-0.35362244	0.31948853	0.12840271
923710626349593	-0.35362244	0.36102295	0.12840271
923710633063460	-0.35972595	0.36102295	0.127182
923710638068343	-0.31817627	0.36592102	0.127182
923710643134261	-0.2644348	0.3207245	0.12107849
923710648169661	-0.2644348	0.24742126	0.1088562
923710653418684	-0.13737488	0.15333557	0.08808899
923710658209944	-0.13737488	0.05316162	0.08808899
923710663245345	-0.0652771	0.05316162	0.062438965
923710668524886	0.012893677	-0.042114258	0.03189087
923710673316145	0.09352112	-0.121520996	0.0025787354
923710676673079	0.169281	-0.18385315	-0.021850586
923710683386946	0.23524475	-0.2339325	-0.03895569
923710688422347	0.2828827	-0.27668762	-0.045059204
923710693488265	0.31221008	-0.31333923	-0.03895569
923710698523665	0.32443237	-0.33776855	-0.025527954
923710703925276	0.3170929	-0.34632874	-0.007217407
923710708594466	0.29266357	-0.34144592	0.0135650635
923710713599349	0.25479126	-0.33044434	0.03189087
923710719000960	0.20957947	-0.31455994	0.046554565
923710723670149	0.16316223	-0.29013062	0.055099487
923710727027083	0.12162781	-0.2522583	0.0599823
923710733771468	0.08862305	-0.2033844	0.06488037
923710738776350	0.05809021	-0.15940857	0.07098389
923710743811751	0.012893677	-0.13375854	0.0770874
923710748877669	-0.05795288	-0.12275696	0.074645996
923710754279280	-0.1471405	-0.101989746	0.058761597
923710758948470	-0.22410583	-0.049453735	0.03677368
923710764014388	-0.26687622	0.03363037	0.018447876
923710769293929	-0.27052307	0.11424255	0.007461548
923710774054671	-0.24855042	0.16311646	1.373291E-4
923710777411604	-0.24855042	0.17166138	1.373291E-4
923710784125472	-0.1776886	0.17166138	-0.019424438
923710789160872	-0.1312561	0.13868713	-0.030410767
923710794226790	-0.1312561	0.12036133	-0.03529358
923710799231673	-0.07872009	0.12036133	-0.03529358
923710804541731	-0.020095825	0.09591675	-0.034057617
923710809363509	0.043426514	0.0617218	-0.023086548
923710814368391	0.10939026	0.023864746	-0.003540039
923710819678450	0.17416382	-0.014022827	0.020904541
923710824408675	0.23034668	-0.048217773	0.050216675
923710827765608	0.27189636	-0.081222534	0.078308105
923710834479475	0.29022217	-0.11299133	0.10151672
923710839514876	0.27922058	-0.13619995	0.11495972
923710844580794	0.23768616	-0.15208435	0.11984253
923710849585677	0.16436768	-0.16061401	0.12107849
923710855384016	0.059310913	-0.16305542	0.12107849
923710859625960	-0.071395874	-0.1532898	0.11619568
923710864691878	-0.21554565	-0.12640381	0.10519409
923710869910384	-0.36216736	-0.08610535	0.086868286
923710874762679	-0.4953308	-0.04333496	0.062438965
923710878119612	-0.5991821	-5.79834E-4	0.034332275
923710886969710	-0.66148376	0.04827881	0.009902954
923710889807845	-0.67614746	0.115478516	-0.004776001
923710894873763	-0.64071655	0.20343018	-0.003540039
923710899909163	-0.5588684	0.2987213	0.0135650635
923710905341292	-0.45011902	0.38058472	0.04411316
923710910010481	-0.33773804	0.43434143	0.08074951
923710915015364	-0.24243164	0.46121216	0.11984253
923710920447493	-0.1776886	0.47343445	0.15161133
923710925116682	-0.1459198	0.48687744	0.1711731
923710928534651	-0.1459198	0.51008606	0.1711731
923710935187483	-0.14958191	0.51008606	0.16749573
923710940192366	-0.14958191	0.5882721	0.16749573
923710945258284	-0.17401123	0.5882721	0.1552887
923710950293684	-0.20822144	0.637146	0.14305115
923710955542708	-0.24975586	0.68356323	0.13328552
923710960333968	-0.2962036	0.72021484	0.12962341
923710965399886	-0.34872437	0.74342346	0.13328552
923710970648909	-0.40126038	0.75198364	0.14550781
923710975440169	-0.4537964	0.7507477	0.16137695
923710978797102	-0.503891	0.7483063	0.17726135
923710985541487	-0.5539856	0.7532196	0.19070435
923710990576888	-0.60650635	0.7715454	0.2029419
923710995612288	-0.6639252	0.80940247	0.21635437
923711000617171	-0.72502136	0.8839264	0.22859192
923711005927229	-0.78855896	1.0073242	0.23591614
923711010749007	-0.8484192	1.1832428	0.23103333
923711015753890	-0.90582275	1.3933868	0.21147156
923711021002913	-0.965683	1.6023102	0.17970276
923711025824690	-1.031662	1.7623444	0.1394043
923711029181624	-1.1049652	1.8234406	0.094192505
923711035864974	-1.1831665	1.7574615	0.046554565
923711040930891	-1.2589111	1.5778656	0.0025787354
923711045935774	-1.3200073	1.3396454	-0.03161621
923711051032210	-1.355423	1.1148376	-0.048736572
923711056372786	-1.3603058	0.9572296	-0.04385376
923711061041975	-1.3358765	0.8802643	-0.021850586
923711066077376	-1.2931213	0.8643799	0.008666992
923711071478987	-1.2417908	0.8778229	0.03677368
923711076178694	-1.1880493	0.8937073	0.057540894
923711079840804	-1.1880493	0.9034729	0.057540894
923711086249495	-1.136734	0.9034729	0.07342529
923711091345931	-1.0939789	0.9169159	0.09663391
923711096320296	-1.0683136	0.9486847	0.1418457
923711101325179	-1.0622253	1.0085602	0.20903015
923711106787825	-1.071991	1.0977325	0.28967285
923711111426497	-1.085434	1.2076874	0.36541748
923711116461897	-1.0951996	1.3323059	0.4228363
923711121680403	-1.0927582	1.4691467	0.4546051
923711126502181	-1.0817566	1.6157532	0.45828247
923711130011702	-1.0658722	1.7672272	0.43016052
923711136572981	-1.0499878	1.9150696	0.3703003
923711141608382	-1.032898	2.0494537	0.28845215
923711146643782	-1.0170135	2.165512	0.20050049
923711151679182	-0.99380493	2.2644958	0.1247406
923711156928206	-0.9595947	2.3377838	0.074645996
923711161811018	-0.9107208	2.354889	0.051437378
923711166815901	-0.8459778	2.2608185	0.051437378
923711172095442	-0.7653198	2.0201263	0.06854248
923711176886702	-0.67004395	1.6438446	0.09907532
923711180396224	-0.56007385	1.1954803	0.13816833
923711186926985	-0.4391327	0.75442505	0.18214417
923711191962386	-0.31697083	0.38058472	0.2237091
923711196997786	-0.20211792	0.106918335	0.25302124
923711202094222	-0.10316467	-0.057998657	0.26156616
923711207282210	-0.023757935	-0.12519836	0.24203491
923711212103987	0.037322998	-0.11419678	0.18826294
923711217139388	0.080078125	-0.05189514	0.094192505
923711222388411	0.100860596	0.04095459	-0.045059204
923711227240706	0.100860596	0.14967346	-0.045059204
923711230902815	0.09718323	0.14967346	-0.21853638
923711237311507	0.0690918	0.26330566	-0.4030304
923711242346907	0.028778076	0.35614014	-0.57162476
923711247382307	0.003112793	0.39646912	-0.69992065
923711252417708	0.0104522705	0.36102295	-0.7781067
923711257849837	0.04220581	0.26330566	-0.802536
923711262457991	0.0715332	0.14479065	-0.77931213
923711267493391	0.07519531	0.023864746	-0.7231293
923711272864485	0.04586792	-0.11051941	-0.6473694
923711277564192	-0.009109497	-0.2718048	-0.56796265
923711281775618	-0.08239746	-0.44284058	-0.4971161
923711287665511	-0.17401123	-0.5943451	-0.44334412
923711292670393	-0.28396606	-0.70918274	-0.4079132
923711297736311	-0.4134674	-0.7873688	-0.3920288
923711302741194	-0.56007385	-0.8374481	-0.39692688
923711308173323	-0.7127991	-0.8594513	-0.4237976
923711312811995	-0.8569641	-0.8508911	-0.4726715
923711317877913	-0.98036194	-0.79959106	-0.53985596
923711323096419	-1.0744324	-0.70306396	-0.6131592
923711327948714	-1.1306305	-0.5564575	-0.6803589
923711331732893	-1.1440735	-0.36221313	-0.73165894
923711337988997	-1.1184082	-0.11663818	-0.7622223
923711343024397	-1.0609894	0.17288208	-0.7671051
923711348059798	-0.9864502	0.48443604	-0.7414551
923711353095198	-0.9070587	0.7825165	-0.6852417
923711358344222	-0.8374176	1.026886	-0.60583496
923711363165999	-0.7824402	1.1930237	-0.5178833
923711368201399	-0.7824402	1.2773132	-0.43966675
923711373450423	-0.7421112	1.2907562	-0.3895874
923711378302718	-0.7152405	1.2480164	-0.3895874
923711382178450	-0.69325256	1.2480164	-0.3773651
923711388343001	-0.67004395	1.1637115	-0.4018097
923711393378401	-0.64193726	1.0513	-0.45799255
923711398413802	-0.60284424	0.9279175	-0.53497314
923711403510237	-0.5515442	0.81307983	-0.62416077
923711408850813	-0.490448	0.72021484	-0.7145691
923711413520003	-0.4269104	0.6518097	-0.7964325
923711418585921	-0.3731537	0.6041565	-0.86361694
923711423773909	-0.33773804	0.5589447	-0.91249084
923711428656722	-0.32305908	0.4929657	-0.9405823
923711433234358	-0.32795715	0.38180542	-0.9405823
923711438727522	-0.34384155	0.21565247	-0.9063721
923711443793440	-0.36338806	0.012863159	-0.8367462
923711448798323	-0.37927246	-0.18873596	-0.73657227
923711453803206	-0.39393616	-0.35977173	-0.6143799
923711459265852	-0.40370178	-0.49293518	-0.47999573
923711463904524	-0.4098053	-0.60043335	-0.34317017
923711468939925	-0.411026	-0.6969757	-0.21121216
923711474982405	-0.4061432	-0.78492737	-0.08659363
923711479010725	-0.39393616	-0.85821533	0.024551392
923711484351302	-0.37071228	-0.90586853	0.11495972
923711489081526	-0.33894348	-0.9229889	0.17605591
923711494971419	-0.30352783	-0.90830994	0.21026611
923711501410628	-0.26808167	-0.87409973	0.2212677
923711504218245	-0.2277832	-0.8350067	0.2188263
923711509223128	-0.1789093	-0.79959106	0.20903015
923711514258528	-0.1789093	-0.76660156	0.19682312
923711519263411	-0.116607666	-0.76660156	0.19682312
923711524603987	-0.040878296	-0.71894836	0.1870575
923711529364729	0.049545288	-0.6419983	0.18093872
923711534003401	0.14848328	-0.53692627	0.18093872
923711539435530	0.25357056	-0.42086792	0.1870575
923711544470931	0.36473083	-0.3182373	0.19926453
923711549506331	0.48080444	-0.24125671	0.22247314
923711554541731	0.5968628	-0.1899414	0.26156616
923711559821272	0.7031708	-0.16061401	0.32388306
923711564643050	0.7825775	-0.1581726	0.40574646
923711569647932	0.82411194	-0.19117737	0.5046997
923711575263167	0.82533264	-0.2546997	0.6121979
923711579718733	0.79478455	-0.32432556	0.7258301
923711584479475	0.7471466	-0.37442017	0.84310913
923711589789534	0.6994934	-0.37930298	0.96528625
923711594885970	0.6750488	-0.32676697	1.0911255
923711599829817	0.6897278	-0.21070862	1.2071838
923711604895735	0.7544708	-0.025009155	1.3037109
923711610266829	0.8619995	0.23518372	1.368454
923711614966536	0.98172	0.55285645	1.3977814
923711620001936	1.0684509	0.8839264	1.3843384
923711625373030	1.0806732	1.1722565	1.3183594
923711630072737	1.0037079	1.3909454	1.1937408
923711633399153	1.0037079	1.5534515	1.1937408
923711640143538	0.64819336	1.5534515	0.7918091
923711645178938	0.43559265	1.8466492	0.55599976
923711650214339	0.23646545	1.9932709	0.33120728
923711655249739	0.0690918	2.1166534	0.13452148
923711660681868	-0.051849365	2.1960754	-0.026733398
923711665320540	-0.051849365	2.2119598	-0.026733398
923711670355940	-0.12271118	2.2119598	-0.14279175
923711675665999	-0.14225769	2.1618652	-0.20756531
923711680426741	-0.116607666	2.0543365	-0.21244812
923711683783675	-0.051849365	1.9126282	-0.15257263
923711690467024	0.047088623	1.7611389	-0.036499023
923711695532942	0.16560364	1.6255188	0.122283936
923711700568343	0.28900146	1.5241241	0.30189514
923711705603743	0.4050598	1.4727936	0.48513794
923711710852766	0.49913025	1.4850311	0.65252686
923711715705061	0.56510925	1.5693207	0.7881317
923711720709944	0.59565735	1.7293701	0.87609863
923711725989485	0.5883179	1.9639435	0.91030884
923711730780745	0.54312134	2.2669373	0.89686584
923711734137679	0.46003723	2.6224518	0.84677124
923711740851546	0.3500824	3.0011902	0.7746887
923711745856429	0.22180176	3.3628082	0.6855011
923711750922347	0.08985901	3.66214	0.58776855
923711755957747	-0.040878296	3.861267	0.490036
923711761389876	-0.16546631	3.9358063	0.4020691
923711766028548	-0.27664185	3.879593	0.33120728
923711771063948	-0.36705017	3.7073517	0.27134705
923711776282454	-0.424469	3.4507751	0.21514893
923711781134749	-0.4427948	3.158783	0.15405273
923711784491682	-0.4427948	2.8814545	0.15405273
923711791205550	-0.38049316	2.8814545	0.02822876
923711796210432	-0.33529663	2.4721832	-0.021850586
923711801245833	-0.33529663	2.3206787	-0.04750061
923711806311751	-0.30717468	2.3206787	-0.04750061
923711811713362	-0.2962036	2.1728516	0.014785767
923711816382552	-0.28640747	2.0238037	0.014785767
923711821387434	-0.24855042	1.8967438	0.106414795
923711826789046	-0.1605835	1.825882	0.2188263
923711831458235	-0.006668091	1.838089	0.32754517
923711834845686	0.22180176	1.9321747	0.39839172
923711841559554	0.53700256	2.097107	0.41062927
923711846594954	0.94506836	2.3084717	0.3592987
923711851630354	1.4325409	2.5063934	0.27134705
923711856635237	1.9725342	2.6029053	0.18093872
923711862097884	2.53331	2.5186005	0.1088562
923711866767073	3.089203	2.2436981	0.055099487
923711871771956	3.6230927	1.8442078	0.009902954
923711877265120	4.1178894	1.44104	-0.030410767
923711881842757	4.521057	1.191803	-0.06706238
923711885199690	4.67865	1.2541046	-0.10003662
923711891883040	4.3695526	1.7244873	-0.122024536
923711896948958	3.4996948	2.5454865	-0.1085968
923711901984358	2.2706451	3.4727783	-0.021850586
923711907019759	1.0843353	4.1496124	0.1418457
923711912268782	0.24867249	4.269333	0.33242798
923711917151595	-0.20333862	3.752533	0.4656067
923711922125960	-0.4061432	2.8118134	0.4888153
923711927771712	-0.48432922	1.8271027	0.4179535
923711932196761	-0.4880066	1.0891876	0.31166077
923711935553694	-0.4880066	0.6750183	0.31166077
923711942298079	-0.34994507	0.6750183	0.19682312
923711947302962	-0.34994507	0.47099304	0.19682312
923711952338362	-0.2619934	0.47099304	0.2212677
923711957495833	-0.18989563	0.5467377	0.29089355
923711962775374	-0.1446991	0.70921326	0.38252258
923711967444563	-0.1288147	0.9254608	0.46925354
923711972449446	-0.14103699	1.1673737	0.53279114
923711977759505	-0.18257141	1.4178162	0.58288574
923711982550765	-0.25708008	1.6682739	0.63786316
923711985907698	-0.36094666	1.9101715	0.7172699
923711992621565	-0.48068237	2.1349792	0.8235626
923711997656966	-0.5979614	2.3451233	0.95184326
923712002692366	-0.69937134	2.555252	1.0923462
923712007697249	-0.7787628	2.7812653	1.241394
923712013190413	-0.8361969	3.0219574	1.39534
923712017859602	-0.8716278	3.2492065	1.551712
923712022833968	-0.8887329	3.4324493	1.7068634
923712028540755	-0.90338135	3.5619507	1.8510437
923712032904768	-0.9449158	3.674347	1.9707642
923712036231184	-1.0280151	3.8038635	2.0611725
923712042975569	-1.1416321	3.9174805	2.1124725
923712048010970	-1.2515869	3.9113617	2.1185913
923712053046370	-1.329773	3.6804657	2.0672913
923712058081770	-1.355423	3.2003174	1.9548798
923712063330794	-1.3285522	2.5528107	1.7936096
923712068427229	-1.2515869	1.8906403	1.6103516
923712073157454	-1.1416321	1.3713989	1.4441986
923712079108382	-1.0096893	1.0598602	1.3281403
923712083289290	-0.8630676	0.9193573	1.2756042
923712086646224	-0.8630676	0.8668213	1.2756042
923712093329573	-0.707901	0.8668213	1.2853699
923712098364974	-0.5466461	0.87171936	1.3489075
923712103400374	-0.38537598	0.959671	1.4576416
923712108801985	-0.23022461	1.1600342	1.604248
923712113776350	-0.08972168	1.4727936	1.7801819
923712118567610	0.028778076	1.8588715	1.9780884
923712123541975	0.120391846	2.2681427	2.194336
923712129065657	0.18392944	2.6505432	2.4277039
923712133582259	0.22669983	2.9718628	2.680603
923712137000227	0.25723267	3.2210846	2.9457092
923712143683577	0.28900146	3.3994598	3.208374
923712148871565	0.33787537	3.5130768	3.440506
923712153815413	0.42218018	3.5570679	3.6213074
923712158972884	0.55410767	3.5204163	3.737381
923712164679671	0.7312622	3.4006805	3.7923584
923712169043684	0.9365082	3.2064362	3.7947998
923712173926497	1.1527557	2.9559784	3.7569275
923712180060530	1.3690033	2.6639862	3.6958466
923712184027815	1.5779266	2.3524475	3.6225433
923712187323714	1.5779266	2.0592346	3.6225433
923712194098616	1.9346619	2.0592346	3.4710388
923712199286604	2.047058	1.6841583	3.3989716
923712204138899	2.095932	1.6365204	3.335434
923712209418440	2.0751648	1.6646118	3.282898
923712215003157	1.9859772	1.7403717	3.238922
923712220099593	1.8405914	1.8429871	3.2022552
923712224280501	1.6561127	1.9615021	3.169281
923712229987288	1.4496307	2.0861053	3.1375122
923712234320784	1.4496307	2.1985168	3.104538
923712237708235	1.2407227	2.1985168	3.104538
923712244422102	1.0415802	2.2791443	3.064209
923712249762679	0.8570862	2.3121185	3.0104523
923712254492903	0.6860504	2.3011322	2.9469147
923712260382796	0.51867676	2.262024	2.8662872
923712265174056	0.35375977	2.219284	2.8662872
923712270575667	0.19004822	2.1728516	2.8797302
923712274603987	0.03366089	2.1044312	2.924942
923712280280257	-0.108047485	1.9847107	2.9750214
923712284705306	-0.23510742	1.8136749	3.0055695
923712288062239	-0.35238647	1.6279602	2.9970093
923712294776106	-0.46235657	1.4776764	2.9408264
923712300665999	-0.57107544	1.3897247	2.8296356
923712304846907	-0.67370605	1.349411	2.6610413
923712310828352	-0.7714386	1.3323059	2.438675
923712315344954	-0.8630676	1.3298645	2.1784515
923712321204329	-0.95103455	1.3481903	1.9060211
923712324988509	-1.0353394	1.3836212	1.6408844
923712330451155	-1.1135254	1.4202728	1.3989868
923712335059309	-1.1770477	1.4324951	1.190094
923712338355208	-1.1770477	1.4043884	1.190094
923712345130110	-1.2417908	1.4043884	0.93107605
923712350623274	-1.2442627	1.2663422	0.9115143
923712355231429	-1.2320251	1.2138062	0.97628784
923712360999251	-1.2039337	1.1905823	1.1204376
923712366095686	-1.1550598	1.1905823	1.3183594
923712371100569	-1.0793152	1.1954803	1.5370483
923712375342513	-0.96936035	1.1966858	1.7386322
923712381964827	-0.8215332	1.1869202	1.8901367
923712385413313	-0.8215332	1.1673737	1.8901367
923712388770247	-0.63583374	1.1673737	1.9720001
923712395514632	-0.41226196	1.1429443	1.9866486
923712401312972	-0.1605835	1.1246033	1.8876953
923712405554915	0.11062622	1.1160583	1.8876953
923712411414290	0.400177	1.1148376	1.8155975
923712416327620	0.7068176	1.103836	1.744751
923712422186995	1.0269165	1.0745087	1.5822601
923712425696516	1.3506775	1.0244446	1.5822601
923712431738997	1.6671143	0.9584656	1.4637604
923712435736800	1.9639893	0.87416077	1.3110352
923712439093733	2.226654	0.7690735	1.1265564
923712445838118	2.441681	0.65057373	0.91763306
923712451758528	2.5968475	0.5381775	0.6916199
923712455908919	2.6835785	0.44410706	0.45584106
923712462531233	2.7019043	0.37080383	0.2188263
923712466651106	2.6567078	0.3121643	-0.010864258
923712474402571	2.55896	0.27062988	-0.3993683
923712483008528	2.2547607	0.27671814	-0.52885437
923712486121321	2.070282	0.3280487	-0.58872986
923712489417220	2.070282	0.38790894	-0.58872986
923712496222640	1.6854401	0.38790894	-0.4567871
923712502631331	1.5107269	0.47953796	-0.27719116
923712506262923	1.3580017	0.49420166	-0.046295166
923712511267806	1.2285004	0.48687744	0.21270752
923712516791487	1.1173401	0.46611023	0.4704895
923712521369124	1.1173401	0.45143127	0.7013855
923712526435042	1.0281372	0.45999146	0.7013855
923712532294417	0.9340668	0.45999146	0.9958191
923712536444807	0.9340668	0.53208923	0.9958191
923712539832259	0.9340668	0.53208923	1.0459137
923712546576643	0.95606995	0.5613861	1.0410309
923712553076888	1.0317993	0.5650635	0.90419006
923712556647444	1.0317993	0.49664307	0.90419006
923712563086653	1.0611267	0.49664307	0.65864563
923712567114974	1.0782318	0.39646912	0.65864563
923712571753645	1.0818939	0.39646912	0.5132446
923712576758528	1.0745697	0.3524933	0.3690796
923712582373763	1.0562439	0.31340027	0.24935913
923712586859847	1.0281372	0.28163147	0.1711731
923712590155745	0.9866028	0.2596283	0.14428711
923712596930647	0.9328613	0.24742126	0.15893555
923712603522444	0.86932373	0.24008179	0.20050049
923712606940413	0.7996826	0.22909546	0.24447632
923712612067366	0.7263794	0.2119751	0.27622986
923712617346907	0.6469574	0.19242859	0.28601074
923712622107649	0.5602112	0.17166138	0.27378845
923712627112532	0.46247864	0.15089417	0.24203491
923712632697249	0.35984802	0.12524414	0.19802856
923712637152815	0.25723267	0.10447693	0.14916992
923712640509749	0.25723267	0.09347534	0.14916992
923712647284651	0.06541443	0.09347534	0.066101074
923712652289534	-0.01399231	0.10203552	0.04411316
923712657355452	-0.07383728	0.110580444	0.037994385
923712662390852	-0.1129303	0.11791992	0.046554565
923712668097640	-0.127594	0.12646484	0.062438965
923712672431136	-0.127594	0.13745117	0.062438965
923712677466536	-0.11781311	0.13745117	0.0758667
923712682807112	-0.08483887	0.14601135	0.08320618
923712687537337	-0.03352356	0.14845276	0.08930969
923712690894270	0.028778076	0.14112854	0.09907532
923712697608138	0.092300415	0.12890625	0.11373901
923712702674056	0.14604187	0.11424255	0.1259613
923712707678938	0.1851654	0.09715271	0.13084412
923712712714339	0.20349121	0.07392883	0.1259613
923712718207503	0.19981384	0.043395996	0.11740112
923712722815657	0.16560364	0.011627197	0.11129761
923712727820540	0.103302	-0.017684937	0.1088562
923712733679915	0.01777649	-0.042114258	0.11129761
923712737891341	-0.07872009	-0.060440063	0.118637085
923712741248274	-0.17401123	-0.07510376	0.13328552
923712747992659	-0.25831604	-0.08854675	0.15405273
923712752967024	-0.32429504	-0.09831238	0.1736145
923712758032942	-0.36460876	-0.09710693	0.18461609
923712763037825	-0.37805176	-0.084869385	0.18338013
923712768561507	-0.36094666	-0.060440063	0.17481995
923712773169661	-0.31697083	-0.03479004	0.16993713
923712778174544	-0.24975586	-0.01890564	0.1711731
923712784003401	-0.1642456	-0.01890564	0.18214417
923712788214827	-0.071395874	-0.033569336	0.20414734
923712791632796	-0.071395874	-0.054336548	0.20414734
923712798377181	0.095962524	-0.054336548	0.27622986
923712803321028	0.15216064	-0.08242798	0.32022095
923712808447981	0.18392944	-0.08610535	0.36419678
923712813422347	0.18392944	-0.08610535	0.36419678
923712819220686	0.18025208	-0.08610535	0.4362793
923712823523665	0.18025208	-0.08366394	0.4362793
923712828528548	0.15460205	-0.08366394	0.4521637
923712834235335	0.11428833	-0.07998657	0.44728088
923712838599349	0.064193726	-0.07878113	0.4228363
923712841956282	0.0067749023	-0.077545166	0.3861847
923712848670149	-0.04940796	-0.07388306	0.34831238
923712853675032	-0.0970459	-0.065338135	0.31776428
923712858740950	-0.1324768	-0.05555725	0.30433655
923712863776350	-0.15446472	-0.049453735	0.30677795
923712869696761	-0.16546631	-0.05067444	0.32388306
923712873877669	-0.16790771	-0.05555725	0.34831238
923712878882552	-0.1593628	-0.056777954	0.3751831
923712884619856	-0.13981628	-0.05189514	0.3996277
923712888953352	-0.11048889	-0.04333496	0.41551208
923712892310286	-0.07261658	-0.036010742	0.4252777
923712899054671	-0.032318115	-0.029907227	0.42771912
923712904059554	0.011657715	-0.023788452	0.42407227
923712909094954	0.060531616	-0.017684937	0.41551208
923712914130354	0.11428833	-0.017684937	0.4020691
923712919654036	0.16804504	-0.026229858	0.384964
923712924231673	0.21813965	-0.044555664	0.36663818
923712929236556	0.25845337	-0.068984985	0.34953308
923712935095931	0.281662	-0.09098816	0.33242798
923712939276839	0.2828827	-0.100753784	0.31410217
923712942664290	0.2828827	-0.09587097	0.31410217
923712949408675	0.22302246	-0.09587097	0.27134705
923712954383040	0.22302246	-0.057998657	0.24691772
923712959448958	0.16804504	-0.057998657	0.24691772
923712964484358	0.10574341	-0.033569336	0.2237091
923712969824934	0.043426514	-0.0066833496	0.2029419
923712974555159	-0.006668091	0.020187378	0.1894989
923712979590559	-0.039642334	0.047073364	0.18461609
923712985449934	-0.053085327	0.06904602	0.18826294
923712989661360	-0.04576111	0.08491516	0.19438171
923712992987776	-0.023757935	0.08979797	0.19558716
923712999732161	0.005554199	0.08735657	0.1894989
923713004737044	0.036102295	0.07759094	0.1736145
923713009802962	0.06175232	0.06295776	0.15284729
923713014838362	0.07763672	0.044631958	0.12962341
923713020178938	0.083740234	0.021408081	0.102752686
923713024939681	0.076416016	-0.0030212402	0.07098389
923713029944563	0.051986694	-0.027450562	0.034332275
923713035681868	0.012893677	-0.045776367	-0.004776001
923713039984847	-0.03352356	-0.053115845	-0.03895569
923713043341780	-0.07751465	-0.049453735	-0.06706238
923713050086165	-0.1129303	-0.042114258	-0.08659363
923713055121565	-0.13737488	-0.032348633	-0.10003662
923713060187483	-0.15446472	-0.021347046	-0.11225891
923713065192366	-0.1630249	-0.0030212402	-0.13180542
923713071112776	-0.1642456	0.021408081	-0.15379333
923713075293684	-0.15692139	0.04827881	-0.16845703
923713080298567	-0.13491821	0.07272339	-0.16235352
923713086157942	-0.09828186	0.08615112	-0.12814331
923713090369368	-0.048202515	0.08735657	-0.07316589
923713093695784	-0.048202515	0.08126831	-0.07316589
923713100409651	0.0104522705	0.08126831	-0.0096588135
923713105506087	0.067855835	0.07028198	0.046554565
923713110541487	0.11795044	0.055618286	0.0929718
923713115546370	0.15827942	0.03363037	0.127182
923713121070052	0.18760681	0.0055236816	0.15040588
923713125678206	0.20957947	-0.023788452	0.16873169
923713130652571	0.22180176	-0.05189514	0.1894989
923713136572981	0.22058105	-0.07144165	0.22003174
923713140723372	0.20837402	-0.077545166	0.25668335
923713144110823	0.19004822	-0.07388306	0.29089355
923713150763655	0.17048645	-0.068984985	0.31044006
923713155799056	0.15216064	-0.06410217	0.31288147
923713160864974	0.13871765	-0.056777954	0.30311584
923713165900374	0.13627625	-0.03967285	0.30065918
923713171210432	0.14971924	-0.014022827	0.32998657
923713176001692	0.17172241	0.011627197	0.3996277
923713181006575	0.17536926	0.036071777	0.48025513
923713186896468	0.1375122	0.067840576	0.53157043
923713191077376	0.055648804	0.115478516	0.529129
923713194434309	0.055648804	0.17410278	0.4888153
923713201148177	-0.15324402	0.22419739	0.4338379
923713206153059	-0.22044373	0.24497986	0.37886047
923713211218977	-0.2412262	0.22665405	0.31900024
923713216284895	-0.23143005	0.18022156	0.25546265
923713221991682	-0.22410583	0.13256836	0.19802856
923713226325179	-0.23143005	0.106918335	0.15649414
923713231330061	-0.2412262	0.10447693	0.127182
923713237097884	-0.23875427	0.110580444	0.10397339
923713241431380	-0.2277832	0.115478516	0.08198547
923713244788313	-0.2277832	0.11424255	0.08198547
923713251502181	-0.22166443	0.11424255	0.055099487
923713256507063	-0.22288513	0.10813904	0.018447876
923713261542464	-0.22654724	0.09591675	-0.029174805
923713266608382	-0.23143005	0.078826904	-0.081710815
923713272040511	-0.23754883	0.060516357	-0.12936401
923713276709700	-0.25099182	0.045837402	-0.16845703
923713281684065	-0.27052307	0.038513184	-0.20265198
923713287604475	-0.2962036	0.04219055	-0.23565674
923713291785384	-0.32185364	0.050720215	-0.26986694
923713295081282	-0.34262085	0.055618286	-0.30163574
923713304083968	-0.35238647	0.050720215	-0.34317017
923713306861067	-0.35238647	0.012863159	-0.34317017
923713311926985	-0.34017944	0.012863159	-0.3529358
923713316962386	-0.31697083	-0.010345459	-0.3565979
923713322302962	-0.28884888	-0.03112793	-0.3578186
923713327063704	-0.25708008	-0.044555664	-0.3565979
923713332099104	-0.22288513	-0.049453735	-0.3517151
923713337958479	-0.18989563	-0.049453735	-0.34683228
923713342139388	-0.1593628	-0.048217773	-0.3382721
923713345496321	-0.1593628	-0.045776367	-0.3382721
923713352210188	-0.116607666	-0.045776367	-0.29307556
923713357215071	-0.10682678	-0.037231445	-0.26130676
923713362311507	-0.10437012	-0.027450562	-0.23077393
923713367316390	-0.10682678	-0.01524353	-0.20144653
923713373053694	-0.108047485	-0.0054626465	-0.1733551
923713377387190	-0.10560608	-0.0018005371	-0.14768982
923713382422591	-0.09828186	-0.0054626465	-0.12814331
923713388098860	-0.08850098	-0.014022827	-0.11958313
923713392462874	-0.08850098	-0.022567749	-0.11958313
923713395850325	-0.07872009	-0.022567749	-0.11958313
923713402564192	-0.06283569	-0.028686523	-0.1269226
923713407538557	-0.03843689	-0.033569336	-0.1415863
923713412634993	-0.005432129	-0.040893555	-0.16235352
923713417670393	0.03366089	-0.05067444	-0.18556213
923713423163557	0.07397461	-0.05921936	-0.19900513
923713427741194	0.111846924	-0.06289673	-0.20144653
923713432746077	0.14727783	-0.05921936	-0.19412231
923713438117171	0.18392944	-0.044555664	-0.18432617
923713442847395	0.22058105	-0.021347046	-0.17456055
923713446173811	0.25479126	0.0067443848	-0.16235352
923713452918196	0.28044128	0.03363037	-0.14402771
923713457984114	0.29632568	0.055618286	-0.11958313
923713462958479	0.3024292	0.075149536	-0.08905029
923713468024397	0.3024292	0.08979797	-0.05606079
923713475134993	0.3012085	0.0947113	-0.021850586
923713478064681	0.2987671	0.08370972	0.01234436
923713483161116	0.29388428	0.05807495	0.051437378
923713488959456	0.28778076	0.031188965	0.086868286
923713493201399	0.28044128	0.017745972	0.11129761
923713496588850	0.28044128	0.021408081	0.11129761
923713503241682	0.26455688	0.021408081	0.0929718
923713508277083	0.24867249	0.039733887	0.050216675
923713513343001	0.22790527	0.036071777	-0.003540039
923713518378401	0.21325684	0.015304565	-0.06338501
923713524115706	0.22180176	-0.022567749	-0.1232605
923713528449202	0.26823425	-0.044555664	-0.18556213
923713533484602	0.26823425	0.023864746	-0.18556213
923713539343977	0.39894104	0.023864746	-0.26986694
923713543555403	0.39894104	0.51252747	-0.26986694
923713546942854	0.39161682	0.51252747	-0.2710724
923713553595686	0.31221008	0.72021484	-0.24786377
923713558631087	0.19981384	0.72998047	-0.21365356
923713563666487	0.099624634	0.5455017	-0.18067932
923713568732405	0.037322998	0.2755127	-0.15623474
923713574042464	0.009216309	0.044631958	-0.14279175
923713578833724	0.003112793	-0.07388306	-0.14035034
923713583838606	0.0067749023	-0.05921936	-0.15135193
923713589545393	0.015335083	0.0617218	-0.17456055
923713593909407	0.027542114	0.2437439	-0.20756531
923713597296858	0.04220581	0.43678284	-0.24909973
923713603980208	0.06175232	0.6078186	-0.29919434
923713609046126	0.083740234	0.74586487	-0.3578186
923713614051009	0.111846924	0.8533783	-0.42134094
923713619086409	0.13995361	0.9242554	-0.4836731
923713624579573	0.14604187	0.8619385	-0.53497314
923713629187727	0.09474182	0.5112915	-0.57650757
923713634253645	-0.02255249	-0.1557312	-0.6107178
923713640021468	-0.1642456	-0.8887787	-0.6351471
923713644263411	-0.26564026	-1.3298035	-0.63882446
923713647559309	-0.26564026	-1.3322449	-0.63882446
923713654303694	-0.28152466	-1.3322449	-0.57284546
923713659400130	-0.259552	-0.82891846	-0.5178833
923713664405013	-0.25343323	-0.71650696	-0.46043396
923713669440413	-0.26075745	-0.7018585	-0.4030304
923713675208235	-0.26687622	-0.7177429	-0.34561157
923713679541731	-0.26687622	-0.72994995	-0.34561157
923713684546614	-0.26319885	-0.72994995	-0.2869568
923713690467024	-0.23022461	-0.73605347	-0.17823792
923713694617415	-0.23022461	-0.74827576	-0.17823792
923713697913313	-0.21066284	-0.74827576	-0.13546753
923713704688216	-0.19477844	-0.7568207	-0.10003662
923713709693099	-0.18135071	-0.76660156	-0.065826416
923713714820052	-0.17524719	-0.77882385	-0.02796936
923713719824934	-0.18135071	-0.7983551	0.01966858
923713725531722	-0.20455933	-0.82891846	0.0758667
923713729895735	-0.2436676	-0.8753357	0.14060974
923713734931136	-0.29252625	-0.94007874	0.21026611
923713740790511	-0.34262085	-1.01828	0.28479004
923713744971419	-0.38415527	-1.0964661	0.36297607
923713748328352	-0.41836548	-1.1551208	0.43995667
923713755072737	-0.4440155	-1.1880951	0.5059204
923713760047102	-0.4611206	-1.2027588	0.54867554
923713765143538	-0.4696808	-1.2064209	0.56700134
923713770178938	-0.47576904	-1.1990967	0.57066345
923713776007796	-0.48188782	-1.1758881	0.56333923
923713780219222	-0.49165344	-1.1465607	0.54745483
923713785224104	-0.49777222	-1.123352	0.5266876
923713790961409	-0.490448	-1.1111145	0.5022583
923713795325423	-0.46844482	-1.1013489	0.47416687
923713798621321	-0.46844482	-1.0879059	0.47416687
923713805457259	-0.39759827	-1.0879059	0.39474487
923713810462141	-0.36094666	-1.0512543	0.34709167
923713815436507	-0.3255005	-1.0329285	0.30189514
923713820502425	-0.3255005	-1.0256042	0.26280212
923713825965071	-0.2619934	-1.0256042	0.22615051
923713830603743	-0.2619934	-1.0854645	0.22615051
923713835639143	-0.23875427	-1.0854645	0.1894989
923713841437483	-0.22410583	-1.1428833	0.118637085
923713845648909	-0.21554565	-1.2479553	0.118637085
923713849005843	-0.2094574	-1.2479553	0.08564758
923713855719710	-0.20089722	-1.2870636	0.051437378
923713860755110	-0.18989563	-1.3188324	0.011108398
923713865790511	-0.17401123	-1.340805	-0.034057617
923713870825911	-0.15324402	-1.3481293	-0.08294678
923713876197005	-0.1312561	-1.3444824	-0.13180542
923713880927229	-0.1129303	-1.3322449	-0.18067932
923713885962630	-0.09828186	-1.3139343	-0.22833252
923713891822005	-0.083602905	-1.2919464	-0.27963257
923713896002913	-0.067718506	-1.2699432	-0.33338928
923713899390364	-0.053085327	-1.250412	-0.3908081
923713906073714	-0.043319702	-1.2430725	-0.44578552
923713911109114	-0.040878296	-1.2601776	-0.49588013
923713916205550	-0.04208374	-1.3090363	-0.5435333
923713921210432	-0.048202515	-1.3835754	-0.5948334
923713926917220	-0.060394287	-1.4678802	-0.6559143
923713931281233	-0.083602905	-1.5436096	-0.7267761
923713936286116	-0.1129303	-1.6059418	-0.8013153
923713942023421	-0.14225769	-1.664566	-0.8709564
923713946387434	-0.1630249	-1.7244263	-0.93081665
923713949744368	-0.1630249	-1.779419	-0.93081665
923713956427718	-0.20089722	-1.779419	-1.0102386
923713961432600	-0.20089722	-1.8270721	-1.0370941
923713966529036	-0.22898865	-1.8087311	-1.0370941
923713971564436	-0.2619934	-1.8087311	-1.0590973
923713977057600	-0.29864502	-1.7684174	-1.0823059
923713981635237	-0.33161926	-1.7085571	-1.0823059
923713986731673	-0.3572693	-1.6352386	-1.0762024
923713992346907	-0.37438965	-1.5521698	-1.0578766
923713996741438	-0.38049316	-1.4568787	-1.0334473
923714000098372	-0.37438965	-1.3432465	-1.0138855
923714006812239	-0.36094666	-1.2149811	-1.0065613
923714011817122	-0.34384155	-1.1025848	-1.0200043
923714016852522	-0.33285522	-1.0500488	-1.0542145
923714021918440	-0.32917786	-1.0732574	-1.1030731
923714027228499	-0.32673645	-1.1477966	-1.1592712
923714031958724	-0.31573486	-1.2345276	-1.2154846
923714036994124	-0.29496765	-1.301712	-1.2667847
923714042884016	-0.26931763	-1.3444824	-1.3107758
923714047095442	-0.24610901	-1.3713684	-1.3474274
923714050452376	-0.2253418	-1.3872528	-1.3779602
923714057166243	-0.20578003	-1.3970184	-1.3950806
923714062140608	-0.18501282	-1.4019012	-1.3914032
923714067267561	-0.1618042	-1.3994598	-1.3681946
923714072302962	-0.13613892	-1.3872528	-1.3364258
923714078040266	-0.10437012	-1.3603668	-1.3107758
923714082373763	-0.06895447	-1.3175964	-1.2973328
923714087378645	-0.032318115	-1.262619	-1.2851105
923714093299056	0.0018920898	-1.1978607	-1.2619019
923714097418929	0.032440186	-1.1269989	-1.2240143
923714100836897	0.032440186	-1.0536957	-1.2240143
923714107550765	0.059310913	-1.0536957	-1.1543884
923714112494612	0.07885742	-0.9290924	-1.1543884
923714117591048	0.0849762	-0.9290924	-1.138504
923714122626448	0.07885742	-0.9168701	-1.125061
923714127936507	0.0703125	-0.9510803	-1.1067352
923714132697249	0.0703125	-1.0195007	-1.0896454
923714137732649	0.07763672	-1.0952301	-1.0847473
923714143378401	0.08862305	-1.1538849	-1.1006317
923714147864485	0.095962524	-1.1856537	-1.1311798
923714151129866	0.100860596	-1.189331	-1.1665955
923714157935286	0.10574341	-1.1734467	-1.1959229
923714162940169	0.11062622	-1.1514435	-1.2191315
923714167945052	0.116744995	-1.1331177	-1.2398987
923714172980452	0.12651062	-1.1221161	-1.2594604
923714178412581	0.14727783	-1.1184692	-1.2814484
923714183051253	0.18269348	-1.1123505	-1.2985535
923714188117171	0.22669983	-1.0903473	-1.2985535
923714193915511	0.26455688	-1.04393	-1.2643433
923714198157454	0.281662	-0.97062683	-1.1849213
923714201483870	0.281662	-0.8863373	-1.0700989
923714208228255	0.24012756	-0.8142395	-0.94425964
923714213294173	0.19369507	-0.78248596	-0.8245239
923714218268538	0.14727783	-0.81059265	-0.71824646
923714223303938	0.10694885	-0.8997803	-0.62171936
923714228675032	0.0703125	-1.0292816	-0.5252075
923714233405257	0.032440186	-1.1624451	-0.41889954
923714238440657	-5.493164E-4	-1.2601776	-0.30039978
923714244269515	-0.018875122	-1.3041534	-0.18312073
923714248511458	-0.012756348	-1.302948	-0.08659363
923714251868391	-0.012756348	-1.288269	-0.08659363
923714258582259	0.01777649	-1.288269	-0.02796936
923714263556624	0.06175232	-1.2833862	-0.008422852
923714268653059	0.10574341	-1.289505	-0.016983032
923714273688460	0.1375122	-1.2919464	-0.046295166
923714278998518	0.15704346	-1.2846222	-0.08782959
923714283759261	0.1668396	-1.262619	-0.14035034
923714288794661	0.16804504	-1.2284088	-0.19776917
923714294470931	0.15948486	-1.1770935	-0.25274658
923714298865462	0.14360046	-1.109909	-0.29673767
923714302222395	0.12162781	-1.0304871	-0.32850647
923714311652327	0.072753906	-0.9535217	-0.34683228
923714319007063	0.047088623	-0.86312866	-0.32484436
923714324042464	0.020217896	-0.8557739	-0.27963257
923714329352522	-0.005432129	-0.86312866	-0.21733093
923714334113265	-0.028640747	-0.8728943	-0.14402771
923714339179182	-0.04208374	-0.87901306	-0.06826782
923714344824934	-0.040878296	-0.8838959	0.0037841797
923714349249983	-0.020095825	-0.8887787	0.06976318
923714352545882	-0.020095825	-0.89489746	0.06976318
923714359320784	0.06297302	-0.89489746	0.15893555
923714364356184	0.10450745	-0.8985443	0.1711731
923714369330550	0.1326294	-0.8912201	0.16017151
923714374396468	0.14604187	-0.87901306	0.12962341
923714379737044	0.14239502	-0.8594513	0.08320618
923714384467268	0.124069214	-0.8325653	0.023345947
923714389533186	0.09718323	-0.79959106	-0.048736572
923714395301009	0.067855835	-0.76660156	-0.12936401
923714399542952	0.067855835	-0.74217224	-0.12936401
923714402930403	0.037322998	-0.74217224	-0.21244812
923714409613753	0.005554199	-0.72384644	-0.29063416
923714414649153	-0.031082153	-0.70674133	-0.3565979
923714419715071	-0.07383728	-0.68717957	-0.4079132
923714424719954	-0.11781311	-0.66397095	-0.44210815
923714430091048	-0.15814209	-0.6407623	-0.45799255
923714434790755	-0.19233704	-0.61875916	-0.45555115
923714439826155	-0.21554565	-0.5992279	-0.43234253
923714445685530	-0.2253418	-0.5809021	-0.387146
923714449927474	-0.22044373	-0.56134033	-0.32484436
923714453253890	-0.19967651	-0.5442505	-0.25154114
923714459998274	-0.16546631	-0.5308075	-0.17579651
923714464972640	-0.11781311	-0.5198059	-0.10371399
923714470099593	-0.06283569	-0.511261	-0.04017639
923714475104475	-0.006668091	-0.5027008	0.01234436
923714481665755	0.0385437	-0.49171448	0.050216675
923714485175276	0.0703125	-0.47583008	0.0758667
923714490180159	0.0874176	-0.45628357	0.0917511
923714495551253	0.09841919	-0.43551636	0.106414795
923714500281477	0.108184814	-0.41474915	0.1235199
923714503577376	0.108184814	-0.39154053	0.1235199
923714510382796	0.12771606	-0.39154053	0.15161133
923714515357161	0.13871765	-0.33166504	0.14916992
923714520392561	0.14971924	-0.30111694	0.13328552
923714525488997	0.16072083	-0.2718048	0.1088562
923714530921126	0.16560364	-0.24247742	0.07952881
923714535559798	0.16192627	-0.2180481	0.04899597
923714540564681	0.16192627	-0.20462036	0.01600647
923714546210432	0.120391846	-0.20462036	-0.018188477
923714550635481	0.120391846	-0.2021637	-0.018188477
923714553931380	0.09107971	-0.2021637	-0.052383423
923714560675765	0.06541443	-0.19361877	-0.08538818
923714565772200	0.05076599	-0.17041016	-0.11592102
923714570746565	0.048324585	-0.13496399	-0.14646912
923714575812483	0.05809021	-0.100753784	-0.1733551
923714581427718	0.08253479	-0.07632446	-0.19168091
923714585883284	0.12162781	-0.06410217	-0.20388794
923714590888167	0.17416382	-0.061660767	-0.21000671
923714596778059	0.23524475	-0.057998657	-0.21244812
923714600989485	0.29510498	-0.05189514	-0.21365356
923714604285384	0.3488617	-0.04701233	-0.21733093
923714611029768	0.39041138	-0.04701233	-0.22341919
923714616065169	0.4209442	-0.054336548	-0.23197937
923714621161604	0.43804932	-0.061660767	-0.24421692
923714626197005	0.4429474	-0.061660767	-0.26130676
923714631903792	0.44171143	-0.05189514	-0.2869568
923714636237288	0.4429474	-0.03845215	-0.31996155
923714641242171	0.4502716	-0.027450562	-0.3565979
923714647132063	0.4637146	-0.021347046	-0.3895874
923714651343489	0.47836304	-0.017684937	-0.4201355
923714654700423	0.47836304	-0.010345459	-0.4201355
923714661414290	0.50891113	-0.010345459	-0.4995575
923714666388655	0.52723694	0.027511597	-0.55207825
923714671485091	0.54312134	0.054397583	-0.6107178
923714676520491	0.55166626	0.08126831	-0.6669159
923714682227278	0.55166626	0.10568237	-0.71577454
923714686591292	0.55166626	0.12768555	-0.71577454
923714691718245	0.54556274	0.12768555	-0.74998474
923714697302962	0.53211975	0.14845276	-0.7671051
923714701819563	0.53211975	0.20465088	-0.7671051
923714705054427	0.52601624	0.20465088	-0.7561035
923714711859847	0.52233887	0.2461853	-0.73657227
923714716834212	0.52111816	0.29260254	-0.71577454
923714721839095	0.52111816	0.34025574	-0.69744873
923714727271224	0.51989746	0.38302612	-0.6876831
923714732733870	0.51379395	0.42211914	-0.68403625
923714736975813	0.49790955	0.45755005	-0.68403625
923714742194319	0.47225952	0.4905243	-0.6901245
923714747840071	0.43804932	0.52108765	-0.7035675
923714752112532	0.40138245	0.5479431	-0.7255707
923714755377913	0.3696289	0.5650635	-0.75245667
923714762183333	0.34031677	0.5699463	-0.7781067
923714767157698	0.3146515	0.5662842	-0.7939911
923714772376204	0.29266357	0.55529785	-0.7988739
923714777228499	0.27311707	0.5381775	-0.7903137
923714783209944	0.25357056	0.5174103	-0.76586914
923714787268782	0.23158264	0.49664307	-0.7231293
923714792426253	0.20469666	0.48443604	-0.6559143
923714797827864	0.17172241	0.48443604	-0.5569763
923714802497054	0.13139343	0.49786377	-0.43113708
923714805762434	0.13139343	0.5174103	-0.43113708
923714812720442	0.05809021	0.5174103	-0.13790894
923714817481184	0.044647217	0.5381775	0.006225586
923714822852278	0.047088623	0.5296173	0.13696289
923714827613020	0.056869507	0.5064087	0.24935913
923714833502913	0.0690918	0.46731567	0.34465027
923714837653304	0.0690918	0.41479492	0.34465027
923714842688704	0.08985901	0.41479492	0.4228363
923714848029280	0.12162781	0.35369873	0.48757935
923714853095198	0.16316223	0.2938385	0.53279114
923714856085921	0.20957947	0.23886108	0.5584564
923714863196516	0.25601196	0.18388367	0.56822205
923714867835188	0.3012085	0.13012695	0.56578064
923714873145247	0.34152222	0.08003235	0.55233765
923714877936507	0.37208557	0.031188965	0.5279083
923714883002425	0.39285278	-0.012802124	0.50102234
923714888007307	0.4050598	-0.044555664	0.47416687
923714893500472	0.4111786	-0.057998657	0.44728088
923714898749495	0.4111786	-0.05921936	0.4093933
923714903174544	0.40629578	-0.060440063	0.35565186
923714906409407	0.3977356	-0.07388306	0.28233337
923714913672591	0.38796997	-0.09220886	0.19682312
923714918250227	0.37817383	-0.100753784	0.1076355
923714923926497	0.3696289	-0.09587097	0.01966858
923714928290511	0.36473083	-0.08366394	-0.06462097
923714933814192	0.36473083	-0.077545166	-0.14524841
923714938361311	0.3696289	-0.093429565	-0.21853638
923714944281722	0.37452698	-0.12884521	-0.27963257
923714949256087	0.37452698	-0.1691742	-0.321167
923714954138899	0.3696289	-0.19238281	-0.3419342
923714956793929	0.3696289	-0.19726563	-0.3419342
923714964240218	0.3317566	-0.19726563	-0.3419342
923714968543196	0.29388428	-0.22659302	-0.3419342
923714974524641	0.24378967	-0.27912903	-0.3541565
923714978675032	0.24378967	-0.34388733	-0.3541565
923714984259749	0.1375122	-0.34388733	-0.41401672
923714988745833	0.1375122	-0.40986633	-0.41401672
923714993994856	0.09718323	-0.40986633	-0.45310974
923714999610091	0.072753906	-0.37442017	-0.4836731
923715004523421	0.06665039	-0.29867554	-0.49464417
923715007208968	0.07397461	-0.21070862	-0.4836731
923715014777327	0.08862305	-0.13619995	-0.45799255
923715018897200	0.108184814	-0.08242798	-0.4335785
923715024878645	0.14239502	-0.033569336	-0.42869568
923715028968001	0.20103455	0.026306152	-0.4494629
923715034583235	0.27311707	0.0947113	-0.49220276
923715039099837	0.33787537	0.14723206	-0.54229736
923715044867659	0.37329102	0.16189575	-0.58995056
923715049842024	0.37208557	0.13256836	-0.6302643
923715055152083	0.34031677	0.07392883	-0.658371
923715065222884	0.22180176	-0.056777954	-0.68891907
923715069251204	0.16072083	-0.081222534	-0.7145691
923715075202132	0.12283325	-0.061660767	-0.7536621
923715079352522	0.11795044	-0.011581421	-0.7854309
923715084784651	0.13995361	0.054397583	-0.7842102
923715089423323	0.17781067	0.13378906	-0.7390137
923715095465804	0.22302246	0.23886108	-0.6595917
923715100379134	0.26455688	0.36102295	-0.56430054
923715105292464	0.29266357	0.48075867	-0.47387695
923715107855940	0.29266357	0.5748291	-0.47387695
923715115637923	0.28656006	0.5748291	-0.3529358
923715119605208	0.28656006	0.6359253	-0.3529358
923715126074934	0.21446228	0.6359253	-0.32728577
923715131293440	0.17660522	0.51620483	-0.32240295
923715135321761	0.17660522	0.43678284	-0.32240295
923715139777327	0.14483643	0.43678284	-0.307724
923715145606184	0.124069214	0.37690735	-0.28451538
923715150672102	0.111846924	0.33781433	-0.26618958
923715155646468	0.11306763	0.30239868	-0.26618958
923715158209944	0.12527466	0.25350952	-0.2893982
923715166052962	0.14971924	0.18876648	-0.33094788
923715169928694	0.17781067	0.12400818	-0.3834839
923715176276350	0.20225525	0.07028198	-0.44822693
923715179999495	0.21690369	0.026306152	-0.52397156
923715185584212	0.21936035	-0.026229858	-0.59973145
923715190070296	0.21325684	-0.09954834	-0.65470886
923715195868636	0.20837402	-0.18629456	-0.66571045
923715200385237	0.21569824	-0.26080322	-0.6290436
923715206549788	0.23768616	-0.30723572	-0.55574036
923715216437483	0.32443237	-0.33288574	-0.34317017
923715220282698	0.386734	-0.33532715	-0.22097778
923715226142073	0.4502716	-0.33288574	-0.106155396
923715230353499	0.5028076	-0.32432556	-0.016983032
923715236945296	0.54067993	-0.31333923	0.037994385
923715240454817	0.56510925	-0.3023529	0.06488037
923715246863509	0.57977295	-0.29379272	0.06976318
923715250739241	0.58343506	-0.2864685	0.05265808
923715256995345	0.57733154	-0.2876892	0.007461548
923715266883040	0.56510925	-0.29867554	-0.15379333
923715270697737	0.56510925	-0.34509277	-0.15379333
923715276984358	0.54434204	-0.34509277	-0.36027527
923715280738020	0.54434204	-0.38909912	-0.36027527
923715286811018	0.4844818	-0.38909912	-0.5203247
923715290808821	0.4844818	-0.39030457	-0.5203247
923715297370100	0.43070984	-0.39030457	-0.51052856
923715301245833	0.43070984	-0.34877014	-0.51052856
923715307257796	0.4160614	-0.34877014	-0.45310974
923715317206526	0.37696838	-0.2840271	-0.3382721
923715321021224	0.34031677	-0.23027039	-0.31628418
923715327643538	0.30366516	-0.17285156	-0.32850647
923715331092024	0.28044128	-0.12884521	-0.36637878
923715336157942	0.27433777	-0.11175537	-0.41889954
923715341162825	0.27311707	-0.11175537	-0.47879028
923715346228743	0.26211548	-0.117874146	-0.54229736
923715351630354	0.24256897	-0.12640381	-0.6131592
923715356299544	0.22058105	-0.14472961	-0.6913605
923715359625960	0.22058105	-0.17649841	-0.6913605
923715366339827	0.19248962	-0.17649841	-0.8562927
923715371344710	0.17660522	-0.26080322	-0.91859436
923715376410628	0.14727783	-0.29257202	-0.9503479
923715381446028	0.11306763	-0.29867554	-0.9503479
923715386695052	0.09474182	-0.24615479	-0.921051
923715391486311	0.108184814	-0.1239624	-0.855072
923715397925520	0.14727783	0.028747559	-0.7426605
923715401801253	0.18148804	0.14723206	-0.58750916
923715406623030	0.18148804	0.20709229	-0.58750916
923715409979964	0.19125366	0.20709229	-0.4103546
923715416693831	0.17536926	0.23397827	-0.23930359
923715421729231	0.14604187	0.2620697	-0.0914917
923715426764632	0.12527466	0.29751587	0.041671753
923715431800032	0.12527466	0.33293152	0.16261292
923715437079573	0.15460205	0.36592102	0.26890564
923715441870833	0.20957947	0.39523315	0.34342957
923715446906233	0.28044128	0.41233826	0.3727417
923715452185774	0.35740662	0.41601563	0.3544159
923715456977034	0.42462158	0.40745544	0.29945374
923715460333968	0.466156	0.39035034	0.2237091
923715467047835	0.47103882	0.36836243	0.14428711
923715472418929	0.44171143	0.3463745	0.07220459
923715477135914	0.3952942	0.3207245	0.01600647
923715482171314	0.34640503	0.28651428	-0.024291992
923715487633960	0.29510498	0.2461853	-0.049942017
923715492242115	0.24134827	0.20587158	-0.062179565
923715497277515	0.1851654	0.16921997	-0.062179565
923715502740162	0.13139343	0.12768555	-0.048736572
923715507348316	0.08862305	0.06904602	-0.014541626
923715510674732	0.08862305	-0.010345459	-0.014541626
923715517449634	0.05809021	-0.010345459	0.13696289
923715522424000	0.076416016	-0.15208435	0.25546265
923715527459400	0.120391846	-0.16184998	0.39474487
923715534875171	0.18760681	-0.117874146	0.542572
923715537774341	0.27677917	-0.03479004	0.6879425
923715542596119	0.37452698	0.060516357	0.8247833
923715547631519	0.37452698	0.14112854	0.94696045
923715553063648	0.55044556	0.14112854	1.0483704
923715557702320	0.55044556	0.21809387	1.0483704
923715561089771	0.61886597	0.21809387	1.124115
923715567773121	0.6787262	0.21809387	1.1717682
923715572808521	0.736145	0.20098877	1.1912994
923715577843921	0.79478455	0.17044067	1.176651
923715582909839	0.8570862	0.12524414	1.122879
923715588158863	0.9169769	0.043395996	1.0349274
923715592950123	0.96095276	-0.09465027	0.9249573
923715597985523	0.9756012	-0.27790833	0.8101196
923715603295582	0.96461487	-0.47583008	0.6940613
923715608025806	0.9511719	-0.6517639	0.5767822
923715611443775	0.96095276	-0.7873688	0.45092773
923715618127125	1.0110321	-0.8851013	0.30799866
923715623162525	1.0916595	-0.9633026	0.1394043
923715628197925	1.173523	-1.0414886	-0.0597229
923715633233326	1.2333832	-1.1282349	-0.28086853
923715638634937	1.2675934	-1.2186432	-0.50564575
923715643304127	1.2871399	-1.3114777	-0.7194519
923715648309009	1.3067017	-1.4104614	-0.9112549
923715653619068	1.3470001	-1.521637	-1.085968
923715658440845	1.4252167	-1.6572418	-1.2521362
923715661767261	1.4252167	-1.831955	-1.2521362
923715668511646	1.6609955	-1.831955	-1.6430664
923715673577564	1.7037659	-2.2436676	-1.8617706
923715678582447	1.6035767	-2.3707275	-2.0450287
923715683587330	1.3506775	-2.3634033	-2.145218
923715689477222	1.0147095	-2.2216797	-2.143982
923715693688648	1.0147095	-2.0066528	-2.0596924
923715698724048	0.7068176	-2.0066528	-2.0596924
923715704186695	0.51135254	-1.8136292	-1.7787018
923715708794849	0.45391846	-1.7293243	-1.7787018
923715712121265	0.49546814	-1.7293243	-1.6198578
923715718896168	0.56999207	-1.7977448	-1.4476166
923715723870533	0.631073	-1.856369	-1.2533417
923715728936451	0.66407776	-1.8673706	-1.0444336
923715733971851	0.67996216	-1.8282776	-0.8355255
923715739678638	0.6872864	-1.7586517	-0.64982605
923715744042652	0.6921692	-1.6816711	-0.5019989
923715749078052	0.6921692	-1.6315918	-0.39813232
923715754540699	0.6762848	-1.6279144	-0.33094788
923715759148853	0.6286316	-1.6670074	-0.2869568
923715762505787	0.53944397	-1.7232056	-0.24421692
923715769219654	0.4295044	-1.7622986	-0.17944336
923715774255054	0.34519958	-1.7671967	-0.078048706
923715779290455	0.32687378	-1.7378693	0.04777527
923715784325855	0.3842926	-1.6731262	0.17849731
923715790063160	0.48692322	-1.572937	0.29699707
923715794396656	0.59565735	-1.442215	0.40574646
923715799401539	0.684845	-1.3041534	0.5059204
923715804711597	0.7532501	-1.1905365	0.59632874
923715809502857	0.80700684	-1.1160278	0.6696167
923715812890308	0.80700684	-1.0744629	0.6696167
923715819604175	0.9096222	-1.0744629	0.7453766
923715824609058	0.9621582	-1.0732574	0.7563629
923715829644459	1.0085907	-1.1074677	0.7722473
923715834710377	1.0501251	-1.1490021	0.8125763
923715840508716	1.107544	-1.1929779	0.89442444
923715844750660	1.107544	-1.2516327	0.89442444
923715849786060	1.2150574	-1.2516327	1.0166016
923715855279224	1.4056549	-1.3432465	1.1705322
923715859887378	1.7037659	-1.4642029	1.3501282
923715863183277	2.1240234	-1.5766144	1.5553741
923715869958179	2.6542664	-1.6279144	1.7679596
923715874932544	3.2516785	-1.5949402	1.9438782
923715879998462	3.8491058	-1.506958	2.0233002
923715885033863	4.38179	-1.4299927	1.9817657
923715890710132	4.795929	-1.442215	1.8534851
923715895104664	5.0439453	-1.61203	1.7105408
923715900140064	5.0610657	-1.9834442	1.6189117
923715905968921	4.771515	-2.5539703	1.6091461
923715910210865	4.1313324	-3.246704	1.6714478
923715913598316	3.1820374	-3.899109	1.7850647
923715920281666	2.056839	-4.314499	1.9292297
923715925286548	0.93162537	-4.3829193	2.0904999
923715930352466	-0.04576111	-4.152008	2.246872
923715935387867	-0.7812042	-3.784256	2.3763733
923715941125171	-1.2222595	-3.4336243	2.4643555
923715945458668	-1.346878	-3.1660767	2.5083313
923715950463550	-1.1733856	-2.9461517	2.509552
923715955834644	-0.77388	-2.6859283	2.479004
923715960564869	-0.26931763	-2.3255157	2.4252625
923715963921802	-0.26931763	-1.8905792	2.4252625
923715970727222	0.54800415	-1.8905792	2.3201752
923715975671070	0.7068176	-1.236969	2.3091888
923715980706470	0.7068176	-1.1783295	2.3372803
923715985741871	0.69828796	-1.1783295	2.3372803
923715991235035	0.3659668	-1.2931671	2.4692383
923715995812671	0.3659668	-1.7513123	2.4692383
923716000817554	0.1533966	-1.7513123	2.5339813
923716006188648	-0.031082153	-1.910141	2.5694122
923716010918873	-0.1630249	-1.9211426	2.5632935
923716014275806	-0.23631287	-1.7708588	2.513214
923716021050709	-0.26564026	-1.4971924	2.421585
923716026025074	-0.27296448	-1.1661072	2.2945251
923716031060474	-0.27664185	-0.8521271	2.143036
923716036095875	-0.28884888	-0.62120056	1.9817657
923716042077320	-0.31085205	-0.5100403	1.8290405
923716046136158	-0.33894348	-0.5234833	1.6995392
923716051202076	-0.36460876	-0.63220215	1.604248
923716056664722	-0.38537598	-0.78370667	1.5456085
923716061303394	-0.39881897	-0.9205475	1.5248413
923716064599293	-0.40248108	-0.9987335	1.5346069
923716071343677	-0.40003967	-0.9987335	1.5675964
923716076348560	-0.3927002	-0.92663574	1.6140289
923716081414478	-0.38781738	-0.8020325	1.6628876
923716086449878	-0.38537598	-0.64808655	1.7032166
923716092126148	-0.38537598	-0.48683167	1.7264252
923716096490162	-0.38659668	-0.33900452	1.719101
923716101525562	-0.38659668	-0.2204895	1.6726532
923716107018726	-0.38415527	-0.13496399	1.587143
923716111657398	-0.37805176	-0.07022095	1.47229
923716114953296	-0.37805176	-0.007904053	1.47229
923716121697681	-0.35116577	-0.007904053	1.2133026
923716126702564	-0.35116577	0.16311646	1.2133026
923716131799000	-0.33161926	0.16311646	1.0886688
923716136803882	-0.31085205	0.27427673	0.9726105
923716142846363	-0.26687622	0.38912964	0.7649231
923716146874683	-0.26687622	0.5479431	0.7649231
923716151940601	-0.24610901	0.5479431	0.67085266
923716157616871	-0.22654724	0.57118225	0.57922363
923716161980884	-0.21554565	0.5626221	0.48757935
923716165307300	-0.21434021	0.5357361	0.40083313
923716172051685	-0.22410583	0.5088501	0.32144165
923716177087085	-0.2436676	0.48931885	0.25668335
923716182091968	-0.26319885	0.47709656	0.2078247
923716187157886	-0.27420044	0.46611023	0.17726135
923716192590015	-0.27052307	0.44654846	0.16505432
923716197198169	-0.24731445	0.41601563	0.17237854
923716202233570	-0.20822144	0.37080383	0.19314575
923716207513111	-0.15692139	0.3072815	0.21759033
923716212304371	-0.0970459	0.22297668	0.2371521
923716215630787	-0.029876709	0.11424255	0.24935913
923716222375171	0.04586792	-0.016464233	0.25912476
923716227410572	0.1326294	-0.15940857	0.27134705
923716232445972	0.22180176	-0.30599976	0.28723145
923716237481373	0.3048706	-0.43917847	0.30799866
923716242913502	0.37208557	-0.5466919	0.33242798
923716247552173	0.41970825	-0.6102295	0.36053467
923716252587574	0.4478302	-0.6199951	0.38986206
923716258019703	0.4612732	-0.5760193	0.41671753
923716262688892	0.46247864	-0.48316956	0.43995667
923716266076343	0.46247864	-0.35853577	0.43995667
923716272759693	0.4502716	-0.35853577	0.4656067
923716277764576	0.4185028	-0.22659302	0.5022583
923716282769459	0.36228943	-0.10687256	0.55599976
923716287835377	0.27433777	0.0030822754	0.62564087
923716293084400	0.15948486	0.119125366	0.71118164
923716297875660	0.02998352	0.24986267	0.8040161
923716302941578	-0.10437012	0.38424683	0.8981018
923716308190601	-0.23875427	0.5015259	0.9872894
923716313012378	-0.36827087	0.5870514	1.0679016
923716316369312	-0.48921204	0.6322479	1.1387634
923716323083179	-0.60162354	0.6322479	1.1876526
923716328118580	-0.7152405	0.5772705	1.2010956
923716333184498	-0.8484192	0.45510864	1.163208
923716338158863	-1.0145721	0.26086426	1.0727997
923716343499439	-1.2161407	0.0018615723	0.94207764
923716348260181	-1.4421692	-0.29501343	0.7930145
923716353265064	-1.6742859	-0.6041107	0.65008545
923716358544605	-1.888092	-0.8997803	0.53034973
923716363366382	-2.0628052	-1.1612091	0.44360352
923716366692798	-2.0628052	-1.3652496	0.44360352
923716373437183	-2.1935272	-1.3652496	0.37397766
923716378472584	-2.1226654	-1.4923096	0.38252258
923716383507984	-1.9577484	-1.3933411	0.4032898
923716388604419	-1.6999512	-1.1954193	0.42407227
923716393975513	-1.3627625	-0.9303131	0.43139648
923716398614185	-0.96936035	-0.6383209	0.41427612
923716403619068	-0.5503082	-0.36221313	0.3678589
923716409112232	-0.1471405	-0.13864136	0.29699707
923716413720386	-0.1471405	0.011627197	0.21026611
923716417046802	0.20103455	0.011627197	0.21026611
923716423791187	0.4637146	0.0763855	0.118637085
923716428826587	0.6225128	0.060516357	0.029434204
923716433861988	0.6811676	-0.01524353	-0.05606079
923716438897388	0.66407776	-0.12031555	-0.13424683
923716444329517	0.6042023	-0.2217102	-0.20388794
923716448968189	0.53089905	-0.3023529	-0.25642395
923716454003589	0.4612732	-0.35488892	-0.28451538
923716459374683	0.40138245	-0.3842163	-0.2869568
923716464074390	0.3549652	-0.39762878	-0.26498413
923716467431324	0.3146515	-0.40618896	-0.22589111
923716474145191	0.27311707	-0.41719055	-0.1733551
923716479394214	0.22669983	-0.42939758	-0.1085968
923716484215992	0.17904663	-0.4342804	-0.032852173
923716489251392	0.1326294	-0.431839	0.04777527
923716494500416	0.08618164	-0.42451477	0.13084412
923716499352710	0.0385437	-0.41963196	0.2078247
923716504357593	-0.007873535	-0.42207336	0.27378845
923716509637134	-0.043319702	-0.42819214	0.32510376
923716514428394	-0.059188843	-0.43551636	0.3592987
923716517785328	-0.059188843	-0.44284058	0.3592987
923716524468677	-0.006668091	-0.44284058	0.38006592
923716529534595	0.0544281	-0.4660492	0.36663818
923716534600513	0.12283325	-0.48561096	0.3385315
923716539635914	0.19248962	-0.5173645	0.29821777
923716545068043	0.26089478	-0.5601349	0.25546265
923716549676197	0.3293152	-0.61143494	0.2212677
923716554681080	0.3293152	-0.6578827	0.20050049
923716559991138	0.46003723	-0.6859741	0.19194031
923716564782398	0.46003723	-0.68963623	0.19194031
923716568169849	0.51379395	-0.68963623	0.19314575
923716574853199	0.55410767	-0.6725311	0.19802856
923716579919117	0.5760956	-0.6444397	0.20170593
923716584954517	0.578537	-0.6175537	0.19438171
923716589989918	0.56877136	-0.6077881	0.17605591
923716595513599	0.55656433	-0.62731934	0.15161133
923716600030201	0.55044556	-0.67985535	0.13208008
923716605096119	0.55044556	-0.7543793	0.12107849
923716610528248	0.55410767	-0.8374481	0.122283936
923716615166919	0.55532837	-0.9205475	0.13084412
923716618523853	0.54190063	-1.0036163	0.14672852
923716625237720	0.5064697	-1.0927887	0.16873169
923716630242603	0.43804932	-1.1905365	0.19438171
923716635308521	0.3354187	-1.3005066	0.22491455
923716640313404	0.20713806	-1.4129028	0.25546265
923716646203296	0.067855835	-1.5167389	0.28479004
923716650384205	-0.0652771	-1.5949402	0.31410217
923716655419605	-0.1776886	-1.6352386	0.34465027
923716660729664	-0.26931763	-1.6315918	0.3776245
923716665520923	-0.34750366	-1.5827026	0.41062927
923716668877857	-0.34750366	-1.4874268	0.41062927
923716675622242	-0.49777222	-1.4874268	0.46192932
923716680596607	-0.5723114	-1.1490021	0.48025513
923716685662525	-0.64071655	-0.9119873	0.4973755
923716690697925	-0.6969147	-0.6444397	0.5108032
923716696435230	-0.73602295	-0.36709595	0.5181427
923716700768726	-0.73602295	-0.100753784	0.5230255
923716705773609	-0.7579956	-0.100753784	0.5230255
923716711053150	-0.7689972	0.13624573	0.5254669
923716715874927	-0.7787628	0.32681274	0.5254669
923716719292896	-0.7983246	0.45387268	0.5205841
923716725945728	-0.8325348	0.5039673	0.5108032
923716730981128	-0.8887329	0.47099304	0.49493408
923716735955494	-0.9632416	0.3573761	0.4729309
923716741051929	-1.0487823	0.18266296	0.4411621
923716746423023	-1.124527	-0.025009155	0.39595032
923716751092212	-1.1770477	-0.2363739	0.33486938
923716756097095	-1.1966095	-0.42330933	0.26524353
923716761407154	-1.1856079	-0.5760193	0.20170593
923716766198414	-1.1538391	-0.70062256	0.15284729
923716769768970	-1.1171875	-0.808136	0.122283936
923716776269214	-1.0878754	-0.90830994	0.10151672
923716781335132	-1.0683136	-1.0072784	0.08808899
923716786340015	-1.0487823	-1.1050262	0.078308105
923716791344898	-1.0096893	-1.1990967	0.06854248
923716796807544	-0.9388275	-1.2797241	0.05265808
923716801446216	-0.8349762	-1.340805	0.02822876
923716806512134	-0.7030182	-1.3713684	0.0025787354
923716811883228	-0.5454254	-1.3530426	-0.013305664
923716816552418	-0.36216736	-1.2675018	-0.007217407
923716820672291	-0.36216736	-1.1001434	-0.007217407
923716826623218	0.06665039	-1.1001434	0.07952881
923716831658619	0.29266357	-0.5601349	0.13816833
923716836694019	0.51257324	-0.2363739	0.18826294
923716841698902	0.7153778	0.08859253	0.22491455
923716847008960	0.89253235	0.38546753	0.25180054
923716851861255	0.89253235	0.6298065	0.25180054
923716856835621	1.0403595	0.6298065	0.27256775
923716862206714	1.1613159	0.7984009	0.28967285
923716866906421	1.2663727	0.87538147	0.29945374
923716870507496	1.3702087	0.8607178	0.30311584
923716876977222	1.4911804	0.76542664	0.30065918
923716881982105	1.6512299	0.58950806	0.29333496
923716887048023	1.8638	0.2938385	0.28356934
923716892083423	2.108139	-0.17649841	0.27745056
923716897332447	2.3317108	-0.82647705	0.28233337
923716902154224	2.4893188	-1.5888214	0.29699707
923716907159107	2.5675201	-2.3658447	0.31532288
923716912438648	2.5760803	-3.1049805	0.33364868
923716917229908	2.5223083	-3.7964935	0.34953308
923716921288746	2.4025726	-4.4195557	0.3592987
923716927331226	2.2180939	-4.9277954	0.36053467
923716932366627	1.9761963	-5.2772064	0.34953308
923716937402027	1.6890869	-5.445801	0.32876587
923716942437427	1.3751221	-5.4311523	0.30311584
923716948357837	1.0513611	-5.2393494	0.27256775
923716952508228	0.74102783	-4.8838196	0.23835754
923716957574146	0.45881653	-4.392685	0.19558716
923716963006275	0.22058105	-3.8087006	0.14428711
923716967614429	0.028778076	-3.1709595	0.08320618
923716971856373	0.028778076	-2.520996	0.08320618
923716977715748	-0.2118988	-2.520996	-0.08415222
923716982720630	-0.26931763	-1.3224792	-0.19656372
923716987756031	-0.26931763	-0.8484497	-0.32240295
923716992791431	-0.28520203	-0.497818	-0.32240295
923716998284595	-0.16546631	-0.497818	-0.58018494
923717002862232	-0.16546631	-0.19361877	-0.58018494
923717007897632	-0.0017700195	-0.19361877	-0.6986847
923717013207691	0.24134827	-0.2217102	-0.8049774
923717017968433	0.56144714	-0.35977173	-0.89782715
923717022057789	0.94506836	-0.5919037	-0.97358704
923717028039234	1.3665619	-0.87409973	-1.0310059
923717033044117	1.7953796	-1.1343536	-1.0774231
923717038110035	2.1887817	-1.2992706	-1.1226196
923717043145435	2.5174255	-1.3273621	-1.177597
923717048394459	2.7678833	-1.2149811	-1.2386932
923717053246753	2.9425812	-0.9852905	-1.2936707
923717058251636	3.0525513	-0.6700897	-1.3291016
923717063500660	3.10141	-0.30723572	-1.3376465
923717068322437	3.0989685	0.05807495	-1.3156586
923717072472828	3.0513153	0.37202454	-1.2631378
923717078393238	2.964569	0.5748291	-1.1849213
923717083428638	2.838745	0.6200409	-1.0847473
923717088464039	2.6786957	0.50764465	-0.97358704
923717093529957	2.4990997	0.27062988	-0.86117554
923717098901050	2.314621	-0.045776367	-0.7536621
923717103539722	2.1325836	-0.40618896	-0.6559143
923717108575123	1.9529877	-0.7873688	-0.57040405
923717113824146	1.7746124	-1.1661072	-0.49343872
923717118676441	1.593811	-1.5167389	-0.42745972
923717123284595	1.593811	-1.8123932	-0.42745972
923717128747242	1.2272797	-1.8123932	-0.30895996
923717133813160	1.2272797	-2.1459198	-0.24786377
923717138818043	1.0428009	-2.1459198	-0.24786377
923717143853443	0.86076355	-2.1520386	-0.18432617
923717149316089	0.684845	-2.0482025	-0.1269226
923717153924244	0.51623535	-1.8478394	-0.08294678
923717158959644	0.35984802	-1.572937	-0.053619385
923717164361255	0.22302246	-1.2442932	-0.03895569
923717169091480	0.108184814	-0.87657166	-0.032852173
923717173974293	0.012893677	-0.484375	-0.034057617
923717179192798	-0.0652771	-0.08610535	-0.04750061
923717184319752	-0.1288147	0.29995728	-0.07194519
923717189233082	-0.18013	0.6518097	-0.11103821
923717194237964	-0.21798706	0.9511261	-0.16111755
923717199975269	-0.24487305	1.179596	-0.21853638
923717204369800	-0.26075745	1.322525	-0.27597046
923717209405201	-0.27052307	1.3689575	-0.3236084
923717214806812	-0.2754364	1.3127594	-0.3529358
923717219476002	-0.27420044	1.1563721	-0.3553772
923717224450367	-0.25831604	0.9181366	-0.33216858
923717229516285	-0.2253418	0.6322479	-0.29063416
923717234826343	-0.17401123	0.3414917	-0.24053955
923717239617603	-0.114151	0.08735657	-0.18800354
923717244622486	-0.05429077	-0.09954834	-0.13546753
923717250329273	-5.493164E-4	-0.20706177	-0.08659363
923717254693287	0.04586792	-0.24247742	-0.036499023
923717259728687	0.08129883	-0.22415161	0.011108398
923717265435474	0.099624634	-0.17285156	0.055099487
923717269768970	0.09841919	-0.10443115	0.090530396
923717273156421	0.09841919	-0.029907227	0.090530396
923717279839771	0.076416016	-0.029907227	0.118637085
923717284875171	0.036102295	0.043395996	0.14305115
923717289941089	-0.017654419	0.11668396	0.16629028
923717294945972	-0.08239746	0.18998718	0.1894989
923717300774830	-0.15692139	0.25839233	0.24812317
923717305016773	-0.24487305	0.31584167	0.24812317
923717310021656	-0.34872437	0.3524933	0.28479004
923717315484302	-0.4696808	0.3573761	0.32754517
923717320122974	-0.60650635	0.31948853	0.3776245
923717323418873	-0.75923157	0.22909546	0.4387207
923717330224293	-0.9278259	0.08126831	0.5157013
923717335259693	-1.1086426	-0.12884521	0.61099243
923717340264576	-1.2980042	-0.39398193	0.73194885
923717345269459	-1.4910431	-0.70306396	0.87731934
923717351159351	-1.6816254	-1.0451508	1.0349274
923717355340259	-1.8538971	-1.4238892	1.1864166
923717360375660	-1.9870453	-1.8661652	1.3122559
923717366204517	-2.0579224	-2.3976135	1.3965454
923717370476978	-2.0518188	-2.998703	1.4319916
923717373864429	-2.0518188	-3.580246	1.4185486
923717380578296	-1.8563385	-4.0066223	1.355011
923717385583179	-1.7121735	-4.167877	1.2365112
923717390618580	-1.5533447	-4.0347137	1.0520325
923717395623462	-1.3725281	-3.6596527	0.7966919
923717401360767	-1.1672821	-3.1343079	0.46925354
923717405724781	-0.93759155	-2.5539703	0.078308105
923717410760181	-0.69569397	-1.9993134	-0.3517151
923717416375416	-0.45500183	-1.5314026	-0.78175354
923717420861500	-0.23754883	-1.1746521	-1.1592712
923717424187916	-0.23754883	-0.9205475	-1.1592712
923717430901783	-0.064071655	-0.9205475	-1.435379
923717435906666	0.049545288	-0.73361206	-1.5746613
923717440972584	0.10206604	-0.57966614	-1.5734406
923717446038502	0.10450745	-0.44407654	-1.4537048
923717451684253	0.0715332	-0.33776855	-1.2606812
923717456078785	0.020217896	-0.28279114	-1.0419922
923717461114185	-0.04208374	-0.29135132	-0.8330841
923717466820972	-0.115371704	-0.36465454	-0.6510315
923717471184986	-0.20578003	-0.49415588	-0.49832153
923717474572437	-0.31697083	-0.6652069	-0.36027527
923717481286304	-0.4415741	-0.8643341	-0.22709656
923717486291187	-0.5613098	-1.070816	-0.0914917
923717491326587	-0.65538025	-1.2589569	0.039215088
923717496331470	-0.7127991	-1.3970184	0.1552887
923717502221363	-0.75923157	-1.4617615	0.24935913
923717506432789	-0.8569641	-1.4385529	0.32510376
923717511468189	-1.0573273	-1.3175964	0.3935089
923717517358082	-1.3444366	-1.1160278	0.46437073
923717521538990	-1.6278687	-0.89489746	0.54623413
923717524865406	-1.6278687	-0.73117065	0.54623413
923717531640308	-1.8038025	-0.73117065	0.7355957
923717536614673	-1.6523132	-0.6725311	0.8125763
923717541680591	-1.3810883	-0.69329834	0.8480072
923717546685474	-1.0255737	-0.70062256	0.82844543
923717552544849	-0.62849426	-0.69451904	0.7637024
923717556878345	-0.23754883	-0.6786499	0.6806183
923717561822193	0.10206604	-0.6395569	0.61587524
923717567528980	0.36108398	-0.5588989	0.58776855
923717571892994	0.36108398	-0.43673706	0.58776855
923717575249927	0.53578186	-0.43673706	0.59632874
923717581963794	0.6335144	-0.2889099	0.62319946
923717586968677	0.6738434	-0.1374054	0.65496826
923717592034595	0.6726074	0.0030822754	0.68185425
923717597069996	0.644516	0.13012695	0.70018005
923717602807300	0.5968628	0.25106812	0.7075043
923717607445972	0.53089905	0.36592102	0.6989441
923717612206714	0.43927002	0.47587585	0.6744995
923717617333668	0.32199097	0.5699463	0.64152527
923717622246998	0.18881226	0.6359253	0.608551
923717625603931	0.059310913	0.6701355	0.58532715
923717632317798	-0.04576111	0.6811218	0.57922363
923717637383716	-0.111709595	0.68844604	0.59510803
923717642419117	-0.1324768	0.71777344	0.63908386
923717647759693	-0.111709595	0.78863525	0.7099457
923717653283375	-0.06651306	0.8998108	0.7979126
923717657677906	-0.021316528	1.0317688	0.88830566
923717662530201	0.0018920898	1.1429443	0.96406555
923717667565601	-0.011550903	1.1905823	1.0166016
923717672631519	-0.060394287	1.1478271	1.0385895
923717675896900	-0.060394287	1.0110016	1.0385895
923717682702320	-0.19967651	1.0110016	0.98239136
923717687798755	-0.25343323	0.5149689	0.91275024
923717692773121	-0.28520203	0.20953369	0.8235626
923717697808521	-0.30229187	-0.084869385	0.7197113
923717703637378	-0.30963135	-0.3341217	0.608551
923717707848804	-0.31697083	-0.5075989	0.49369812
923717712914722	-0.31697083	-0.5943451	0.49369812
923717718957203	-0.36338806	-0.5943451	0.29089355
923717722985523	-0.36338806	-0.563797	0.29089355
923717726250904	-0.4256897	-0.563797	0.22003174
923717733086841	-0.52830505	-0.5014801	0.17726135
923717738091724	-0.6663666	-0.43795776	0.16629028
923717743127125	-0.8227539	-0.3842163	0.18338013
923717748254078	-0.9766846	-0.34020996	0.2212677
923717753869312	-1.1123047	-0.3047943	0.27500916
923717759087818	-1.2222595	-0.2718048	0.3360901
923717763207691	-1.3090057	-0.23881531	0.39839172
923717768822925	-1.3725281	-0.21438599	0.4546051
923717773339527	-1.412857	-0.2058258	0.4973755
923717776665943	-1.4262848	-0.2168274	0.5242462
923717783410328	-1.412857	-0.24369812	0.53767395
923717788567798	-1.3725281	-0.28034973	0.5413513
923717793450611	-1.3090057	-0.32432556	0.53523254
923717799401539	-1.223465	-0.37321472	0.5230255
923717803826587	-1.1159668	-0.42330933	0.5046997
923717809502857	-0.99256897	-0.47460938	0.47781372
923717813592212	-0.8606262	-0.5332489	0.44483948
923717819146412	-0.72746277	-0.59555054	0.4093933
923717823663013	-0.59552	-0.6603241	0.3776245
923717826989429	-0.59552	-0.7177429	0.3776245
923717833733814	-0.34994507	-0.7177429	0.32632446
923717839043873	-0.2412262	-0.76782227	0.30921936
923717843774097	-0.1459198	-0.75071716	0.30065918
923717849786060	-0.064071655	-0.70918274	0.29945374
923717854302662	0.0018920898	-0.6517639	0.29945374
923717859673755	0.051986694	-0.5857849	0.29577637
923717863915699	0.051986694	-0.5185852	0.29577637
923717869317310	0.0874176	-0.5185852	0.28601074
923717874017017	0.10694885	-0.45750427	0.27500916
923717877404468	0.11306763	-0.40742493	0.26644897
923717884118335	0.11062622	-0.36586	0.26036072
923717889825123	0.10574341	-0.33532715	0.26280212
923717894189136	0.09718323	-0.31455994	0.27256775
923717899956959	0.0849762	-0.30599976	0.29089355
923717905053394	0.067855835	-0.30723572	0.30799866
923717910119312	0.043426514	-0.31455994	0.31654358
923717914300220	0.015335083	-0.32676697	0.31044006
923717920830982	-0.01399231	-0.33776855	0.29211426
923717924401539	-0.040878296	-0.34509277	0.26644897
923717927666919	-0.0652771	-0.34509277	0.2395935
923717934472339	-0.08850098	-0.33900452	0.2188263
923717940270679	-0.115371704	-0.33166504	0.20658875
923717944543140	-0.1459198	-0.32800293	0.20050049
923717950310962	-0.1776886	-0.33776855	0.19802856
923717955254810	-0.21066284	-0.36097717	0.19682312
923717961083668	-0.24610901	-0.39886475	0.19802856
923717964654224	-0.28764343	-0.4477234	0.2078247
923717970666187	-0.33529663	-0.4990387	0.22735596
923717974725025	-0.38659668	-0.5442505	0.25546265
923717978051441	-0.38659668	-0.58210754	0.25546265
923717984826343	-0.48068237	-0.58210754	0.32876587
923717990838306	-0.5185394	-0.6493225	0.37397766
923717994897144	-0.5454254	-0.6725311	0.4228363
923718001397388	-0.5588684	-0.67985535	0.4704895
923718005791919	-0.556427	-0.66641235	0.5095825
923718011437671	-0.54174805	-0.63708496	0.53523254
923718015038746	-0.54174805	-0.6016693	0.53523254
923718020653980	-0.52098083	-0.6016693	0.5437927
923718025079029	-0.5014496	-0.5686798	0.5364685
923718028405445	-0.48188782	-0.5405731	0.51446533
923718035180347	-0.46479797	-0.5124817	0.48269653
923718041253345	-0.45256042	-0.48316956	0.44360352
923718045220630	-0.44891357	-0.45140076	0.40083313
923718051598804	-0.4586792	-0.41963196	0.36053467
923718056115406	-0.48068237	-0.38786316	0.32388306
923718061669605	-0.5124512	-0.35733032	0.29455566
923718065362232	-0.5491028	-0.32676697	0.27378845
923718071465748	-0.58451843	-0.30111694	0.26156616
923718075402515	-0.6138458	-0.28157043	0.25424194
923718078789966	-0.63461304	-0.27546692	0.25180054
923718085534351	-0.64927673	-0.2864685	0.25424194
923718091912525	-0.66270447	-0.31578064	0.26280212
923718095574634	-0.67858887	-0.36586	0.27622986
923718101983326	-0.6969147	-0.43795776	0.29699707
923718105950611	-0.7152405	-0.5295868	0.32266235
923718110680835	-0.72502136	-0.6358795	0.35565186
923718115716236	-0.7152405	-0.74949646	0.3935089
923718121606128	-0.682251	-0.8680115	0.43751526
923718125787037	-0.62727356	-0.9816284	0.48025513
923718129143970	-0.62727356	-1.084259	0.48025513
923718135857837	-0.49900818	-1.084259	0.54623413
923718142388599	-0.4537964	-1.2345276	0.56211853
923718145959156	-0.4537964	-1.2797241	0.56211853
923718150994556	-0.43669128	-1.2797241	0.56211853
923718156701343	-0.47332764	-1.3041534	0.50346375
923718161065357	-0.47332764	-1.2662811	0.50346375
923718166039722	-0.49777222	-1.2662811	0.44604492
923718171502369	-0.5087738	-1.2015381	0.37886047
923718176141041	-0.49900818	-1.1135559	0.30311584
923718179559009	-0.4721222	-1.0146027	0.22491455
923718186211841	-0.4403534	-0.9217529	0.14428711
923718193017261	-0.41592407	-0.8521271	-0.023086548
923718196252125	-0.40248108	-0.8240204	-0.023086548
923718201379078	-0.3927002	-0.8533325	-0.11470032
923718206811207	-0.37683105	-0.9413147	-0.21244812
923718211449878	-0.34750366	-1.0818176	-0.31750488
923718216393726	-0.29740906	-1.262619	-0.43234253
923718221825855	-0.21554565	-1.4788666	-0.5630646
923718226495044	-0.07872009	-1.7464294	-0.7145691
923718229790943	0.15704346	-2.0921783	-0.89660645
923718236626880	0.53334045	-2.5014496	-1.1213989
923718241631763	1.0428009	-2.8643188	-1.3926239
923718246667164	1.6011353	-3.0084686	-1.6956024
923718251672046	2.094696	-2.8215485	-2.004715
923718257531421	2.4392242	-2.3487244	-2.2869263
923718261742847	2.6322632	-1.7598572	-2.515396
923718266778248	2.7238922	-1.2357483	-2.681549
923718272362964	2.772766	-0.88145447	-2.786621
923718276879566	2.817978	-0.7177429	-2.8379364
923718280175464	2.817978	-0.71894836	-2.8379364
923718286980884	2.8717194	-0.71894836	-2.820816
923718291924732	2.9315796	-1.0280457	-2.820816
923718297021168	2.9890137	-1.0280457	-2.7719574
923718302056568	3.0366669	-1.2271881	-2.708435
923718307793873	3.069641	-1.3823395	-2.5605927
923718312127369	3.0769653	-1.4519958	-2.5605927
923718317162769	3.0549927	-1.4153442	-2.47995
923718323052662	3.0073395	-1.2675018	-2.3956604
923718327203052	2.9413605	-1.0219421	-2.3076935
923718330559986	2.8631592	-0.7018585	-2.2160797
923718337334888	2.7715454	-0.34020996	-2.1256561
923718342309253	2.6615906	0.022628784	-2.0413666
923718347344654	2.532074	0.35614014	-1.9631805
923718352410572	2.3854828	0.6334839	-1.8874359
923718358178394	2.2278748	0.83750916	-1.8055725
923718362450855	2.069046	0.9535675	-1.7102814
923718367486255	1.9102173	0.9755554	-1.602768
923718372826832	1.7550659	0.9046936	-1.487915
923718377526539	1.5998993	0.75686646	-1.370636
923718380913990	1.5998993	0.55041504	-1.2545776
923718387627857	1.2822571	0.30848694	-1.138504
923718392693775	1.1136627	0.047073364	-1.0224457
923718397668140	0.9328613	-0.2192688	-0.9051666
923718402734058	0.736145	-0.47216797	-0.7866516
923718408196705	0.51379395	-0.6859741	-0.66571045
923718412804859	0.26089478	-0.83380127	-0.54473877
923718417809742	-0.018875122	-0.89733887	-0.426239
923718423699634	-0.31697083	-0.87409973	-0.31384277
923718427880543	-0.61872864	-0.7727051	-0.21244812
923718431237476	-0.61872864	-0.60899353	-0.21244812
923718438012378	-0.9107208	-0.60899353	-0.1269226
923718443047779	-1.1856079	-0.39886475	-0.062179565
923718448052662	-1.4385071	-0.1557312	-0.023086548
923718453088062	-1.6681976	0.11424255	-0.01574707
923718458642261	-1.8722229	0.40135193	-0.045059204
923718463219898	-2.0432587	0.6933441	-0.109817505
923718468194263	-2.1703186	0.9682312	-0.20509338
923718475610035	-2.1788788	1.1869202	-0.46166992
923718478295582	-2.1788788	1.2260132	-0.46166992
923718481591480	-1.9931641	1.2260132	-0.6119385
923718488396900	-1.6755219	0.9560089	-0.7646637
923718493371265	-1.2674713	0.54429626	-0.89538574
923718498437183	-0.8374176	0.12890625	-0.98335266
923718503442066	-0.4403534	-0.14720154	-1.0187683
923718509209888	-0.108047485	-0.21560669	-1.0065613
923718513512867	0.14971924	-0.08610535	-0.9637909
923718518548267	0.334198	0.18632507	-0.9063721
923718524285572	0.45391846	0.5332947	-0.84529114
923718528588550	0.51623535	0.8937073	-0.78175354
923718531945484	0.51623535	1.2211304	-0.78175354
923718538689869	0.49913025	1.2211304	-0.6510315
923718543694752	0.43559265	1.6560669	-0.578949
923718548760669	0.34152222	1.7501373	-0.49588013
923718553796070	0.22546387	1.7794647	-0.4018097
923718559136646	0.092300415	1.759903	-0.29551697
923718563866871	-0.04576111	1.7110443	-0.17823792
923718568902271	-0.18257141	1.6487274	-0.05117798
923718574639576	-0.31085205	1.5888672	0.08320618
923718578973072	-0.31085205	1.5400085	0.08320618
923718582330005	-0.4317932	1.5400085	0.21759033
923718589043873	-0.542984	1.4996796	0.35075378
923718594048755	-0.64559937	1.4581451	0.48269653
923718599114673	-0.734787	1.4056091	0.61709595
923718604150074	-0.8105316	1.3310852	0.7539215
923718609643238	-0.8691864	1.2260132	0.8895416
923718614220875	-0.9082794	1.0879517	1.0117035
923718619225757	-0.92170715	0.9120331	1.1118927
923718625115650	-0.89849854	0.69944763	1.1778564
923718629327076	-0.8312988	0.45999146	1.203537
923718632684009	-0.7164612	0.21565247	1.1827393
923718639397877	-0.5588684	0.0030822754	1.1155548
923718644402759	-0.37683105	-0.14108276	1.0117035
923718649468677	-0.19967651	-0.19361877	0.88342285
923718654504078	-0.053085327	-0.15452576	0.7417145
923718659966724	0.04220581	-0.048217773	0.60121155
923718664574878	0.080078125	0.08859253	0.4680481
923718669610279	0.05809021	0.21321106	0.35321045
923718675500171	-0.018875122	0.29260254	0.2579193
923718679681080	-0.1434784	0.3072815	0.17970276
923718683038013	-0.1434784	0.2571869	0.17970276
923718689721363	-0.46235657	0.2571869	0.042877197
923718694787281	-0.6138458	-0.009140015	-0.03161621
923718699822681	-0.7286682	-0.19482422	-0.11225891
923718704858082	-0.78855896	-0.39398193	-0.19288635
923718710198658	-0.78364563	-0.5870056	-0.26374817
923718714928882	-0.721344	-0.75315857	-0.307724
923718719994800	-0.721344	-0.85821533	-0.31018066
923718725640552	-0.50997925	-0.85821533	-0.27597046
923718730035084	-0.50997925	-0.7702637	-0.27597046
923718733422535	-0.40370178	-0.7702637	-0.22709656
923718740136402	-0.31573486	-0.5784607	-0.18678284
923718745080250	-0.24855042	-0.33900452	-0.16111755
923718750146168	-0.20211792	-0.1056366	-0.13668823
923718755181568	-0.17279053	0.0763855	-0.09515381
923718760644214	-0.15446472	0.18754578	-0.030410767
923718765252369	-0.1434784	0.23274231	0.055099487
923718770287769	-0.1446991	0.2303009	0.14428711
923718775597828	-0.1618042	0.19732666	0.22491455
923718780389087	-0.1960144	0.14845276	0.28601074
923718783715503	-0.23387146	0.08370972	0.32754517
923718790429371	-0.26564026	0.0067443848	0.3519745
923718795464771	-0.2937622	-0.07510376	0.36419678
923718800500171	-0.34994507	-0.13131714	0.36663818
923718805535572	-0.4782257	-0.10687256	0.36053467
923718810937183	-0.69569397	0.05683899	0.34342957
923718815575855	-0.94981384	0.37080383	0.31532288
923718820641773	-1.1452942	0.75442505	0.28723145
923718826043384	-1.2063751	1.0708618	0.27012634
923718830712574	-1.1208496	1.218689	0.26524353
923718834069507	-1.1208496	1.1734772	0.26524353
923718840783375	-0.65171814	1.1734772	0.24691772
923718845788257	-0.34994507	0.662796	0.21514893
923718850854175	-0.04576111	0.2987213	0.1736145
923718855889576	0.23278809	-0.07144165	0.13696289
923718861138599	0.4637146	-0.39762878	0.1088562
923718865960377	0.4637146	-0.63464355	0.1088562
923718870995777	0.62986755	-0.63464355	0.08808899
923718876397388	0.723938	-0.76171875	0.06488037
923718881066578	0.7544708	-0.7775879	0.03555298
923718884484546	0.737381	-0.7018585	0.0013427734
923718891106861	0.6884918	-0.5515747	-0.03895569
923718896172779	0.61642456	-0.34509277	-0.08659363
923718901208179	0.51989746	-0.09831238	-0.14646912
923718906213062	0.39649963	0.17044067	-0.21853638
923718911553638	0.24134827	0.44288635	-0.30039978
923718916283863	0.060531616	0.70921326	-0.3859253
923718921349781	-0.12637329	0.9547882	-0.4653473
923718926598804	-0.29008484	1.1685944	-0.5252075
923718931420582	-0.40003967	1.3384094	-0.54841614
923718934808033	-0.43669128	1.4581451	-0.5227661
923718941491382	-0.39393616	1.529007	-0.4360199
923718946557300	-0.27664185	1.5583344	-0.28575134
923718951562183	-0.10192871	1.554657	-0.069503784
923718956628101	0.10450745	1.5265656	0.2078247
923718962060230	0.3146515	1.4740295	0.53401184
923718966729419	0.50035095	1.3921661	0.89442444
923718971703785	0.6396332	1.2687836	1.2658386
923718977624195	0.722702	1.0928497	1.6189117
923718981774585	0.7508087	0.85705566	1.9255524
923718985131519	0.7508087	0.55773926	1.9255524
923718991906421	0.69828796	0.55773926	2.3336182
923718996911304	0.6555176	-0.17285156	2.4252625
923719001946705	0.61398315	-0.5259247	2.448471
923719006982105	0.61398315	-0.81303406	2.4142609
923719012475269	0.52601624	-0.81303406	2.3385162
923719017083423	0.52601624	-1.1111145	2.3385162
923719022088306	0.46980286	-1.1111145	2.2419891
923719027703541	0.39405823	-1.136795	2.138153
923719032189625	0.28778076	-1.1037903	2.0343018
923719035485523	0.14115906	-1.0243835	1.9316711
923719042199390	-0.039642334	-0.9095459	1.8265991
923719047234791	-0.24610901	-0.76660156	1.7203064
923719052331226	-0.4611206	-0.6077881	1.612793
923719057366627	-0.66516113	-0.44528198	1.5040588
923719063073414	-0.839859	-0.29745483	1.39534
923719067406910	-0.9754791	-0.18139648	1.2963715
923719072442310	-1.0793152	-0.108078	1.2194061
923719078210132	-1.1648407	-0.07510376	1.1680908
923719082513111	-1.2442627	-0.07022095	1.1399994
923719085870044	-1.3212128	-0.07144165	1.1277618
923719092583912	-1.394516	-0.06777954	1.1216736
923719097588794	-1.4617157	-0.053115845	1.1118927
923719102654712	-1.5289001	-0.01524353	1.0862274
923719107751148	-1.5961151	0.06539917	1.0410309
923719113641041	-1.6584167	0.19120789	0.98117065
923719117791431	-1.7060547	0.3439331	0.90786743
923719122796314	-1.7317047	0.4954071	0.8333435
923719128564136	-1.736618	0.6334839	0.77104187
923719132867115	-1.723175	0.7629852	0.7404785
923719136163013	-1.723175	0.8937073	0.7404785
923719142998951	-1.6449738	0.8937073	0.7966919
923719147973316	-1.5789948	1.1453857	0.8541107
923719152978199	-1.5789948	1.2418976	0.8541107
923719158013599	-1.4959259	1.2418976	0.8981018
923719163537281	-1.4055176	1.3041992	0.9298706
923719168114918	-1.3126678	1.3335266	0.9298706
923719173180835	-1.223465	1.335968	0.9347534
923719178979175	-1.1355133	1.3139801	0.94696045
923719183190601	-1.0499878	1.2724304	0.96772766
923719186578052	-0.9681244	1.2125702	0.98605347
923719193261402	-0.8936157	1.1343842	0.99827576
923719198296802	-0.8288574	1.0427704	0.99949646
923719203362720	-0.77388	0.9437866	0.9958191
923719208367603	-0.72746277	0.84973145	0.99827576
923719214135425	-0.68836975	0.76542664	1.0117035
923719218438404	-0.65904236	0.6970062	1.0385895
923719223473804	-0.63827515	0.6383667	1.0752411
923719229363697	-0.62361145	0.5821533	1.1204376
923719233544605	-0.6114044	0.52108765	1.1790924
923719236932056	-0.5991821	0.45266724	1.2499542
923719243615406	-0.58940125	0.38912964	1.3330231
923719248650806	-0.5808563	0.3366089	1.4234314
923719253747242	-0.56987	0.30239868	1.5199432
923719258752125	-0.56007385	0.2828369	1.6176758
923719264489429	-0.55274963	0.2730713	1.7080994
923719268792408	-0.5515442	0.2730713	1.783844
923719273858326	-0.556427	0.28163147	1.8412628
923719279168384	-0.56251526	0.2962799	1.8778992
923719283929127	-0.56863403	0.3121643	1.896225
923719287286060	-0.56863403	0.32681274	1.896225
923719293999927	-0.5771942	0.32681274	1.8828125
923719299004810	-0.5832977	0.33293152	1.8828125
923719304070728	-0.5832977	0.3304901	1.8498077
923719309106128	-0.57107544	0.31948853	1.7985077
923719314965503	-0.503891	0.30116272	1.651886
923719319176929	-0.503891	0.23886108	1.651886
923719324181812	-0.4476776	0.23886108	1.5627136
923719329552906	-0.37438965	0.19364929	1.4649658
923719334283130	-0.28276062	0.14356995	1.356247
923719337579029	-0.17401123	0.09225464	1.2389526
923719344323414	-0.055511475	0.047073364	1.1131134
923719349358814	0.0703125	0.011627197	0.98239136
923719354394214	0.19369507	-0.010345459	0.84921265
923719359460132	0.30854797	-0.022567749	0.71362305
923719364892261	0.40629578	-0.029907227	0.5767822
923719369530933	0.4844818	-0.033569336	0.4387207
923719374535816	0.53456116	-0.029907227	0.30433655
923719380425709	0.55166626	-0.007904053	0.17849731
923719384637134	0.52845764	0.039733887	0.066101074
923719387933033	0.52845764	0.122802734	-0.021850586
923719394677418	0.34275818	0.24862671	-0.07926941
923719399712818	0.18881226	0.42211914	-0.11103821
923719404778736	0.015335083	0.6347046	-0.12936401
923719409814136	-0.15324402	0.8619385	-0.15135193
923719415124195	-0.2962036	1.0757446	-0.18678284
923719419884937	-0.4049225	1.2504578	-0.23930359
923719424920337	-0.4794464	1.3775024	-0.30407715
923719430779712	-0.5405426	1.4581451	-0.3773651
923719434991138	-0.63339233	1.5045624	-0.4543457
923719438348072	-0.63339233	1.5167999	-0.4543457
923719445092457	-0.812973	1.5167999	-0.53009033
923719450036304	-1.0732117	1.4031677	-0.60705566
923719455102222	-1.2870026	0.90592957	-0.71333313
923719460168140	-1.2515869	-0.29135132	-0.8904877
923719465417164	-0.8581848	-2.2717743	-1.1665955
923719470238941	-0.20089722	-4.667572	-1.5233612
923719475335377	0.48812866	-6.8275757	-1.9069672
923719481011646	0.9927063	-8.194687	-2.2588196
923719485375660	1.2358398	-8.540451	-2.5434875
923719488671558	1.2834778	-7.9210205	-2.751175
923719495415943	1.2895813	-6.5490265	-2.8892365
923719500481861	1.3983307	-4.746994	-2.9613342
923719505456226	1.6707611	-2.88385	-2.9674225
923719510522144	2.0788116	-1.2723999	-2.912445
923719515984791	2.5552979	-0.081222534	-2.8110504
923719520623462	3.043991	0.6689148	-2.6839905
923719525658863	3.5082397	1.0452118	-2.5386047
923719531457203	3.9199677	1.1453857	-2.369995
923719535668628	4.242508	1.0586395	-2.1684265
923719539056080	4.242508	0.87049866	-2.1684265
923719545739429	4.42453	0.87049866	-1.6736298
923719550835865	4.2266235	0.5565033	-1.4011688
923719555810230	3.869873	0.58950806	-1.1360626
923719560876148	3.4361572	0.7641907	-0.90148926
923719566155689	3.0122223	1.0097656	-0.7194519
923719570946949	2.651825	1.218689	-0.59973145
923719575982349	2.3610382	1.3078766	-0.54229736
923719581811207	2.1142578	1.243103	-0.53741455
923719586053150	2.1142578	1.0574188	-0.53741455
923719589379566	1.8894501	1.0574188	-0.58018494
923719596093433	1.6719971	0.8191681	-0.66571045
923719601159351	1.4630737	0.6053772	-0.7805481
923719606164234	1.2688141	0.45877075	-0.88804626
923719611230152	1.1087799	0.38058472	-0.94425964
923719616570728	0.99760437	0.35003662	-0.91981506
923719621300953	0.94262695	0.34881592	-0.8196411
923719626336353	0.93530273	0.37202454	-0.6815796
923719632043140	0.9658356	0.43190002	-0.54841614
923719636376636	1.0281372	0.53697205	-0.44822693
923719639794605	1.1161041	0.6750183	-0.387146
923719646477955	1.2248383	0.8106384	-0.3565979
923719651452320	1.3433533	0.9022522	-0.35049438
923719656548755	1.4655151	0.9315796	-0.36149597
923719661553638	1.5876923	0.9144745	-0.387146
923719666924732	1.7110901	0.88638306	-0.4176941
923719671654957	1.8332672	0.8839264	-0.44702148
923719676659839	1.9505463	0.9291382	-0.47511292
923719682000416	2.0580444	1.0146484	-0.5129852
923719686791675	2.1533508	1.117279	-0.56918335
923719690087574	2.1533508	1.2064667	-0.56918335
923719696862476	2.27919	1.2064667	-0.7292175
923719701867359	2.2901764	1.2895508	-0.8147583
923719706902759	2.2535248	1.3041992	-0.89172363
923719711938160	2.1716766	1.3347473	-0.9503479
923719717431324	2.0519562	1.3933868	-0.9772339
923719722039478	1.9065704	1.4727936	-0.96502686
923719727074878	1.9065704	1.555893	-0.91615295
923719732842701	1.5705872	1.555893	-0.8367462
923719737084644	1.5705872	1.6890411	-0.8367462
923719740441578	1.3934479	1.6890411	-0.7377777
923719747155445	1.2138519	1.733017	-0.6302643
923719752190845	1.0342407	1.7574615	-0.5227661
923719757226246	0.85343933	1.7562561	-0.42745972
923719762292164	0.6689606	1.7208099	-0.35049438
923719767632740	0.47225952	1.6487274	-0.28819275
923719772362964	0.26333618	1.5485382	-0.23077393
923719777367847	0.04586792	1.4373779	-0.16355896
923719782891529	-0.17524719	1.337204	-0.08659363
923719787438648	-0.39393616	1.2651062	-0.007217407
923719790826099	-0.6138458	1.2272339	0.058761597
923719797539966	-0.8386383	1.2089081	0.102752686
923719802514332	-1.0671082	1.1869202	0.1247406
923719807641285	-1.2918854	1.1478271	0.13208008
923719812646168	-1.49469	1.0940704	0.13328552
923719818352955	-1.6632996	1.0317688	0.13572693
923719822686451	-1.7854767	0.9657898	0.14916992
923719827752369	-1.8587799	0.8985901	0.1894989
923719833459156	-1.8954315	0.8277283	0.26400757
923719837823169	-1.9027557	0.75442505	0.3727417
923719841119068	-1.9027557	0.676239	0.3727417
923719847924488	-1.8355713	0.676239	0.6354065
923719852898853	-1.7488251	0.45266724	0.7404785
923719857964771	-1.6242065	0.27671814	0.8052368
923719862969654	-1.4690399	0.059280396	0.8186798
923719868432300	-1.2980042	-0.16305542	0.7856903
923719873040455	-1.2980042	-0.33166504	0.7856903
923719878167408	-1.1355133	-0.33166504	0.7123871
923719883935230	-0.93026733	-0.3866577	0.4729309
923719888146656	-0.93026733	-0.1056366	0.4729309
923719891503589	-0.91682434	-0.1056366	0.31776428
923719898247974	-0.96203613	0.13868713	0.14060974
923719903313892	-1.045105	0.3414917	-0.05606079
923719908288257	-1.1428375	0.42578125	-0.26742554
923719913354175	-1.2295837	0.3549347	-0.47879028
923719918755787	-1.2918854	0.13134766	-0.6620331
923719923394459	-1.3200073	-0.2217102	-0.7756653
923719928429859	-1.3114471	-0.67741394	-0.7829895
923719933953541	-1.2662354	-1.1514435	-0.66815186
923719941552418	-1.1196289	-1.4764252	-0.21365356
923719948601978	-1.085434	-1.2748413	-0.018188477
923719953606861	-1.1086426	-0.9755249	0.090530396
923719958703296	-1.1721649	-0.7885895	0.13328552
923719963677662	-1.2442627	-0.73605347	0.16017151
923719969445484	-1.3090057	-0.72994995	0.20050049
923719973748462	-1.368866	-0.70796204	0.24324036
923719978783863	-1.4336243	-0.6786499	0.25912476
923719984307544	-1.5118103	-0.6810913	0.23469543
923719988885181	-1.60466	-0.74339294	0.17605591
923719992211597	-1.60466	-0.8692169	0.17605591
923719998955982	-1.7952423	-0.8692169	0.04777527
923720003930347	-1.8600006	-1.2186432	-0.0059814453
923720009026783	-1.8819885	-1.342041	-0.058502197
923720014031666	-1.8819885	-1.3298035	-0.113479614
923720019372242	-1.7708282	-1.3298035	-0.15867615
923720024132984	-1.7708282	-0.75315857	-0.15867615
923720029137867	-1.6461945	-0.75315857	-0.18188477
923720034478443	-1.4788055	-0.35121155	-0.18067932
923720039269703	-1.2576752	-0.09220886	-0.16235352
923720042565601	-0.9705963	-0.09220886	-0.13424683
923720049309986	-0.63339233	-0.35853577	-0.097595215
923720054375904	-0.30108643	-0.808136	-0.053619385
923720059380787	-0.028640747	-1.3237152	-0.01210022
923720064385669	0.16316223	-1.8111877	0.01600647
923720069909351	0.2841034	-2.2314453	0.030670166
923720074517505	0.35620117	-2.578415	0.039215088
923720079552906	0.386734	-2.844757	0.053878784
923720085381763	0.37573242	-2.998703	0.08320618
923720089593189	0.32809448	-2.9901428	0.13816833
923720092889087	0.25234985	-2.7897797	0.22003174
923720099663990	0.16192627	-2.398819	0.32632446
923720104699390	0.0715332	-1.8673706	0.44848633
923720109734791	6.713867E-4	-1.2662811	0.58166504
923720114770191	-0.031082153	-0.67741394	0.7233887
923720120080250	-0.017654419	-0.16673279	0.86997986
923720124840992	0.039764404	0.22541809	1.0166016
923720129876392	0.12527466	0.49176025	1.1522064
923720135400074	0.22180176	0.6481323	1.2658386
923720139916675	0.30854797	0.7116699	1.3513489
923720143304127	0.30854797	0.689682	1.3513489
923720150414722	0.37696838	0.689682	1.4405518
923720155022877	0.34519958	0.41357422	1.4539642
923720160119312	0.34519958	0.22541809	1.4503174
923720165124195	0.27555847	0.22541809	1.4503174
923720170830982	0.05076599	0.078826904	1.3977814
923720175164478	0.05076599	0.091033936	1.3977814
923720180199878	-0.12149048	0.091033936	1.3623352
923720185509937	-0.34750366	0.2962799	1.3366852
923720190331714	-0.6150665	0.6408081	1.3183594
923720193627613	-0.8875122	1.0903931	1.2866058
923720200402515	-1.1196289	1.5570984	1.2194061
923720205376880	-1.2821198	1.9333954	1.1131134
923720210412281	-1.3615417	2.1459808	0.9774933
923720215447681	-1.3664246	2.1765137	0.8370056
923720220940845	-1.3126678	2.0494537	0.71118164
923720225549000	-1.2210236	1.8063354	0.61099243
923720230584400	-1.111084	1.4960022	0.542572
923720235924976	-1.0023346	1.166153	0.5083618
923720240685718	-0.91316223	0.85705566	0.5108032
923720243981617	-0.8594055	0.6065979	0.54989624
923720250726002	-0.8520813	0.44778442	0.6146393
923720255761402	-0.8862915	0.39891052	0.69773865
923720260766285	-0.9473572	0.45022583	0.7844696
923720265801685	-1.0157776	0.5675049	0.86143494
923720271050709	-1.071991	0.70433044	0.9139862
923720275872486	-1.1000824	0.82284546	0.93107605
923720280938404	-1.0903168	0.8998108	0.9164276
923720286278980	-1.0402222	0.9242554	0.87854004
923720290978687	-0.9547119	0.89004517	0.82844543
923720294335621	-0.9547119	0.8032837	0.82844543
923720301049488	-0.8520813	0.8032837	0.7307129
923720306084888	-0.7457886	0.5332947	0.7307129
923720311120289	-0.64682007	0.5332947	0.69285583
923720316155689	-0.56007385	0.3940277	0.6598511
923720321496265	-0.4855652	0.2730713	0.6280823
923720326257007	-0.424469	0.17655945	0.59510803
923720331261890	-0.3731537	0.10568237	0.56455994
923720337029712	-0.33161926	0.05683899	0.542572
923720341332691	-0.29740906	0.022628784	0.53523254
923720344689625	-0.27052307	-0.0030212402	0.53767395
923720351434009	-0.24855042	-0.028686523	0.5437927
923720358605640	-0.22044373	-0.053115845	0.55599976
923720361535328	-0.22044373	-0.101989746	0.55599976
923720366509693	-0.21798706	-0.101989746	0.5608978
923720371819752	-0.22654724	-0.12640381	0.56211853
923720376580494	-0.25463867	-0.15940857	0.55599976
923720381585377	-0.29985046	-0.2033844	0.5401306
923720386925953	-0.36094666	-0.26324463	0.5205841
923720391717212	-0.4317932	-0.33166504	0.5022583
923720395043628	-0.50753784	-0.39154053	0.4912567
923720401757496	-0.58451843	-0.42695618	0.4839325
923720406792896	-0.66026306	-0.43917847	0.47904968
923720411828296	-0.73358154	-0.43673706	0.4717102
923720416863697	-0.800766	-0.43063354	0.46192932
923720422234791	-0.8618469	-0.42939758	0.44728088
923720426934498	-0.91560364	-0.43307495	0.43016052
923720432000416	-0.9608002	-0.44163513	0.41551208
923720437310474	-0.9913635	-0.45384216	0.4045105
923720442040699	-1.006012	-0.4660492	0.40083313
923720445397632	-1.006012	-0.4807129	0.40083313
923720452080982	-1.0011292	-0.4807129	0.3996277
923720457177418	-0.98280334	-0.5002594	0.40083313
923720462151783	-0.95347595	-0.5283661	0.4045105
923720467217701	-0.91926575	-0.5674591	0.41307068
923720473901050	-0.839859	-0.61387634	0.42651367
923720477257984	-0.839859	-0.7201843	0.42651367
923720482507007	-0.7946472	-0.7201843	0.4179535
923720487786548	-0.746994	-0.7702637	0.3935089
923720492394703	-0.6969147	-0.81059265	0.34953308
923720495782154	-0.64559937	-0.8301239	0.29089355
923720502496021	-0.60040283	-0.8191223	0.22615051
923720507500904	-0.56251526	-0.7751465	0.16873169
923720512658375	-0.5381012	-0.69573975	0.12840271
923720517571705	-0.5319824	-0.57722473	0.11373901
923720523339527	-0.55763245	-0.4025421	0.12962341
923720527642505	-0.62971497	-0.14964294	0.17237854
923720532677906	-0.7494354	0.19732666	0.23347473
923720538201587	-0.8777313	0.6017151	0.29455566
923720542931812	-0.9632416	0.96699524	0.34220886
923720546105640	-0.9632416	1.1722565	0.34220886
923720552972095	-1.0145721	1.1722565	0.3690796
923720557854908	-1.111084	1.0952911	0.34831238
923720562890308	-1.3151093	1.0317688	0.30189514
923720567925709	-1.5985565	1.0073242	0.22615051
923720573693531	-1.8819885	0.8692627	0.106414795
923720578027027	-2.0481415	0.3439331	-0.08659363
923720583276050	-1.9662781	-0.8252411	-0.3932495
923720588738697	-1.5753479	-2.692047	-0.8379669
923720593377369	-0.94615173	-4.9681244	-1.3901825
923720596459644	-0.94615173	-7.092697	-1.3901825
923720603356617	-0.26564026	-7.092697	-1.9692688
923720608239429	0.28044128	-8.494003	-2.476303
923720613274830	0.61763	-8.882523	-2.8367004
923720618310230	0.79112244	-8.325424	-3.0382843
923720623772877	0.9071808	-7.1085815	-3.1201324
923720628350513	1.0611267	-5.5435486	-3.1470184
923720633599537	1.3054657	-3.8881073	-3.1616974
923720638879078	1.6365509	-2.369522	-3.156784
923720643517750	2.0140686	-1.2125397	-3.088379
923720646783130	2.394043	-0.5650177	-2.925888
923720653619068	2.7458801	-0.41719055	-2.6852264
923720658532398	3.0500946	-0.60287476	-2.415207
923720663872974	3.2810059	-0.8961029	-2.165985
923720668664234	3.411728	-1.1221161	-1.9582977
923720674645679	3.423935	-1.1990967	-1.7884674
923720678704517	3.3176575	-1.1123505	-1.6443024
923720683892505	3.1184998	-0.87657166	-1.5111237
923720689233082	2.8643951	-0.4990387	-1.3889618
923720693963306	2.5968475	-0.0018005371	-1.2863464
923720697167652	2.5968475	0.5638275	-1.2863464
923720704156177	2.1069336	0.5638275	-1.1287384
923720708886402	1.8992462	1.566864	-1.0554199
923720714318531	1.719635	1.8820801	-0.97846985
923720718987720	1.5656891	2.058014	-0.9063721
923720724816578	1.4300995	2.1288757	-0.85139465
923720729089039	1.3030243	2.1313171	-0.8208618
923720734124439	1.3030243	2.083664	-0.8147583
923720739403980	1.0550079	1.9883575	-0.8245239
923720744530933	1.0550079	1.8368835	-0.8379669
923720747491138	0.9523926	1.6230774	-0.8379669
923720754632252	0.888855	1.6230774	-0.84529114
923720759240406	0.8778534	1.3518524	-0.8404083
923720764367359	0.92185974	1.0293274	-0.8257446
923720769372242	1.0110321	0.66645813	-0.8061981
923720775292652	1.1271057	0.28527832	-0.7927551
923720779443043	1.2578278	-0.07388306	-0.7927551
923720784875171	1.3970947	-0.3524475	-0.8123169
923720789788502	1.5437164	-0.5014801	-0.84773254
923720795312183	1.6915283	-0.49049377	-0.8904877
923720797906177	1.8185883	-0.32432556	-0.9320221
923720805352466	1.8992462	-0.028686523	-0.97114563
923720809685962	1.9102173	0.35125732	-1.0151215
923720815453785	1.8467102	0.7641907	-1.073761
923720819726246	1.7245331	1.1612701	-1.1470642
923720825371998	1.5730286	1.5057983	-1.2264862
923720829797046	1.42276	1.7745819	-1.3046722
923720835778492	1.3005829	1.9651489	-1.3694153
923720840722339	1.2248383	2.0824432	-1.4134064
923720845147388	1.2077332	2.1423035	-1.4194946
923720848229664	1.2077332	2.165512	-1.4194946
923720855736988	1.3470001	2.165512	-1.2533417
923720859978931	1.4728546	2.183838	-1.0676422
923720865960377	1.6072235	2.219284	-0.8391876
923720870049732	1.7294159	2.2962341	-0.60339355
923720875848072	1.8308258	2.423294	-0.39448547
923720880151050	1.8308258	2.5882416	-0.23565674
923720885949390	1.9493256	2.5882416	-0.12936401
923720891076343	1.9542084	2.8557892	-0.065826416
923720895989673	1.9138947	2.8570251	-0.023086548
923720898614185	1.9138947	2.7385254	-0.023086548
923720906304615	1.8210297	2.7385254	0.07952881
923720910332935	1.6707611	2.209488	0.07952881
923720916253345	1.4667511	2.209488	0.13452148
923720920434253	1.2236176	1.851532	0.17237854
923720925866382	0.96095276	1.4727936	0.18461609
923720930505054	0.6933899	1.1111755	0.17726135
923720936486500	0.43070984	0.794754	0.16137695
923720940850513	0.17536926	0.5430603	0.14916992
923720946618335	-0.07751465	0.36470032	0.14916992
923720956658619	-0.58451843	0.23518372	0.20658875
923720960717457	-0.8325348	0.28163147	0.27378845
923720966882007	-1.0683136	0.39035034	0.3678589
923720970757740	-1.2821198	0.53453064	0.490036
923720976617115	-1.4665985	0.6799011	0.64030457
923720980828541	-1.6156616	0.78619385	0.8088989
923720987237232	-1.7280579	0.82040405	0.97384644
923720991174000	-1.8013611	0.75686646	1.1033478
923720996697681	-1.8343353	0.5931549	1.1742096
923720999261158	-1.8343353	0.35858154	1.1742096
923721007043140	-1.7781525	0.35858154	1.1143341
923721011071460	-1.6718445	-0.06777954	1.0178223
923721017480152	-1.4971619	-0.13375854	0.90419006
923721021111744	-1.2527924	-0.05067444	0.7808075
923721027123707	-0.9595947	0.17900085	0.64520264
923721031182544	-0.9595947	0.51620483	0.64520264
923721037041919	-0.38659668	0.51620483	0.33364868
923721041680591	-0.38659668	1.1856995	0.33364868
923721047601002	-0.0811615	1.1856995	0.0037841797
923721057610767	-0.07383728	1.3481903	-0.2918396
923721061364429	-0.1446991	1.0867462	-0.2918396
923721068017261	-0.25831604	1.0867462	-0.4567871
923721071465748	-0.37193298	0.9682312	-0.4567871
923721077386158	-0.4562378	0.920578	-0.4409027
923721081536548	-0.4953308	0.9486847	-0.34317017
923721087456959	-0.49165344	1.0232086	-0.17456055
923721091882007	-0.46235657	1.0965118	0.03189087
923721098199146	-0.4293518	1.1258392	0.23835754
923721108056324	-0.39759827	0.9938812	0.57922363
923721111748951	-0.40003967	0.85827637	0.7245941
923721118249195	-0.4134674	0.70433044	0.86753845
923721121819752	-0.44647217	0.5491791	1.0031586
923721127587574	-0.5014496	0.40135193	1.1216736
923721131890552	-0.5723114	0.27062988	1.214508
923721138573902	-0.65171814	0.15945435	1.2829285
923721142236011	-0.7311096	0.07148743	1.3281403
923721147027271	-0.8032074	0.014083862	1.3501282
923721150414722	-0.8032074	-0.0066833496	1.3501282
923721157098072	-0.8875122	-0.0066833496	1.3281403
923721162102955	-0.88383484	0.027511597	1.2878265
923721167138355	-0.88383484	0.05807495	1.2267456
923721172204273	-0.84962463	0.05807495	1.2267456
923721177666919	-0.734787	0.11302185	1.0239258
923721182244556	-0.734787	0.41967773	1.0239258
923721187310474	-0.67126465	0.41967773	0.8907471
923721192773121	-0.59428406	0.6566925	0.7575989
923721197381275	-0.4928894	0.85827637	0.6439667
923721200677173	-0.36216736	0.9511261	0.56455994
923721207482593	-0.21310425	0.9108124	0.5254669
923721212456959	-0.05795288	0.7715454	0.5205841
923721217522877	0.095962524	0.5980377	0.5364685
923721222558277	0.24134827	0.43310547	0.56211853
923721228051441	0.37329102	0.2962799	0.58288574
923721232598560	0.48812866	0.18022156	0.59999084
923721239129322	0.58343506	0.082473755	0.61587524
923721243127125	0.6628418	0.0030822754	0.6354065
923721247765796	0.7263794	-0.054336548	0.66596985
923721251092212	0.77523804	-0.09465027	0.7087097
923721257775562	0.80944824	-0.1239624	0.7722473
923721262810962	0.83143616	-0.14352417	0.86265564
923721267846363	0.84487915	-0.1557312	0.98973083
923721272912281	0.8546448	-0.1557312	1.148529
923721278222339	0.85832214	-0.1374054	1.3330231
923721282952564	0.8595276	-0.08731079	1.5358276
923721289574878	0.8595276	0.009185791	1.7532959
923721293328541	0.85588074	0.15821838	1.9817657
923721298089283	0.84243774	0.3598175	2.2126617
923721301446216	0.84243774	0.6029358	2.2126617
923721308190601	0.7776947	0.6029358	2.6549225
923721313195484	0.7776947	1.1759186	2.6549225
923721318230884	0.7263794	1.1759186	2.8528442
923721323296802	0.6604004	1.4862366	3.028778
923721328759449	0.5809784	1.798996	3.1802826
923721333306568	0.48812866	2.1032104	3.3048859
923721338372486	0.38305664	2.3952026	3.4026184
923721344170826	0.2669983	2.6725464	3.475937
923721348443287	0.13871765	2.9352112	3.528473
923721351769703	-0.0029907227	3.1771088	3.562683
923721358514087	-0.15446472	3.394577	3.5785675
923721363549488	-0.30717468	3.5839386	3.5822144
923721368584888	-0.45135498	3.7342072	3.5773315
923721373620289	-0.5832977	3.8343964	3.5687714
923721379143970	-0.70181274	3.8734894	3.5638885
923721383691089	-0.8105316	3.8478394	3.5748901
923721388695972	-0.9046173	3.7586517	3.6139832
923721394616382	-0.9815674	3.6059265	3.6885223
923721398766773	-1.0438995	3.3970184	3.7960205
923721402123707	-1.0903168	3.1428986	3.9316254
923721408868091	-1.1294098	2.8582458	4.0868073
923721413872974	-1.1660614	2.5564728	4.2554016
923721418908375	-1.2075958	2.2436981	4.415451
923721424004810	-1.250351	1.9248505	4.5424957
923721429284351	-1.2845612	1.607193	4.610901
923721434014576	-1.2955627	1.3029938	4.602371
923721439080494	-1.2772369	1.0183258	4.5082855
923721444543140	-1.2320251	0.7581024	4.314026
923721449151294	-1.1648407	0.52597046	4.012268
923721452477710	-1.1648407	0.32681274	4.012268
923721459222095	-1.0817566	0.32681274	3.6042175
923721464226978	-0.99012756	0.15701294	3.1020966
923721469262378	-0.8936157	0.012863159	2.5205383
923721474328296	-0.79953	-0.11175537	1.8718109
923721481927173	-0.63583374	-0.21438599	0.5120239
923721484643238	-0.63583374	-0.32676697	0.5120239
923721489434498	-0.582077	-0.32676697	-0.045059204
923721495324390	-0.5588684	-0.31455994	-0.4018097
923721499474781	-0.5747528	-0.24125671	-0.52397156
923721502862232	-0.63583374	-0.0897522	-0.45555115
923721509637134	-0.7299042	0.14845276	-0.28819275
923721514611500	-0.8349762	0.45510864	-0.11225891
923721519616382	-0.9205017	0.7849579	0.0135650635
923721524682300	-0.96936035	1.0745087	0.061203003
923721530175464	-0.98036194	1.2797852	0.03677368
923721534722584	-0.9632416	1.3824005	-0.030410767
923721539849537	-0.93026733	1.3958282	-0.106155396
923721545281666	-0.8875122	1.3481903	-0.16723633
923721549859302	-0.8410797	1.2614288	-0.20265198
923721553185718	-0.8410797	1.1514893	-0.20265198
923721562676685	-0.75434875	1.1514893	-0.21733093
923721570000904	-0.69447327	0.7605438	-0.22709656
923721575036304	-0.67614746	0.6359253	-0.24786377
923721580895679	-0.67004395	0.5137329	-0.27963257
923721585107105	-0.67492676	0.39523315	-0.31628418
923721590142505	-0.69203186	0.27919006	-0.35049438
923721595635669	-0.71769714	0.17044067	-0.3761444
923721600213306	-0.71769714	0.07148743	-0.3932495
923721603539722	-0.75190735	0.07148743	-0.3932495
923721610314625	-0.7983246	-0.01524353	-0.40057373
923721615288990	-0.8581848	-0.09465027	-0.4042511
923721620354908	-0.93148804	-0.16429138	-0.4066925
923721625390308	-1.0121307	-0.22782898	-0.41281128
923721631066578	-1.0951996	-0.28034973	-0.41889954
923721635430591	-1.1819305	-0.32432556	-0.4250183
923721640496509	-1.2735596	-0.36097717	-0.4237976
923721645989673	-1.3700867	-0.39154053	-0.41645813
923721650567310	-1.4690399	-0.41719055	-0.4018097
923721653924244	-1.5667877	-0.43795776	-0.3834839
923721660607593	-1.6608582	-0.45628357	-0.3590393
923721665612476	-1.7488251	-0.47216797	-0.33216858
923721670708912	-1.8270111	-0.4807129	-0.3028412
923721675713794	-1.9003143	-0.4807129	-0.27597046
923721681023853	-1.967514	-0.4684906	-0.25642395
923721685784595	-2.0310516	-0.45140076	-0.24421692
923721690819996	-2.0909119	-0.42939758	-0.24053955
923721696099537	-2.1580963	-0.38786316	-0.24421692
923721700890796	-2.2570648	-0.26080322	-0.25274658
923721704247730	-2.2570648	0.07148743	-0.25274658
923721710961597	-2.6394653	0.07148743	-0.27963257
923721715996998	-2.9143372	1.6829376	-0.2893982
923721721001880	-3.2222137	2.8032684	-0.3028412
923721726098316	-3.5606384	3.7366486	-0.3394928
923721731469410	-3.9112854	3.9394531	-0.42745972
923721736138599	-4.2203674	2.8594666	-0.5972748
923721741174000	-4.424408	0.3757019	-0.8526306
923721746575611	-4.507477	-2.8997345	-1.1605072
923721751275318	-4.507477	-5.8844147	-1.1605072
923721754571216	-4.502594	-5.8844147	-1.463501
923721761315601	-4.437851	-7.7035675	-1.7127228
923721766320484	-4.30101	-8.140945	-1.8972015
923721771386402	-4.056656	-7.558182	-2.0389252
923721776391285	-3.6791534	-6.5099335	-2.1549835
923721781853931	-3.1721191	-5.442154	-2.249054
923721786523121	-2.5563812	-4.5893707	-2.3089142
923721791528003	-1.8746643	-4.015167	-2.3223572
923721796990650	-1.1746063	-3.6987457	-2.2844849
923721801629322	-0.49409485	-3.5814514	-2.2014008
923721804955738	0.14727783	-3.5728912	-2.0987854
923721811669605	0.7459259	-3.5619202	-2.0022736
923721816674488	1.3018036	-3.4727325	-1.9289703
923721821709888	1.8088226	-3.2906952	-1.8739929
923721826775806	2.2694092	-3.0463257	-1.8202362
923721831994312	2.6884766	-2.7812195	-1.7505798
923721836816089	3.0684357	-2.5197754	-1.6528625
923721841851490	3.4019623	-2.2778625	-1.5258026
923721847100513	3.6817322	-2.0652924	-1.3694153
923721851952808	3.9126434	-1.8771362	-1.1947174
923721855279224	3.9126434	-1.699997	-1.1947174
923721862023609	4.2473907	-1.699997	-0.85017395
923721867059009	4.342697	-1.3530426	-0.6962433
923721872124927	4.3842316	-1.2003174	-0.54963684
923721877129810	4.3756714	-1.0756989	-0.41157532
923721882561939	4.3353424	-0.979187	-0.28575134
923721887200611	4.3353424	-0.9022217	-0.17579651
923721892236011	4.285248	-0.9022217	-0.17579651
923721897485035	4.2400665	-0.8325653	-0.078048706
923721902306812	4.2009583	-0.76049805	0.009902954
923721905694263	4.1606445	-0.69329834	0.0929718
923721912377613	4.114212	-0.6395569	0.17605591
923721917382496	4.062912	-0.60043335	0.2579193
923721922448414	4.0115814	-0.5723419	0.33732605
923721927483814	3.9639435	-0.5454712	0.41062927
923721932946460	3.9248505	-0.5161438	0.48513794
923721937585132	3.9028625	-0.47827148	0.56944275
923721942559498	3.8979645	-0.42575073	0.66108704
923721948022144	3.9114075	-0.35365295	0.7551575
923721952691334	3.9395142	-0.25836182	0.839447
923721956017750	3.974945	-0.15084839	0.90419006
923721962731617	3.9944916	-0.036010742	0.94451904
923721967767017	3.9553986	0.12768555	0.9591675
923721972802418	3.8087769	0.41845703	0.9432831
923721977837818	3.5253448	0.82528687	0.879776
923721983086841	3.1319427	1.166153	0.75271606
923721987908619	2.6921234	1.1966858	0.56700134
923721992913502	2.2804108	0.83384705	0.3519745
923721998315113	1.9529877	0.23274231	0.15040588
923722003014820	1.7367401	-0.35609436	-0.0096588135
923722006402271	1.7367401	-0.76049805	-0.0096588135
923722013085621	1.6426697	-0.76049805	-0.17944336
923722018090503	1.7342987	-0.9205475	-0.20632935
923722023186939	1.890686	-0.75927734	-0.20877075
923722028161304	2.0849304	-0.5075989	-0.19532776
923722033471363	2.287735	-0.21438599	-0.17579651
923722038232105	2.287735	0.067840576	-0.17579651
923722043267505	2.4685516	0.067840576	-0.15257263
923722048547046	2.5944061	0.29260254	-0.1269226
923722053368824	2.6469421	0.42456055	-0.10247803
923722056695240	2.6212616	0.45755005	-0.08659363
923722063439625	2.5296326	0.41845703	-0.090270996
923722068475025	2.3854828	0.35125732	-0.11592102
923722073510425	2.2083282	0.29260254	-0.16479492
923722078545826	2.012848	0.26818848	-0.23197937
923722083947437	1.8088226	0.28527832	-0.31262207
923722088616627	1.593811	0.3390503	-0.39813232
923722093652027	1.3616791	0.41233826	-0.4812317
923722099023121	1.1148682	0.48564148	-0.55329895
923722103722828	0.8644409	0.5479431	-0.6107178
923722107079761	0.6237488	0.6114807	-0.658371
923722113824146	0.39649963	0.6945648	-0.69744873
923722118829029	0.17660522	0.8032837	-0.73165894
923722123864429	-0.044525146	0.9279175	-0.76342773
923722128899830	-0.26931763	1.052536	-0.7915497
923722134331959	-0.5014496	1.1649323	-0.8196411
923722138970630	-0.7421112	1.2602234	-0.85139465
923722143975513	-0.9864502	1.349411	-0.88560486
923722149407642	-1.2271423	1.4447021	-0.91737366
923722154107349	-1.4580383	1.5522156	-0.93937683
923722157464283	-1.4580383	1.6670532	-0.93937683
923722164147632	-1.8612213	1.6670532	-0.9320221
923722169152515	-2.0224915	1.8405457	-0.9112549
923722174187916	-2.0224915	1.8405457	-0.88804626
923722179253834	-2.155655	1.7146912	-0.88804626
923722184472339	-2.2619476	1.7146912	-0.86727905
923722189294117	-2.3279266	1.3775024	-0.8404083
923722194329517	-2.3205872	0.75686646	-0.7915497
923722199609058	-2.2032928	-0.11663818	-0.7072449
923722204430835	-1.9577484	-1.0427094	-0.58140564
923722207787769	-1.5899963	-1.703659	-0.4225769
923722214501636	-1.1318512	-1.8380432	-0.25030518
923722219537037	-0.62239075	-1.4006653	-0.09515381
923722224602955	-0.10926819	-0.5845642	0.01600647
923722229607837	0.35375977	0.30239868	0.0770874
923722234887378	0.7092743	0.9902344	0.09541321
923722239648121	0.92185974	1.3481903	0.08198547
923722244714039	1.0000458	1.4031677	0.046554565
923722249932544	0.99760437	1.283432	0.0050201416
923722254784839	0.9719391	1.1246033	-0.029174805
