accelerometer_timestamp	accelerometer_x_data	accelerometer_y_data	accelerometer_z_data
923709444708968	-1.1631165	4.4949493	11.59491
923709453101302	-1.0985107	4.18779	10.976624
923709461493636	-0.8309021	3.8288422	10.122238
923709469885970	-0.48594666	3.5226288	9.301788
923709478278304	-0.11894226	3.351059	8.593506
923709486670638	0.2425232	3.3493958	8.030197
923709495062972	0.57022095	3.4812164	7.654587
923709503455306	0.6055908	3.5499573	7.5357513
923709511847640	0.52845764	3.6135254	7.6363373
923709520239974	0.44047546	3.6929474	7.997513
923709528632307	0.345932	3.7743683	8.518875
923709537024641	0.23146057	3.8418427	9.107742
923709545416975	0.10028076	3.8889923	9.737549
923709553809309	-0.052017212	3.8421173	10.076309
923709562201643	-0.21412659	3.7745972	10.2099
923709570593977	-0.34690857	3.7167664	10.137619
923709578986311	-0.36361694	3.6871796	9.894424
923709587378645	-0.23918152	3.6914825	9.561157
923709595770979	-0.07424927	3.7123718	9.257782
923709604163313	0.10940552	3.6102295	9.068253
923709612555647	0.23529053	3.5508728	9.03421
923709620947981	0.3670349	3.4920807	9.1289215
923709629340315	0.47502136	3.424118	9.268784
923709637732649	0.5148773	3.3687897	9.381607
923709646124983	0.4861145	3.3750458	9.460922
923709654517317	0.4148407	3.4355927	9.379883
923709662909651	0.32365417	3.51828	9.17807
923709671301985	0.26782227	3.6663208	8.991959
923709679694319	0.261734	3.8307343	8.848343
923709688086653	0.3058319	3.9319305	8.732773
923709696478987	0.39816284	3.9236755	8.640488
923709704871321	0.44418335	3.9060364	8.66301
923709713263655	0.4875641	3.8745575	8.957016
923709721655989	0.6074219	3.815033	9.429047
923709730048323	0.8271942	3.749405	10.030701
923709738440657	0.9482727	3.6799316	10.623718
923709746832991	0.46524048	3.5439606	10.888458
923709755225325	-0.12834167	3.390686	10.640488
923709763617659	-0.51519775	3.2710876	10.115677
923709772009993	-0.6047058	3.2979279	9.441467
923709780402327	-0.45373535	3.5189362	8.707336
923709788794661	-0.157547	3.8911438	7.982376
923709797186995	0.27696228	4.2604218	7.322754
923709805579329	0.69410706	4.4856415	6.7900696
923709813971663	1.0050507	4.5269165	6.333893
923709822363997	1.2419739	4.4371643	6.092102
923709830756331	1.3831177	4.214203	6.1654663
923709839148665	1.4238892	3.8686218	6.5471954
923709847540999	1.461731	3.5017548	7.0518646
923709855933333	1.9151306	3.259552	7.6565857
923709864325667	2.5778503	3.1686707	8.692963
923709872718001	2.9151611	3.1177368	9.865997
923709881110335	2.6713562	3.065979	10.911331
923709889502669	1.8993225	3.0513916	11.660233
923709897895003	1.0087891	3.1884003	12.138779
923709906287337	0.7732544	3.433319	12.4526825
923709914679671	0.74560547	3.772705	12.350739
923709923072005	0.66056824	4.1790314	11.786285
923709931464339	0.5318451	4.580017	10.896561
923709939856673	0.51268005	4.893036	9.844376
923709948249007	0.7760925	5.0659943	8.610809
923709956641341	1.1430664	5.0006256	7.425476
923709965033675	1.5841217	4.5587616	6.68602
923709973426009	1.8778381	4.187332	6.25354
923709981818343	1.7540436	4.3275146	6.147232
923709990210677	1.3341675	4.9019012	6.277649
923709998603011	1.8103027	4.540085	6.028137
923710006995345	1.9161072	4.941925	6.576523
923710015387679	1.97229	5.139618	7.354355
923710023780013	2.0770416	4.9476776	7.9232635
923710032172347	2.2496948	4.558304	8.238678
923710040564681	2.409134	4.2807007	8.442535
923710048957015	2.3064423	4.149109	8.494385
923710057349349	1.8917999	4.1883698	8.157181
923710065741682	1.7583771	4.463043	7.715851
923710074134016	1.9418945	4.7915955	7.2904663
923710082526350	2.3070831	5.007263	7.024475
923710090918684	2.6909485	5.002716	7.032257
923710099311018	3.123352	4.7691193	7.3026276
923710107703352	3.3233185	4.507309	7.7846375
923710116095686	3.4746552	4.213272	8.43541
923710124488020	3.4952545	3.9102478	9.160141
923710132880354	3.382141	3.6334534	9.931625
923710141272688	3.1380768	3.4736328	10.612869
923710149665022	2.5229187	3.7238922	10.449356
923710158057356	2.4010162	4.0899506	9.653839
923710166449690	2.4756927	4.4907227	8.5439
923710174842024	2.6187592	4.9448395	7.3937073
923710183234358	2.7997437	5.3827515	6.491104
923710191626692	3.0138245	5.6780243	6.0381165
923710200019026	3.0704803	5.730713	5.9705353
923710208411360	2.8843231	5.7271423	6.1811523
923710216803694	2.897644	5.646942	6.531723
923710225196028	2.9345245	5.505188	6.9244843
923710233588362	2.947464	5.3233337	7.3251953
923710241980696	3.0593414	5.1088715	7.778305
923710250373030	3.2889557	4.866333	8.350845
923710258765364	3.0937805	4.8339996	8.482971
923710267157698	2.9740295	4.8802032	8.458359
923710275550032	2.954956	4.9804993	8.3658905
923710283942366	2.9707642	5.137085	8.232529
923710292334700	2.94281	5.3460846	8.046921
923710300727034	2.8899841	5.4996033	7.7966766
923710309119368	2.8280334	5.561249	7.4690704
923710317511702	2.9169617	5.5983887	7.0200195
923710325904036	3.0886078	5.665802	6.5354156
923710334296370	3.2273865	5.7803802	6.1414795
923710342688704	3.2342987	5.9184113	5.958069
923710351081038	3.1395721	6.030075	6.0318604
923710359473372	2.915924	6.065689	6.4933014
923710367865706	2.7814941	5.9180756	7.435257
923710376258040	2.4851074	5.706375	8.575577
923710384650374	2.0602875	5.532074	9.635178
923710393042708	1.8609009	5.4108734	10.435181
923710401435042	2.0646667	5.2478485	10.698593
923710409827376	2.408432	5.2000885	10.039917
923710418219710	2.8768616	5.15007	9.082108
923710426612044	3.2076874	5.1979218	7.973877
923710435004378	3.3555145	5.446106	6.3733826
923710443396712	3.567749	5.9075165	3.840271
923710451789046	4.1941986	6.250778	3.208725
923710460181380	3.36438	6.1201477	4.7223663
923710468573714	2.8360443	5.8946533	6.523529
923710476966048	2.6616364	5.67955	7.7197876
923710485358382	2.6332397	5.5300446	8.094299
923710493750716	2.6149445	5.4773865	8.046814
923710502143050	2.4733582	5.4590454	7.7493896
923710510535384	2.4340668	5.4776917	7.5296936
923710518927718	2.478485	5.517029	7.5500336
923710527320052	2.555832	5.566162	7.80011
923710535712386	2.6452637	5.6169434	8.184784
923710544104720	2.768509	5.6615143	8.488251
923710552497054	2.878189	5.663498	8.112381
923710560889388	3.054596	5.637451	7.0814514
923710569281722	3.0314941	5.515991	6.013565
923710577674056	2.913803	5.4308624	5.3595886
923710586066390	2.891327	5.508423	5.4028015
923710594458724	3.0464783	5.7193604	6.0872345
923710602851057	2.977951	5.7085876	7.392517
923710611243391	2.7774353	5.4600067	8.299057
923710619635725	2.7653503	5.1890717	8.701492
923710628028059	2.887436	5.0329895	8.8541565
923710636420393	3.0081177	5.0128326	8.970734
923710644812727	3.079483	5.0399475	8.997269
923710653205061	3.048584	5.1875	8.863663
923710661597395	2.8678741	5.3302155	8.360733
923710669989729	2.780365	5.483795	7.7749634
923710678382063	2.7940826	5.6117554	7.2678833
923710686774397	2.8746948	5.6684113	6.8990784
923710695166731	3.028946	5.628006	6.65184
923710703559065	3.111435	5.576309	6.689621
923710711951399	3.1789246	5.540497	7.020462
923710720343733	3.1002655	5.5019226	6.3864136
923710728736067	3.3398743	5.427582	5.820389
923710737128401	3.8114471	5.347397	6.269943
923710745520735	3.361679	5.3828583	7.2731476
923710753913069	3.439209	5.3172455	7.663788
923710762305403	3.3741913	5.3520355	7.8540344
923710770697737	3.241684	5.4524536	8.104294
923710779090071	3.0871124	5.5941925	8.289856
923710787482405	2.9462128	5.7232666	8.284653
923710795874739	2.8395844	5.7525787	8.228058
923710804267073	2.8249817	5.710724	7.780304
923710812659407	3.0666199	5.680252	7.3313904
923710821051741	3.1101227	5.5026093	6.6013336
923710829444075	3.0887299	5.334015	5.8255157
923710837836409	3.2317047	5.344681	5.3515625
923710846228743	3.46698	5.488205	5.3320313
923710854621077	3.6605377	5.564331	5.8220825
923710863013411	3.6558838	5.513626	6.5932617
923710871405745	3.4202576	5.457535	7.5526886
923710879798079	3.0596008	5.426605	8.31488
923710888190413	2.7559662	5.397949	8.427872
923710896582747	2.713852	5.3206024	7.7277374
923710904975081	3.0132446	5.29335	7.3243866
923710913367415	3.245163	5.2755585	7.124176
923710921759749	3.2926788	5.2476807	7.024933
923710930152083	3.1803284	5.226944	7.026581
923710938544417	3.0171356	5.248764	7.1089783
923710946936751	2.912445	5.336502	7.0870514
923710955329085	2.9834137	5.4117737	6.9356995
923710963721419	3.1057892	5.378784	6.7212524
923710972113753	3.1704865	5.24292	6.496826
923710980506087	3.1718597	5.0647125	6.4975586
923710988898421	3.0922852	4.899811	6.892029
923710997290755	2.71138	4.7157135	7.4864197
923711005683089	2.5285034	4.7491302	7.9482727
923711014075423	2.266861	4.725479	8.081085
923711022467757	2.1062775	4.573868	8.465485
923711030860091	2.0541687	4.3608093	9.069992
923711039252425	2.0424042	4.208069	9.547745
923711047644759	2.1070251	4.210022	9.738678
923711056037093	2.0144348	4.198761	9.57251
923711064429427	1.3583221	3.9644775	9.028152
923711072821761	0.6244507	3.9602814	8.330399
923711081214095	0.3574829	4.138748	7.960861
923711089606429	0.8488159	4.241745	8.269501
923711097998763	1.490982	4.437958	8.623291
923711106391097	1.712204	4.2051697	8.727692
923711114783431	1.8111572	3.671463	8.7699585
923711123175765	1.5398865	3.5442657	8.832062
923711131568099	0.86735535	3.8398743	9.130493
923711139960432	0.047332764	4.0680084	9.785004
923711148352766	-0.4158783	4.0461273	10.342651
923711156745100	-0.8102722	3.8526459	10.725113
923711165137434	-0.8895111	3.487915	10.755966
923711173529768	-0.68644714	3.231659	10.432571
923711181922102	-0.26516724	3.1510925	9.907272
923711190314436	0.32810974	3.0845032	9.347519
923711198706770	1.0154114	2.6910553	8.767578
923711207099104	1.4345703	2.1361542	8.238739
923711215491438	1.4417877	2.3235168	8.719666
923711223883772	1.324234	3.050705	10.065063
923711232276106	1.0679016	3.684372	10.871979
923711240668440	0.56625366	3.6137543	9.828247
923711249060774	0.4164276	3.1799622	9.365097
923711257453108	0.5242615	2.8069916	8.919647
923711265845442	0.75335693	2.653595	8.565903
923711274237776	0.96640015	2.6782532	8.374283
923711282630110	1.1801605	2.756958	8.40361
923711291022444	1.4706879	2.8258667	8.698532
923711299414778	1.4955444	3.2612305	9.1249695
923711307807112	1.0804291	3.7284698	9.424835
923711316199446	0.45285034	3.991455	9.813431
923711324591780	-0.33207703	4.0411987	9.9448395
923711332984114	-1.088089	3.9044495	9.635742
923711341376448	-1.4882965	3.5873566	9.028183
923711349768782	-0.9858093	2.90242	8.419022
923711358161116	-0.024139404	2.346283	8.317734
923711366553450	0.8144684	1.9152069	8.703934
923711374945784	1.3421326	1.6495819	9.261597
923711383338118	1.5345001	1.5513306	9.701187
923711391730452	1.45961	1.6081696	9.894699
923711400122786	1.1794128	1.8942413	9.72287
923711408515120	0.7264099	2.4462128	10.07074
923711416907454	0.027328491	3.0102997	10.440857
923711425299788	-0.6345978	3.38768	10.7087555
923711433692122	-1.0195007	3.4994354	10.796463
923711442084456	-1.0592194	3.3701324	10.594879
923711450476790	-1.1746216	3.1383057	10.053253
923711458869124	-0.9377136	2.9132385	9.735947
923711467261458	-0.4772644	2.7233124	9.419235
923711475653792	0.107299805	2.420227	9.2296295
923711484046126	0.7005615	1.9816437	9.281815
923711492438460	1.1900024	1.6073303	9.522766
923711500830794	1.3054199	1.6751556	9.542007
923711509223128	1.383316	2.009674	9.453079
923711517615462	1.3846893	2.274414	9.52478
923711526007796	1.0592651	2.5351257	9.632919
923711534400130	0.47325134	2.8573303	9.561813
923711542792464	0.14245605	3.1879425	9.145767
923711551184798	0.017105103	3.4121857	8.469131
923711559577132	-0.1436615	3.5217285	8.106903
923711567969466	-0.3616333	3.5263367	8.311417
923711576361800	-0.21699524	3.3093414	8.899094
923711584754134	0.25979614	2.8676758	9.340561
923711593146468	0.47358704	2.3668823	9.01355
923711601538802	1.5749512	2.157135	7.8714294
923711609931136	2.9923248	1.7668152	6.8361206
923711618323470	3.5048065	1.4163055	5.945938
923711626715804	2.901703	1.5146332	5.471222
923711635108138	1.5707397	2.2444763	5.7903137
923711643500472	0.11193848	3.4022064	7.2652893
923711651892806	-0.94389343	4.207794	8.825623
923711660285140	-2.1854095	4.566925	10.195572
923711668677474	-2.8056335	4.57222	10.73056
923711677069807	-2.7905273	4.186325	10.467438
923711685462141	-2.2665863	3.5562286	9.665588
923711693854475	-1.2228088	3.1101837	8.544373
923711702246809	-0.4822693	2.797058	7.5115967
923711710639143	-0.46395874	2.760498	6.893265
923711719031477	-0.7468567	2.7950134	6.827606
923711727423811	-0.9627228	2.8671417	7.327957
923711735816145	-1.0288544	2.9397888	8.212936
923711744208479	-1.2971191	2.9147491	9.208878
923711752600813	-1.4567261	2.990158	10.414276
923711760993147	-1.500885	3.1247864	10.892075
923711769385481	-1.8232574	3.226944	10.531128
923711777777815	-2.335968	3.2416687	9.376572
923711786170149	-2.85437	3.257904	7.949356
923711794562483	-3.3980713	3.5468292	7.2917023
923711802954817	-3.534668	3.9037476	8.099258
923711811347151	-3.6616669	3.597763	9.272568
923711819739485	-3.9108734	3.1708527	10.843689
923711828131819	-4.1941223	3.2330627	12.547928
923711836524153	-4.307846	3.8457336	13.843094
923711844916487	-4.063034	4.0545654	14.045532
923711853308821	-4.2036285	4.13533	12.339661
923711861701155	-4.396698	4.1670074	8.629196
923711870093489	-4.570801	4.7151794	2.3646393
923711878485823	-4.8818054	5.746414	-0.19944763
923711886878157	-5.1239166	6.62854	5.203003
923711895270491	-4.153778	6.246811	10.0416565
923711903662825	-4.0052185	5.0364532	8.28891
923711912055159	-4.3026123	4.702759	8.547485
923711920447493	-4.4802246	4.784134	8.518967
923711928839827	-4.589905	4.941452	7.869446
923711937232161	-4.81456	5.0118256	7.212845
923711945624495	-4.9172516	5.1464233	6.903763
923711954016829	-5.535309	5.858963	6.2450714
923711962409163	-6.533554	6.3908386	5.766449
923711970801497	-7.276016	6.6119537	5.7171173
923711979193831	-7.510849	6.4496613	6.0172424
923711987586165	-7.344391	5.923462	6.405319
923711995978499	-7.0114136	5.1203003	6.7174377
923712004370833	-6.490753	4.634079	6.4724274
923712012763167	-6.077072	4.349777	4.5393524
923712021155501	-5.5241394	4.5677643	4.863144
923712029547835	-4.8712006	5.1565094	7.3227234
923712037940169	-4.3753967	5.6306915	9.274307
923712046332503	-4.3336487	5.424942	8.866745
923712054724837	-4.9252777	4.8989105	7.465988
923712063117171	-5.3149567	5.0135956	6.996109
923712071509505	-5.9946594	5.365097	6.604904
923712079901839	-7.0727997	5.664383	6.0663605
923712088294173	-8.230148	5.7639465	5.6781006
923712096686507	-8.778839	5.719223	5.8818817
923712105078841	-9.235672	5.6987305	6.445053
923712113471175	-9.563751	5.6914215	6.7058716
923712121863509	-9.126694	5.586792	6.962631
923712130255843	-7.954193	5.4454803	7.3877563
923712138648177	-6.5454407	5.421692	7.8292236
923712147040511	-5.478653	5.618103	7.542099
923712155432845	-5.0157166	5.94133	7.4050293
923712163825179	-5.1316986	6.0812225	6.7319336
923712172217513	-5.400299	6.159958	5.446228
923712180609847	-5.3095703	6.3276215	3.8167572
923712189002181	-4.635681	6.6835327	2.245758
923712197394515	-4.218918	7.1800537	0.93466187
923712205786849	-4.248825	7.5492096	0.55867004
923712214179182	-4.368622	7.6058044	0.783844
923712222571516	-4.3402405	7.4819336	1.0881042
923712230963850	-4.3687744	7.473114	1.2511597
923712239356184	-4.7976227	7.863159	1.3740692
923712247748518	-4.705887	8.19516	1.7389679
923712256140852	-3.9548798	7.958664	2.4010315
923712264533186	-3.7132416	7.7001953	2.03891
923712272925520	-3.2906647	7.5906525	1.4857025
923712281317854	-2.356781	7.6191406	1.1719666
923712289710188	-1.2380981	7.6762085	0.94255066
923712298102522	-1.0174255	7.9495544	0.48532104
923712306494856	-0.93045044	7.985718	0.9466858
923712314887190	-1.324234	7.7615814	1.5678406
923712323279524	-2.368454	7.515564	2.0363464
923712331671858	-3.815155	7.511627	2.2542114
923712340064192	-5.052475	7.8608856	2.3708038
923712348456526	-5.363098	8.410599	2.6589355
923712356848860	-4.5202484	8.822571	3.0972443
923712365241194	-3.2092896	8.786957	3.4270477
923712373633528	-2.267929	8.505112	3.3941803
923712382025862	-1.959198	8.243103	3.209549
923712390418196	-1.9687347	8.207291	3.408905
923712398810530	-1.6875916	8.161423	3.5883636
923712407202864	-0.9490967	7.9545746	3.6278381
923712415595198	-0.53564453	7.7703857	3.1850433
923712423987532	-0.40071106	7.5594635	2.3717499
923712432379866	-0.4457245	7.298172	1.4288788
923712440772200	-0.64341736	7.051346	0.654953
923712449164534	-1.2370605	7.0840454	-0.11343384
923712457556868	-2.0593414	7.5650024	-0.7726898
923712465949202	-3.2372437	8.76976	-1.2873077
923712474341536	-4.2807617	10.29216	-1.3825836
923712482733870	-4.802246	11.481934	-1.0268707
923712491126204	-4.8255157	11.700226	-0.608963
923712499518538	-4.568054	10.805618	-0.6010132
923712507910872	-3.6240387	9.620651	-0.3687744
923712516303206	-2.6381073	8.759048	-0.040222168
923712524695540	-1.8150635	8.389481	0.21250916
923712533087874	-1.1977844	8.414917	0.22409058
923712541480208	-0.7153015	8.508926	-0.030914307
923712549872542	-0.65864563	8.559631	-0.21679688
923712558264876	-1.3114777	9.091339	-0.61631775
923712566657210	-1.9744263	9.909882	-0.83821106
923712575049544	-2.1945496	10.570236	-0.94358826
923712583441878	-1.8712921	10.743042	-1.0567169
923712591834212	-1.424881	10.479004	-1.2384491
923712600226546	-1.1277771	10.145004	-1.4627686
923712608618880	-1.0850372	10.031357	-1.4617004
923712617011214	-1.2170563	9.885101	-1.4029999
923712625403548	-1.4921112	9.722488	-1.2673035
923712633795882	-1.819107	9.597794	-1.0082397
923712642188216	-2.037445	9.50087	-0.6309967
923712650580550	-1.963089	9.291031	-0.4038391
923712658972884	-2.0292053	9.164658	-0.15270996
923712667365218	-2.209381	9.192352	0.015335083
923712675757552	-2.2611237	9.35379	0.01751709
923712684149886	-2.0995636	9.591476	-0.17079163
923712692542220	-1.9722443	9.847443	-0.49835205
923712700934554	-2.1489258	10.246506	-0.99186707
923712709326888	-2.1286469	10.523621	-1.2494049
923712717719222	-2.2407227	10.562576	-1.1548615
923712726111556	-2.3655548	10.336929	-0.91104126
923712734503890	-2.3021545	9.892181	-0.68437195
923712742896224	-1.9226379	9.32135	-0.38586426
923712751288557	-1.745163	9.120941	0.026901245
923712759680891	-1.7585144	9.095764	0.31996155
923712768073225	-1.9019623	9.089905	0.3974762
923712776465559	-1.9817505	9.090591	0.29096985
923712784857893	-1.8667603	9.148422	0.06744385
923712793250227	-1.6167755	9.347015	-0.24378967
923712801642561	-1.248642	9.453613	-0.45069885
923712810034895	-0.88442993	9.420349	-0.7186127
923712818427229	-0.68162537	9.514481	-0.85546875
923712826819563	-0.69296265	9.699509	-0.7460022
923712835211897	-0.88220215	9.808838	-0.45291138
923712843604231	-1.1324158	9.660095	-0.3189392
923712851996565	-1.0761566	9.4470215	-0.26365662
923712860388899	-0.86128235	9.233475	-0.17137146
923712868781233	-0.6707001	9.028915	-0.06866455
923712877173567	-0.5516052	8.894913	0.025177002
923712885565901	-0.47705078	8.866348	0.123916626
923712893958235	-0.39430237	8.871323	0.3013916
923712902350569	-0.5583954	8.893127	0.19210815
923712910742903	-0.51356506	9.030441	-0.23146057
923712919135237	-0.24906921	9.244186	-0.6547394
923712927527571	0.025512695	9.45314	-0.9932556
923712935919905	0.09996033	9.591248	-1.2334442
923712944312239	0.010498047	9.671768	-1.2424011
923712952704573	-0.2278595	9.562256	-0.7880249
923712961096907	-0.3852539	9.344238	-0.44648743
923712969489241	-0.39804077	9.163742	-0.22485352
923712977881575	-0.3456726	9.055206	-0.10748291
923712986273909	-0.345932	9.005981	-0.07498169
923712994666243	-0.41329956	9.057739	-0.123794556
923713003058577	-0.34733582	9.054596	-0.3469696
923713011450911	-0.2922821	9.141327	-0.5795593
923713019843245	-0.29508972	9.250168	-0.6304474
923713028235579	-0.30104065	9.299606	-0.57966614
923713036627913	-0.22032166	9.235886	-0.60147095
923713045020247	-0.021759033	9.080139	-0.6686249
923713053412581	-0.19438171	9.106125	-0.55784607
923713061804915	-0.8686981	9.216187	-0.1471405
923713070197249	-1.2420654	9.24614	0.14477539
923713078589583	-1.2064056	9.190842	0.21922302
923713086981917	-1.0748901	9.12294	0.18571472
923713095374251	-0.9582367	9.0312195	0.08201599
923713103766585	-1.1279144	9.018356	-0.0014801025
923713112158919	-1.2395782	8.722	-0.20162964
923713120551253	-0.8361206	8.631088	-0.27844238
923713128943587	-0.29533386	8.695282	-0.33299255
923713137335921	-0.31188965	8.618378	-0.54011536
923713145728255	-0.585083	8.791855	-0.370636
923713154120589	-0.6027832	9.731552	-0.734787
923713162512923	-0.0016479492	9.262283	-1.387619
923713170905257	0.33839417	9.048584	-1.4765625
923713179297591	0.26353455	9.544785	-0.9064636
923713187689925	0.28268433	9.858368	-0.28207397
923713196082259	0.34284973	9.903976	-0.23840332
923713204474593	0.30125427	9.68103	-0.83781433
923713212866927	0.18772888	9.62204	-0.43492126
923713221259261	0.16552734	9.695297	-0.23880005
923713229651595	0.30932617	9.836044	-0.46495056
923713238043929	0.56077576	9.979477	-0.38859558
923713246436263	0.6308594	9.931793	-0.16178894
923713254828597	0.5623474	9.838028	-0.42131042
923713263220931	0.5567932	9.884125	-0.29840088
923713271613265	0.42294312	9.97464	-0.047317505
923713280005599	0.17140198	10.036499	0.118255615
923713288397932	0.038742065	10.081451	0.24951172
923713296790266	-0.18391418	10.086426	0.23956299
923713305182600	-0.19702148	10.110687	0.3012085
923713313574934	-0.22598267	10.083359	0.2735138
923713321967268	-0.35684204	10.015945	0.29092407
923713330359602	-0.5118408	9.924377	0.38035583
923713338751936	-0.52433777	9.816055	0.40422058
923713347144270	-0.6699219	9.738419	0.40907288
923713355536604	-0.80358887	9.680069	0.65701294
923713363928938	-0.65852356	9.537247	0.76179504
923713372321272	-0.41592407	9.408966	0.7764282
923713380713606	-0.2114563	9.342987	0.7954712
923713389105940	-0.050842285	9.288483	0.82966614
923713397498274	-0.30003357	9.256348	0.81604004
923713405890608	-0.35461426	9.195847	0.72143555
923713414282942	-0.30122375	9.217361	0.6675873
923713422675276	-0.19432068	9.326477	0.57743835
923713431067610	-0.17625427	9.496414	0.4512787
923713439459944	-0.43130493	9.667572	0.41404724
923713447852278	-0.48109436	9.550415	0.47065735
923713456244612	-0.5933838	9.526184	0.4630432
923713464636946	-0.44197083	9.462082	0.4350891
923713473029280	0.09764099	9.190765	0.42442322
923713481421614	0.92529297	8.708847	0.41540527
923713489813948	1.671402	8.299454	0.3874054
923713498206282	1.6077728	8.541992	1.2074585
923713506598616	2.0086365	9.373245	3.0565796
923713514990950	1.809906	10.323975	2.5983734
923713523383284	1.2702637	10.650833	0.24528503
923713531775618	0.82769775	10.208221	-1.6362
923713540167952	0.5086212	9.700638	-0.6252136
923713548560286	0.044708252	9.230896	-0.11180115
923713556952620	-0.010757446	8.704498	-0.21640015
923713565344954	0.010375977	8.111664	-0.5472717
923713573737288	0.13609314	7.5695496	-0.9284973
923713582129622	0.32666016	7.2695465	-1.1847687
923713590521956	0.30947876	7.3967285	-1.0773163
923713598914290	0.30847168	8.011765	0.08274841
923713607306624	1.0215302	9.422363	2.4732056
923713615698958	1.2233887	10.008667	1.3777008
923713624091292	0.6167908	9.761124	-0.08073425
923713632483626	-0.37727356	9.34259	0.7319336
923713640875960	-0.94467163	9.279556	0.39897156
923713649268294	-1.131134	9.447327	0.2481842
923713657660628	-1.1142578	9.465805	0.5456848
923713666052962	-0.8713074	9.431168	0.7982483
923713674445296	-0.5171509	9.427826	0.8991089
923713682837630	-0.25476074	9.505341	0.8802948
923713691229964	-0.2581482	9.620331	0.77871704
923713699622298	-0.5024719	9.676788	0.80207825
923713708014632	-0.54367065	9.539566	0.96687317
923713716406966	-0.7805786	9.408356	1.0509949
923713724799300	-1.0891113	9.30426	1.0575714
923713733191634	-1.038559	9.153503	1.0562286
923713741583968	-0.21098328	8.893997	0.9986725
923713749976302	-0.32356262	8.44754	0.5891113
923713758368636	-0.036849976	8.183914	0.4179535
923713766760970	0.03717041	8.130432	0.53193665
923713775153304	0.23239136	8.243408	0.7956085
923713783545638	0.7814026	8.423355	1.0737762
923713791937972	0.69714355	8.474136	1.3560791
923713800330306	0.7605896	8.754318	1.758316
923713808722640	0.9442749	8.983795	1.7158203
923713817114974	0.9356537	9.126007	1.5520935
923713825507307	0.8555603	9.158722	1.5237732
923713833899641	0.9304352	9.10498	1.7077484
923713842291975	0.93756104	9.085648	1.8574829
923713850684309	0.7134247	9.157974	1.8846588
923713859076643	0.4300537	9.157013	1.8050995
923713867468977	0.11160278	9.114136	1.6646729
923713875861311	-0.17532349	9.031296	1.5118866
923713884253645	-0.32862854	8.877075	1.4251404
923713892645979	-0.24713135	8.604706	1.5523682
923713901038313	0.27999878	8.19548	1.9302826
923713909430647	0.4610138	8.115372	1.817627
923713917822981	0.39115906	8.121658	1.9132843
923713926215315	0.0014038086	8.186981	2.0761719
923713934607649	-0.67448425	8.39389	1.8529663
923713942999983	-1.041565	8.659439	1.6801605
923713951392317	-1.7914734	8.791992	1.4449463
923713959784651	-2.2870026	8.906891	1.5558777
923713968176985	-2.589264	9.021622	1.6508026
923713976569319	-2.6861725	9.07077	1.8301086
923713984961653	-2.4710846	8.973129	2.306717
923713993353987	-1.7427826	8.69809	2.543045
923714001746321	-1.5878601	8.689896	2.5170898
923714010138655	-1.8479614	8.673279	2.4889069
923714018530989	-2.30336	8.715424	2.3749084
923714026923323	-2.8435974	8.812027	2.228653
923714035315657	-3.4802399	8.92334	2.1837463
923714043707991	-4.175049	9.175812	2.1499481
923714052100325	-4.512085	9.531845	2.0315704
923714060492659	-4.3998413	9.54747	1.9890289
923714068884993	-4.6044006	9.425629	1.9469757
923714077277327	-4.816681	9.212799	1.9309387
923714085669661	-4.1651	8.86113	2.0082855
923714094061995	-3.6283417	8.7786255	1.983429
923714102454329	-3.7038574	8.765976	2.4815674
923714110846663	-3.4548645	8.848953	2.4739075
923714119238997	-3.3127441	8.978958	2.2042847
923714127631331	-3.6227875	8.992065	1.9490662
923714136023665	-4.218933	8.717194	1.8185272
923714144415999	-4.247162	8.239243	1.879837
923714152808333	-4.2866364	8.120941	1.8521729
923714161200667	-4.416443	8.146973	1.603836
923714169593001	-5.1615295	8.282913	1.5227661
923714177985335	-5.9042206	8.453293	1.614212
923714186377669	-5.3011475	8.540466	1.5691681
923714194770003	-4.202759	8.493759	2.2550201
923714203162337	-3.6908875	8.663116	2.3173676
923714211554671	-3.8217468	9.005508	1.9944
923714219947005	-4.115494	9.138275	1.8068848
923714228339339	-4.1948853	8.961472	1.8735199
923714236731673	-4.037796	8.782074	1.8233185
923714245124007	-4.2330627	8.892395	1.6885834
923714253516341	-4.2668	8.878159	1.6135712
923714261908675	-4.4589386	8.778809	1.6352386
923714270301009	-4.784561	8.670883	1.6002502
923714278693343	-5.102844	8.604446	1.5759888
923714287085677	-5.2588196	8.58136	1.8428345
923714295478011	-5.1953583	8.655563	2.0644379
923714303870345	-5.0655365	8.728348	2.0968475
923714312262679	-4.8451233	8.705536	2.0143127
923714320655013	-4.7221375	8.584152	1.9137115
923714329047347	-4.738907	8.472382	1.8636322
923714337439681	-4.685623	8.532303	1.8591309
923714345832015	-4.467926	8.5681	1.7597351
923714354224349	-4.3803253	8.554764	1.6702576
923714362616682	-4.2981873	8.541931	1.542572
923714371009016	-4.284546	8.395721	1.4757233
923714379401350	-4.383621	8.12529	1.4860077
923714387793684	-4.5341034	8.004532	1.4238129
923714396186018	-4.683197	7.990616	1.4407043
923714404578352	-4.6852875	8.036133	1.5866241
923714412970686	-4.755478	8.120209	1.6626434
923714421363020	-4.865097	8.238007	1.7542725
923714429755354	-4.9151154	8.363693	1.896637
923714438147688	-4.8370667	8.425522	1.9130249
923714446540022	-4.8112335	8.297302	1.8841858
923714454932356	-4.7039795	8.159653	1.7523041
923714463324690	-4.605896	8.094223	1.5722504
923714471717024	-4.6437836	8.068207	1.4528809
923714480109358	-4.810318	8.063736	1.4409943
923714488501692	-4.872223	8.13678	1.4345703
923714496894026	-4.8742065	8.091049	1.3689728
923714505286360	-4.979126	8.006943	1.3000946
923714513678694	-5.039673	7.9313354	1.2584229
923714522071028	-5.040741	7.9475403	1.2205658
923714530463362	-5.04216	8.100235	1.1764374
923714538855696	-5.113983	8.3607025	1.1675262
923714547248030	-4.9596405	8.540436	1.2822723
923714555640364	-4.9270325	8.585358	1.3630981
923714564032698	-4.9078217	8.619904	1.3585663
923714572425032	-4.8548584	8.5824585	1.2613983
923714580817366	-4.778549	8.4223175	1.0932617
923714589209700	-4.764969	8.25383	0.8916931
923714597602034	-4.740631	8.207108	0.76223755
923714605994368	-4.7731476	8.303513	0.6361389
923714614386702	-4.9271545	8.507446	0.63597107
923714622779036	-5.2120514	8.75267	0.7518921
923714631171370	-5.506073	8.976196	0.85035706
923714639563704	-5.5167236	9.163391	0.7200928
923714647956038	-5.5662384	9.368179	0.7472534
923714656348372	-5.511856	9.454407	0.6481476
923714664740706	-5.543152	9.465393	0.6166229
923714673133040	-5.5763702	9.397446	0.5963898
923714681525374	-5.4989014	9.231979	0.5251312
923714689917708	-5.4299927	8.962173	0.5901642
923714698310042	-5.1602936	8.646164	0.41993713
923714706702376	-4.9981537	8.403336	0.41503906
923714715094710	-4.794403	8.284393	0.3219452
923714723487044	-4.5378876	8.239273	0.23620605
923714731879378	-4.3138275	8.183853	0.34075928
923714740271712	-4.208023	8.10231	0.4805298
923714748664046	-4.1254883	8.148834	0.65963745
923714757056380	-4.15007	8.180557	0.816391
923714765448714	-4.299652	8.18782	0.905426
923714773841048	-4.455124	8.2213745	0.938385
923714782233382	-4.448471	8.306198	0.98350525
923714790625716	-4.184265	8.296219	1.1779175
923714799018050	-3.9850006	8.3293915	1.3056793
923714807410384	-3.7458801	8.477493	1.4014587
923714815802718	-3.5312653	8.554642	1.6217651
923714824195052	-3.279358	8.506653	1.7950592
923714832587386	-2.9969788	8.420258	1.7835541
923714840979720	-3.2213898	8.52179	2.2872162
923714849372054	-2.9892426	8.4711	2.04982
923714857764388	-3.0776672	8.542267	1.9161377
923714866156722	-3.2736664	8.630096	1.9050293
923714874549056	-3.2811584	8.694122	1.9015808
923714882941390	-2.9545593	8.735016	1.7577362
923714891333724	-2.7413788	8.685379	1.4910126
923714899726057	-3.0368652	8.538956	1.3799286
923714908118391	-3.2462006	8.367569	1.263916
923714916510725	-3.4873505	8.063934	1.1549683
923714924903059	-3.8686218	7.690155	1.1102295
923714933295393	-4.3320465	7.4468536	1.1739197
923714941687727	-4.282181	7.541565	1.2447052
923714950080061	-3.9400787	7.922867	0.82211304
923714958472395	-3.5235138	8.4888	0.62312317
923714966864729	-3.37706	8.966629	0.56336975
923714975257063	-3.692505	9.206467	0.7237549
923714983649397	-4.393402	9.195526	1.1608887
923714992041731	-4.823578	8.927811	0.7583008
923715000434065	-4.444214	8.660873	0.62438965
923715008826399	-4.4018707	8.431183	0.95877075
923715017218733	-4.443817	8.379578	0.9277649
923715025611067	-4.434845	8.876938	0.5582733
923715034003401	-4.4278564	10.147446	0.5555115
923715042395735	-4.1276703	10.581818	0.08236694
923715050788069	-3.9593658	10.439636	0.61628723
923715059180403	-4.5779877	10.203842	0.97161865
923715067572737	-5.5555573	9.908646	1.0269012
923715075965071	-6.32489	9.475876	0.81007385
923715084357405	-6.4633636	8.857391	0.4032135
923715092749739	-6.211487	8.454178	0.1376648
923715101142073	-5.717926	8.132202	0.120651245
923715109534407	-5.722046	8.106293	0.34384155
923715117926741	-5.7812653	8.004501	0.5345764
923715126319075	-5.5377197	7.7053223	0.6498718
923715134711409	-4.951996	7.464981	0.86680603
923715143103743	-4.558365	7.7274017	1.0318146
923715151496077	-4.2036896	7.8940887	1.0207214
923715159888411	-4.2846375	8.066299	1.0487823
923715168280745	-4.9183655	8.236145	1.0197906
923715176673079	-5.8507233	8.388123	0.95365906
923715185065413	-6.508484	8.519592	1.0042114
923715193457747	-7.0608215	8.66716	1.0371246
923715201850081	-7.263321	8.838455	0.6945801
923715210242415	-6.9489746	8.679153	0.40226746
923715218634749	-6.450287	8.410339	0.3484192
923715227027083	-5.933731	8.216995	0.36799622
923715235419417	-5.279251	8.081345	0.081344604
923715243811751	-4.7504272	7.951126	0.05848694
923715252204085	-4.562561	7.8365173	0.03388977
923715260596419	-4.8697205	7.7386475	-0.056381226
923715268988753	-5.599167	7.4767456	-0.115875244
923715277381087	-6.3454895	7.0190735	-0.09669495
923715285773421	-6.505661	6.6044617	-0.072509766
923715294165755	-6.511627	6.883789	-0.25639343
923715302558089	-6.1257935	6.913788	-0.57566833
923715310950423	-5.642517	6.8282013	-0.5324402
923715319342757	-5.154999	6.7211304	-0.49171448
923715327735091	-4.8167114	6.616745	-0.6603241
923715336127425	-4.8826294	6.458435	-0.7530823
923715344519759	-5.316025	6.2437286	-0.81669617
923715352912093	-5.67247	6.201538	-0.9474945
923715361304427	-5.938431	5.9256287	-1.0781403
923715369696761	-6.585022	5.921631	-0.7057953
923715378089095	-7.4582214	6.439453	-0.11630249
923715386481429	-7.4044037	6.9711304	-0.65986633
923715394873763	-6.6827545	7.240494	-0.4769745
923715403266097	-6.4638214	7.5527496	-0.378479
923715411658431	-6.3389587	7.8984375	-0.35334778
923715420050765	-5.8836975	8.100113	-0.2717743
923715428443099	-5.0513153	8.090073	-0.13562012
923715436835432	-4.3515167	8.030685	-0.1819458
923715445227766	-4.229889	8.109451	-0.66448975
923715453620100	-4.6447906	8.401993	-0.23066711
923715462012434	-4.981125	8.719742	-0.19328308
923715470422046	-5.203064	8.711624	-0.38311768
923715478814380	-5.3412323	8.262604	-0.37464905
923715487206714	-5.3114624	7.687729	-0.05067444
923715495599048	-5.59079	7.5147705	0.11930847
923715503991382	-5.7440186	7.2240906	0.43873596
923715512383716	-5.974365	7.063904	0.7517853
923715520776050	-6.094696	7.0293884	0.9078827
923715529168384	-5.964966	7.0109863	0.8201599
923715537560718	-5.7352295	6.879013	0.53530884
923715545953052	-5.8329315	6.6217804	1.027832
923715554345386	-5.444168	6.2391205	1.4993439
923715562737720	-5.095627	6.28006	1.4094849
923715571130054	-4.945282	6.739868	0.8971863
923715579522388	-4.933609	7.385025	0.36471558
923715587914722	-4.8605957	7.964859	0.20755005
923715596307056	-4.8167267	8.777435	1.0649872
923715604699390	-4.650177	9.182175	0.46047974
923715613091724	-4.7255707	9.264648	-0.15631104
923715621484058	-5.018982	8.965805	-0.42036438
923715629876392	-5.2117615	8.293381	-0.19372559
923715638268726	-4.7677155	7.4668274	1.0303192
923715646661060	-4.225357	6.1607513	0.8189392
923715655053394	-5.5114136	4.878723	-2.4515076
923715663445728	-7.459839	4.1929016	-4.196228
923715671838062	-8.6966095	4.8187256	-2.9184723
923715680230396	-8.623856	6.733963	0.11004639
923715688622730	-8.395233	8.346237	1.0344696
923715697015064	-9.512924	8.096802	-0.607193
923715705407398	-9.567413	7.785782	-1.1428986
923715713799732	-8.843811	7.4265594	-0.9473877
923715722192066	-7.876938	7.0473633	-0.49879456
923715730584400	-7.162384	6.718521	-0.31111145
923715738976734	-6.8413544	6.586914	-0.9013214
923715747369068	-7.5390015	7.5037994	-1.7219543
923715755761402	-8.062408	7.506912	-0.5883484
923715764153736	-7.9018097	7.489395	0.122299194
923715772546070	-7.367508	7.7480774	-0.017974854
923715780938404	-6.9837036	8.129669	-0.4007721
923715789330738	-6.6874847	8.284744	-0.7327881
923715797723072	-6.1326294	8.051361	-0.26657104
923715806115406	-6.0946655	7.562851	-0.23953247
923715814507740	-6.5639496	6.7227173	0.22470093
923715822900074	-7.1233826	5.6146545	1.6963654
923715831292408	-7.443451	4.4259186	4.2956085
923715839684742	-8.073578	3.3391724	7.585785
923715848077076	-6.969101	2.7546387	9.531097
923715856469410	-4.50589	2.9799805	8.077591
923715864861744	-3.8320465	3.8513947	3.6494293
923715873254078	-5.6839905	5.1424255	-2.7090454
923715881646412	-8.525833	6.617462	-10.0142975
923715890038746	-9.112305	8.075668	-18.55185
923715898431080	-7.828766	9.043167	-18.220993
923715906823414	-5.3922577	9.178055	-12.979279
923715915215748	-2.6735382	8.585266	-6.043625
923715923608082	-0.52937317	7.7460327	0.24351501
923715932000416	0.31661987	7.247452	4.3227234
923715940392750	-0.7402191	7.253418	4.501175
923715948785084	-2.5876617	7.659439	1.7826691
923715957177418	-4.5265503	8.281006	-0.46826172
923715965569752	-5.8708344	9.152084	-1.690567
923715973962085	-6.217865	9.866745	-1.9260101
923715982354419	-5.612381	9.9339905	-1.5183716
923715990746753	-4.9513397	9.917038	-0.8374176
923715999139087	-4.6433563	9.911209	-0.38879395
923716007531421	-4.629181	9.712036	-0.31947327
923716015923755	-4.823578	9.376556	-0.1408844
923716024316089	-5.1374207	9.093842	0.14941406
923716032708423	-5.4076843	9.03804	0.18984985
923716041100757	-5.012863	8.928375	0.21278381
923716049493091	-4.3950806	8.918289	0.3303833
923716057885425	-3.5472412	9.007965	0.33122253
923716066277759	-2.5474396	9.202927	0.33372498
923716074670093	-1.4568939	9.385864	0.3935852
923716083062427	-0.3967743	9.416458	0.47247314
923716091454761	-0.08267212	9.639114	0.579834
923716099847095	-0.58644104	10.051239	0.519989
923716108239429	-1.2236023	10.234207	0.45635986
923716116631763	-1.6670532	10.225739	0.51260376
923716125024097	-1.7540894	10.090851	0.60913086
923716133416431	-1.5246277	9.823502	0.52856445
923716141808765	-1.4488525	9.327988	0.41889954
923716150201099	-1.4621887	8.864929	0.3388672
923716158593433	-1.562561	8.44194	0.38546753
923716166985767	-1.7306366	8.088959	0.57484436
923716175378101	-1.8922119	7.805832	0.82188416
923716183770435	-1.9210052	7.5433044	0.98950195
923716192162769	-1.4544678	7.0492706	1.207489
923716200555103	-1.2842407	6.988266	1.6122894
923716208947437	-0.98599243	7.2473297	1.6296997
923716217339771	-0.5924835	7.6821136	1.3976746
923716225732105	-0.21998596	8.143188	1.2026825
923716234124439	0.038406372	8.518143	1.2589874
923716242516773	0.144104	8.794312	1.2729492
923716250909107	-0.082733154	9.084213	1.7254486
923716259301441	-0.6277008	9.188477	1.4617157
923716267693775	-1.2175293	9.203171	1.2099457
923716276086109	-1.6340942	9.370056	1.4638367
923716284478443	-1.9160461	9.939819	1.631958
923716292870777	-2.1324463	10.889648	1.9531403
923716301263111	-1.7521057	11.367264	2.28508
923716309655445	-0.8393402	11.206741	2.092163
923716318047779	-0.023788452	10.681381	1.4963989
923716326440113	0.2682495	10.240646	0.88497925
923716334832447	0.19920349	10.234634	0.5932617
923716343224781	-0.21990967	10.418869	0.5689697
923716351617115	-0.9048004	10.750275	0.62016296
923716360009449	-1.5396729	11.077896	0.68162537
923716368401783	-1.835846	11.307892	0.85194397
923716376794117	-1.7201538	11.399475	1.2015686
923716385186451	-1.4334259	11.37384	1.6685486
923716393578785	-1.1558838	11.286026	1.5484467
923716401971119	-1.1844025	11.331299	1.0370331
923716410363453	-0.97421265	11.003357	0.70443726
923716418755787	-0.7188721	10.442703	0.75579834
923716427148121	-0.65019226	9.889267	1.1404419
923716435540455	-0.5918274	9.393951	1.493515
923716443932789	-0.2775116	9.386108	1.488617
923716452325123	-0.28915405	9.388611	1.262207
923716460717457	-0.34477234	9.393021	0.98405457
923716469109791	-0.37460327	9.33522	0.75177
923716477502125	-0.42453003	9.210861	0.58184814
923716485894459	-0.5621948	9.15033	0.41392517
923716494286793	-0.5587158	9.34877	0.7301941
923716502679127	-0.6893158	9.299896	1.0392456
923716511071460	-0.66130066	9.03363	1.1739655
923716519463794	-0.57551575	8.710098	1.146759
923716527856128	-0.62350464	8.52829	1.049942
923716536248462	-0.832428	8.665939	0.9825897
923716544640796	-1.1763458	8.703217	0.8356476
923716553033130	-1.1085663	8.57489	0.6110077
923716561425464	-0.9024658	8.523788	0.6035309
923716569817798	-0.78279114	8.58168	0.9199066
923716578210132	-0.878067	8.666458	1.4156952
923716586602466	-1.2290192	8.695374	1.6340485
923716594994800	-1.4649963	8.752899	1.5704651
923716603387134	-1.5383301	8.819382	1.1966705
923716611779468	-1.5780334	8.858017	0.6815796
923716620171802	-1.5597992	8.846832	0.35276794
923716628564136	-1.4385834	8.814484	0.4536438
923716636956470	-1.3063965	8.887024	0.8631897
923716645348804	-1.286789	9.005005	0.51446533
923716653741138	-1.2593079	9.035034	-0.011001587
923716662133472	-1.2752075	9.097504	-0.28941345
923716670525806	-1.397995	9.274155	-0.16880798
923716678918140	-1.6283722	9.540237	0.2089386
923716687310474	-1.834732	9.708633	0.55937195
923716695702808	-2.1186981	9.9253845	0.48542786
923716704095142	-2.3226013	10.221542	0.33261108
923716712487476	-2.2989502	10.509949	0.1781311
923716720879810	-1.9748688	10.696548	0.17681885
923716729272144	-1.465683	10.745682	0.4226532
923716737664478	-1.3065491	10.7574005	0.7145691
923716746056812	-1.0400085	10.58342	0.27989197
923716754449146	-0.60749817	10.268951	-0.4064026
923716762841480	-0.10546875	9.972641	-0.65065
923716771233814	0.43988037	9.739838	-0.31085205
923716779626148	0.9671936	9.591095	0.25585938
923716788018482	1.0569305	9.748611	0.14421082
923716796410816	0.29988098	9.7582855	0.337265
923716804803150	-0.07017517	10.0789795	0.41555786
923716813195484	-0.004562378	10.567688	0.33929443
923716821587818	0.20672607	10.971512	0.14840698
923716829980152	0.1921997	11.106415	-0.025924683
923716838372486	0.068573	11.231049	0.1375885
923716846764820	0.032302856	11.335678	0.7991028
923716855157154	0.13050842	11.54628	2.388565
923716863549488	0.1539154	12.126907	4.587494
923716871941822	-0.20780945	12.728668	5.263214
923716880334156	-1.0899963	12.726044	2.7933044
923716888726490	-1.9276733	12.396057	2.2241058
923716897118824	-2.7556763	11.810089	0.33015442
923716905511158	-2.6534882	11.385727	-1.621582
923716913903492	-2.0370789	11.056641	-3.4969025
923716922295826	-1.1998291	10.86084	-5.0227203
923716930688160	-0.22879028	10.89212	-5.802246
923716939080494	0.72047424	10.940826	-5.7167664
923716947472828	1.5980988	10.782379	-5.102707
923716955865162	2.4024506	10.656387	-4.326767
923716964257496	3.0610046	10.545227	-3.445221
923716972649830	3.4565277	10.4353485	-2.2403412
923716981042164	3.5175934	10.345764	-0.44308472
923716989434498	3.511612	10.317841	1.480133
923716997826832	3.2954407	10.1184845	2.644226
923717006219166	3.1400146	9.830368	2.6402435
923717014611500	3.257248	9.51384	1.6086578
923717023003834	3.4118042	9.310669	0.13146973
923717031396168	3.0440216	9.355988	-1.0302124
923717039788502	2.3134308	9.4136505	-1.6604004
923717048180835	1.5505524	9.542557	-1.5972595
923717056573169	1.0154114	9.842285	-1.2804108
923717064965503	0.8776703	10.052155	-1.0157318
923717073357837	1.0391846	10.003677	-0.8018646
923717081750171	1.2137299	9.71965	-0.40371704
923717090142505	1.2742462	9.226608	-0.25042725
923717098534839	1.3922119	8.800751	-0.412323
923717106927173	1.4259949	8.472153	-0.8988495
923717115319507	1.4299316	8.147064	-1.5140381
923717123711841	1.511261	7.7720947	-2.0175629
923717132104175	1.7121124	7.3811035	-2.2322998
923717140496509	1.4094238	7.060196	-2.005539
923717148888843	0.9103699	6.927765	-1.6672516
923717157281177	0.5873718	6.844635	-1.2272491
923717165673511	0.44641113	6.8061066	-0.75883484
923717174065845	0.32144165	6.7462006	-0.31506348
923717182458179	0.008377075	6.5399475	0.08459473
923717190850513	-0.3844452	6.4073334	0.12347412
923717199242847	-0.67541504	6.265991	0.21206665
923717207635181	-0.50619507	5.9648895	0.24067688
923717216027515	-0.017059326	5.6167145	0.121414185
923717224419849	0.4940033	5.3481293	-0.16117859
923717232812183	0.8264313	5.1411133	-0.49441528
923717241204517	1.1981506	4.8975067	-0.7351074
923717249596851	1.5050812	4.683502	-0.9461365
923717257989185	1.6852264	4.553482	-1.1392212
923717266381519	1.7629547	4.5232697	-1.2785339
923717274773853	1.7817688	4.6226654	-1.3795776
923717283166187	1.7418823	4.9312286	-1.5414429
923717291558521	1.62117	5.430588	-1.7906342
923717299950855	1.4015961	6.1118164	-2.0685425
923717308343189	0.9955139	6.956482	-2.417862
923717316735523	0.34466553	7.9170837	-2.8353424
923717325127857	-0.41975403	8.877045	-3.2983093
923717333520191	-0.9647522	9.660645	-3.7957306
923717341912525	-1.3944702	10.046494	-4.2912445
923717350304859	-2.3069305	9.982437	-5.1321716
923717358697193	-2.9348145	10.137833	-6.118698
923717367089527	-3.1324158	10.779739	-6.7467957
923717375481861	-3.0598602	11.852509	-6.5792847
923717383874195	-3.1371002	12.83609	-5.733322
923717392266529	-3.6629333	13.571655	-4.604141
923717400658863	-4.4955444	13.933075	-3.9144897
923717409051197	-5.1985016	13.845459	-3.398346
923717417443531	-5.1561737	13.580872	-2.6933594
923717425835865	-3.85141	13.4952545	-1.5976715
923717434228199	-1.4013214	13.64772	-0.4423828
923717442620533	0.7742615	13.92807	0.13581848
923717451012867	1.7137756	13.798309	0.055221558
923717459405201	1.9094849	13.270508	0.09005737
923717467797535	2.1620483	12.739105	0.4600067
923717476189869	2.6949615	12.555817	0.42671204
923717484582203	2.5768433	12.71817	-1.9590302
923717492974537	1.9407654	12.111008	-8.027786
923717501366871	0.65065	11.238098	-5.698944
923717509759205	0.5347748	10.933151	-1.4167633
923717518151539	1.7200623	10.859741	2.3749847
923717526543873	3.274292	10.360565	4.952423
923717534936207	3.7772675	9.240311	5.3709106
923717543328541	3.1403503	8.544861	3.5654907
923717551720875	2.930725	8.058594	1.8799133
923717560113209	3.0551605	7.4690247	0.7483978
923717568505543	3.24115	6.8552704	0.14535522
923717576897877	3.296646	6.4013977	-0.263031
923717585290210	3.598816	5.930237	-0.8027649
923717593682544	3.377243	5.867386	-1.2281799
923717602074878	2.8991241	5.952286	-1.0102234
923717610467212	2.2513733	6.38266	-0.24610901
923717618859546	1.4757843	7.149292	0.7110596
923717627251880	0.6898651	8.004059	1.3694763
923717635644214	0.2461853	8.501556	1.5050659
923717644036548	0.222229	8.837097	1.2661743
923717652428882	0.46054077	9.38269	1.2041321
923717660821216	0.808609	10.049057	1.3730774
923717669213550	1.087326	10.646301	1.6403809
923717677605884	1.2187805	11.010666	1.718216
923717685998218	1.3763123	11.140274	1.1937866
923717694390552	1.2930145	10.673401	0.4459076
923717702782886	0.8991089	10.514893	-0.6485443
923717711175220	0.4126892	10.377701	-1.5113525
923717719567554	0.05744934	10.121048	-1.8313141
923717727959888	-0.048950195	9.775986	-1.6186829
923717736352222	-0.045959473	9.492844	-1.2029266
923717744744556	0.27954102	9.052109	-0.6700592
923717753136890	0.59773254	8.762741	-0.17460632
923717761529224	0.79896545	8.574524	0.22981262
923717769921558	0.9219513	8.428925	0.57901
923717778313892	1.0721436	8.282959	0.9377136
923717786706226	1.1319733	8.164307	1.1809845
923717795098560	1.0805054	8.018784	1.2561951
923717803490894	0.97354126	7.861679	1.2017212
923717811883228	0.80674744	7.785858	1.0135956
923717820275562	0.60040283	7.7968597	0.7723999
923717828667896	0.40592957	7.827545	0.61032104
923717837060230	0.30722046	7.884369	0.55548096
923717845452564	0.21253967	8.093369	0.41784668
923717853844898	-0.0101623535	8.288879	0.3642273
923717862237232	-0.24261475	8.459579	0.42074585
923717870629566	-0.37664795	8.589523	0.5279999
923717879021900	-0.3534088	8.652237	0.57588196
923717887414234	-0.034347534	8.613358	0.50909424
923717895806568	0.22389221	8.6132965	0.63235474
923717904198902	0.24745178	8.558472	0.68392944
923717912591236	0.18597412	8.537781	0.6741028
923717920983570	0.10498047	8.573944	0.6454315
923717929375904	-0.031784058	8.610687	0.63822937
923717937768238	-0.17834473	8.663528	0.60731506
923717946160572	-0.37005615	8.805496	0.31507874
923717954552906	-0.54286194	8.935333	0.21664429
923717962945240	-0.70085144	9.069305	0.25726318
923717971337574	-0.7998047	9.251526	0.39616394
923717979729908	-0.73924255	9.523544	0.6365509
923717988122242	-0.3866577	9.789001	0.74520874
923717996514576	0.007858276	9.946808	0.7335205
923718004906910	0.27749634	10.145233	0.62861633
923718013299244	0.39492798	10.303741	0.46150208
923718021691578	0.39019775	10.385544	0.22640991
923718030083912	0.33010864	10.461212	-0.102249146
923718038476246	0.18807983	10.550095	-0.3566742
923718046868580	0.1508789	10.567474	-0.36839294
923718055260914	0.19058228	10.604584	-0.22787476
923718063653248	0.34384155	10.640976	-0.15592957
923718072045582	0.55152893	10.682297	-0.21055603
923718080437916	0.6602783	10.770126	-0.23291016
923718088830250	0.77757263	10.771133	-0.020187378
923718097222584	0.7398834	11.003738	0.4431305
923718105614918	0.6629791	11.405731	0.7594147
923718114007252	0.55545044	11.942535	0.57450867
923718122399585	0.3934021	12.497879	-0.11010742
923718130791919	0.167099	12.861832	-0.71595764
923718139184253	0.03869629	13.033356	-0.7320099
923718147576587	-0.16793823	13.132492	-0.380661
923718155968921	-0.44329834	13.159576	-0.25367737
923718164361255	-0.615036	13.005676	-0.47587585
923718172753589	-0.5559845	12.6465	-0.8617554
923718181145923	-0.3209076	12.236877	-1.0177612
923718189538257	0.121520996	12.055008	-1.0228729
923718197930591	0.75904846	11.769943	-0.9797058
923718206322925	1.3782043	11.13623	-0.76356506
923718214715259	2.3309784	10.244217	-0.54385376
923718223107593	3.703308	9.56987	-0.87194824
923718231499927	4.8887177	9.824539	-2.4179993
923718239892261	4.8059845	10.546371	-2.970337
923718248284595	4.329315	11.009232	-1.8026123
923718256676929	3.782959	11.204102	-0.53616333
923718265069263	3.3058472	11.16806	0.2919159
923718273461597	2.9347076	10.973389	0.5272064
923718281853931	2.6317596	10.714218	0.18237305
923718290246265	2.572937	10.484894	-0.56637573
923718298638599	2.4917297	10.342178	-1.1646271
923718307030933	2.4119415	10.081207	-1.4754791
923718315423267	2.3199463	9.729538	-1.5461731
923718323815601	2.118988	9.40831	-1.4142303
923718332207935	1.5549622	9.285309	-0.94821167
923718340600269	0.78453064	9.218872	-0.080718994
923718348992603	0.4834137	9.126526	0.5626831
923718357384937	0.393219	9.030258	1.031189
923718365777271	0.424057	8.89888	1.2457886
923718374169605	0.5042877	8.707977	1.1143646
923718382561939	0.50331116	8.478546	0.61253357
923718390954273	0.48509216	8.1701355	-0.32011414
923718399346607	0.50787354	7.6947327	-1.0911713
923718407738941	0.74494934	7.1727905	-1.4473114
923718416131275	1.1061401	6.7351074	-1.5543213
923718424523609	1.4842834	6.4369965	-1.5959473
923718432915943	1.9432983	6.1908875	-1.4562378
923718441308277	2.157013	6.074585	-1.1779175
923718449700611	1.9233551	6.108383	-0.4445343
923718458092945	1.593277	6.1588287	1.3260803
923718466485279	1.223175	6.3064575	2.8384247
923718474877613	0.8796387	6.5390167	2.854538
923718483269947	0.8902283	6.489868	1.88768
923718491662281	1.3514404	6.3188934	1.0059967
923718500054615	1.7786865	6.3118134	0.45399475
923718508446949	2.106018	6.3683167	0.13076782
923718516839283	2.2967682	6.3941803	-0.084228516
923718525231617	2.3291473	6.3579407	-0.29231262
923718533623951	2.1807556	6.353058	-0.5393219
923718542016285	1.8428802	6.4287567	-0.8341217
923718550408619	1.6730194	6.4733887	-1.1808014
923718558800953	1.5549927	6.505127	-1.5095673
923718567193287	1.381134	6.566101	-1.7308044
923718575585621	1.1388855	6.7407227	-1.8283234
923718583977955	1.0113678	7.1933594	-1.9743347
923718592370289	0.7963562	7.809311	-2.3489532
923718600762623	0.36975098	8.2890625	-2.8741455
923718609154957	-0.06896973	8.63826	-3.3612976
923718617547291	-0.52931213	9.02948	-3.7507477
923718625939625	-1.1079254	9.627716	-4.0558777
923718634331959	-1.8246155	10.38118	-4.2874756
923718642724293	-2.7357788	11.2087555	-4.316696
923718651116627	-3.7514954	11.965485	-4.624649
923718659508960	-4.741165	12.666428	-4.879669
923718667901294	-5.6176147	13.277664	-4.861923
923718676293628	-6.296402	13.781952	-4.408066
923718684685962	-6.606964	14.300232	-3.2482605
923718693078296	-6.930954	14.794403	-2.7283173
923718701470630	-6.336014	14.450851	-2.7055664
923718709862964	-4.4855957	13.519165	-2.5712585
923718718255298	-2.2041168	12.791275	-2.0725098
923718726647632	-0.7034912	12.900482	-1.2550812
923718735039966	-0.2342987	13.08931	-0.317688
923718743432300	0.16157532	12.917923	0.41259766
923718751824634	0.65052795	12.75148	0.7362671
923718760216968	1.0936432	12.544006	0.97805786
923718768609302	1.394043	12.329056	1.0269165
923718777001636	1.6044006	12.213135	-0.028457642
923718785393970	2.1447906	12.294907	-4.933731
923718793786304	2.3647614	10.859451	-6.420288
923718802178638	1.8836212	9.435989	-3.3680115
923718810570972	1.8478546	8.861023	0.4919281
923718818963306	2.397232	8.91777	3.249771
923718827355640	2.8593292	8.743729	4.7217255
923718835747974	2.6449738	7.837448	4.506378
923718844140308	2.6308136	6.9664917	2.901474
923718852532642	2.8439484	6.4742126	1.1521301
923718860924976	3.1367188	6.186264	-0.14355469
923718869317310	3.372223	5.8389435	-0.95687866
923718877709644	3.496811	5.278717	-1.6500244
923718886101978	3.5350037	4.6598663	-2.3795319
923718894494312	3.318863	4.5498657	-2.633316
923718902886646	2.7755585	5.13797	-1.6191101
923718911278980	1.9706573	6.2365417	0.047729492
923718919671314	0.984848	7.647171	1.6594238
923718928063648	-0.057235718	9.178696	2.690918
923718936455982	-0.7926178	10.534897	3.0786896
923718944848316	-1.1083069	11.305801	2.3436584
923718953240650	-0.76412964	11.358978	1.3826752
923718961632984	-0.030654907	10.871231	0.6951752
923718970025318	0.8283081	10.143387	0.44659424
923718978417652	1.6735992	9.404816	0.5416565
923718986809986	2.1974487	8.427704	0.4313202
923718995202320	1.9654541	8.199799	0.13085938
923719003594654	1.6586609	8.054199	-0.6117401
923719011986988	1.3923187	8.012283	-1.5057983
923719020379322	1.1873474	8.152054	-2.1238403
923719028771656	1.0287933	8.448441	-2.1280518
923719037163990	0.8609009	8.7473755	-1.4108124
923719045556324	0.2110138	8.670242	-0.49028015
923719053948658	-0.7113495	8.41272	-0.4076233
923719062340992	-1.395935	8.322357	-0.5410919
923719070733326	-1.671936	8.408646	-0.57240295
923719079125660	-1.7753296	8.360748	-0.90078735
923719087517994	-1.5773315	8.446152	-1.0978088
923719095910328	-1.252533	8.6410675	-0.5807495
923719104302662	-1.212265	8.9444275	-0.02809143
923719112694996	-1.4551544	9.310669	0.43159485
923719121087330	-1.6911011	9.491943	0.84239197
923719129479664	-1.4350281	9.047852	1.2616425
923719137871998	-1.013794	8.55481	1.4664307
923719146264332	-0.8360596	8.379318	1.5220032
923719154656666	-0.7637787	8.052826	1.5178375
923719163049000	-0.6134491	7.6614685	1.4286804
923719171441334	-0.3576355	7.4455414	1.2464905
923719179833668	-0.22323608	7.5831146	1.0255737
923719188226002	-0.30134583	7.8437805	0.6369934
923719196618335	-0.2729187	8.021591	0.4019928
923719205010669	-0.21789551	8.322769	0.34803772
923719213403003	-0.14892578	8.7282715	0.3446045
923719221795337	-0.020477295	9.152771	0.2768097
923719230187671	0.24757385	9.529221	0.16226196
923719238580005	0.64785767	9.745972	0.078308105
923719246972339	1.2684479	9.854919	0.022628784
923719255364673	1.9626465	9.848129	0.004776001
923719263757007	2.6802368	9.803314	0.048934937
923719272149341	3.4129791	9.781235	0.1897583
923719280541675	4.162857	9.767166	0.4661255
923719288934009	4.7540894	9.863876	0.91278076
923719297326343	5.2308197	10.171524	1.3612366
923719305718677	5.763397	10.575333	1.831131
923719314111011	6.294876	11.006821	2.1893005
923719322503345	6.7249146	11.421127	2.3353271
923719330895679	6.9862213	11.769211	2.25766
923719339288013	7.0650635	12.012573	1.8556366
923719347680347	7.0484467	11.955093	1.2815857
923719356072681	6.752777	11.717194	0.44450378
923719364465015	6.057022	11.5876465	-0.6784668
923719372857349	5.1075287	11.795258	-1.8552704
923719381249683	4.4706726	12.242233	-2.4814453
923719389642017	4.3081665	12.18042	-1.8453522
923719398034351	4.0011444	11.934998	-0.99497986
923719406426685	3.5461578	11.803207	-0.7170563
923719414819019	2.7475433	11.85202	-2.3982391
923719423211353	1.4256134	12.114212	-6.0434723
923719431603687	-0.2515564	12.68515	-8.053314
923719439996021	1.0129089	12.61409	1.3440552
923719448388355	1.7837067	12.245682	2.4924774
923719456780689	2.1166077	12.167496	-2.44812
923719465173023	2.9629364	12.163315	-6.2295685
923719473565357	4.495056	11.917938	-3.8278198
923719481957691	4.8719025	11.580154	2.7475739
923719490350025	4.7833557	11.356796	6.1089783
923719498742359	4.859192	10.943649	7.5304565
923719507134693	4.915619	10.849548	7.360489
923719515527027	5.0071564	11.1194	5.277893
923719523919361	5.3343964	11.517136	1.3235474
923719532311695	6.1802826	11.849136	-3.4387512
923719540704029	7.041626	11.572678	-3.2453003
923719549096363	7.6632996	10.354691	-1.1833038
923719557488697	7.882187	8.872452	0.3148346
923719565881031	7.9638977	7.476822	0.5479889
923719574273365	7.983383	6.378586	-0.018325806
923719582665699	6.872711	5.72348	-0.22177124
923719591058033	3.9606476	5.988846	0.67778015
923719599450367	2.7272034	6.1751556	0.99664307
923719607842701	2.7338104	6.487488	0.9951477
923719616235035	3.098587	6.9848633	1.0302429
923719624627369	3.2009888	7.5224457	1.2607117
923719633019703	3.495819	7.822159	1.387619
923719641412037	3.653183	7.874222	1.5452576
923719649804371	3.6545105	7.6044464	1.8153687
923719658196705	3.716507	7.045883	2.0355225
923719666589039	3.8397827	6.3765717	2.015274
923719674981373	3.9667664	5.8205566	1.540741
923719683373707	4.2948	5.6684723	0.1630249
923719691766041	4.117569	5.6743164	-0.73313904
923719700158375	3.7338104	5.22316	-1.0193939
923719708550709	3.5491333	4.658844	-1.030304
923719716943043	3.5112915	4.111191	-0.86813354
923719725335377	3.3850098	3.5019531	-0.53816223
923719733727710	3.5808258	2.7753296	-0.46263123
923719742120044	3.556015	2.0761108	-0.61738586
923719750512378	2.9553528	1.6014252	-0.94203186
923719758904712	2.5088196	1.4792023	-1.3740845
923719767297046	2.6299286	1.5544281	-1.9013824
923719775689380	3.2022095	1.5700073	-2.4602203
923719784081714	3.5925446	1.6663666	-2.5760498
923719792474048	4.097519	2.0116882	-2.1843262
923719800866382	4.19281	2.6200104	-1.8170013
923719809258716	4.0773926	3.6217499	-1.9056091
923719817651050	4.08226	5.104431	-2.5764618
923719826043384	4.430359	7.011429	-3.5797424
923719834435718	4.943344	9.104263	-4.4149323
923719842828052	5.349884	11.254547	-5.2421875
923719851220386	5.290756	13.310654	-6.7489166
923719859612720	4.720566	15.031082	-8.560944
923719868005054	3.863968	16.27031	-9.914352
923719876397388	3.022934	17.014114	-10.114441
923719884789722	2.3537445	17.397964	-8.847153
923719893182056	1.2862701	17.060211	-6.915573
923719901574390	-0.20652771	15.515549	-4.209091
923719909966724	-1.4548035	13.873611	-3.338379
923719918359058	-0.9402008	12.55249	-3.9144897
923719926751392	2.6210938	11.2578125	-2.8391113
923719935143726	5.3029175	11.399948	-1.9534607
923719943536060	5.904587	12.7226715	-1.2619629
923719951928394	6.380371	13.467361	-0.68240356
923719960320728	6.6344147	13.432053	-0.11010742
923719968713062	6.4947357	13.025024	0.54649353
923719977105396	6.1053467	12.917404	1.2446442
923719985497730	6.109253	13.011124	1.4447937
923719993890064	5.746338	12.756226	-0.29122925
923720002282398	5.2170715	11.5112	-0.42945862
923720010674732	5.001892	9.256058	1.9694977
923720019067066	4.761902	6.578308	5.5509644
923720027459400	3.7573242	4.3871	7.6141357
923720035851734	3.61911	3.830307	5.307144
923720044244068	3.376587	3.3612976	4.0957184
923720052636402	3.0405731	3.104599	2.6497955
923720061028736	2.7096405	3.0457	0.80688477
923720069421070	2.5140686	3.1355133	-0.98516846
923720077813404	2.5803986	3.3526	-1.9852905
923720086205738	3.4414368	4.2166443	-1.287262
923720094598072	3.9705505	5.4147797	0.35131836
923720102990406	4.5906067	6.5297394	1.7204895
923720111382740	5.220871	7.326309	2.3951263
923720119775074	5.7009125	7.7687836	2.3851318
923720128167408	5.937439	8.033707	1.9785309
923720136559742	5.995041	8.375412	1.0666656
923720144952076	5.7905884	8.686188	-0.3358612
923720153344410	5.062622	8.834961	-2.168213
923720161736744	4.0813446	8.681839	-3.7797852
923720170129078	3.504776	8.160645	-3.9455566
923720178521412	4.043579	7.4421997	-1.5703888
923720186913746	4.2012634	7.1988373	0.591568
923720195306080	3.943222	7.250946	2.0393524
923720203698414	3.3722382	7.4644165	2.5446014
923720212090748	2.6017609	7.7662964	2.1987457
923720220483082	1.7817993	8.095337	1.1575928
923720228875416	1.0796051	8.393188	-0.36738586
923720237267750	0.80625916	8.536331	-1.108902
923720245660084	1.2644958	8.594315	-0.79707336
923720254052418	2.0821838	8.702972	-0.09484863
923720262444752	2.8121033	8.836716	0.74072266
923720270837085	3.156662	8.935852	1.4164429
923720279229419	3.1232758	8.970856	1.4262543
923720287621753	2.8986359	8.68457	1.0475311
923720296014087	2.8289337	8.336502	0.6556244
923720304406421	2.723114	8.07164	0.3874817
923720312798755	2.5204926	7.871292	0.25619507
923720321191089	2.2777863	7.6489105	0.19577026
923720329583423	2.1642303	7.316696	0.09869385
923720337975757	2.1437378	7.003296	0.09967041
923720346368091	2.2232056	6.8516846	-0.003753662
923720354760425	2.4034576	6.994644	-0.08526611
923720363152759	2.660324	7.3640747	-0.21295166
923720371545093	2.9609833	7.8327637	-0.42297363
923720379937427	3.290039	8.339783	-0.5842438
923720388329761	3.7375336	8.731461	-0.576416
923720396722095	4.156662	8.974808	-0.44999695
923720405114429	4.514847	9.190781	-0.2971344
923720413506763	4.8235016	9.468704	-0.09945679
923720421899097	5.10878	9.856567	0.16918945
923720430291431	5.386566	10.330841	0.44981384
923720438683765	5.5783234	10.628571	0.6193695
923720447076099	5.7838287	10.816498	0.68785095
923720455468433	5.9821777	10.801056	0.7938385
923720463860767	6.1375275	10.625229	0.88308716
923720472253101	6.201355	10.422913	0.83851624
923720480645435	6.1045837	10.363754	0.59490967
923720489037769	5.5059357	10.56134	0.08288574
923720497430103	4.7427673	10.894165	-0.98023987
923720505822437	4.1867065	11.501846	-2.408371
923720514214771	4.133316	12.241821	-2.2687073
923720522607105	4.5637817	12.851669	0.052825928
923720530999439	4.848938	13.196167	-0.010437012
923720539391773	4.588043	13.137756	-4.036484
923720547784107	3.7307587	13.250458	-6.1620026
923720556176441	3.1294556	13.644989	-5.9080505
923720564568775	3.4441986	13.838882	-2.8210754
923720572961109	4.2069397	13.408493	0.8555298
923720581353443	3.1323242	12.709579	-2.1444855
923720589745777	2.2462463	13.147232	-5.4126587
923720598138111	4.0772705	12.996307	-4.4369965
923720606530445	7.354721	12.102737	-0.24176025
923720614922779	9.287033	11.101517	5.089203
923720623315113	8.101868	10.614868	9.106934
923720631707447	6.90921	10.036163	9.748322
923720640099781	7.2537537	9.278534	7.2046204
923720648492115	7.8995667	8.820847	3.7701874
923720656884449	8.478088	8.836609	0.4988861
923720665276783	8.837418	9.050308	-1.7657318
923720673669117	8.896866	9.010483	-2.509903
923720682061451	8.33754	8.589737	-1.6584625
923720690453785	7.53833	8.013947	-0.6503601
923720698846119	7.056244	7.512802	-0.19755554
923720707238453	6.844345	7.177002	-0.17338562
923720715630787	6.5784607	7.0436554	-0.3144989
923720724023121	5.869522	7.0778656	-0.29045105
923720732415455	4.621292	7.102173	0.34934998
923720740807789	3.8436737	6.873749	1.4096375
923720749200123	3.4882202	6.369156	2.2559814
923720757592457	3.4693909	5.7855988	2.9361877
923720765984791	3.4729767	5.3681793	3.3474426
923720774377125	3.2207031	5.2921143	3.2125397
923720782769459	2.9857025	5.5780487	2.0012817
923720791161793	2.9452362	6.171768	0.562973
923720799554127	2.8031921	6.760727	-0.21603394
923720807946460	2.4764252	7.2648315	-0.31851196
923720816338794	1.9750061	7.5971375	0.12689209
923720824731128	1.322464	7.6132965	0.9377289
923720833123462	0.31149292	6.929352	1.7841797
923720841515796	0.16253662	5.512146	2.0883484
923720849908130	0.9356079	4.4111786	2.0007324
923720858300464	2.1606903	3.6904907	1.6738892
923720866692798	3.3065338	3.3478699	1.2445374
923720875085132	3.8404388	3.319046	0.8280182
923720883477466	3.5827484	3.2986755	0.2677765
923720891869800	3.6883698	2.9093018	-0.0670166
923720900262134	3.9645233	2.3240051	-0.40797424
923720908654468	4.1778107	1.7766418	-0.8947296
923720917046802	4.304001	1.4273224	-1.6235046
923720925439136	4.487793	1.3476105	-2.6171875
923720933831470	4.5880585	1.5549622	-3.7590027
923720942223804	4.7573853	2.0209656	-4.756119
923720950616138	5.099472	2.8291626	-5.514572
923720959008472	5.7495117	4.0636597	-6.1148987
923720967400806	6.7503204	5.7670135	-6.5121613
923720975793140	7.92778	7.8882904	-6.5567017
923720984185474	8.237854	10.072723	-6.4849243
923720992577808	7.6439056	12.173248	-6.3885345
923721000970142	6.9863434	14.207306	-6.689789
923721009362476	6.285553	16.033737	-7.255722
923721017754810	5.39888	17.385391	-7.8440857
923721026147144	4.2159576	17.914917	-8.185455
923721034539478	3.0965118	17.19577	-8.1875
923721042931812	1.8898163	15.536896	-6.8083496
923721051324146	0.6546173	13.6384735	-4.744171
923721059716480	0.05732727	12.093216	-2.5691376
923721068108814	0.95199585	11.218658	-0.8666229
923721076501148	3.8572693	10.917984	-0.03816223
923721084893482	6.1837463	11.119659	0.059631348
923721093285816	7.4174194	11.242813	-0.05458069
923721101678150	8.317825	11.235123	-0.205307
923721110070484	8.931564	11.073898	-0.23762512
923721118462818	9.283676	10.747711	-0.08683777
923721126855152	9.46373	10.239532	0.21255493
923721135247486	9.332321	9.562027	0.87350464
923721143639820	8.9375	8.498627	1.4116821
923721152032154	8.499588	6.993973	0.612381
923721160424488	7.882889	5.5284424	0.10441589
923721168816822	6.9531097	4.5186768	1.111084
923721177209156	5.748871	4.0092773	2.9733887
923721185601490	4.705368	3.5410461	3.4717865
923721193993824	3.9479065	3.0125427	3.2260742
923721202386158	3.4704742	2.6144867	2.7623138
923721210778492	3.1688232	2.3986816	2.290741
923721219170826	2.9977112	2.4250183	1.8708954
923721227563160	3.043167	2.8351898	1.4794922
923721235955494	3.2605133	3.8551483	1.2810822
923721244347828	3.6331482	5.1865845	1.1991272
923721252740162	4.190628	6.5296783	1.0778809
923721261132496	4.746521	7.703781	0.87449646
923721269524830	5.131836	8.583939	0.5974884
923721277917164	5.33107	9.092331	0.29101563
923721286309498	5.4890747	8.954315	0.045013428
923721294701832	5.301834	8.359909	-0.14035034
923721303094166	5.0723267	7.5475006	-0.21504211
923721311486500	4.852463	6.701111	-0.20783997
923721319878834	4.6131744	5.9533386	-0.16540527
923721328271168	4.3133545	5.34227	-0.11000061
923721336663502	4.09964	4.8939667	0.05697632
923721345055835	3.8727722	4.58165	0.40859985
923721353448169	3.6202393	4.4396515	0.81033325
923721361840503	3.318512	4.4402313	1.1823578
923721370232837	2.9631653	4.4545746	1.4925079
923721378625171	2.5919647	4.2633514	1.7533264
923721387017505	2.419464	4.114792	1.7872162
923721395409839	3.269287	3.8436584	1.5534515
923721403802173	4.9806366	3.6414642	1.5645142
923721412194507	7.3001404	3.4658508	1.8668976
923721420586841	10.106567	3.2484589	2.2525482
923721428979175	13.504562	3.0144348	2.3832397
923721437371509	16.256348	2.9984894	2.3643036
923721445763843	18.47374	3.0979462	2.2514648
923721454156177	19.683304	3.3076172	1.9178314
923721462548511	17.886261	3.8608093	1.2518921
923721470940845	12.729172	4.703644	0.13156128
923721479333179	7.6575317	5.1594086	-1.5647736
923721487725513	6.063568	4.5650787	-2.3500366
923721496117847	6.4323883	3.8440247	-1.4919434
923721504510181	7.2411194	3.357727	-0.30952454
923721512902515	7.6436005	3.2094116	0.5471649
923721521294849	7.5125885	3.3410492	0.904953
923721529687183	7.5850677	3.5780182	0.9982605
923721538079517	8.371719	3.7604675	0.98928833
923721546471851	9.4014435	3.9126434	0.9440613
923721554864185	10.303116	4.018097	0.8631592
923721563256519	10.949966	4.09935	0.736557
923721571648853	11.325165	4.184616	0.57328796
923721580041187	11.455978	4.276779	0.4365387
923721588433521	11.541397	4.281128	0.23216248
923721596825855	11.680359	4.21402	0.0793457
923721605218189	11.657715	4.156952	-0.019073486
923721613610523	11.453964	4.150543	-0.093673706
923721622002857	11.217041	4.196121	-0.16014099
923721630395191	11.246857	4.252777	-0.16809082
923721638787525	11.394562	4.389786	-0.11766052
923721647179859	11.659363	4.549881	-0.08743286
923721655572193	12.0512085	4.677231	-0.10708618
923721663964527	12.4995575	4.8387604	-0.25117493
923721672356861	13.022934	5.126053	-1.0174713
923721680749195	13.942383	5.5345917	-3.813614
923721689141529	13.622696	6.326523	-7.923767
923721697533863	12.69841	6.842743	-8.474884
923721705926197	12.55603	7.811844	-10.683899
923721714318531	14.050583	8.671936	-11.583939
923721722710865	16.471771	8.590912	-8.205994
923721731103199	15.887299	7.8831787	-9.389862
923721739495533	14.485901	6.6408997	-6.935547
923721747887867	14.324493	5.3552856	-1.1078644
923721756280201	14.426453	4.4686737	4.9067383
923721764672535	14.198547	3.9723969	9.25589
923721773064869	13.463867	3.6102142	11.280106
923721781457203	12.332687	3.2066498	10.92128
923721789849537	12.1436	2.8201752	10.192474
923721798241871	11.875793	2.6796265	9.340607
923721806634205	11.646927	2.6623688	8.583527
923721815026539	11.521713	2.6397095	7.733551
923721823418873	11.525589	2.5089722	6.586685
923721831811207	11.791794	2.203888	5.698349
923721840203541	12.176056	1.7523346	4.8619995
923721848595875	12.1966095	1.5099487	3.9571075
923721856988209	11.964767	1.2799683	3.2952423
923721865380543	11.5516205	0.9950409	3.0701752
923721873772877	10.954437	0.70381165	3.1934052
923721882165210	10.106995	0.45755005	2.950119
923721890557544	8.965729	0.2582245	2.812271
923721898949878	7.946579	0.09144592	2.7860565
923721907342212	6.7266846	-0.036102295	3.00148
923721915734546	5.6115265	-0.14762878	3.36232
923721924126880	5.1621094	-0.2505188	3.6449127
923721932519214	5.1272125	-0.20166016	3.7496033
923721940911548	5.371231	0.07923889	2.5801544
923721949303882	6.370407	1.8774567	-3.8330078
923721957696216	8.068146	3.8626099	-7.8202972
923721966088550	9.296066	4.9486694	-6.7345734
923721974480884	8.587006	4.8525696	-3.8688354
923721982873218	6.97583	4.288254	-0.9276123
923721991265552	6.022629	3.7718353	1.5238495
923721999657886	5.5098724	3.3314362	3.30719
923722008050220	5.4259186	2.822937	4.2314453
923722016442554	5.461502	2.066681	4.245117
923722024834888	5.2592926	0.9902191	3.4146118
923722033227222	5.3580933	0.09484863	1.845932
923722041619556	5.6187897	-0.6612396	0.6370392
923722050011890	5.7429047	-1.1872864	-0.020111084
923722058404224	5.685074	-1.5339661	-0.32563782
923722066796558	5.4471436	-1.7499695	-0.51937866
923722075188892	5.0772705	-1.8626709	-0.7493286
923722083581226	4.831253	-1.8879852	-0.80096436
923722091973560	4.786331	-1.8560791	-1.0197754
923722100365894	4.972	-1.8294373	-1.5296783
923722108758228	5.488434	-1.8778839	-2.3266907
923722117150562	6.307968	-1.9765778	-3.2544403
923722125542896	7.2734222	-1.98909	-4.0560455
923722133935230	8.195648	-1.6052399	-4.5146637
923722142327564	9.610138	-0.7944946	-4.8919525
923722150719898	11.919678	0.44244385	-6.116394
923722159112232	15.050201	2.2678528	-8.48056
923722167504566	18.444199	4.740204	-11.59404
923722175896900	21.111115	7.596634	-14.320572
923722184289234	21.304428	9.525803	-14.571487
923722192681568	19.530518	10.190933	-11.46875
923722201073902	16.736282	9.403244	-7.395935
923722209466236	13.719254	7.497696	-4.8363953
923722217858570	11.187332	5.2760468	-4.306473
923722226250904	9.513611	3.6091003	-4.1343384
923722234643238	7.851349	2.5765228	-2.761612
923722243035572	6.997589	1.6811066	-1.546341
923722251427906	6.877655	1.1755066	-0.73716736
923722259820240	7.7742004	0.9073334	-0.20133972
923722268212574	9.466446	0.8004303	0.2854309
923722276604908	11.136551	0.9724426	0.9583435
923722284997242	12.315048	1.5128326	2.3661346
923722293389576	13.756699	1.9641724	3.300888
923722301781910	14.403259	2.3352509	3.2085266
923722310174244	14.7323	2.4240723	2.5785675
923722318566578	14.749634	2.1502075	1.9371338
923722326958912	13.526184	1.7364349	1.5060272
923722335351246	11.551132	1.3186951	1.3963623
923722343743580	9.626541	0.8957977	1.5393829
923722352135914	8.220367	0.4337921	1.7381897
923722360528248	7.1918335	0.032073975	1.9424744
923722368920582	6.17601	-0.17280579	2.153534
923722377312916	4.9026337	-0.080078125	2.3859558
923722385705250	3.7642822	0.18547058	2.447464
923722394097584	3.3920746	0.46995544	2.6423492
923722402489918	3.9868927	0.81326294	2.962616
923722410882252	5.4691772	1.2375793	3.3962708
923722419274585	7.5001373	1.7625122	3.9174347
923722427666919	9.4943695	2.4029236	4.464905
923722436059253	11.471466	3.087799	4.489746
923722444451587	12.713058	3.6156921	4.0536194
923722452843921	12.945587	3.8965302	3.5100708
923722461236255	12.488174	3.9386292	2.9060516
923722469628589	11.560181	3.823578	2.1892548
923722478020923	10.063049	3.734787	1.3849487
923722486413257	8.795807	3.5776062	0.9875946
923722494805591	8.045776	3.4022217	0.76345825
923722503197925	7.730835	3.2394562	0.6100311
923722511590259	7.587921	3.1414795	0.44483948
923722519982593	7.4381866	3.1439972	0.20632935
923722528374927	7.324051	3.219452	-0.13624573
923722536767261	7.2303314	3.3590698	-0.38716125
923722545159595	7.212387	3.5991516	-0.7252655
923722553551929	6.9254913	4.273773	-5.8621216
923722561944263	6.922058	4.935974	-11.058548
923722570336597	7.605011	4.9750366	-10.325195
923722578728931	8.377258	4.203766	-3.923584
923722587121265	8.909424	3.6399384	0.21165466
923722595513599	8.971222	3.399002	2.6125793
923722603905933	8.627823	3.4670563	3.3166046
923722612298267	8.144241	3.6336517	3.0381165
923722620690601	7.8217926	3.72937	2.4938507
923722629082935	7.8969574	3.7996674	1.9627533
923722637475269	8.090179	3.7666779	1.5331573
923722645867603	8.037552	3.6622162	1.1992645
923722654259937	7.9120483	3.5082092	0.94825745
923722662652271	7.8440094	3.357666	0.73605347
923722671044605	7.9236298	3.2516937	0.5654907
923722679436939	8.204773	3.171936	0.55451965
923722687829273	8.852524	3.262741	0.7129364
923722696221607	9.572342	3.3259583	0.92910767
923722704613941	10.357605	3.3766632	1.1432343
923722713006275	11.141525	3.409134	1.3484039
923722721398609	11.8063965	3.4466248	1.5442963
923722729790943	12.227142	3.610138	1.6729279
923722738183277	12.351471	3.7664185	1.6733704
923722746575611	12.243805	3.7865906	1.5566406
923722754967945	11.832138	3.717682	1.3280334
923722763360279	11.282715	3.5736542	0.9271393
923722771752613	10.811569	3.397812	0.072906494
923722780144947	10.381699	3.3645172	-2.0255127
923722788537281	9.602936	3.9032898	-4.4348755
923722796929615	9.717972	4.78125	-4.142685
923722805321949	10.992081	6.3500366	-3.5203857
923722813714283	13.065155	8.401962	-3.1557617
923722822106617	15.015854	10.176529	-2.920227
923722830498951	15.202286	10.240341	-4.030884
923722838891285	14.135284	9.661819	-5.694458
923722847283619	13.769104	8.859268	-4.547714
923722855675953	13.554291	8.05127	-1.1515045
923722864068287	13.530136	7.4484406	2.5799713
923722872460621	14.062714	7.0444946	4.7732697
923722880852955	15.037842	6.2522736	4.93927
923722889245289	15.370697	5.5940094	4.601898
923722897637623	14.8815155	4.9734344	4.8767853
923722906029957	13.708008	4.579834	5.7562866
923722914422291	12.934402	4.3159485	6.7591553
923722922814625	13.564453	3.9064941	7.1761627
923722931206959	14.261261	3.2891998	6.444565
923722939599293	14.1475525	2.7666779	5.536331
923722947991627	13.5603485	2.2761078	4.9770203
923722956383960	12.923279	1.7563324	4.4239044
923722964776294	12.3459015	1.296463	3.7544098
923722973168628	11.70755	1.0303955	3.1159363
923722981560962	11.115921	0.8556366	2.7527618
923722989953296	10.8836975	0.48562622	2.6520386
923722998345630	10.444962	-0.076171875	2.9964752
923723006737964	7.8197327	-0.6251831	10.479233
923723015130298	5.573471	-1.3371735	16.016312
923723023522632	7.6993103	-2.5284882	5.4531097
923723031914966	6.039276	-3.4317932	7.278656
923723040307300	4.8356323	-2.6166077	3.5816193
923723048699634	3.4543	-0.26438904	-5.208435
923723057091968	3.3214111	1.6616211	-9.631531
923723065484302	4.9694977	2.5097046	-8.057587
923723073876636	7.617859	3.1363373	-6.738022
923723082268970	9.65773	3.8890686	-5.06604
923723090661304	10.226349	4.3024445	-1.9278564
923723099053638	8.626495	4.1309967	1.3111115
923723107445972	6.572937	3.6096191	4.270294
923723115838306	5.3297424	2.9531708	6.619644
923723124230640	4.9308624	2.2568817	8.05072
923723132622974	4.842743	1.635086	7.961624
923723141015308	5.538025	1.0571747	5.6724854
923723149407642	6.411484	0.48799133	2.7102356
923723157799976	6.9689636	-0.15097046	0.15429688
923723166192310	7.0238495	-0.784729	-1.6554565
923723174584644	6.721451	-1.2303772	-2.942749
923723182976978	6.509598	-1.5066681	-3.2161102
923723191369312	6.136032	-1.718277	-2.8299103
923723199761646	5.655655	-1.9501038	-2.3152466
923723208153980	5.217682	-2.1434784	-2.0156097
923723216546314	5.0053406	-2.2826996	-2.0774994
923723224938648	5.2019806	-2.401291	-2.493393
923723233330982	5.7830963	-2.3031006	-3.127121
923723241723316	6.533905	-2.0428772	-3.6699524
923723250115650	7.5906525	-1.7420349	-3.8525696
923723258507984	8.903366	-1.2318573	-3.7344513
923723266900318	10.579376	-0.38015747	-3.797882
923723275292652	12.98735	0.7977295	-4.8861237
923723283684986	16.400787	2.1257324	-7.2389526
923723292077320	18.592514	3.7085419	-9.398483
923723300469654	18.82985	4.656906	-11.608612
923723308861988	16.676605	4.7933197	-10.945251
923723317254322	13.333969	4.638687	-8.812683
923723325646656	11.1827545	5.036194	-10.833466
923723334038990	10.511993	5.1918945	-9.507599
923723342431324	9.435165	4.917923	-6.506073
923723350823658	9.061264	4.6295624	-3.9953918
923723359215992	9.495926	4.3511963	-2.5276031
923723367608326	10.776596	4.1076813	-2.0459595
923723376000660	13.056656	4.025772	-2.2440186
923723384392994	15.136353	3.9932861	-2.4857025
923723392785328	16.16249	4.0990143	-1.5245819
923723401177662	17.59578	3.7403107	0.70980835
923723409569996	19.266495	3.111496	3.5593414
923723417962330	20.00879	2.6713715	5.693619
923723426354664	18.222397	2.756546	5.5197754
923723434746998	14.84256	2.6638336	1.9744263
923723443139332	11.617142	1.4894714	2.3886871
923723451531666	8.409363	0.50405884	3.7260132
923723459924000	5.525177	-0.041259766	4.8088226
923723468316334	3.4027557	-0.27326965	5.09787
923723476708668	2.2775116	-0.42129517	4.5658875
923723485101002	1.438034	-0.42430115	4.0534363
923723493493335	1.2888947	-0.48646545	3.7600403
923723501885669	1.5575256	-0.5057373	3.7766113
923723510278003	2.450531	-0.43659973	4.2132874
923723518670337	4.244507	-0.23345947	5.011688
923723527062671	7.1094513	0.18177795	5.9059296
923723535455005	10.167236	0.7294922	6.4145813
923723543847339	12.189667	1.3686523	6.3762054
923723552239673	13.143433	2.083023	5.696869
923723560632007	13.068527	2.7318268	4.5274506
923723569024341	12.210403	3.1384583	3.2061005
923723577416675	10.928589	3.1674347	2.0944366
923723585809009	9.992371	2.9361267	1.4453888
923723594201343	9.204697	2.7135468	1.0429993
923723602593677	8.471848	2.5622253	0.756073
923723610986011	7.8156586	2.4726257	0.563385
923723619378345	7.321106	2.4046326	0.45518494
923723627770679	7.076126	2.337204	0.3591919
923723636163013	7.0392303	2.4289398	0.32130432
923723644555347	7.1807404	2.564392	0.25234985
923723652947681	7.4456024	2.7453308	0.22766113
923723661340015	7.8128357	2.9757385	0.21609497
923723669732349	8.230331	3.260971	0.14970398
923723678124683	8.556366	3.6059418	0.016098022
923723686517017	8.791641	3.900772	-0.2894745
923723694909351	9.221939	4.0788727	-0.56163025
923723703301685	9.603973	4.23407	-1.2366028
923723711694019	9.4157715	4.5306854	-4.433609
923723720086353	8.567856	4.92865	-9.89296
923723728478687	8.464172	4.793045	-8.964722
923723736871021	9.611176	4.3319244	-3.6271667
923723745263355	9.601685	4.0444794	-0.5072479
923723753655689	8.62323	3.869339	1.200592
923723762048023	7.1866302	3.7988434	1.91008
923723770440357	5.987152	3.8142548	1.8567963
923723778832691	5.74263	3.7814484	1.571518
923723787225025	6.561737	3.6479034	1.275589
923723795617359	7.6404724	3.560089	1.0665588
923723804009693	8.552658	3.5762482	0.87068176
923723812402027	9.17804	3.6797485	0.7063904
923723820794361	9.666122	3.8026276	0.64460754
923723829186695	10.343109	3.8933563	0.7054138
923723837579029	11.136871	3.9962769	0.8800354
923723845971363	11.743698	3.9883575	1.0182343
923723854363697	11.978928	3.9625702	1.0830688
923723862756031	11.892059	3.9386902	1.0896301
923723871148365	11.675705	3.878601	1.0782776
923723879540699	11.348679	3.760315	1.0375061
923723887933033	11.069031	3.6929626	0.9582977
923723896325367	10.925705	3.7180328	0.8286438
923723904717701	10.815933	3.8050842	0.7114258
923723913110035	10.781036	3.9486084	0.63764954
923723921502369	11.060104	4.1769104	0.6088867
923723929894703	12.222107	4.5417175	0.6466522
923723938287037	13.563248	5.114258	0.5554657
923723946679371	14.163223	6.0071716	-2.4542694
923723955071705	13.406555	7.2760468	-10.052322
923723963464039	12.725449	8.52684	-18.20224
923723971856373	14.979446	8.948242	-18.54654
923723980248707	20.231796	7.8995514	-9.0338745
923723988641041	20.486588	7.1375427	-6.720764
923723997033375	19.236298	6.2536316	-5.3015137
923724005425709	17.501587	5.2624817	-1.2980652
923724013818043	15.914825	4.388382	4.804718
923724022210377	14.865784	3.9035797	9.273621
923724030602710	14.435623	3.4069977	10.956497
923724038995044	13.42067	2.949112	11.15918
923724047387378	13.362198	2.45961	10.960968
923724055779712	13.577148	2.0787048	10.429062
923724064172046	13.396973	1.9056244	9.518021
923724072564380	12.695526	1.9225464	8.221115
923724080956714	12.101288	1.908371	6.823059
923724089349048	12.096512	1.4796906	6.053406
923724097741382	12.374054	1.0395203	5.1192017
923724106133716	12.419312	0.67755127	4.3246613
923724114526050	12.000153	0.3460846	3.8237457
923724122918384	11.287308	-0.091812134	3.4748688
923724131310718	10.332062	-0.58781433	3.8764496
923724139703052	9.183395	-0.87557983	4.615341
923724148095386	8.0634	-1.0875244	5.1576385
923724156487720	6.959961	-1.1629028	5.294327
923724164880054	5.7918243	-1.105957	4.9962006
923724173272388	4.5625763	-1.0478821	4.4352875
923724181664722	4.368744	-1.0727386	3.827942
923724190057056	4.305649	-1.0060272	3.3890228
923724198449390	4.2938232	-0.77619934	2.9020996
923724206841724	4.6554413	-0.44570923	2.0172577
923724215234058	5.7191925	0.2765808	-0.5457001
923724223626392	7.5562286	1.9930573	-6.4051666
923724232018726	8.89563	3.241043	-7.3505554
923724240411060	8.341278	3.2443237	-5.0389404
923724248803394	7.2267303	3.1521606	-2.0436401
923724257195728	6.2954254	3.132782	0.82821655
923724265588062	5.858246	3.0487366	3.069046
923724273980396	5.673401	2.6612244	4.3001556
923724282372730	5.6444855	1.8885498	4.3998566
923724290765064	5.582657	0.78105164	3.5610657
923724299157398	5.8468323	-0.2637024	2.063095
923724307549732	6.248108	-1.0984802	0.48654175
923724315942066	6.47995	-1.6869049	-0.6802368
923724324334400	6.353943	-2.082138	-1.3487091
923724332726734	6.0279236	-2.3553162	-1.7345581
923724341119068	5.649002	-2.5237274	-1.929184
923724349511402	5.3473663	-2.7136078	-2.2236786
923724357903736	5.2789917	-2.9011078	-2.8211365
923724366296070	5.600067	-3.0351563	-3.7868347
923724374688404	6.419281	-3.0779266	-5.000351
923724383080738	7.613098	-2.5064697	-5.5442963
923724391473072	9.131805	-1.6640015	-5.302994
923724399865406	11.279221	-0.57884216	-5.1911163
923724408257740	13.82074	0.9554901	-5.8958435
923724416650074	16.193298	3.0332947	-7.5025024
923724425042408	17.65509	5.462082	-9.279297
923724433434742	17.107407	7.6254883	-9.739914
923724441827076	15.698212	8.766418	-8.894058
923724450219410	14.36528	8.788956	-7.6710663
923724458611744	13.60968	7.5038605	-6.838791
923724467004078	13.317902	5.296997	-6.636566
923724475396412	12.678299	3.411377	-6.519104
923724483788746	11.938278	2.4648285	-4.6887665
923724492181080	12.047363	1.8550262	-3.0740356
923724500573414	12.943756	1.4294891	-1.986969
923724508965748	14.291885	1.1882477	-1.2838593
923724517358082	15.677429	1.2221985	-0.62397766
923724525750416	16.753662	1.6645203	0.35768127
923724534142750	17.059738	2.2846527	1.8123322
923724542535084	17.567657	2.2228088	3.048523
923724550927418	16.815445	1.9252167	3.366043
923724559319752	14.578232	1.5573425	2.8342438
923724567712085	11.413696	1.1606903	2.003296
923724576104419	8.372986	0.7403259	1.7086487
923724584496753	6.021805	0.3432312	2.0148315
923724592889087	4.481964	-0.07128906	2.217575
923724601281421	3.6298523	-0.3713684	2.1555023
923724609673755	3.1011353	-0.44584656	1.970581
923724618066089	2.6100006	-0.26246643	1.9221802
923724626458423	2.2506256	0.0821991	2.2286682
923724634850757	3.0203552	0.29423523	2.7202911
923724643243091	4.575638	0.58662415	3.0276337
923724651635425	6.8799896	0.9900818	3.3967438
923724660027759	9.57251	1.5045624	3.9121704
923724668420093	12.076172	2.0969086	4.4724884
923724676812427	13.721252	2.697281	4.7567596
923724685204761	13.8693695	3.3260803	4.6494293
923724693597095	13.272018	3.6838837	4.125458
923724701989429	12.128876	3.8225098	3.317276
923724710381763	10.751297	3.8634338	2.5329132
923724718774097	9.398193	3.898346	2.028061
923724727166431	8.053299	3.8615723	1.7099762
923724735558765	7.025299	3.8773499	1.5470123
923724743951099	6.334732	3.916687	1.6075287
923724752343433	5.559723	4.956894	2.1921082
923724760735767	5.546585	5.492218	2.6820831
923724769128101	6.852051	4.0002136	2.4056091
923724777520435	7.3105316	2.7299042	1.9451752
923724785912769	7.112732	2.4362946	1.3629303
923724794305103	7.0725555	2.458496	0.89520264
923724802697437	7.223282	2.6003265	0.48666382
923724811089771	7.482376	2.7922363	0.15223694
923724819482105	7.7639313	3.0112152	-0.058303833
923724827874439	8.083145	3.2080383	-0.14741516
923724836266773	8.625458	3.2442017	-0.25524902
923724844659107	8.9939575	3.2566376	-0.29840088
923724853051441	9.131195	3.2551727	-0.32920837
923724861443775	9.042206	3.2678223	-0.3744812
923724869836109	8.798538	3.3300476	-0.4317932
923724878228443	8.598129	3.4506836	-0.48164368
923724886620777	8.554672	3.518692	-0.5359192
923724895013111	8.404068	3.6338959	-0.4868164
923724903405445	8.298172	3.753357	-0.39570618
923724911797779	8.277924	3.8194275	-0.29286194
923724920190113	8.3089905	3.797699	-0.19017029
923724928582447	8.479858	3.7410736	-0.15991211
923724936974781	8.819168	3.7417755	-0.028823853
923724945367115	9.333786	3.704605	0.06585693
923724953759449	9.8684845	3.6629791	0.12921143
923724962151783	10.397369	3.6239471	0.19042969
923724970544117	10.98085	3.5702057	0.27127075
923724978936451	11.455429	3.5432892	0.36799622
923724987328785	11.738815	3.5726624	0.46073914
923724995721119	11.987045	3.5848846	0.4834137
923725004113453	12.054962	3.5433655	0.39414978
923725012505787	11.856522	3.4260406	0.04685974
923725020898121	11.415298	3.2395477	-0.68522644
923725029290455	10.886734	3.0828247	-1.3968048
923725037682789	10.549408	2.9675598	-1.5462341
923725046075123	10.510361	2.996109	-1.6044006
923725054467457	11.130066	3.207306	-2.1119385
923725062859791	12.594482	3.6670532	-3.4915466
923725071252125	14.773697	4.518692	-5.688385
923725079644459	16.324356	5.936157	-5.8812256
923725088036793	16.620453	7.04097	-4.0254974
923725096429127	16.437119	7.671341	-3.4186554
923725104821460	16.178024	7.9256287	-4.425171
923725113213794	16.10263	7.7047577	-5.8414307
923725121606128	16.301285	6.8115234	-5.4147186
923725129998462	16.67424	5.6136017	-2.848999
923725138390796	16.964935	4.9160004	1.7457428
923725146783130	16.977646	4.4476776	5.6036377
923725155175464	16.08934	4.008194	8.247696
923725163567798	14.269455	3.5113373	9.697922
923725171960132	12.241104	3.006073	9.969788
923725180352466	11.715286	2.6114502	9.98172
923725188744800	11.901718	2.3439484	9.081757
923725197137134	11.99881	2.1901093	8.046738
923725205529468	11.823288	2.062439	7.102783
923725213921802	11.427292	1.8284149	6.363205
923725222314136	10.947876	1.3509369	5.9537354
923725230706470	11.636093	0.7653656	5.3902893
923725239098804	12.21727	0.33502197	4.5376434
923725247491138	12.011795	0.20480347	3.8340454
923725255883472	11.330765	0.17756653	3.6078033
923725264275806	10.674347	-7.9345703E-4	3.8687286
923725272668140	10.229721	-0.41796875	4.179016
923725281060474	9.58432	-0.83044434	4.53714
923725289452808	8.412643	-1.0009613	4.3520355
923725297845142	7.3457184	-0.9899597	3.8381348
923725306237476	6.3424377	-0.84962463	3.3095398
923725314629810	5.3920135	-0.6876221	3.0283356
923725323022144	4.846863	-0.6463165	3.081604
923725331414478	4.9052734	-0.6502075	3.275299
923725339806812	5.1015167	-0.564682	3.2788544
923725348199146	5.4785156	-0.40156555	3.0982819
923725356591480	5.8881836	0.018188477	1.7613068
923725364983814	6.6070404	1.0468903	-1.633667
923725373376148	8.665695	3.2523193	-7.511429
923725381768482	8.927902	3.629181	-4.3000183
923725390160816	7.641098	3.462677	-1.498764
923725398553150	6.5602264	3.025238	0.6871643
923725406945484	5.92601	2.223343	2.2394714
923725415337818	5.4356537	1.0981598	3.171692
923725423730152	5.1197968	0.10331726	3.1684875
923725432122486	5.5154114	-0.7445679	1.9697113
923725440514820	5.9982605	-1.3802948	0.54559326
923725448907154	6.182251	-1.7895203	-0.56481934
923725457299488	6.0195313	-2.0381622	-1.139389
923725465691822	5.5931854	-2.2175446	-1.1849976
923725474075041	4.95459	-2.355957	-0.9510498
923725482467375	4.39682	-2.4309082	-0.8439789
923725490859709	4.2085876	-2.4757233	-0.94610596
923725499252043	4.7213287	-2.4569855	-1.429657
923725507644377	5.8464203	-2.2949371	-2.1782837
923725516036711	7.298218	-1.9625092	-2.9686584
923725524429045	8.980392	-1.5485535	-3.729187
923725532821379	11.76796	-0.9740143	-5.8675995
923725541213713	15.579742	0.26541138	-9.618942
923725549606047	18.707962	2.1789246	-13.036499
923725557998381	19.91063	4.3559723	-14.329987
923725566390715	18.900513	6.3749237	-13.006699
923725574783049	16.394058	8.023087	-10.513519
923725583175383	14.189972	8.29483	-7.834839
923725591567717	13.148468	6.982254	-6.625702
923725599960051	12.265137	5.1500397	-5.271515
923725608352385	11.250458	3.5950928	-3.3813477
923725616744719	10.562897	2.6439362	-1.6201172
923725625137053	11.416336	2.0377655	-1.258194
923725633529387	13.187164	1.9157257	-0.15142822
923725641921720	15.295822	1.9899292	1.3192139
923725650314054	17.448822	2.3113403	2.8338318
923725658706388	19.4059	2.7767334	4.0479126
923725667098722	20.926392	3.081482	4.501953
923725675491056	21.834824	2.7902985	3.6721344
923725683883390	19.956726	1.8544312	2.2694855
923725692275724	15.176346	1.1822662	1.3945313
923725700668058	10.019409	0.74272156	0.9888916
923725709060392	5.9779205	0.37698364	0.90792847
923725717452726	3.3748932	-5.187988E-4	1.1151581
923725725845060	1.9741821	-0.232193	1.763443
923725734237394	1.3644104	-0.4022522	2.2492828
923725742629728	0.7388916	-0.353302	2.620758
923725751022062	0.2512207	-0.15052795	2.9070282
923725759414396	0.016159058	0.16984558	3.3345184
923725767806730	0.19528198	0.56155396	4.1923065
923725776199064	1.7906647	0.81204224	5.7151184
923725784591398	5.335205	1.1831207	7.386215
923725792983732	9.473099	1.626648	8.314606
923725801376066	12.616272	2.2587128	8.076309
923725809768400	14.410873	2.9924164	6.806366
923725818160734	15.352493	3.5814514	5.0611267
923725826553068	14.833115	3.9065552	3.490265
923725834945402	13.18956	3.860199	2.089325
923725843337736	11.684769	3.5908203	1.086792
923725851730070	10.2608795	3.3250732	0.4819336
923725860122404	8.902023	3.144165	0.20957947
923725868514738	7.78566	2.9664307	0.15135193
923725876907072	7.189926	2.7240448	0.18833923
923725885299406	6.957535	2.4537354	0.2618866
923725893691740	6.8139954	2.3292847	0.30023193
923725902084074	6.7343597	2.3690338	0.2743988
923725910476408	6.7977448	2.5238495	0.15603638
923725918868742	7.08873	2.734146	-0.062301636
923725927261076	7.472412	2.9916077	-0.24620056
923725935653410	7.8899994	3.1902313	-0.22717285
923725944045744	8.138809	3.3671722	-0.22183228
923725952438078	8.30426	3.4888458	-0.25585938
923725960830412	8.501648	3.5120544	-0.30715942
923725969222746	8.767761	3.4313965	-0.33973694
923725977615080	8.706116	3.5188751	-0.34570313
923725986007414	8.624161	3.6653595	-0.29464722
923725994399748	8.547012	3.8121338	-0.29136658
923726002792082	8.435104	3.9055634	-0.2602539
923726011184416	8.279297	3.8944244	-0.13990784
923726019576750	8.123657	3.7526398	0.06817627
923726027969084	8.013992	3.6340027	0.35333252
923726036361418	8.1548	3.432541	0.47743225
923726044753752	8.380447	3.3069763	0.6270447
923726053146086	8.73938	3.2592773	0.770874
923726061538420	9.330612	3.2424774	0.8856964
923726069930754	10.195251	3.2079773	1.0072021
923726078323088	11.080093	3.2420654	1.0986938
923726086715422	11.838409	3.2529755	1.2142487
923726095107756	12.3441925	3.2799835	1.3107452
923726103500090	12.511002	3.3447723	1.3458557
923726111892424	12.368668	3.4154663	1.3057861
923726120284758	12.043381	3.416748	1.2064514
923726128677092	11.753967	3.2867584	1.0277405
923726137069426	11.366501	3.1704712	0.77864075
923726145461760	10.896881	3.1240082	0.42059326
923726153854094	10.571747	3.1685638	0.02859497
923726162246428	10.554199	3.3023682	-0.4038391
923726170638762	10.78331	3.5041962	-1.1344299
923726179031095	11.157196	3.7335052	-4.184326
923726187423429	12.132004	4.3039246	-7.474182
923726195815763	14.13237	5.5472717	-8.762848
923726204208097	16.199066	7.006241	-7.241455
923726212600431	16.942093	7.891159	-4.1143646
923726220992765	15.611618	7.6310425	-2.5487976
923726229385099	14.185883	7.221283	-2.1719208
923726237777433	13.801834	6.9775543	-2.1104736
923726246169767	13.77449	6.6815643	-1.0561066
923726254562101	14.085999	6.1078644	1.1207886
923726262954435	14.948288	5.275589	3.597519
923726271346769	16.441162	4.6279755	4.934738
923726279739103	16.172318	4.3309937	5.774246
923726288131437	14.654572	4.075943	7.0756073
923726296523771	13.418594	3.6898804	8.171646
923726304916105	12.911713	3.2209625	8.599976
923726313308439	12.921143	2.7912292	8.158279
923726321700773	12.891693	2.4575348	7.086792
923726330093107	12.830078	2.1483917	6.5788574
923726338485441	12.865906	1.8688049	5.9582977
923726346877775	12.806961	1.5624695	5.20224
923726355270109	12.567841	1.2794495	4.318817
923726363662443	12.23465	1.056839	3.4901123
923726372054777	12.116821	0.79766846	3.227539
923726380447111	11.510361	0.29051208	3.294693
923726388839445	11.01828	-0.34725952	3.8854065
923726397231779	10.254532	-0.86125183	4.698303
923726405624113	8.7942505	-1.1118927	5.350952
923726414016447	6.689209	-1.0992126	5.458008
923726422408781	5.0285797	-1.0018616	4.8303375
923726430801115	4.300461	-0.8198242	4.1596527
923726439193449	3.927887	-0.77856445	3.7086792
923726447585783	3.999939	-0.7535095	3.4774475
923726455978117	4.5823975	-0.6862488	3.3546753
923726464370451	5.7224274	-0.22888184	2.0222626
923726472762785	7.3810577	1.5908661	-3.995041
923726481155119	8.956833	3.089035	-5.456604
923726489547453	8.984711	3.437729	-3.99852
923726497939787	8.197403	3.333435	-1.3417664
923726506332121	7.2321014	3.1126556	1.1906738
923726514724455	6.537689	2.828598	2.9069977
923726523116789	6.4040833	2.4796448	4.0426025
923726531509123	6.396347	1.5320892	4.170105
923726539901457	6.183365	0.37913513	3.5660858
923726548293791	6.079895	-0.6667633	2.3830261
923726556686125	6.12558	-1.4876099	1.0120392
923726565078459	6.167572	-2.1262817	-0.114608765
923726573470793	6.1015625	-2.7091675	-0.9046478
923726581863127	5.9296875	-3.1522675	-1.0789948
923726590255461	5.337036	-3.3306274	-1.4083252
923726598647795	4.55632	-3.3595428	-1.8824921
923726607040129	3.8819885	-3.323761	-2.4542694
923726615432463	3.6482544	-3.2832794	-3.0895538
923726623824797	4.21286	-3.3478851	-3.8022614
923726632217131	5.5439606	-3.2782288	-4.2146454
923726640609465	6.9480133	-2.8881836	-4.2727814
923726649001799	8.4734955	-2.3091583	-4.229019
923726657394133	10.385391	-1.59906	-4.5148163
923726665786467	12.981354	-0.67652893	-5.577713
923726674178801	16.402908	0.7709198	-7.787369
923726682571135	19.71724	2.8802185	-11.052109
923726690963469	20.449966	5.1208344	-11.665665
923726699355803	18.952438	6.9774323	-10.452377
923726707748137	16.046936	8.124878	-8.543854
923726716140470	13.006638	8.38472	-6.9813232
923726724532804	11.222992	7.3229218	-5.623398
923726732925138	10.235138	5.986908	-4.342621
923726741317472	10.083145	4.8551636	-3.1873474
923726749709806	11.074539	4.054291	-2.4640503
923726758102140	13.0625305	3.617691	-2.15831
923726766494474	15.402145	3.4841156	-1.8595886
923726774886808	17.535141	3.5391235	-0.7319946
923726783279142	19.07196	3.4835968	1.0728455
923726791671476	20.421906	2.9334106	2.987793
923726800063810	20.98796	2.1031952	3.8628998
923726808456144	19.455017	1.3092041	3.4694977
923726816848478	15.070236	0.8229675	2.6923828
923726825240812	10.219467	0.52674866	2.578064
923726833633146	6.4605255	0.18745422	3.1386871
923726842025480	4.063629	-0.21228027	3.7037659
923726850417814	2.5974731	-0.5456085	3.9805603
923726858810148	1.6354828	-0.70407104	4.008209
923726867202482	0.9170227	-0.6491852	4.0704193
923726875594816	0.2689209	-0.47921753	4.19368
923726883987150	-0.17016602	-0.10821533	4.5639954
923726892379484	0.23773193	0.121032715	5.438904
923726900771818	2.1114044	0.23413086	6.5391693
923726909164152	5.7319794	0.3330536	7.4289856
923726917556486	10.777313	0.53666687	7.7131805
923726925948820	14.887894	1.103302	7.4623566
923726934341154	16.509735	1.850174	6.192871
923726942733488	15.946884	2.679596	4.659256
923726951125822	14.13385	3.2723541	3.0778198
923726959518156	12.02179	3.4204865	1.6864166
923726967910490	10.438751	3.1641846	0.7870636
923726976302824	8.834549	2.8832092	0.4131012
923726984695158	7.642578	2.7438812	0.41860962
923726993087492	6.9690704	2.557129	0.5724182
923727001479826	6.72731	2.342743	0.72328186
923727009872160	6.7940826	2.1676178	0.7753906
923727018264494	7.094116	2.102768	0.7307434
923727026656828	7.440094	2.2593079	0.65496826
923727035049162	7.872162	2.5041504	0.5827942
923727043441496	8.333054	2.7373352	0.49542236
923727051833830	8.711472	2.9512482	0.359375
923727060226164	8.949951	3.1589813	0.21099854
923727068618498	9.075806	3.361847	0.16307068
923727077010832	8.973587	3.49617	0.055999756
923727085403166	8.865036	3.5467377	-0.008331299
923727093795500	8.712036	3.4949493	-0.1210022
923727102187834	8.679855	3.3868103	-0.2539215
923727110580168	8.774048	3.305725	-0.40541077
923727118972502	8.743866	3.3582458	-0.67181396
923727127364836	8.393982	3.637558	-1.247345
923727135757170	8.371155	3.7822113	-1.6588287
923727144149504	8.300461	3.8596344	-1.382904
923727152541838	8.02565	3.9087982	-0.68159485
923727160934172	7.6904144	3.968277	-0.001876831
923727169326506	7.8023224	4.0542755	0.35417175
923727177718840	8.862137	3.9136963	0.46183777
923727186111174	9.887253	3.692215	0.19232178
923727194503508	10.665054	3.4823914	-0.7868805
923727202895842	11.2500305	3.2387085	-1.8273621
923727211288176	11.706955	3.0212097	-2.151245
923727219680510	12.006058	3.0631256	-1.4052429
923727228072844	12.344025	3.1406555	-0.86450195
923727236465178	12.909958	3.17453	-0.3506317
923727244857512	13.206619	3.369934	0.51545715
923727253249845	13.114487	3.7020721	1.3689423
923727261642179	12.75647	4.0766144	1.5066376
923727270034513	12.423859	4.418869	0.19891357
923727278426847	12.056076	5.0083313	-1.8636475
923727286819181	12.280304	5.7014465	-2.1107635
923727295211515	12.95697	6.386841	-0.6954498
923727303603849	13.759674	6.980896	0.72624207
923727311996183	14.32254	7.5572815	0.3462677
923727320388517	14.37175	8.398621	-2.8463898
923727328780851	14.55481	9.796951	-7.0881195
923727337173185	15.60321	10.08609	-6.975479
923727345565519	16.779755	9.464279	-4.4469757
923727353957853	17.786758	8.243912	-0.6569824
923727362350187	18.435257	6.6276245	3.4224396
923727370742521	18.499496	4.53479	6.856659
923727379134855	17.06363	3.4138184	8.824875
923727387527189	15.595383	2.7098846	10.226761
923727395919523	14.508041	2.3101501	10.525162
923727404311857	14.223465	2.0603333	9.694565
923727412704191	14.59314	1.8329773	8.041229
923727421096525	14.482941	1.6002502	6.0425873
923727429488859	14.114044	1.4437103	4.5211487
923727437881193	14.084595	1.3036957	3.22995
923727446273527	14.85379	1.188034	2.2731018
923727454665861	15.831909	1.0839233	1.9189606
923727463058195	16.154526	0.9914856	2.220932
923727471450529	15.395416	0.9548187	2.6549988
923727479842863	14.582565	0.4654541	2.906662
923727488235197	13.456207	-0.21960449	2.6348267
923727496627531	12.792145	-0.8260803	0.4828949
923727505019865	12.196472	-0.6221771	-1.9141693
923727513412199	11.022751	0.69389343	-2.4815674
923727521804533	9.337906	2.046753	-1.4130096
923727530196867	8.154755	2.2960968	0.8246765
923727538589201	7.3752594	2.6218872	2.682602
923727546981535	6.9540253	2.9657288	4.2724
923727555373869	7.1188507	3.2923737	5.0914154
923727563766203	7.862564	3.574234	4.7602844
923727572158537	8.327759	3.7581177	3.8915253
923727580550871	8.466797	3.2175293	3.3808746
923727588943205	7.923065	1.6433716	2.5833435
923727597335539	7.484375	-0.0949707	1.3322601
923727605727873	7.4273834	-1.639389	-0.73420715
923727614120207	7.6520386	-2.9218292	-3.3602295
923727622512541	7.8813477	-3.8291016	-4.4818573
923727630904875	8.199448	-4.522705	-4.228256
923727639297209	7.924118	-5.042511	-3.8861542
923727647689543	7.069046	-5.443756	-3.5152893
923727656081877	5.918762	-5.7189636	-2.940277
923727664474211	4.740219	-5.7923584	-1.9936981
923727672866545	3.377411	-5.501114	-0.851593
923727681258879	1.4580994	-4.992035	-0.21340942
923727689651213	0.1288147	-4.31723	-0.016830444
923727698043547	-0.25764465	-3.3379517	-0.09631348
923727706435881	-0.1239624	-1.8459778	-0.060684204
923727714828215	-0.10054016	0.26312256	0.2496643
923727723220549	-0.12042236	2.6904907	-0.070388794
923727731612883	0.6616974	4.6874695	-2.0041351
923727740005217	2.04422	6.044052	-5.045288
923727748397551	3.9035034	6.762253	-7.9369354
923727756789885	5.9317474	7.048065	-9.885056
923727765182219	7.7503815	7.1716766	-10.715607
923727773574553	9.092728	7.1979523	-10.981354
923727781966887	9.557465	6.9101715	-10.98941
923727790359220	9.30484	6.4012756	-10.472275
923727798751554	8.557571	5.6167297	-9.455078
923727807143888	7.6362457	4.5145416	-8.10321
923727815536222	6.8625793	3.0727997	-6.8082123
923727823928556	6.346695	1.2497864	-6.5448
923727832320890	7.354248	-0.60279846	-8.783966
923727840713224	12.087784	-2.2321014	-12.549194
923727849105558	19.13173	-3.2188568	-14.82872
923727857497892	25.531555	-3.0292969	-13.349777
923727865890226	27.61084	-1.4115295	-7.7731934
923727874282560	21.797882	0.627182	-2.0596313
923727882674894	13.786545	1.2413788	4.1498413
923727891067228	7.9572296	0.66986084	5.9338226
923727899459562	4.374283	-0.33441162	4.817108
923727907851896	2.3979492	-1.100769	2.468216
923727916244230	1.2136993	-1.2560883	-0.19129944
923727924636564	0.21470642	-1.0706482	-3.5043488
923727933028898	0.5515442	-0.59835815	-3.0128174
923727941421232	2.1088715	-0.4329071	-1.3406525
923727949813566	4.1987	-0.5588989	0.30802917
923727958205900	6.294098	-0.7499542	1.2843323
923727966598234	8.188736	-0.747818	1.5013733
923727974990568	9.939362	-0.6381378	1.4142609
923727983382902	11.670395	-0.5745239	1.3745117
923727991775236	13.058762	-0.37841797	1.1749268
923728000167570	14.150696	-3.0517578E-5	0.872345
923728008559904	14.755951	0.53375244	0.5654907
923728016952238	14.587799	1.109375	0.39466858
923728025344572	13.819443	1.7028046	0.7057953
923728033736906	13.372665	2.1964722	1.380661
923728042129240	12.745895	2.7128754	1.9256134
923728050521574	11.840622	3.2847595	2.1695557
923728058913908	10.918533	3.7736816	2.161209
923728067306242	10.428757	3.943573	2.0695038
923728075698576	10.468521	3.8540955	1.9154205
923728084090910	10.202255	3.894287	1.7013702
923728092483244	9.848755	4.053299	1.6353455
923728100875578	9.63826	4.225937	1.7377625
923728109267912	9.548553	4.354431	1.9655151
923728117660246	9.306152	4.4597473	2.2414093
923728126052580	8.861008	4.517807	2.372818
923728134444914	8.730637	4.4495544	2.4935608
923728142837248	8.905975	4.2924194	2.533493
923728151229582	8.991669	4.1476746	2.4246826
923728159621916	8.849976	4.0821686	2.239029
923728168014250	8.756546	4.0831757	2.1768646
923728176406584	8.95932	3.982788	2.1609497
923728184798918	9.140106	3.837082	2.3139648
923728193191252	9.158142	3.7445679	2.5157928
923728201583586	9.080154	3.6529388	2.4574738
923728209975920	8.941574	3.5012512	2.045517
923728218368254	8.688614	3.27536	1.5106506
923728226760588	8.428406	3.0759583	1.0500336
923728235152922	8.094559	2.946289	0.8741455
923728243545256	7.9895477	2.8258972	0.8765106
923728251937590	8.003723	2.696579	0.90083313
923728260329924	7.950241	2.54039	0.82089233
923728268722258	7.760025	2.3369598	0.6131134
923728277114592	7.615097	2.1910553	0.2841034
923728285506926	7.481262	2.1067963	0.031799316
923728293899260	7.377548	2.096634	-0.017150879
923728302291594	7.190338	2.1042938	0.12515259
923728310683928	6.896866	2.1098175	0.37242126
923728319076262	6.6448975	2.1660004	0.60035706
923728327468595	6.3889923	2.246231	0.6744995
923728335860929	6.4277954	2.1883392	0.7506561
923728344253263	7.0152893	2.1965637	0.6997223
923728352645597	8.096909	2.4076233	0.51252747
923728361037931	9.40448	2.8081665	0.25733948
923728369430265	10.532379	3.193573	0.061904907
923728377822599	11.1129	3.4351196	0.2358551
923728386214933	11.363586	3.5652008	0.55552673
923728394607267	11.515961	3.579422	0.7584381
923728402999601	11.668442	3.5064697	0.8201904
923728411391935	11.838654	3.3896332	0.7808533
923728419784269	11.978287	3.2888184	0.67874146
923728428176603	12.174133	3.2858734	0.6248932
923728436568937	12.298599	3.3211365	0.5967865
923728444961271	12.218872	3.4099884	0.5952606
923728453353605	12.067657	3.4924622	0.6482086
923728461745939	11.987961	3.528656	0.7420044
923728470138273	11.89061	3.580246	0.77900696
923728478530607	11.707199	3.5324554	0.81466675
923728486922941	11.547516	3.4116516	0.52171326
923728495315275	11.479645	3.257782	-0.63975525
923728503707609	11.761185	3.1428986	-2.8483276
923728512099943	12.512512	3.2227478	-5.388626
923728520492277	13.445862	3.7753448	-6.228241
923728528884611	14.579285	4.436325	-4.233139
923728537276945	15.111267	4.9903564	-1.918747
923728545669279	15.355255	5.38855	-0.4393463
923728554061613	15.533493	5.6699066	0.08432007
923728562453947	15.808426	5.803299	0.24971008
923728570846281	16.403854	5.543869	1.0409393
923728579238615	16.535004	4.717575	2.610138
923728587630949	15.995224	3.85466	3.9750824
923728596023283	14.93129	3.0011597	4.665085
923728604415617	13.696869	2.323822	4.7779083
923728612807951	12.670288	1.9656982	4.8091583
923728621200285	12.041077	1.9090576	5.2216644
923728629592619	11.253021	1.9580994	5.209442
923728637984953	10.327774	1.9719849	5.1332855
923728646377287	9.774033	1.8288269	5.0427704
923728654769621	9.773529	1.5587921	4.9125977
923728663161955	10.132935	1.2955017	4.701767
923728671554289	10.218597	1.2341766	4.442856
923728679946623	10.746231	1.0947876	4.07576
923728688338957	11.142471	0.8435974	3.8669891
923728696731291	11.522537	0.53749084	3.7941284
923728705123625	11.708038	0.36091614	3.6580353
923728713515959	11.406586	0.44822693	3.298645
923728721908293	10.561676	0.6351166	2.8692474
923728730300627	9.943817	0.62705994	2.5274963
923728738692961	9.310944	0.5826111	2.2388916
923728747085295	8.748199	0.5410156	1.8771973
923728755477629	8.327942	0.4968567	1.431366
923728763869963	8.102753	0.41526794	1.0066528
923728772262297	8.071854	0.26670837	0.8341675
923728780654631	7.7332	0.4051056	0.4533081
923728789046965	7.7109375	1.20224	-1.7021027
923728797439299	8.019501	2.0414276	-2.5874023
923728805831633	8.504456	2.4509277	-1.335556
923728814223967	8.788727	2.3654022	0.60139465
923728822616301	8.012054	2.2058868	1.4697876
923728831008635	7.043167	2.0499878	2.0251465
923728839400969	6.3733673	1.8006439	2.5519257
923728847793303	6.028946	1.4436188	2.839264
923728856185637	5.922516	1.0088196	2.6612854
923728864577970	5.888321	0.55703735	1.931839
923728872970304	5.541687	0.2074585	0.99864197
923728881362638	4.969818	-0.03857422	0.52526855
923728889754972	4.4037323	-0.25416565	0.11691284
923728898147306	3.9155579	-0.45339966	-0.14398193
923728906539640	3.5084534	-0.6399231	-0.18289185
923728914931974	3.1984558	-0.80766296	0.049194336
923728923324308	3.2717896	-0.92855835	0.63786316
923728931716642	3.1782837	-0.82533264	0.87008667
923728940108976	3.3415985	-0.68582153	0.9935303
923728948501310	3.799179	-0.5061188	0.87716675
923728956893644	4.4821625	-0.2718048	0.4156189
923728965285978	5.2874146	0.027282715	-0.3533783
923728973678312	6.2217712	0.49447632	-1.2489624
923728982070646	7.8405	0.895874	-2.6595917
923728990462980	10.831055	1.3559723	-5.311844
923728998855314	15.2947235	2.2005005	-9.808273
923729007247648	19.91063	3.692337	-14.859329
923729015639982	22.340836	5.7829895	-17.373535
923729024032316	21.18393	7.775543	-14.201767
923729032424650	19.006836	9.103577	-9.532669
923729040816984	16.589127	9.562286	-5.692795
923729049209318	14.455505	8.94754	-3.622528
923729057601652	12.681244	7.590164	-3.4384766
923729065993986	11.018997	6.146637	-4.568283
923729074386320	9.719513	4.874405	-4.516678
923729082778654	8.289871	3.8992615	-2.2025452
923729091170988	6.83638	3.0470734	0.39112854
923729099563322	5.9319153	2.4335175	2.0929413
923729107955656	6.094986	2.0459442	2.7314148
923729116347990	7.687042	1.7063293	2.9786224
923729124740324	9.598312	1.2985535	4.1600647
923729133132658	11.106705	1.0762024	4.607239
923729141524992	12.424286	1.1473389	4.111435
923729149917326	13.940659	1.2909241	3.1819153
923729158309660	15.820053	1.2517242	2.30484
923729166701994	17.669662	0.9066467	1.687973
923729175094328	17.845139	0.55970764	1.0518799
923729183486662	16.131744	0.49043274	0.1116333
923729191878996	13.730759	0.6318207	-2.1262054
923729200271330	11.397812	0.44300842	-2.6379395
923729208663664	9.394562	-0.14219666	-0.5737915
923729217055998	7.3757477	-0.47254944	0.9438782
923729225448332	5.570099	-0.45307922	1.02565
923729233840666	4.1930847	-0.2355957	1.2016296
923729242233000	3.3403015	0.046920776	1.3240356
923729250625334	3.2918549	0.38217163	1.3867798
923729259017668	4.2358856	0.7906189	1.4864502
923729267410002	6.179489	1.2863159	1.7619324
923729275802336	8.99028	1.9524689	2.2645874
923729284194670	11.86525	2.5603638	2.961563
923729292587004	14.193146	3.073578	3.5633392
923729300979338	15.206528	3.4118805	3.885559
923729309371672	14.588715	3.534607	3.865265
923729317764006	12.596451	3.45253	3.536972
923729326156340	10.096954	3.2272186	2.9846191
923729334548674	8.140076	2.9677887	2.573059
923729342941008	6.712311	2.6863708	2.402481
923729351333342	5.7340393	2.4059906	2.5266418
923729359725676	5.1688843	2.1908264	2.8870087
923729368118010	5.1249084	2.1427612	3.2651672
923729376510344	5.778946	2.290329	3.5094452
923729384902678	6.512497	2.3044586	3.396286
923729393295012	7.201874	2.4021301	3.2043152
923729401687345	7.853119	2.5591583	2.930359
923729410079679	8.510483	2.6490479	2.5369873
923729418472013	9.175766	2.5719452	2.087967
923729426864347	9.544693	2.5037994	1.6343384
923729435256681	9.569778	2.4999542	1.1830902
923729443649015	9.320602	2.498001	0.7024994
923729452041349	8.904297	2.4445953	0.2624817
923729460433683	8.387558	2.3394165	-0.048614502
923729468826017	7.713379	2.2529297	-0.19961548
923729477218351	7.089142	2.0978699	-0.14196777
923729485610685	6.5132904	2.0314484	-0.07107544
923729494003019	6.099655	1.9556427	-0.023361206
923729502395353	5.8642883	1.8630066	0.022384644
923729510787687	5.866684	1.8111725	0.11808777
923729519180021	6.3394165	1.885498	0.29844666
923729527572355	7.397232	2.2294617	0.41410828
923729535964689	8.589203	2.7047424	0.5384674
923729544357023	9.816483	3.1878052	0.61376953
923729552749357	11.021652	3.654892	0.62727356
923729561141691	12.178879	4.118164	0.61198425
923729569534025	13.3050995	4.5455933	0.64279175
923729577926359	14.165573	4.769989	0.72032166
923729586318693	14.71933	4.7519073	0.79473877
923729594711027	14.693207	4.611923	0.7153778
923729603103361	14.202713	4.413025	0.5465698
923729611495695	13.518433	4.20549	0.43605042
923729619888029	12.863388	4.141876	0.4618988
923729628280363	12.199661	4.176193	0.6233978
923729636672697	12.06723	4.1271057	0.8573303
923729645065031	12.449402	4.109207	1.108841
923729653457365	13.2417755	4.2278595	1.3393097
923729661849699	14.213852	4.503006	1.5592957
923729670242033	15.011047	4.8240814	1.8604736
923729678634367	15.621109	4.943985	2.1848907
923729687026701	15.622955	4.992523	2.1764984
923729695419035	15.458359	4.9151306	-4.2071533
923729703811369	14.897797	5.1418	-12.551559
923729712203703	13.931381	6.0225677	-13.10614
923729720596037	14.798782	6.4532776	-4.7850037
923729728988371	14.064056	6.2428894	-2.181656
923729737380705	13.407349	5.5131073	-1.4702148
923729745773039	13.733917	4.4669495	-0.89630127
923729754165373	14.549728	3.4494324	0.18582153
923729762557707	14.679901	2.7787018	1.5313568
923729770950041	14.199799	2.3622131	2.6217804
923729779342375	13.253464	2.1313934	3.29187
923729787734709	12.428818	1.8056488	4.286545
923729796127043	11.727371	1.3824768	5.3766937
923729804519377	11.138306	0.93167114	6.332611
923729812911711	10.612946	0.5417938	6.9965057
923729821304045	9.904083	0.22872925	7.0762634
923729829696379	9.89946	-0.047698975	6.463043
923729838088713	10.2230835	-0.2177124	5.7917786
923729846481047	10.433197	-0.30969238	5.3353424
923729854873381	10.286331	-0.30194092	5.0540924
923729863265715	9.807434	-0.19558716	4.749878
923729871658049	9.386688	-0.29727173	4.7289276
923729880050383	9.496124	-0.34492493	4.0502014
923729888442717	8.954147	-0.38668823	3.3780212
923729896835051	8.371109	-0.46299744	2.700119
923729905227385	8.077484	-0.55293274	2.1858063
923729913619719	7.9821777	-0.59329224	2.0753632
923729922012053	7.8571625	-0.61131287	1.8063507
923729930404387	7.78833	-0.5791168	1.4092712
923729938796720	7.7635193	-0.4032135	1.4334259
923729947189054	7.6198883	0.3928833	0.23686218
923729955581388	7.7992706	1.8972778	-1.9273682
923729963973722	8.968979	3.6501465	-2.9087524
923729972366056	8.966904	3.9438782	-1.4660797
923729980758390	8.50061	4.004242	-0.719162
923729989150724	7.9693604	4.027313	-0.13252258
923729997543058	7.3513336	4.02948	0.66989136
923730005935392	6.781891	4.0013733	1.4558411
923730014327726	6.5027466	3.9017944	1.5958862
923730022720060	6.2562256	3.5101624	1.6664581
923730031112394	5.629898	2.3528442	2.190384
923730039504728	4.9709015	1.2838287	2.7505493
923730047897062	4.3784943	0.44670105	2.9188385
923730056289396	3.9194183	-0.16487122	2.3878937
923730064681730	3.6505432	-0.6254883	1.1637573
923730073074064	3.608673	-0.8907013	0.17970276
923730081466398	3.3633575	-0.9319763	-0.2811737
923730089858732	3.2516327	-0.8895111	-0.51472473
923730098251066	3.3559723	-0.7910919	-0.49641418
923730106643400	3.635788	-0.66641235	-0.33596802
923730115035734	3.946701	-0.5625	-0.38072205
923730123428068	4.451935	-0.4096985	-0.8778076
923730131820402	5.4416656	0.10499573	-1.8165283
923730140212736	7.371826	0.7652893	-3.4022217
923730148605070	10.412888	1.5425262	-6.1928864
923730156997404	14.240433	2.4999695	-9.817947
923730165389738	18.225906	3.7842407	-12.941238
923730173782072	20.368057	5.1247253	-13.509644
923730182174406	19.872772	6.1048126	-10.845978
923730190566740	18.522186	6.2567444	-6.66626
923730198959074	16.677933	5.418503	-2.68927
923730207351408	14.294815	3.8232574	-0.70547485
923730215743742	11.361847	2.3215637	-1.7352448
923730224136076	8.727722	1.8275452	-3.2739716
923730232528410	6.163513	1.9707489	-3.0866852
923730240920744	3.8884583	2.3563538	-1.4546051
923730249313078	3.1623993	2.5289764	0.7765198
923730257705412	4.8854218	2.3986511	2.9011688
923730266097746	8.6488495	2.4034576	4.679077
923730274490080	13.741852	2.2914124	5.865738
923730282882414	18.225204	2.4082336	5.5175476
923730291274748	21.56546	2.5901642	4.347229
923730299667082	23.624863	2.4922333	2.8480072
923730308059416	23.57196	2.0333862	1.3171997
923730316451750	19.817337	1.5967865	-0.26498413
923730324844084	13.252411	1.6897736	-2.2911682
923730333236418	8.11467	2.1007996	-6.0556793
923730341628752	5.968048	1.7026672	-5.0380096
923730350021086	5.796417	0.89779663	-1.0772247
923730358413420	5.853195	0.3443451	2.2149963
923730366805754	4.855301	0.29859924	2.9269867
923730375198088	3.37677	0.47122192	2.598999
923730383590422	2.5615082	0.6420593	2.3898926
923730391982756	2.294403	0.9127197	2.3787537
923730400375090	2.7386627	1.2501678	2.6275787
923730408767424	4.0141296	1.6291351	3.1027832
923730417159758	6.0398254	2.1022034	3.632248
923730425552092	8.91449	2.6190948	4.01593
923730433944426	11.951736	3.0537872	4.153427
923730442336760	14.560822	3.4181976	3.9867554
923730450729094	16.172638	3.6720123	3.5776672
923730459121428	16.44162	3.735138	2.9857178
923730467513762	15.288574	3.470749	2.169632
923730475906095	12.7314	3.1164246	1.4903564
923730484298429	10.1749115	2.7322235	1.4524994
923730492690763	8.220734	2.3457184	1.6360779
923730501083097	7.100601	2.0039215	1.9241943
923730509475431	6.7357025	1.7648621	2.2678528
923730517867765	6.7815857	1.6877441	2.530487
923730526260099	7.249115	1.7632294	2.6669312
923730534652433	7.7483063	1.8974762	2.7708893
923730543044767	8.048828	2.0234985	2.624527
923730551437101	8.137802	2.1095734	2.218216
923730559829435	8.146194	2.135971	1.6800537
923730568221769	8.296982	2.080429	1.2231293
923730576614103	8.365768	2.0585022	0.85224915
923730585006437	8.069199	2.03656	0.52142334
923730593398771	7.5970764	2.052475	0.24717712
923730601791105	7.1831665	2.0876617	0.050949097
923730610183439	7.027817	2.1291962	-0.04109192
923730618575773	7.2252197	2.2308807	0.0027770996
923730626968107	7.687866	2.2501373	0.08439636
923730635360441	8.041122	2.3228455	0.1532898
923730643752775	8.464554	2.4116974	0.2654419
923730652145109	9.00853	2.5220337	0.40081787
923730660537443	9.648315	2.6649017	0.49778748
923730668929777	10.3424835	2.8133087	0.4889984
923730677322111	11.17012	3.0740967	0.48672485
923730685714445	11.832825	3.3722076	0.4972229
923730694106779	12.457169	3.6566925	0.45895386
923730702499113	12.979919	3.942398	0.33065796
923730710891447	13.318512	4.2424774	0.10726929
923730719283781	13.610428	4.4797363	-0.16122437
923730727676115	13.67366	4.523102	-2.6474304
923730736068449	14.241516	3.4524994	-19.010788
923730744460783	13.779755	1.8515472	-25.506119
923730752853117	13.843857	0.21458435	-19.346756
923730761245451	16.172333	-0.95469666	-9.726456
923730769637785	17.990372	-0.870224	-3.384674
923730778030119	18.317001	0.49230957	-2.743164
923730786422453	17.88176	2.0250854	-4.6261444
923730794814787	17.143616	3.1693726	-4.86644
923730803207121	16.515152	3.869461	-2.2009125
923730811599455	16.149033	4.3713684	2.6210327
923730819991789	15.573029	4.9034576	8.662384
923730828384123	12.651703	5.265976	12.083527
923730836776457	8.777725	4.9030914	12.523987
923730845168791	6.816986	3.956009	11.170929
923730853561125	7.0429535	2.64299	8.932617
923730861953459	8.092789	1.361557	6.6749268
923730870345793	9.1757965	1.017868	5.8690643
923730878738127	9.393326	1.4532623	5.92511
923730887130461	9.1957245	1.7410278	5.6597137
923730895522795	9.184921	1.9191437	5.058563
923730903915129	9.760147	2.1045532	4.588501
923730912307463	10.992203	2.3628082	4.647827
923730920699797	12.348129	2.5871277	4.5222015
923730929092131	13.105835	2.6891174	4.164856
923730937484465	13.598053	2.591156	3.714325
923730945876799	13.545059	2.3010101	3.2608185
923730954269133	12.801926	1.8820496	2.9279633
923730962661467	11.432571	1.4074249	2.801529
923730971053801	9.728683	0.85409546	2.7606506
923730979446135	8.35997	0.33338928	2.4757385
923730987838469	7.3078766	-0.08364868	2.3216705
923730996230803	6.3660583	-0.29878235	2.263153
923731004623137	5.474945	-0.33770752	1.9839172
923731013015470	4.7894897	-0.32841492	1.1903992
923731021407804	4.6073456	-0.20796204	0.35905457
923731029800138	5.3907013	-0.20300293	-4.3223267
923731038192472	6.3791046	-0.17402649	-7.121887
923731046584806	6.5239716	-0.20030212	-6.265457
923731054977140	5.646698	-0.2894745	-3.0806732
923731063369474	4.3157196	-0.35987854	-0.3242035
923731071761808	3.2586212	-0.26350403	1.8902893
923731080154142	2.7090302	-0.19194031	3.4804382
923731088546476	2.5487518	-0.17555237	4.1805573
923731096938810	2.8220673	-0.26504517	4.012207
923731105331144	3.4390717	-0.45262146	3.2026978
923731113723478	4.2272034	-0.69158936	1.9854279
923731122115812	4.901169	-0.948822	0.8239136
923731130508146	5.16716	-1.1076965	0.13537598
923731138900480	5.191559	-1.127945	-0.11973572
923731147292814	5.058609	-1.0266418	-0.052871704
923731155685148	4.910324	-0.83717346	0.24006653
923731164077482	4.898926	-0.5853119	0.6857605
923731172469816	5.0305176	-0.2144165	1.0666199
923731180862150	5.3715973	0.060165405	1.0747681
923731189254484	5.9317474	0.24266052	0.813797
923731197646818	6.7229004	0.34153748	0.25857544
923731206039152	7.8681335	0.21520996	-0.8239136
923731214431486	9.625824	-0.27919006	-2.8486633
923731222823820	12.280228	-0.3063507	-6.085388
923731231216154	15.159576	1.7350311	-10.64418
923731239608488	17.480804	4.181473	-15.800842
923731248000822	18.884949	5.621765	-18.955704
923731256393156	19.426788	5.4770355	-19.214218
923731264785490	19.358276	3.891159	-17.475021
923731273177824	17.972229	2.0280914	-13.457886
923731281570158	15.8293915	0.5926361	-9.7734375
