gyroscope_timestamp	gyroscope_x_data	gyroscope_y_data	gyroscope_z_data
339520735574613	0.37219238	0.031326294	0.7529297
339520739023099	0.37219238	-1.3199005	0.7529297
339520744058499	0.6324158	-1.3199005	0.6918335
339520749124417	0.7765808	-0.9289551	0.6759491
339520754129300	0.82055664	-0.640625	0.65885925
339520759622464	0.78634644	-0.45492554	0.60876465
339520764230619	0.7020569	-0.33642578	0.50979614
339520769235501	0.587204	-0.2582245	0.36930847
339520774759183	0.45526123	-0.19958496	0.19703674
339520779336820	0.31721497	-0.13482666	0.018676758
339520782663236	0.19015503	-0.048080444	-0.12791443
339520789377103	0.09364319	0.052093506	-0.20487976
339520794381986	0.031326294	0.1522522	-0.21099854
339520799447904	-0.0041046143	0.25120544	-0.18045044
339520804483304	-0.02243042	0.35627747	-0.15357971
339520809762845	-0.028533936	0.45890808	-0.14624023
339520814554105	-0.019973755	0.5236664	-0.14135742
339520819589505	0.0044403076	0.5236664	-0.1181488
339520825082669	0.043548584	0.46012878	-0.07293701
339520829690824	0.09240723	0.35507202	-0.013092041
339520833017240	0.09240723	0.22555542	-0.013092041
339520839761624	0.1962738	0.22555542	0.098083496
339520844766507	0.23901367	-0.057861328	0.1347351
339520849832425	0.26834106	-0.18736267	0.15184021
339520854806790	0.27934265	-0.2899933	0.1481781
339520860177884	0.26467896	-0.357193	0.1298523
339520864938626	0.22068787	-0.38528442	0.101745605
339520869943509	0.22068787	-0.3730774	0.07243347
339520875253568	0.054534912	-0.32418823	0.04310608
339520880044828	0.054534912	-0.2472229	0.04310608
339520883371244	-0.05418396	-0.2472229	0.017440796
339520890115628	-0.17512512	-0.14950562	-0.002090454
339520895120511	-0.30462646	-0.04197693	-0.017959595
339520900155911	-0.4341278	0.060653687	-0.033843994
339520905191312	-0.5538635	0.14248657	-0.0521698
339520910623441	-0.65159607	0.1999054	-0.070495605
339520915262113	-0.7187958	0.2341156	-0.08760071
339520920358548	-0.753006	0.24388123	-0.098587036
339520925760160	-0.75912476	0.22923279	-0.099823
339520930368314	-0.7420044	0.18890381	-0.08882141
339520933694730	-0.7041321	0.12660217	-0.061935425
339520940469632	-0.64915466	0.048416138	-0.021636963
339520945474515	-0.58073425	-0.044418335	0.029678345
339520950509915	-0.5025482	-0.14459229	0.0846405
339520955575833	-0.4206848	-0.2447815	0.13595581
339520960855374	-0.34127808	-0.33518982	0.18359375
339520965616117	-0.26797485	-0.40605164	0.2276001
339520970651517	-0.20323181	-0.44758606	0.26789856
339520976114163	-0.1482544	-0.45614624	0.30210876
339520980722318	-0.10549927	-0.43537903	0.32899475
339520984109769	-0.10549927	-0.39260864	0.32899475
339520990823636	-0.060302734	-0.39260864	0.35830688
339520995828519	-0.05418396	-0.26678467	0.36442566
339521000894437	-0.049301147	-0.20448303	0.35954285
339521005868802	-0.039535522	-0.15559387	0.33143616
339521011239896	-0.017532349	-0.11773682	0.27157593
339521016000638	-0.017532349	-0.07740784	0.18115234
339521021036038	0.020324707	-0.01876831	0.18115234
339521026681790	0.15350342	-0.01876831	-0.033843994
339521031076322	0.15350342	0.16081238	-0.033843994
339521034433255	0.23657227	0.16081238	-0.12181091
339521041177640	0.31477356	0.25120544	-0.18167114
339521046152005	0.3770752	0.315979	-0.21220398
339521051248441	0.41740417	0.34407043	-0.21588135
339521056253324	0.4430542	0.33918762	-0.19999695
339521062143216	0.46258545	0.31474304	-0.17190552
339521066324124	0.48336792	0.2866516	-0.14135742
339521071359525	0.51268005	0.2658844	-0.11325073
339521076700101	0.55055237	0.25120544	-0.08882141
339521081460843	0.59820557	0.2341156	-0.06561279
339521084787259	0.6556244	0.21211243	-0.042404175
339521091501126	0.717926	0.1852417	-0.020401001
339521096567044	0.783905	0.1546936	-0.0045318604
339521101571927	0.84254456	0.12294006	0.0015563965
339521106607328	0.88531494	0.0874939	-0.002090454
339521112100492	0.9024048	0.05329895	-0.011856079
339521116708646	0.89019775	0.02154541	-0.025283813
339521121713529	0.84742737	-4.4250488E-4	-0.037521362
339521127542386	0.7814636	-0.0065460205	-0.04850769
339521131784329	0.6947174	7.7819824E-4	-0.055847168
339521135141263	0.6947174	0.02154541	-0.055847168
339521141855130	0.48580933	0.02154541	-0.055847168
339521146890531	0.3746338	0.08016968	-0.049728394
339521151925931	0.26712036	0.10461426	-0.042404175
339521156961331	0.17547607	0.12414551	-0.03262329
339521162240872	0.108291626	0.1400299	-0.02407837
339521167062650	0.108291626	0.1534729	-0.02407837
339521172067533	0.071640015	0.1534729	-0.014297485
339521177560697	0.06309509	0.1669159	-0.0069732666
339521182138333	0.07652283	0.17913818	3.5095215E-4
339521185525785	0.10462952	0.1864624	0.0052337646
339521192209134	0.1461792	0.1876831	0.010116577
339521197214017	0.19747925	0.18035889	0.017440796
339521202279935	0.25733948	0.1669159	0.029678345
339521207284818	0.31233215	0.14859009	0.04310608
339521212594876	0.35386658	0.12414551	0.05532837
339521217386136	0.37219238	0.09361267	0.065093994
339521222452054	0.37095642	0.05697632	0.07243347
339521227731595	0.35263062	0.0154418945	0.077316284
339521232492337	0.32209778	-0.023651123	0.07975769
339521235849271	0.28178406	-0.05908203	0.07975769
339521242593656	0.23168945	-0.08352661	0.077316284
339521247629056	0.17182922	-0.096969604	0.073654175
339521252633939	0.10340881	-0.09941101	0.06877136
339521257669339	0.028884888	-0.09573364	0.065093994
339521263131986	-0.049301147	-0.08596802	0.06265259
339521267770658	-0.12870789	-0.06640625	0.061431885
339521272806058	-0.20199585	-0.03831482	0.061431885
339521278268704	-0.26553345	-0.01020813	0.061431885
339521282846341	-0.31318665	0.00932312	0.061431885
339521286172757	-0.31318665	0.0154418945	0.061431885
339521293222318	-0.35716248	0.0154418945	0.05899048
339521298105130	-0.35472107	0.0056610107	0.056549072
339521302926908	-0.34007263	-0.001663208	0.05532837
339521308023343	-0.34007263	-0.009002686	0.05532837
339521313302884	-0.31930542	-0.009002686	0.04676819
339521318094144	-0.29606628	-0.019989014	0.04676819
339521323129544	-0.27165222	-0.032211304	0.037002563
339521328622708	-0.2484436	-0.048080444	0.027236938
339521333200345	-0.22888184	-0.06640625	0.021118164
339521336557279	-0.21055603	-0.08717346	0.018676758
339521343271146	-0.19345093	-0.107940674	0.022338867
339521348306546	-0.17878723	-0.12261963	0.028442383
339521353402982	-0.17024231	-0.12994385	0.0357666
339521358377347	-0.1653595	-0.13362122	0.04310608
339521363717923	-0.1641388	-0.13726807	0.050445557
339521368448148	-0.16290283	-0.14215088	0.05899048
339521373483548	-0.1641388	-0.13850403	0.06997681
339521378824124	-0.16290283	-0.12261963	0.0834198
339521383554349	-0.15924072	-0.09451294	0.09442139
339521386911283	-0.1531372	-0.06764221	0.101745605
339521393655667	-0.14579773	-0.05053711	0.10296631
339521398660550	-0.13969421	-0.046875	0.1005249
339521403726468	-0.1335907	-0.05053711	0.09442139
339521408731351	-0.12626648	-0.05908203	0.085861206
339521414041410	-0.11404419	-0.068847656	0.07121277
339521418832669	-0.09815979	-0.0786438	0.050445557
339521423837552	-0.076171875	-0.081085205	0.026000977
339521429178128	-0.051742554	-0.07496643	0.0027923584
339521433938870	-0.02609253	-0.061523438	-0.0155181885
339521437265286	-0.02609253	-0.045639038	-0.0155181885
339521444040189	0.024002075	-0.045639038	-0.03262329
339521449075589	0.039871216	-0.021209717	-0.02772522
339521454080472	0.039871216	-0.015106201	-0.02772522
339521459085355	0.047210693	-0.015106201	-0.0155181885
339521464578519	0.04598999	-0.01020813	0.013793945
339521469156156	0.03742981	-0.0041046143	0.013793945
339521474252591	0.025222778	0.0056610107	0.02355957
339521479684720	0.011779785	0.0178833	0.030883789
339521484292874	0.0032348633	0.028884888	0.03944397
339521487619290	0.0019989014	0.031326294	0.049209595
339521494333158	0.0056762695	0.02154541	0.057769775
339521499399076	0.0154418945	-0.001663208	0.061431885
339521504403958	0.03010559	-0.035873413	0.06265259
339521509469876	0.04232788	-0.072525024	0.06387329
339521514810453	0.0496521	-0.10673523	0.0663147
339521519510160	0.047210693	-0.13238525	0.06877136
339521524545560	0.036209106	-0.15071106	0.06877136
339521530069242	0.0178833	-0.16047668	0.06877136
339521534646878	-0.0053253174	-0.16659546	0.0675354
339521538003812	-0.029769897	-0.16783142	0.065093994
339521544717679	-0.055419922	-0.16291809	0.06265259
339521549722562	-0.08105469	-0.14706421	0.06021118
339521554788480	-0.10305786	-0.12382507	0.054107666
339521559793363	-0.12136841	-0.09329224	0.045547485
339521565103421	-0.13847351	-0.060302734	0.03211975
339521569864163	-0.16290283	-0.028549194	0.012557983
339521574899564	-0.20323181	7.7819824E-4	-0.011856079
339521580179105	-0.25941467	0.02520752	-0.031402588
339521584970365	-0.31806946	0.048416138	-0.0362854
339521588357816	-0.31806946	0.07406616	-0.0362854
339521595071683	-0.36572266	0.07406616	0.0040130615
339521600046048	-0.3938141	0.12538147	0.0040130615
339521605142484	-0.3974762	0.12538147	0.029678345
339521610147367	-0.37548828	0.14248657	0.045547485
339521615610013	-0.32662964	0.14859009	0.051651
339521620218167	-0.25941467	0.14248657	0.052886963
339521625253568	-0.18367004	0.1217041	0.056549072
339521630960355	-0.11404419	0.082611084	0.06021118
339521635354886	-0.060302734	0.022766113	0.05899048
339521638650785	-0.021209717	-0.049316406	0.04800415
339521645395169	0.008117676	-0.11529541	0.033325195
339521650430570	0.039871216	-0.15803528	0.024780273
339521655496488	0.08140564	-0.16659546	0.028442383
339521660531888	0.13150024	-0.14459229	0.04310608
339521665841947	0.18527222	-0.10549927	0.05532837
339521670633206	0.23535156	-0.06640625	0.061431885
339521675607572	0.27322388	-0.037094116	0.06387329
339521681222806	0.2939911	-0.017547607	0.06387329
339521685678372	0.28666687	-0.0065460205	0.05532837
339521689035306	0.24513245	-0.009002686	0.028442383
339521695749173	0.17547607	-0.021209717	-0.010650635
339521700754056	0.09364319	-0.03465271	-0.042404175
339521705819974	0.020324707	-0.032211304	-0.046051025
339521710855374	-0.023651123	-0.0028839111	-0.017959595
339521716134915	-0.024871826	0.048416138	0.030883789
339521720895658	0.016662598	0.107055664	0.0821991
339521725992093	0.08996582	0.1510315	0.117630005
339521731454740	0.17303467	0.1681366	0.12741089
339521736032376	0.24513245	0.15715027	0.1164093
339521739389310	0.24513245	0.12904358	0.1164093
339521746133695	0.2976532	0.12904358	0.1005249
339521751108060	0.33674622	0.10461426	0.09686279
339521756173978	0.3636322	0.09605408	0.11152649
339521761209378	0.3746338	0.09849548	0.13961792
339521766519437	0.3636322	0.099731445	0.16282654
339521771280179	0.33309937	0.08505249	0.17262268
339521776346097	0.28544617	0.054534912	0.16770935
339521781991849	0.22680664	0.016662598	0.15673828
339521786416898	0.14494324	-0.013885498	0.1481781
339521789712796	0.021560669	-0.03831482	0.13961792
339521796457181	-0.14459229	-0.063964844	0.11885071
339521801492581	-0.3302765	-0.09207153	0.0846405
339521806527982	-0.4927826	-0.109176636	0.04310608
339521811563382	-0.60150146	-0.100616455	0.0015563965
339521816903958	-0.6528168	-0.065200806	-0.03262329
339521821634183	-0.6528168	-0.016326904	-0.057052612
339521826730619	-0.61250305	0.030090332	-0.074157715
339521832101712	-0.54164124	0.06674194	-0.082717896
339521836709867	-0.4487915	0.09361267	-0.0851593
339521840097318	-0.4487915	0.11193848	-0.0851593
339521846811185	-0.2484436	0.11193848	-0.0692749
339521851846585	-0.14703369	0.1217041	-0.046051025
339521856881986	-0.03829956	0.115615845	-0.01675415
339521861947904	0.08140564	0.1058197	0.016235352
339521867196927	0.20359802	0.09239197	0.04676819
339521871988187	0.3110962	0.071624756	0.06877136
339521877023587	0.3929596	0.038650513	0.07853699
339521882425199	0.44181824	-0.0041046143	0.07853699
339521887063870	0.44181824	-0.046875	0.07853699
339521890451322	0.4540558	-0.046875	0.0663147
339521897165189	0.4247284	-0.07984924	0.044326782
339521906869779	0.25611877	-0.10185242	-0.0057678223
339521912240872	0.13882446	-0.09451294	-0.009414673
339521917306790	0.016662598	-0.09451294	0.0027923584
339521922342191	-0.09938049	-0.07008362	0.017440796
339521927408109	-0.2007904	-0.037094116	0.019897461
339521933023343	-0.27653503	-4.4250488E-4	0.0064697266
339521937448392	-0.32539368	0.039871216	-0.017959595
339521940866361	-0.3461609	0.08016968	-0.04360962
339521947519193	-0.34739685	0.11682129	-0.06317139
339521952524076	-0.33639526	0.1375885	-0.074157715
339521957589994	-0.32174683	0.14126587	-0.07661438
339521962625394	-0.30586243	0.12904358	-0.07537842
339521967904935	-0.28753662	0.10827637	-0.074157715
339521972726712	-0.26309204	0.0899353	-0.074157715
339521977701078	-0.23010254	0.07286072	-0.0692749
339521983438382	-0.18978882	0.05697632	-0.057052612
339521987802396	-0.14091492	0.038650513	-0.0362854
339521991159329	-0.14091492	0.019104004	-0.0362854
339521997903714	-0.016326904	0.019104004	0.011352539
339522002939115	0.05331421	-0.0028839111	0.03211975
339522007943997	0.124176025	0.0056610107	0.04800415
339522012979398	0.19503784	0.028884888	0.06021118
339522018411527	0.25978088	0.059417725	0.073654175
339522023050199	0.315979	0.091171265	0.0846405
339522028146634	0.35751343	0.11682129	0.09320068
339522033578763	0.37583923	0.13148499	0.098083496
339522038156400	0.37583923	0.13270569	0.098083496
339522041482816	0.36975098	0.13270569	0.1005249
339522048227201	0.33918762	0.12294006	0.0993042
339522053262601	0.28910828	0.10949707	0.09564209
339522058267484	0.22436523	0.09484863	0.08831787
339522063333402	0.15226746	0.08628845	0.07609558
339522068673978	0.07896423	0.08140564	0.056549072
339522073404203	0.0032348633	0.07772827	0.029678345
339522078439603	-0.07249451	0.07286072	3.5095215E-4
339522083902249	-0.14703369	0.0655365	-0.031402588
339522088510404	-0.21788025	0.05697632	-0.06072998
339522091897855	-0.28630066	0.047210693	-0.0839386
339522098581204	-0.35472107	0.03742981	-0.098587036
339522103586087	-0.4182434	0.026443481	-0.10714722
339522108682523	-0.45977783	0.019104004	-0.114471436
339522114297757	-0.4634552	0.022766113	-0.12425232
339522119027982	-0.4280243	0.04109192	-0.12913513
339522123788724	-0.36328125	0.07406616	-0.12425232
339522128763089	-0.2826538	0.11805725	-0.10836792
339522134134183	-0.19345093	0.16569519	-0.08149719
339522138864408	-0.09815979	0.21334839	-0.047286987
339522142251859	-0.09815979	0.25732422	-0.047286987
339522148996244	0.096084595	0.25732422	0.034561157
339522153970609	0.18283081	0.34039307	0.08097839
339522159036527	0.25611877	0.37950134	0.12741089
339522164041410	0.3135376	0.40881348	0.16894531
339522169473538	0.35751343	0.42347717	0.20315552
339522174112210	0.35751343	0.42103577	0.22636414
339522179208646	0.3905182	0.40393066	0.22636414
339522184457669	0.41860962	0.40393066	0.23857117
339522189248929	0.44425964	0.37216187	0.24102783
339522192544828	0.45770264	0.32574463	0.23980713
339522199319730	0.45159912	0.27441406	0.23857117
339522204385648	0.422287	0.22679138	0.23492432
339522209360013	0.37339783	0.1864624	0.21903992
339522214395413	0.3135376	0.1510315	0.18971252
339522219766507	0.24757385	0.11682129	0.15184021
339522224527249	0.17671204	0.082611084	0.11152649
339522229501615	0.10340881	0.054534912	0.07121277
339522235360990	0.027664185	0.030090332	0.033325195
339522239602933	-0.044418335	0.014221191	-0.0045318604
339522242959867	-0.107940674	0.006881714	-0.03996277
339522249643216	-0.15679932	0.013000488	-0.07171631
339522254678617	-0.184906	0.031326294	-0.098587036
339522259744535	-0.18978882	0.059417725	-0.12059021
339522264749417	-0.17390442	0.09484863	-0.13769531
339522270089994	-0.14091492	0.13148499	-0.15234375
339522274820218	-0.09938049	0.1681366	-0.16212463
339522279855619	-0.057861328	0.1999054	-0.16578674
339522285806546	-0.02243042	0.22555542	-0.15968323
339522289926419	0.0068969727	0.23287964	-0.14257813
339522293283353	0.0068969727	0.2206726	-0.14257813
339522300760160	0.054534912	0.2206726	-0.074157715
339522305032620	0.080200195	0.1693573	-0.03262329
339522310098538	0.111968994	0.15715027	0.010116577
339522315103421	0.1486206	0.15715027	0.04800415
339522320413480	0.18403625	0.15835571	0.0834198
339522325174222	0.18403625	0.1534729	0.0834198
339522330209622	0.21214294	0.1534729	0.113967896
339522335489163	0.22680664	0.14248657	0.13961792
339522340310941	0.22557068	0.12660217	0.15794373
339522343637357	0.20603943	0.10827637	0.1640625
339522350381742	0.16938782	0.08872986	0.15673828
339522355386624	0.12173462	0.071624756	0.13595581
339522360422025	0.067977905	0.054534912	0.10296631
339522365457425	0.0154418945	0.036209106	0.0663147
339522370889554	-0.03465271	0.020324707	0.029678345
339522375528226	-0.07861328	0.013000488	-0.003326416
339522380594144	-0.11282349	0.0154418945	-0.035079956
339522386056790	-0.13114929	0.022766113	-0.066833496
339522390664945	-0.1335907	0.02154541	-0.098587036
339522393991361	-0.12258911	0.011764526	-0.12425232
339522400705228	-0.1018219	-0.001663208	-0.14135742
339522405740628	-0.07373047	-0.0077667236	-0.15234375
339522410776029	-0.037094116	-0.0028839111	-0.15968323
339522415841947	0.009338379	0.0056610107	-0.16456604
339522421060453	0.0667572	0.014221191	-0.16578674
339522425851712	0.13761902	0.028884888	-0.15968323
339522430917630	0.21824646	0.052093506	-0.14257813
339522436349759	0.30377197	0.083847046	-0.11569214
339522441018949	0.38928223	0.11805725	-0.08149719
339522444375882	0.38928223	0.1546936	-0.08149719
339522451059232	0.53712463	0.1546936	0.0027923584
339522456094632	0.58843994	0.23776245	0.04676819
339522461160550	0.6189728	0.27685547	0.08831787
339522466165433	0.6189728	0.3135376	0.12496948
339522471475492	0.626297	0.3135376	0.15428162
339522476236234	0.61776733	0.39660645	0.15428162
339522481302152	0.59942627	0.39660645	0.1775055
339522486612210	0.57743835	0.4491272	0.19703674
339522491342435	0.55545044	0.5089874	0.21292114
339522494699369	0.5334625	0.5676422	0.22515869
339522501474271	0.50779724	0.61650085	0.23124695
339522506448636	0.46992493	0.64949036	0.2300415
339522511484036	0.41249084	0.6690521	0.22148132
339522518838773	0.21214294	0.68125916	0.19703674
339522521890531	0.21214294	0.6849365	0.19703674
339522526620755	0.0655365	0.6849365	0.20436096
339522531686673	-0.09938049	0.6849365	0.24713135
339522536966214	-0.2642975	0.68981934	0.32165527
339522541757474	-0.40725708	0.69836426	0.40596008
339522545053372	-0.5111084	0.70080566	0.4658203
339522551828275	-0.56973267	0.69958496	0.48294067
339522556863675	-0.58317566	0.71424866	0.4658203
339522561838040	-0.5538635	0.77168274	0.43528748
339522566903958	-0.48910522	0.8840637	0.4084015
339522572183499	-0.3986969	1.0379944	0.39863586
339522576944242	-0.28753662	1.2053833	0.41452026
339522582040677	-0.15802002	1.3605499	0.45726013
339522587381253	-0.011444092	1.5034943	0.5244751
339522592050443	0.14982605	1.6513062	0.60510254
339522595407376	0.14982605	1.8150177	0.60510254
339522602121244	0.46748352	1.8150177	0.7712555
339522607156644	0.5920868	2.1571045	0.85066223
339522612192044	0.5920868	2.2963715	0.85066223
339522617227445	0.6763916	2.2963715	0.93252563
339522622598538	0.717926	2.3965607	1.0155945
339522627328763	0.7216034	2.4564362	1.0986786
339522632333646	0.6947174	2.4784088	1.179306
339522637826810	0.6446228	2.4698792	1.2514038
339522642404447	0.58232117	2.4393158	1.3124847
339522645791898	0.51390076	2.39534	1.3625793
339522652475247	0.447937	2.3403625	1.4028778
339522657480130	0.3905182	2.281723	1.4358826
339522662607083	0.34042358	2.2230682	1.4615326
339522667581449	0.2939911	2.1571045	1.476181
339522672922025	0.24269104	2.0715942	1.4664154
339522677652249	0.18159485	1.9775238	1.412674
339522682687650	0.1144104	1.9127655	1.3088074
339522688028226	0.048431396	1.9139862	1.1573334
339522692819486	-0.01876831	1.9787292	0.9679413
339522696115384	-0.079833984	2.0679169	0.7553711
339522702859769	-0.08105469	2.098465	0.5305786
339522707895169	0.05819702	1.9787292	0.30699158
339522712930570	0.3746338	1.6732941	0.10296631
339522717904935	0.79000854	1.2762451	-0.049728394
339522723398099	1.1467743	0.96224976	-0.12547302
339522728006253	1.3129272	0.8400879	-0.11936951
339522733072171	1.2677155	0.8608551	-0.06437683
339522738351712	1.0759125	0.896286	0.0015563965
339522743112454	0.8278961	0.8767395	0.051651
339522746469388	0.8278961	0.8254242	0.051651
339522753183255	0.59088135	0.8254242	0.11274719
339522758279691	0.3905182	0.79244995	0.11274719
339522763284574	0.23168945	0.79244995	0.14329529
339522768289456	0.10340881	0.81565857	0.18359375
339522773660550	-0.0053253174	0.8425293	0.23612976
339522778360257	-0.10914612	0.8791809	0.29356384
339522783395658	-0.2142334	0.94392395	0.3448639
339522788888822	-0.30586243	1.0123444	0.37174988
339522793466458	-0.35350037	1.0135803	0.3656311
339522796823392	-0.33395386	0.9182739	0.32655334
339522803537259	-0.26797485	0.8217621	0.26545715
339522808572660	-0.20689392	0.8510742	0.19215393
339522813669095	-0.19589233	1.0086975	0.113967896
339522818673978	-0.24108887	1.1589508	0.028442383
339522824350247	-0.30706787	1.2029419	-0.066833496
339522828714261	-0.35838318	1.1650696	-0.1670227
339522833780179	-0.37670898	1.1333008	-0.25865173
339522839242826	-0.37060547	1.1430817	-0.32705688
339522843850980	-0.35350037	1.1748352	-0.3637085
339522847207913	-0.33639526	1.206604	-0.369812
339522853921781	-0.31684875	1.2322693	-0.3502655
339522858896146	-0.28018188	1.2481537	-0.30628967
339522863992581	-0.20933533	1.2420349	-0.23297119
339522869058499	-0.092056274	1.2017059	-0.12059021
339522874368558	0.07041931	1.1222992	0.034561157
339522879098783	0.26101685	1.0160217	0.22268677
339522884134183	0.4564972	0.9158325	0.42796326
339522889871488	0.62265015	0.8523102	0.6344147
339522894204984	0.7411499	0.84742737	0.83721924
339522897500882	0.7411499	0.9085083	0.83721924
339522904306302	0.81689453	0.9085083	1.0424805
339522909341703	0.8804321	1.0209045	1.2684937
339522914316068	0.963501	1.1467438	1.5103912
339522919381986	1.0771179	1.2359161	1.7425232
339522924783597	1.2102814	1.2566833	1.9282379
339522929422269	1.3410187	1.2237091	2.0406342
339522934518704	1.4412079	1.1662903	2.0601807
339522939950833	1.4827423	1.089325	1.970993
339522944558988	1.4472961	0.9793701	1.7596283
339522947885404	1.331253	0.8486328	1.438324
339522954599271	1.1528625	0.74479675	1.0498047
339522959634671	0.9451752	0.71669006	0.6710663
339522964700589	0.7558136	0.7692108	0.39863586
339522969735990	0.6324158	0.8681946	0.29722595
339522975229154	0.58843994	0.9317169	0.35830688
339522979806790	0.59576416	0.8632965	0.5085907
339522984811673	0.6238556	0.6531677	0.6759491
339522990671048	0.6739502	0.42469788	0.8518982
339522994912992	0.771698	0.33551025	1.0510254
339522998239408	0.771698	0.42836	1.0510254
339523004983792	1.0673523	0.42836	1.4468842
339523009958158	1.1711884	0.73991394	1.5727081
339523015085111	1.2102814	0.76312256	1.6496887
339523020089994	1.1944122	0.70202637	1.7009888
339523025796781	1.1394196	0.62872314	1.7437592
339523030130277	1.05513	0.6067352	1.7730713
339523035165677	0.94885254	0.64216614	1.774292
339523040506253	0.83522034	0.7069092	1.7315216
339523045297513	0.83522034	0.7850952	1.6411285
339523048593411	0.7264862	0.8914032	1.6411285
339523055368314	0.6324158	0.8914032	1.5152893
339523060342679	0.55789185	1.0379944	1.3674622
339523065378079	0.50535583	1.2115021	1.2098694
339523070382962	0.4797058	1.3910828	1.0559235
339523075845609	0.49191284	1.5560303	0.91664124
339523080514798	0.54689026	1.6867371	0.804245
339523085580716	0.6483002	1.7673645	0.7284851
339523091226468	0.7936859	1.7869263	0.6967163
339523095590482	0.97572327	1.7502747	0.7162781
339523098947415	1.1809845	1.67453	0.7932434
339523105722318	1.3862305	1.5780029	0.9252014
339523110727201	1.5609131	1.4717255	1.1023407
339523115762601	1.689209	1.364212	1.3075867
339523120767484	1.7649536	1.2579193	1.5213928
339523126565824	1.7979431	1.1467438	1.7290802
339523130838285	1.7991638	1.0257874	1.9172363
339523135904203	1.7771759	0.896286	2.0785065
339523141397367	1.7380829	0.7667694	2.2092285
339523145944486	1.6867676	0.64582825	2.3118439
339523149301419	1.6867676	0.53222656	2.3118439
339523156045804	1.5707092	0.53222656	2.4438019
339523161050687	1.5132751	0.32695007	2.4718933
339523166116605	1.4534149	0.24876404	2.4633484
339523171152005	1.3911133	0.1999054	2.4095917
339523176797757	1.3202515	0.184021	2.303299
339523181222806	1.2359467	0.20722961	2.1444855
339523186227689	1.1345367	0.2707672	1.9343262
339523192087064	1.0221405	0.38316345	1.6851044
339523196329007	1.0221405	0.5493164	1.6851044
339523199655423	0.90364075	0.5493164	1.4151154
339523206430326	0.7790222	0.7594452	1.1450958
339523211404691	0.6372986	0.9928131	0.88731384
339523216531644	0.46626282	1.2249146	0.65153503
339523221506009	0.26589966	1.4301758	0.4426117
339523227212796	0.0496521	1.5926666	0.26301575
339523231546292	-0.1665802	1.6977386	0.117630005
339523236581693	-0.36328125	1.7429504	0.012557983
339523241891751	-0.52819824	1.727066	-0.047286987
339523246683011	-0.64915466	1.6598663	-0.057052612
339523250039945	-0.71635437	1.5547943	-0.0155181885
339523256753812	-0.7224579	1.4228516	0.07243347
339523261789212	-0.6699219	1.2774506	0.19215393
339523266824613	-0.56240845	1.1222992	0.33265686
339523271829495	-0.4121399	0.96224976	0.4768219
339523277322660	-0.23132324	0.79733276	0.60510254
339523281930814	-0.035858154	0.6372833	0.7003937
339523286996732	0.15838623	0.49310303	0.7529297
339523292245755	0.3416443	0.37950134	0.7651367
339523297006497	0.5029144	0.30741882	0.74316406
339523300363431	0.5029144	0.27197266	0.74316406
339523309274564	0.7167206	0.27197266	0.64663696
339523312143216	0.75213623	0.2707672	0.59532166
339523317148099	0.7350464	0.27441406	0.546463
339523322183499	0.6690674	0.2707672	0.5012665
339523328103910	0.55422974	0.26464844	0.4609375
339523332254300	0.4002838	0.2658844	0.42549133
339523337320218	0.4002838	0.28297424	0.42549133
339523342782865	0.022766113	0.28297424	0.36198425
339523347391019	0.022766113	0.36116028	0.36198425
339523350717435	-0.17146301	0.36116028	0.33021545
339523357583890	-0.34251404	0.40148926	0.29844666
339523362436185	-0.4768982	0.42836	0.26789856
339523367685208	-0.56729126	0.44424438	0.2434845
339523372568021	-0.61494446	0.45401	0.22515869
339523378000150	-0.62960815	0.4650116	0.22148132
339523382608304	-0.61616516	0.4698944	0.23980713
339523387643704	-0.5819702	0.4625702	0.28256226
339523393106351	-0.53063965	0.43814087	0.34732056
339523397897611	-0.4658966	0.40026855	0.42304993
339523401071439	-0.39259338	0.35627747	0.4951477
339523407998929	-0.31195068	0.30986023	0.55500793
339523412820706	-0.22766113	0.2610016	0.59776306
339523417947660	-0.14091492	0.2023468	0.62586975
339523422891507	-0.056625366	0.12660217	0.6417389
339523428659329	0.022766113	0.039871216	0.64663696
339523432992826	0.09484863	-0.04197693	0.63809204
339523438211331	0.15838623	-0.09941101	0.6148834
339523443673978	0.20724487	-0.12382507	0.5806732
339523448373685	0.24024963	-0.11894226	0.5428009
339523451455960	0.24024963	-0.100616455	0.5428009
339523458383451	0.24391174	-0.100616455	0.4792633
339523463205228	0.21704102	-0.0786438	0.4560547
339523468332181	0.17303467	-0.08229065	0.44137573
339523473276029	0.12294006	-0.09329224	0.4316101
339523479318509	0.071640015	-0.109176636	0.4242859
339523483346829	0.071640015	-0.13117981	0.4242859
339523488656888	0.025222778	-0.13117981	0.40107727
339523493905911	-0.012649536	-0.16047668	0.3839569
339523498575101	-0.04197693	-0.19592285	0.3839569
339523501748929	-0.057861328	-0.24234009	0.37052917
339523508706937	-0.05418396	-0.2985382	0.36930847
339523513528714	-0.02609253	-0.36695862	0.38885498
339523518960843	0.027664185	-0.4414978	0.4316101
339523523630033	0.10340881	-0.51478577	0.5012665
339523529703031	0.19503784	-0.5868683	0.58921814
339523533670316	0.29032898	-0.66018677	0.6893921
339523538919339	0.381958	-0.73469543	0.7895813
339523544198880	0.46626282	-0.8104553	0.8775482
339523549020658	0.54322815	-0.8800812	0.9410858
339523552163968	0.60676575	-0.9277344	0.975296
339523559213529	0.65441895	-0.9448395	0.97650146
339523563852201	0.6837158	-0.9264984	0.9459686
339523569314847	0.6947174	-0.88375854	0.88731384
339523573984036	0.68862915	-0.83122253	0.8091278
339523579965482	0.666626	-0.7762451	0.71751404
339523584024320	0.6324158	-0.7176056	0.6185303
339523589120755	0.58843994	-0.6565094	0.5183563
339523594369779	0.53712463	-0.5929718	0.42549133
339523599557767	0.48214722	-0.535553	0.3448639
339523602487454	0.48214722	-0.48303223	0.3448639
339523609659085	0.3660736	-0.48303223	0.23492432
339523614236722	0.3086548	-0.39505005	0.20191956
339523619363675	0.25245667	-0.3547516	0.18115234
339523624307523	0.25245667	-0.31809998	0.17015076
339523630319486	0.17182922	-0.31809998	0.17015076
339523634378324	0.17182922	-0.26556396	0.17015076
339523639902005	0.13882446	-0.26556396	0.1799469
339523644754300	0.0337677	-0.22279358	0.19215393
339523650003324	-0.198349	-0.11773682	0.18727112
339523652841458	-0.5159912	0.03253174	0.15794373
339523660409818	-0.7713318	0.13392639	0.1151886
339523664651761	-0.85684204	0.12294006	0.08831787
339523670358548	-0.8165436	0.06309509	0.089538574
339523674692044	-0.8018646	0.08505249	0.10418701
339523680246244	-0.90815735	0.22555542	0.098083496
339523684762845	-1.0975342	0.37950134	0.06021118
339523690652738	-1.2661285	0.43569946	0.0040130615
339523695291410	-1.3443146	0.40393066	-0.03996277
339523700570951	-1.346756	0.36972046	-0.053390503
339523703164945	-1.3357697	0.39537048	-0.041168213
339523710641751	-1.360199	0.4698944	-0.020401001
339523714975247	-1.4249573	0.5407562	-0.0082092285
339523720895658	-1.4958191	0.5713196	-0.009414673
339523725015531	-1.5214691	0.5529938	-0.013092041
339523730691800	-1.4652557	0.4980011	-0.009414673
339523735116849	-1.3186646	0.4308014	0.0064697266
339523740365872	-1.0938568	0.35871887	0.03211975
339523746011624	-0.8079834	0.28909302	0.05899048
339523751108060	-0.48298645	0.22311401	0.07975769
339523761148343	0.20359802	0.170578	0.1005249
339523765268216	0.52856445	0.1217041	0.09075928
339523770608792	0.8278961	0.12294006	0.05899048
339523775369535	0.8278961	0.1375885	0.05899048
339523781442533	1.3287964	0.1375885	-0.0692749
339523785470853	1.3287964	0.19134521	-0.0692749
339523791360745	1.6488953	0.19134521	-0.19755554
339523796182523	1.6488953	0.30374146	-0.19755554
339523801614652	1.7038727	0.30374146	-0.23544312
339523811593900	1.5511475	0.4491272	-0.23544312
339523815652738	1.3507843	0.507782	-0.20123291
339523821542630	1.0868835	0.54319763	-0.15602112
339523825754056	0.7729187	0.54808044	-0.1169281
339523831460843	0.42105103	0.5224304	-0.099823
339523835824857	0.04232788	0.46868896	-0.10714722
339523841806302	-0.34007263	0.39292908	-0.1352539
339523846750150	-0.69070435	0.31718445	-0.18411255
339523851785550	-0.97413635	0.27197266	-0.25497437
339523861886869	-1.2648926	0.33306885	-0.4138031
339523866006742	-1.2648926	0.39904785	-0.44677734
339523872201810	-1.1683807	0.44058228	-0.42601013
339523876077542	-0.9863434	0.43936157	-0.3637085
339523881936917	-0.7420044	0.4124756	-0.2830658
339523886148343	-0.46957397	0.39537048	-0.21220398
339523891977201	-0.19589233	0.41371155	-0.16334534
339523897104154	0.060638428	0.46624756	-0.13891602
339523902078519	0.28544617	0.533432	-0.11936951
339523904672513	0.28544617	0.59085083	-0.11936951
339523912332425	0.6152954	0.59085083	-0.01675415
339523916360745	0.6152954	0.6030731	-0.01675415
339523922555814	0.7631378	0.6030731	0.22515869
339523926431546	0.7631378	0.49310303	0.22515869
339523932168851	0.76802063	0.49310303	0.5122528
339523936502347	0.7435913	0.37216187	0.5122528
339523942331204	0.7069397	0.37216187	0.6173248
339523946878324	0.6690674	0.29641724	0.67230225
339523952737699	0.63609314	0.1999054	0.6661835
339523962747464	0.57743835	0.038650513	0.4963684
339523966714749	0.53222656	-0.001663208	0.375412
339523972757230	0.4638214	-0.051757813	0.2642517
339523976785550	0.37828064	-0.14094543	0.1775055
339523982309232	0.28544617	-0.25456238	0.122528076
339523986886869	0.177948	-0.3461914	0.1005249
339523993326078	0.048431396	-0.38284302	0.11152649
339523997232328	-0.10549927	-0.357193	0.14450073
339524003152738	-0.26185608	-0.28877258	0.1823883
339524013254056	-0.5049896	-0.12506104	0.21903992
339524017129788	-0.5770874	-0.061523438	0.21780396
339524023141751	-0.61250305	-0.015106201	0.21780396
339524027170072	-0.61250305	0.026443481	0.23124695
339524033090482	-0.5844116	0.071624756	0.25569153
339524037210355	-0.5367584	0.12414551	0.29112244
339524043710599	-0.4768982	0.17546082	0.33509827
339524047738919	-0.4109192	0.21455383	0.3925171
339524053354154	-0.34371948	0.23532104	0.4633789
339524063547025	-0.23010254	0.2341156	0.59532166
339524067422757	-0.23010254	0.1681366	0.59532166
339524073739896	-0.12747192	0.1681366	0.6392975
339524077493558	-0.12747192	0.016662598	0.6392975
339524083505521	-0.02243042	0.016662598	0.6307678
339524087564359	-0.02243042	-0.21546936	0.6307678
339524093454251	0.021560669	-0.21546936	0.6209717
339524098062406	0.054534912	-0.33518982	0.62586975
339524103769193	0.07286072	-0.45370483	0.6808319
339524114084134	0.10096741	-0.6491852	0.95573425
339524117746244	0.10952759	-0.6430664	1.0449219
339524124124417	0.087524414	-0.5673218	1.0033875
339524127847562	0.016662598	-0.51600647	0.8421173
339524133523831	-0.09693909	-0.57832336	0.6344147
339524137948880	-0.21788025	-0.732254	0.44873047
339524144449124	-0.30830383	-0.871521	0.30332947
339524148355374	-0.35227966	-0.9081726	0.16770935
339524154458890	-0.35472107	-0.84098816	0.011352539
339524164560208	-0.31806946	-0.7310333	-0.30018616
339524168130765	-0.31074524	-0.627182	-0.4028015
339524174478421	-0.30706787	-0.6943817	-0.47122192
339524178232083	-0.29241943	-0.8263397	-0.51763916
339524183969388	-0.26185608	-0.9875946	-0.54818726
339524188272367	-0.21911621	-1.1403046	-0.56285095
339524195016751	-0.17146301	-1.2649231	-0.55552673
339524198678861	-0.12747192	-1.3565521	-0.52497864
339524204507718	-0.083496094	-1.4213104	-0.4724579
339524214853177	0.0019989014	-1.4591827	-0.2989502
339524218484769	0.0019989014	-1.4701843	-0.2989502
339524225015531	0.080200195	-1.4701843	-0.099823
339524228586087	0.080200195	-1.4567413	-0.099823
339524234720120	0.11317444	-1.4567413	0.033325195
339524238656888	0.14006042	-1.4762878	0.033325195
339524245370755	0.16938782	-1.5263824	0.07121277
339524249185453	0.16938782	-1.6851959	0.07121277
339524255044828	0.17182922	-1.6851959	0.06265259
339524265268216	0.15350342	-1.8146973	0.040664673
339524268808255	0.12541199	-1.861145	0.027236938
339524275339017	0.087524414	-1.9136658	0.0052337646
339524278940091	0.041107178	-1.9771881	-0.030166626
339524283975492	-0.011444092	-2.0578308	-0.07293701
339524288980374	-0.0700531	-2.166565	-0.114471436
339524295419583	-0.12503052	-2.31073	-0.14990234
339524301004300	-0.1678009	-2.476883	-0.17311096
339524306009183	-0.19223022	-2.6393738	-0.17190552
339524314187894	-0.19955444	-2.782318	-0.053390503
339524319223294	-0.1824646	-3.0425415	0.06877136
339524325418363	-0.14335632	-3.1818237	0.22268677
339524329263578	-0.07861328	-3.3259735	0.3998413
339524334360013	0.010559082	-3.464035	0.59165955
339524339364896	0.11685181	-3.58255	0.790802
339524344400296	0.22680664	-3.6705017	0.97650146
339524349740872	0.329422	-3.7303772	1.1255646
339524354501615	0.329422	-3.78656	1.1255646
339524357828031	0.4112854	-3.78656	1.2159576
339524364541898	0.4638214	-3.8623047	1.2416229
339524369577298	0.4797058	-3.9600525	1.2171936
339524374612699	0.45037842	-4.0565796	1.165863
339524379617581	0.37095642	-4.118881	1.12677
339524385141263	0.24024963	-4.1213226	1.1316528
339524389688382	0.071640015	-4.057785	1.1976318
339524394815335	-0.107940674	-3.9392853	1.3259125
339524400247464	-0.27774048	-3.800003	1.5042877
339524404886136	-0.4329071	-3.672943	1.7119904
339524408151517	-0.57585144	-3.5788727	1.9257965
339524414956937	-0.70903015	-3.5104523	2.118805
339524419961820	-0.8360748	-3.4481506	2.267868
339524424936185	-0.95947266	-3.3699493	2.350937
339524429971585	-1.0853119	-3.2661133	2.350937
339524435495267	-1.2172699	-3.1524963	2.2593231
339524440072904	-1.3553162	-3.0474243	2.0943909
339524446634183	-1.4958191	-2.9655762	1.8940277
339524450570951	-1.6338654	-2.9032593	1.7034302
339524455209622	-1.7315979	-2.8568268	1.529953
339524458475003	-1.7315979	-2.8446198	1.529953
339524465280423	-1.6436462	-2.8446198	1.153656
339524470254788	-1.552002	-2.9325867	0.98262024
339524475290189	-1.5825653	-2.9130402	0.87631226
339524480325589	-1.7878113	-2.7798767	0.8494415
339524485666165	-2.1176758	-2.5843964	0.895874
339524490396390	-2.48909	-2.4072418	1.0204773
339524495462308	-2.48909	-2.283844	1.0204773
339524500924954	-3.152481	-2.283844	1.4260864
339524505533109	-3.152481	-2.0700378	1.4260864
339524508890042	-3.3919373	-2.0700378	1.5959167
339524515573392	-3.5568695	-1.9197693	1.69487
339524520608792	-3.642395	-1.74263	1.7303162
339524525674710	-3.642395	-1.5703583	1.7156372
339524530710111	-3.54953	-1.444519	1.6655731
339524536050687	-3.3650513	-1.3797607	1.594696
339524540780911	-3.10849	-1.3516693	1.5103912
339524545816312	-2.8091736	-1.3247833	1.4175568
339524551126370	-2.500061	-1.2869263	1.3124847
339524555856595	-2.2007446	-1.2551575	1.1964264
339524559244046	-1.9209747	-1.2490387	1.0693512
339524565957913	-1.6680756	-1.2661438	0.9337311
339524570993314	-1.4493866	-1.2808075	0.8054657
339524575998197	-1.2722473	-1.2734833	0.70407104
339524581064115	-1.1488495	-1.2368317	0.6527405
339524586557279	-1.0975342	-1.1793976	0.6576233
339524591104398	-1.1305237	-1.1048889	0.7162781
339524596139798	-1.2453613	-1.0205841	0.8237915
339524601632962	-1.4200745	-0.92529297	0.97406006
339524606210599	-1.617981	-0.81777954	1.1475372
339524609567533	-1.617981	-0.6943817	1.1475372
339524616342435	-1.9026489	-0.6943817	1.4187622
339524621316800	-1.9209747	-0.42681885	1.4493256
339524626382718	-1.8586578	-0.2924347	1.399231
339524631418119	-1.7438354	-0.13970947	1.2904968
339524637246976	-1.5996552	0.036209106	1.1585388
339524641488919	-1.5996552	0.21211243	1.1585388
339524646493802	-1.4384003	0.21211243	1.0400391
339524651986966	-1.2624512	0.35383606	0.9594116
339524656595120	-1.075531	0.44180298	0.92640686
339524659952054	-0.8825073	0.4980011	0.9312897
339524666635404	-0.6858063	0.5493164	0.961853
339524671670804	-0.49154663	0.6042938	1.0070496
339524676736722	-0.30586243	0.64216614	1.0583649
339524681772122	-0.12870789	0.64338684	1.1047821
339524687448392	0.04232788	0.6042938	1.141449
339524691812406	0.21092224	0.5358734	1.167099
339524696847806	0.3770752	0.4491272	1.1817474
339524702157865	0.54566956	0.34773254	1.1854248
339524706918607	0.7228241	0.23899841	1.1756592
339524710306058	0.9122009	0.12782288	1.1585388
339524716989408	1.1076508	0.008117676	1.1353302
339524722055326	1.3031311	-0.12506104	1.0974579
339524727060208	1.5010681	-0.27288818	1.0314789
339524732126126	1.7050934	-0.42437744	0.92884827
339524737588773	1.91156	-0.5770874	0.7956848
339524742166410	2.0948334	-0.7298126	0.65641785
339524747201810	2.2206573	-0.871521	0.5452423
339524752542386	2.270752	-0.9863739	0.4817047
339524757303128	2.2548676	-1.0633545	0.46461487
339524760629544	2.2548676	-1.103653	0.46461487
339524767373929	2.1192474	-1.103653	0.44628906
339524772439847	2.0300598	-1.1097717	0.4022827
339524777414212	1.9347687	-1.103653	0.33021545
339524782480130	1.9347687	-1.1158905	0.23612976
339524788461576	1.7600708	-1.1158905	0.12496948
339524792550931	1.7600708	-1.1659698	0.12496948
339524797647367	1.7026367	-1.1659698	0.017440796
339524803140531	1.6684265	-1.1525421	-0.06317139
339524807657132	1.6488953	-1.0914459	-0.099823
339524810983548	1.6317749	-0.9973755	-0.09248352
339524817727933	1.6110077	-0.9032898	-0.058288574
339524822732816	1.589035	-0.83366394	-0.021636963
339524827768216	1.5682678	-0.7945709	-8.8500977E-4
339524832834134	1.5499268	-0.76890564	0.0027923584
339524838174710	1.5181732	-0.7224884	-8.8500977E-4
339524842904935	1.4485321	-0.62841797	0.0064697266
339524847940335	1.3116913	-0.48423767	0.040664673
339524853372464	1.102768	-0.31809998	0.101745605
339524857980619	0.8498688	-0.17391968	0.17626953
339524861368070	0.59576416	-0.088409424	0.23492432
339524868112454	0.38075256	-0.072525024	0.25689697
339524873117337	0.21824646	-0.116500854	0.23248291
339524878152738	0.10462952	-0.20202637	0.1665039
339524883157620	0.026443481	-0.3144226	0.07487488
339524888894925	-0.019973755	-0.4414978	-0.026519775
339524893258939	-0.035858154	-0.5673218	-0.13157654
339524898355374	-0.017532349	-0.6699524	-0.23908997
339524903634915	0.03010559	-0.7285919	-0.35638428
339524908334622	0.09729004	-0.7285919	-0.48954773
339524911752591	0.09729004	-0.6638336	-0.48954773
339524918405423	0.24145508	-0.6638336	-0.8084259
339524923471341	0.28788757	-0.39260864	-0.9916687
339524928476224	0.28788757	-0.23501587	-1.1932678
339524933511624	0.23413086	-0.23501587	-1.1932678
339524939004788	-0.021209717	-0.04197693	-1.664856
339524943612943	-0.49154663	0.480896	-1.664856
339524948617826	-1.0352325	0.480896	-1.9189606
339524954110990	-1.4444885	0.65071106	-2.165741
339524958688626	-1.622879	0.7301178	-2.4003143
339524962045560	-1.6143188	0.8620758	-2.6263428
339524968820462	-1.5190277	1.1565094	-2.8389282
339524973855863	-1.4090729	1.5450287	-3.0258484
339524978860745	-1.3137817	1.8699951	-3.1761322
339524983896146	-1.2478027	2.0557098	-3.2934113
339524989419828	-1.2123566	2.1436615	-3.3777008
339524993966947	-1.2099152	2.1852112	-3.4229126
339524998971829	-1.2392426	2.190094	-3.4155884
339525004464994	-1.2844543	2.1424408	-3.3410492
339525009134183	-1.3125458	2.0288239	-3.1895752
339525012399564	-1.2905731	1.8455658	-2.9647675
339525019143949	-1.2038269	1.5926666	-2.6874237
339525024148831	-1.0437622	1.2615662	-2.385666
339525029214749	-0.8104248	0.8278656	-2.096115
339525034250150	-0.51475525	0.3000946	-1.8493347
339525039987454	-0.19223022	-0.2288971	-1.6660614
339525044290433	0.09364319	-0.5722046	-1.5451202
339525049325833	0.28056335	-0.5563202	-1.4754944
339525054666410	0.34042358	-0.15315247	-1.4522552
339525059427152	0.29644775	0.49310303	-1.4877014
339525062784085	0.29644775	1.1626129	-1.4877014
339525069558988	0.13761902	1.1626129	-1.8090057
339525074502835	0.13761902	2.010498	-1.8090057
339525079568753	0.12661743	2.010498	-2.0900116
339525084573636	0.19747925	2.1485596	-2.411316
339525089975247	0.3587494	2.1363373	-2.7289581
339525094674954	0.6030884	2.0056152	-3.000183
339525099679837	0.91708374	1.7869263	-3.1956635
339525105050931	1.2774811	1.5132599	-3.306839
339525109750638	1.6513367	1.2359161	-3.3483734
339525116952786	2.2780762	1.0209045	-3.3043976
339525119851956	2.2780762	0.8840637	-3.3043976
339525124887357	2.4295654	0.8840637	-3.220108
339525129892240	2.3977966	0.8901825	-3.0698242
339525134927640	2.1546936	0.8816223	-2.8364868
339525140420804	1.7393036	0.8657532	-2.5347137
339525145059476	1.2493896	0.8694	-2.2097473
339525150033841	0.79000854	0.8987274	-1.9201965
339525155923734	0.4271698	0.92071533	-1.7137146
339525160104642	0.18159485	0.8987274	-1.6086426
339525163461576	0.04232788	0.82666016	-1.5939941
339525170205960	-0.0065460205	0.73991394	-1.6465302
339525175241361	0.011779785	0.68125916	-1.7357178
339525180246244	0.07531738	0.67515564	-1.8334503
339525185312161	0.15594482	0.7069092	-1.909195
339525190805326	0.23046875	0.73257446	-1.9372864
339525195413480	0.27934265	0.71058655	-1.8969727
339525200418363	0.2927704	0.62750244	-1.7809143
339525206277738	0.26712036	0.5016632	-1.6000977
339525210458646	0.20603943	0.36239624	-1.3826294
339525213846097	0.20603943	0.23899841	-1.3826294
339525220529447	0.11805725	0.23899841	-1.1663818
339525225564847	0.014221191	0.14859009	-0.98313904
339525230630765	-0.09815979	0.10461426	-0.8487396
339525235635648	-0.21911621	0.10461426	-0.7558899
339525241403470	-0.34495544	0.12414551	-0.68014526
339525245736966	-0.47322083	0.12538147	-0.60072327
339525250772367	-0.59051514	0.10461426	-0.52375793
339525256082425	-0.68214417	0.12782288	-0.47366333
339525260812650	-0.7310028	0.31106567	-0.4797821
339525264169583	-0.73223877	0.738678	-0.5542908
339525270913968	-0.68214417	1.3959656	-0.6886749
339525275918851	-0.5819702	2.1656494	-0.864624
339525280984769	-0.4341278	2.888916	-1.0600891
339525285989652	-0.24353027	3.4301453	-1.2568054
339525291879544	-0.012649536	3.7270203	-1.4424896
339525296090970	0.25245667	3.7868805	-1.611084
339525301095853	0.54689026	3.6475983	-1.7576904
339525306527982	0.85354614	3.3495178	-1.8811035
339525311197171	1.1394196	2.910904	-1.9788208
339525314523587	1.1394196	2.334259	-2.036255
339525321267972	1.5462646	2.334259	-2.026474
339525326333890	1.6574554	0.84742737	-1.9189606
339525331338773	1.7136383	0.07041931	-1.6819458
339525336374173	1.7001953	-0.59420776	-1.3093262
339525341867337	1.5963593	-1.076767	-0.83529663
339525346414456	1.4033203	-1.3736725	-0.33927917
339525351480374	1.1773071	-1.5471497	0.0834198
339525356912503	1.002594	-1.6888733	0.3656311
339525361520658	1.002594	-1.8696747	0.49391174
339525364877591	0.94885254	-1.8696747	0.49391174
339525371621976	1.0355835	-2.1140137	0.50735474
339525376626859	1.2322845	-2.402359	0.4584961
339525381692777	1.479065	-2.6980133	0.38639832
339525386728177	1.7221985	-2.9631195	0.29234314
339525392373929	1.9152374	-3.1683807	0.16038513
339525396768460	2.0276184	-3.2514496	-0.028961182
339525401834378	2.042282	-3.1219635	-0.27697754
339525407297025	1.9677582	-2.738327	-0.5567322
339525411905179	1.8272552	-2.1848907	-0.8145294
339525415231595	1.6513367	-1.6509857	-0.9941101
339525421945462	1.4729614	-1.2893677	-1.0600891
339525426980863	1.3165741	-1.1219788	-1.017334
339525432046781	1.1968536	-1.0853271	-0.90127563
339525437051663	1.1076508	-1.1048889	-0.74121094
339525442392240	1.0245819	-1.1232147	-0.54940796
339525447122464	0.9280853	-1.0987701	-0.33439636
339525452188382	0.8132324	-1.0095825	-0.1181488
339525457467923	0.692276	-0.871521	0.06265259
339525462228665	0.5847626	-0.732254	0.18847656
339525465616117	0.5847626	-0.6381836	0.18847656
339525472299466	0.447937	-0.6381836	0.28012085
339525477365384	0.40396118	-0.64186096	0.27278137
339525482370267	0.35995483	-0.72125244	0.24102783
339525487466703	0.30743408	-0.82022095	0.19094849
339525492868314	0.24391174	-0.9142914	0.122528076
339525497476468	0.16938782	-0.9949341	0.038223267
339525502511869	0.09240723	-1.0706787	-0.055847168
339525508005033	0.027664185	-1.1439819	-0.14746094
339525512582669	0.027664185	-1.1977234	-0.14746094
339525515939603	-0.019973755	-1.1977234	-0.23176575
339525522653470	-0.06272888	-1.2062836	-0.30873108
339525527688870	-0.12626648	-1.1537476	-0.3820343
339525532724271	-0.23010254	-1.0462341	-0.45289612
339525537790189	-0.3779297	-0.90696716	-0.522522
339525543222318	-0.5587616	-0.75302124	-0.59950256
339525547830472	-0.76400757	-0.60520935	-0.69358826
339525552896390	-0.98513794	-0.48423767	-0.8084259
339525558298001	-1.2172699	-0.4048462	-0.94036865
339525562936673	-1.451828	-0.36940002	-1.0845337
339525566354642	-1.670517	-0.36940002	-1.2299194
339525573007474	-1.8391113	-0.40849304	-1.3557434
339525578042874	-1.906311	-0.52212524	-1.431488
339525583108792	-1.8232269	-0.75668335	-1.4204865
339525588113675	-1.5727844	-1.117096	-1.3007813
339525593484769	-1.1855011	-1.5373688	-1.0771942
339525598184476	-0.72979736	-1.89534	-0.7778778
339525603250394	-0.28018188	-2.0944824	-0.4455719
339525608529935	0.10707092	-2.1079254	-0.12181091
339525613290677	0.40272522	-1.9845276	0.1640625
339525616647611	0.40272522	-1.8061523	0.1640625
339525623391995	0.7289276	-1.8061523	0.52323914
339525628427396	0.7814636	-1.5740356	0.5672302
339525633462796	0.7741394	-1.5911255	0.52812195
339525638467679	0.719162	-1.6851959	0.43040466
339525644327054	0.62753296	-1.8061523	0.29966736
339525648538480	0.51145935	-1.8990021	0.15184021
339525653573880	0.51145935	-1.9295502	0.15184021
339525658883939	0.3843994	-1.9295502	-0.19511414
339525663644681	0.26834106	-1.8965607	-0.19511414
339525667062650	0.19503784	-1.8354645	-0.3979187
339525673745999	0.1962738	-1.7988129	-0.63005066
339525678781400	0.2952118	-1.8330231	-0.90615845
339525683786283	0.48703003	-1.9503174	-1.239685
339525688821683	0.7289276	-2.1348114	-1.6330872
339525694345365	0.95617676	-2.3547058	-2.065567
339525698892484	1.1150055	-2.5868378	-2.4980621
339525703927884	1.1760712	-2.8324127	-2.8731384
339525709390531	1.1308899	-3.096283	-3.1211548
339525713998685	0.9818268	-3.363861	-3.1614532
339525717355619	0.7460327	-3.5507813	-2.923233
339525724100003	0.46138	-3.515335	-2.3868713
339525729104886	0.18647766	-3.1292877	-1.6391907
339525734140286	-0.02609253	-2.3876953	-0.87316895
339525739206204	-0.15435791	-1.4408569	-0.29162598
339525744699369	-0.20933533	-0.5196686	0.008911133
339525749399076	-0.22399902	0.1717987	0.07121277
339525754281888	-0.22399902	0.521225	0.0027923584
339525760110745	-0.20933533	0.50289917	-0.1181488
339525764352689	-0.1641388	0.16081238	-0.25009155
339525767770658	-0.1641388	-0.396286	-0.25009155
339525774423490	0.025222778	-0.396286	-0.4406891
339525779458890	0.1437378	-1.5288239	-0.46022034
339525784494290	0.25978088	-1.834259	-0.42845154
339525789560208	0.3660736	-1.8977966	-0.35760498
339525794870267	0.4650421	-1.7536163	-0.26229858
339525799600492	0.4650421	-1.4909515	-0.26229858
339525804666410	0.55667114	-1.4909515	-0.15602112
339525809945951	0.63974	-1.2197266	-0.049728394
339525814706693	0.7069397	-1.0205841	0.040664673
339525818063626	0.7496948	-0.90208435	0.101745605
339525824777494	0.7631378	-0.82022095	0.12496948
339525829812894	0.7374878	-0.7481384	0.12373352
339525834878812	0.66539	-0.7090454	0.113967896
339525839883695	0.53834534	-0.75424194	0.10296631
339525845376859	0.36975098	-0.88864136	0.07609558
339525849985013	0.18771362	-1.0499115	0.029678345
339525854989896	0.0337677	-1.1525421	-0.0155181885
339525860360990	-0.063964844	-1.1476593	-0.028961182
339525865091214	-0.09449768	-1.0462341	-0.009414673
339525868387113	-0.0700531	-0.88375854	0.021118164
339525875162015	-0.0077667236	-0.693161	0.0357666
339525880197415	0.067977905	-0.51356506	0.033325195
339525885232816	0.13638306	-0.3865204	0.021118164
339525890237699	0.1803894	-0.33763123	0.0027923584
339525895761380	0.19381714	-0.3645172	-0.026519775
339525900339017	0.18403625	-0.43414307	-0.0692749
339525905374417	0.164505	-0.5013428	-0.12791443
339525910867581	0.15594482	-0.53067017	-0.19387817
339525915445218	0.17059326	-0.5172272	-0.25376892
339525918802152	0.17059326	-0.48303223	-0.25376892
339525925485501	0.276886	-0.48303223	-0.31851196
339525930520902	0.3416443	-0.45248413	-0.32583618
339525935556302	0.3978424	-0.45126343	-0.32217407
339525940622220	0.3978424	-0.43293762	-0.3111725
339525945932279	0.49191284	-0.3865204	-0.29530334
339525950662503	0.49191284	-0.32662964	-0.29530334
339525955728421	0.54811096	-0.32662964	-0.27697754
339525961007962	0.61408997	-0.2802124	-0.26109314
339525965768704	0.6837158	-0.26556396	-0.251297
339525969156156	0.7435913	-0.277771	-0.25376892
339525975870023	0.78634644	-0.2960968	-0.26353455
339525980874906	0.82177734	-0.30221558	-0.27330017
339525985910306	0.86698914	-0.2850952	-0.28674316
339525990945706	0.94273376	-0.23379517	-0.31607056
339525996286283	1.0490265	-0.14094543	-0.3661499
339526001077542	1.1626587	-0.009002686	-0.4186859
339526006051908	1.2469482	0.13638306	-0.4480133
339526011789212	1.2701569	0.2548828	-0.45410156
339526016122708	1.2176208	0.32574463	-0.45533752
339526019479642	1.1003265	0.35017395	-0.4724579
339526026193509	0.94151306	0.33551025	-0.5029907
339526031259427	0.7765808	0.2842102	-0.52742004
339526036294828	0.6421814	0.2011261	-0.52864075
339526041330228	0.56521606	0.11071777	-0.49931335
339526046823392	0.54689026	0.038650513	-0.4504547
339526051401029	0.56643677	0.0019989014	-0.3954773
339526056415334	0.59332275	0.0044403076	-0.33927917
339526062305227	0.60676575	0.04597473	-0.27941895
339526066516653	0.59942627	0.12414551	-0.21588135
339526069843069	0.59942627	0.22923279	-0.21588135
339526076587454	0.54689026	0.22923279	-0.09370422
339526081622854	0.52368164	0.47113037	-0.04360962
339526086627737	0.52368164	0.599411	-0.002090454
339526091693655	0.50779724	0.599411	-0.002090454
339526097156301	0.49679565	0.7362366	0.09686279
339526101733938	0.48947144	1.0025787	0.09686279
339526106769338	0.48703003	1.0025787	0.1616211
339526112231985	0.48458862	1.0917664	0.22636414
339526116840139	0.48214722	1.1357422	0.27523804
339526120227590	0.47846985	1.1467438	0.29234314
339526126941458	0.474823	1.1369629	0.28012085
339526131946340	0.47236633	1.1125336	0.25080872
339526136981741	0.46870422	1.0722046	0.22636414
339526142078176	0.4638214	1.023346	0.2141571
339526147357717	0.4564972	0.97569275	0.21780396
339526152087942	0.4454956	0.9341583	0.23492432
339526157123342	0.42593384	0.9036102	0.2642517
339526162402883	0.39416504	0.8914032	0.30210876
339526167194143	0.35386658	0.90483093	0.3448639
339526170581594	0.31721497	0.9427185	0.38519287
339526177264944	0.2976532	1.0001373	0.42304993
339526182300344	0.30621338	1.0697632	0.4560547
339526187366262	0.3440857	1.1504059	0.4817047
339526192371145	0.40760803	1.2432404	0.4975891
339526198230520	0.48825073	1.345871	0.5037079
339526202441946	0.573761	1.4509583	0.5012665
339526207477346	0.6483002	1.5535889	0.49147034
339526212848440	0.6983948	1.6452026	0.4792633
339526217548147	0.7142792	1.7233887	0.46705627
339526220905081	0.7142792	1.7783661	0.46705627
339526227649465	0.6372986	1.7783661	0.45117188
339526232684866	0.6372986	1.7856903	0.45117188
339526237720266	0.57011414	1.7856903	0.43772888
339526242755667	0.53222656	1.7233887	0.4096222
339526248615042	0.7020569	1.661087	0.30578613
339526252795950	0.7020569	1.7710419	0.30578613
339526257861868	0.88531494	1.7710419	0.26179504
339526263355032	1.0575714	1.8871002	0.22392273
339526267963186	1.1760712	1.9176483	0.16770935
339526271289602	1.2420502	1.8431244	0.0821991
339526278033987	1.2701569	1.727066	-0.0069732666
339526283038870	1.265274	1.6366577	-0.053390503
339526288104788	1.2115173	1.5853424	-0.035079956
339526293109670	1.0917816	1.5523529	0.033325195
339526300647512	0.67274475	1.5242615	0.15794373
339526303210989	0.67274475	1.4717255	0.15794373
339526308215872	0.41984558	1.4717255	0.17138672
339526313983694	0.18403625	1.425293	0.1616211
339526318256155	-0.001663208	1.3214569	0.14694214
339526321643606	-0.1177063	1.1333008	0.1335144
339526328357473	-0.1653595	0.8755188	0.122528076
339526333392874	-0.16290283	0.59085083	0.11152649
339526338397756	-0.13725281	0.33306885	0.1005249
339526343433157	-0.107940674	0.1400299	0.08708191
339526348773733	-0.08717346	0.034988403	0.07609558
339526353595510	-0.084732056	0.0178833	0.073654175
339526358539358	-0.10914612	0.07286072	0.0834198
339526364307180	-0.1665802	0.18035889	0.09442139
339526368610159	-0.24720764	0.31230164	0.08831787
339526371997610	-0.24720764	0.41859436	0.08831787
339526378680959	-0.32783508	0.41859436	0.057769775
339526383746877	-0.37670898	0.45280457	0.013793945
339526388751760	-0.38160706	0.4124756	-0.02772522
339526393848196	-0.3486023	0.34283447	-0.06072998
339526399280325	-0.29486084	0.29885864	-0.08149719
339526403888479	-0.24108887	0.30618286	-0.090042114
339526408862844	-0.19955444	0.36116028	-0.086380005
339526414203420	-0.17634583	0.45524597	-0.07661438
339526418994680	-0.1690216	0.5700836	-0.0680542
339526422290579	-0.17878723	0.67881775	-0.066833496
339526429095999	-0.19589233	0.7570038	-0.070495605
339526434100881	-0.21299744	0.79000854	-0.07537842
339526439105764	-0.22276306	0.7826538	-0.082717896
339526444171682	-0.21788025	0.74967957	-0.09492493
339526449664846	-0.2007904	0.7069092	-0.110809326
339526454242483	-0.17146301	0.65927124	-0.13035583
339526459247366	-0.1348114	0.6030731	-0.14746094
339526464740530	-0.088378906	0.5309906	-0.15968323
339526469318167	-4.4250488E-4	0.467453	-0.17434692
339526472888723	0.16938782	0.4980011	-0.19631958
339526479419485	0.40396118	0.69836426	-0.21099854
339526484424368	0.62020874	1.0074615	-0.19387817
339526489459768	0.7301636	1.2359161	-0.14257813
339526494495168	0.7154846	1.2359161	-0.09248352
339526500262991	0.6311798	1.0404358	-0.08026123
339526504565969	0.53712463	0.78144836	-0.110809326
339526509631887	0.46258545	0.54319763	-0.16090393
339526514911428	0.4137268	0.3343048	-0.20855713
339526519672170	0.4137268	0.16447449	-0.24520874
339526523059622	0.3929596	0.059417725	-0.24520874
339526529742971	0.39663696	0.059417725	-0.26963806
339526534778372	0.4296112	0.026443481	-0.28186035
339526539844290	0.49679565	0.04232788	-0.28674316
339526544849172	0.60188293	0.07286072	-0.28674316
339526550586477	0.7289276	0.09239197	-0.28918457
339526554919973	0.84498596	0.09605408	-0.29774475
339526559985891	0.9182892	0.09849548	-0.3123932
339526565265432	0.9256439	0.10949707	-0.32217407
339526570026174	0.85842896	0.11805725	-0.3111725
339526573505178	0.7240448	0.107055664	-0.2671814
339526580096975	0.54444885	0.06430054	-0.19023132
339526585162893	0.35995483	-0.001663208	-0.098587036
339526590167776	0.20359802	-0.07740784	-0.010650635
339526595264211	0.087524414	-0.14706421	0.061431885
339526600696340	-0.001663208	-0.17271423	0.12007141
339526605304495	-0.08961487	-0.100616455	0.16770935
339526610309377	-0.19589233	0.08140564	0.20191956
339526616229788	-0.3143921	0.30986023	0.21780396
339526620410696	-0.4255829	0.4772339	0.2141571
339526623950735	-0.4255829	0.5089874	0.19703674
339526630481497	-0.54408264	0.5089874	0.16894531
339526635577932	-0.5453186	0.19622803	0.1298523
339526640521780	-0.5245514	-0.07984924	0.08097839
339526645557180	-0.49642944	-0.396286	0.037002563
339526651080862	-0.46957397	-0.71881104	0.017440796
339526655658499	-0.4463501	-1.0144653	0.028442383
339526660663381	-0.4268036	-1.2734833	0.06021118
339526666034475	-0.4133606	-1.4836121	0.09686279
339526670734182	-0.4133606	-1.6204529	0.09686279
339526674152151	-0.415802	-1.6204529	0.13717651
339526680804983	-0.442688	-1.6656647	0.19215393
339526685870901	-0.4927826	-1.6509857	0.27278137
339526690906301	-0.561203	-1.6387787	0.37052917
339526695911184	-0.63571167	-1.6864319	0.4426117
339526701679006	-0.7016907	-1.8110504	0.4426117
339526706043020	-0.7444458	-1.9881897	0.35464478
339526711017385	-0.7542114	-2.1726685	0.21659851
339526716357961	-0.738327	-2.3314972	0.085861206
339526721088186	-0.7151184	-2.4463348	-8.8500977E-4
339526724567190	-0.7077942	-2.5135345	-0.035079956
339526731158987	-0.7236786	-2.541626	0.024780273
339526736194387	-0.7505646	-2.5489502	0.25080872
339526741260305	-0.76400757	-2.5623932	0.6820679
339526746265188	-0.74324036	-2.5782776	1.2379608
339526751605764	-0.6882477	-2.5599518	1.7571869
339526756366506	-0.62228394	-2.4695435	2.1029358
339526761401907	-0.56484985	-2.3143768	2.2336578
339526766711965	-0.52575684	-2.1470184	2.1762543
339526771472708	-0.50743103	-2.0248413	1.9734344
339526775012747	-0.50743103	-1.9600983	1.9734344
339526781543508	-0.50131226	-1.9600983	1.3882294
339526786548391	-0.4512329	-1.8232574	1.1768646
339526791583792	-0.31074524	-1.6155701	1.1096802
339526796649709	-0.057861328	-1.2392731	1.1988678
339526802142874	0.28178406	-0.6772766	1.410202
339526806689993	0.6421814	0.016662598	1.6728973
339526811816946	0.6421814	0.725235	1.9099121
339526817218557	1.1785278	1.320221	2.0577393
339526821796194	1.1785278	1.7221832	2.0577393
339526825580374	1.3019257	1.7221832	2.0772705
339526831897512	1.331253	1.9127655	1.9600067
339526836902395	1.2835999	1.9078674	1.7449646
339526841937795	1.1760712	1.7172699	1.51651
339526846973196	1.0074921	1.3373413	1.3772278
339526852466360	0.7509308	0.78144836	1.3735657
339526857043997	0.3795166	0.12414551	1.4712982
339526862079397	-0.10670471	-0.5001221	1.5604858
339526867481008	-0.64793396	-0.9607086	1.5470581
339526872180715	-1.1500549	-1.2111664	1.4151154
339526875842825	-1.5227051	-1.3052521	1.2281952
339526882220999	-1.7315979	-1.3272247	1.0559235
339526887256399	-1.8134613	-1.3211365	0.92396545
339526892322317	-1.8611145	-1.2710419	0.8213501
339526897357717	-1.9502869	-1.1635132	0.7468109
339526902728811	-2.09935	-1.0218048	0.70162964
339526907489553	-2.2630463	-0.88375854	0.6820679
339526912463918	-2.3815613	-0.75668335	0.67474365
339526918201223	-2.4279938	-0.62597656	0.6783905
339526922534719	-2.4157715	-0.48057556	0.7101593
339526926624075	-2.3925476	-0.316864	0.7932434
339526932575002	-2.409668	-0.13606262	0.9496155
339526937640920	-2.504959	0.06918335	1.1866302
339526942645803	-2.694336	0.31718445	1.4981842
339526947742239	-2.9667664	0.6226196	1.8708191
339526953204885	-3.2978516	0.98669434	2.2910767
339526957782522	-3.2978516	1.3605499	2.2910767
339526962756887	-3.6167297	1.3605499	2.7394562
339526968158499	-3.8012085	1.6048889	3.1634064
339526972888723	-3.724228	1.5279083	3.4761505
339526976917043	-3.3601685	1.0331116	3.5677795
339526982959524	-2.8226013	0.2610016	3.3588562
339526987964407	-2.3009338	-0.45126343	2.8579712
339526992999807	-1.9392853	-0.81166077	2.1664581
339526998065725	-1.7792511	-0.78845215	1.4260864
339527003528372	-1.7890167	-0.6161804	0.7541504
339527008106008	-1.9124298	-0.59176636	0.22392273
339527013141409	-2.063919	-0.87031555	-0.12791443
339527018573538	-2.0834656	-1.3932037	-0.3013916
339527023212209	-1.8000183	-1.8843536	-0.3319397
339527027667776	-1.2209167	-1.9723053	-0.27209473
339527033313528	-0.58561707	-1.4958344	-0.16456604
339527038318411	-0.14335632	-0.7224884	-0.042404175
339527043353811	0.08996582	-0.17147827	0.07975769
339527048419729	0.3086548	-0.12138367	0.22268677
339527053729788	0.6849518	-0.37184143	0.41940308
339527058521047	1.221283	-0.50990295	0.6661835
339527063495413	1.8260498	-0.3156433	0.8983154
339527068927542	2.40271	0.115615845	1.0375977
339527073566213	2.8718262	0.5395508	1.062027
339527077838674	2.8718262	0.73747253	1.0082703
339527083637014	3.1601715	0.73747253	0.9312897
339527088672415	2.8327332	0.34162903	0.8518982
339527093738333	2.1779022	0.0044403076	0.7504883
339527098804251	1.3006897	-0.27288818	0.60020447
339527104175344	0.3843994	-0.48791504	0.39619446
339527108814016	0.3843994	-0.66018677	0.39619446
339527113940969	-0.37426758	-0.66018677	0.17015076
339527119251028	-0.8482971	-0.7481384	-0.020401001
339527123920217	-1.024231	-0.6785126	-0.12913513
339527128253713	-0.98513794	-0.4256134	-0.13401794
339527134021536	-0.83851624	-0.046875	-0.041168213
339527139087454	-0.66503906	0.35751343	0.12861633
339527144061819	-0.4976654	0.70814514	0.34732056
339527149158254	-0.3461609	0.97203064	0.58921814
339527154620901	-0.21055603	1.1504059	0.8360138
339527159168020	-0.07737732	1.2554779	1.0913544
339527164203420	0.0667572	1.3031311	1.3735657
339527169666067	0.23901367	1.3153381	1.696106
339527174396292	0.44670105	1.3128967	2.0577393
339527178760305	0.69351196	1.3128967	2.4291534
339527184345022	0.9683838	1.3153381	2.7553406
339527189441458	1.2298431	1.2994537	2.9324799
339527194415823	1.3959961	1.1882782	2.8127594
339527199451223	1.3715515	0.82666016	2.2825317
339527205341116	1.1369781	0.06918335	1.4004364
339527209552542	0.7741394	-1.0340271	0.43528748
339527214587942	0.4161682	-2.1286926	-0.2855072
339527219898001	0.14126587	-2.7371063	-0.59706116
339527224628225	-0.056625366	-2.6124878	-0.57385254
339527228687063	-0.056625366	-1.9063263	-0.57385254
339527234699026	-0.3986969	-1.9063263	-0.26474
339527239734426	-0.56484985	-0.38528442	-0.20487976
339527244769827	-0.56484985	-0.13726807	-0.22076416
339527249805227	-0.68214417	-0.13726807	-0.22076416
339527255145803	-0.69802856	-0.2582245	-0.27330017
339527259906545	-0.5685272	-0.6088562	-0.3282776
339527264911428	-0.27409363	-1.0486755	-0.3624878
339527270252004	0.16571045	-1.497055	-0.3795929
339527274982229	0.692276	-1.9161072	-0.39424133
339527279163137	1.2176208	-2.2594147	-0.42845154
339527285053030	1.6623383	-2.46344	-0.48587036
339527290118948	1.9885254	-2.4817657	-0.54452515
339527295123831	2.2121124	-2.3204956	-0.56773376
339527301471487	2.3807068	-2.0565948	-0.53596497
339527305652395	2.5346527	-1.8195801	-0.4748993
339527310291067	2.684906	-1.741394	-0.43089294
339527315295950	2.8046417	-1.8855591	-0.44189453
339527321033254	2.8571777	-2.195877	-0.5188751
339527325336233	2.8217316	-2.5269775	-0.6557007
339527329791799	2.720337	-2.738327	-0.82307434
339527335468069	2.6030731	-2.7664337	-0.97946167
339527340564504	2.5236511	-2.6173706	-1.0869751
339527345508352	2.5004272	-2.3314972	-1.1309509
339527350513235	2.501648	-1.9539795	-1.134613
339527356372610	2.4723358	-1.5263824	-1.1187286
339527360584036	2.3709412	-1.0841217	-1.0784149
339527365619436	2.1925507	-0.6650696	-0.98313904
339527371051565	1.9628754	-0.32174683	-0.82551575
339527375690237	1.7173157	-0.12017822	-0.6349335
339527379047170	1.7173157	-0.10429382	-0.6349335
339527385822073	1.3373413	-0.10429382	-0.3856964
339527390796438	1.3373413	-0.39872742	-0.3856964
339527395831838	1.2188416	-0.39872742	-0.3710327
339527400867239	1.0673523	-0.40605164	-0.40647888
339527406360403	0.7826843	-0.13482666	-0.46266174
339527410938040	0.342865	0.43447876	-0.50787354
339527416003958	-0.1653595	1.206604	-0.51519775
339527421375051	-0.600296	2.0202637	-0.47122192
339527426074758	-0.87272644	2.719101	-0.3930359
339527430652395	-0.99246216	3.194336	-0.32217407
339527436115042	-1.0169067	3.4057007	-0.29774475
339527441150442	-0.9863434	3.3641663	-0.3356018
339527446185842	-0.89105225	3.1405945	-0.42112732
339527451251760	-0.70658875	2.853485	-0.522522
339527456561819	-0.4304657	2.6262512	-0.60072327
339527461322561	-0.0859375	2.5321808	-0.6349335
339527466357961	0.28178406	2.5737152	-0.6227112
339527471668020	0.63609314	2.7129822	-0.56529236
339527476398245	0.950058	2.91214	-0.47610474
339527481097952	1.2029572	3.1320343	-0.3649292
339527486469045	1.3825531	3.3275146	-0.24885559
339527491534963	1.4912872	3.4411469	-0.1352539
339527496539846	1.5413818	3.4411469	-0.022842407
339527501636282	1.548706	3.3348541	0.085861206
339527507098928	1.5279388	3.1613617	0.1933899
339527511676565	1.4876251	2.9720001	0.29844666
339527516773001	1.4363098	2.8095093	0.3998413
339527522022024	1.3813477	2.7080994	0.5012665
339527526782766	1.3226929	2.678772	0.60632324
339527530139700	1.3226929	2.7142181	0.60632324
339527536884084	1.2579346	2.7142181	0.7187195
339527541888967	1.1870728	2.7899628	0.8311157
339527546893850	1.1064453	2.8840332	0.9312897
339527551929251	1.0172577	2.976883	1.014389
339527557452932	0.91708374	3.0489655	1.0815735
339527562000051	0.8095703	3.0795135	1.1292114
339527567065969	0.6971588	3.0611877	1.1512146
339527572559133	0.58599854	3.0013275	1.1389923
339527577136770	0.48214722	2.9170227	1.0901184
339527580463186	0.39416504	2.8168488	1.0107117
339527587329641	0.32453918	2.6995392	0.90808105
339527592212454	0.27812195	2.5541687	0.7871399
339527597247854	0.26223755	2.3721313	0.6527405
339527602283254	0.29644775	2.1558838	0.5012665
339527607593313	0.40272522	1.9091034	0.32165527
339527612415090	0.587204	1.6146545	0.0993042
339527617389456	0.8254547	1.2457123	-0.17190552
339527623004690	1.0612335	0.77900696	-0.47122192
339527627460256	1.2432861	0.22799683	-0.75465393
339527630847708	1.2432861	-0.357193	-0.9733429
339527637561575	1.3825531	-0.357193	-1.0979614
339527642566458	1.3593445	-1.3565521	-1.1394958
339527647601858	1.2897034	-1.6681061	-1.1419373
339527652698293	1.1834259	-1.8427887	-1.1566162
339527658008352	1.0502472	-1.9051208	-1.2067108
339527662738577	0.8938751	-1.873352	-1.2714539
339527667743459	0.7350464	-1.7450714	-1.3105469
339527673084036	0.6165314	-1.5178223	-1.3105469
339527677814260	0.6165314	-1.2368317	-1.2787781
339527681201711	0.573761	-0.9888153	-1.2787781
339527687885061	0.56643677	-0.9888153	-1.2176819
339527692920461	0.50779724	-0.80677795	-1.1114044
339527697955862	0.37583923	-0.6247406	-0.97213745
339527703052297	0.26834106	-0.3730774	-0.8499603
339527708453909	0.28788757	-0.09451294	-0.7778778
339527713092581	0.395401	0.10827637	-0.7167969
339527718097463	0.4454956	0.22923279	-0.59950256
339527723529592	0.33674622	0.39904785	-0.4015808
339527728168264	0.09240723	0.738678	-0.17066956
339527731525198	-0.17390442	1.2347107	0.022338867
339527738269583	-0.34983826	1.7575989	0.13717651
339527743274465	-0.37060547	2.1583252	0.16282654
339527748340383	-0.24108887	2.3440247	0.12007141
339527753345266	-0.019973755	2.2805023	0.04310608
339527758838430	0.21704102	2.0043793	-0.025283813
339527763416067	0.41249084	1.6024475	-0.054611206
339527768481985	0.53834534	1.1858368	-0.041168213
339527774097219	0.5896454	0.8596344	-0.003326416
339527778522268	0.587204	0.6690521	0.027236938
339527781909719	0.587204	0.59817505	0.027236938
339527788593069	0.5493469	0.59817505	-0.0057678223
339527793628469	0.56643677	0.53466797	-0.070495605
339527798755422	0.60432434	0.43203735	-0.15968323
339527803699270	0.6470642	0.27809143	-0.26109314
339527809406057	0.6812744	0.10949707	-0.3637085
339527813953176	0.705719	-0.03465271	-0.44921875
339527818805471	0.732605	-0.12750244	-0.50665283
339527824603811	0.7802429	-0.15559387	-0.5347595
339527828876272	0.7802429	-0.12870789	-0.5347595
339527832263723	0.8816376	-0.12870789	-0.54818726
339527838947073	1.0575714	-0.088409424	-0.57995605
339527844012991	1.2860413	-0.09207153	-0.6520386
339527849048391	1.4973907	-0.16539001	-0.7680969
339527854144827	1.6342163	-0.3070984	-0.89271545
339527859882131	1.6843109	-0.51600647	-0.9598999
339527864124075	1.6452179	-0.78845215	-0.9232483
339527869159475	1.4815063	-1.0645599	-0.7827606
339527874622122	1.1760712	-1.2026215	-0.55552673
339527879260793	0.8095703	-1.0437927	-0.20976257
339527882556692	0.5334625	-0.52578735	0.30210876
339527889301077	0.43449402	0.25364685	0.94229126
339527894366995	0.46258545	1.0648804	1.5470581
339527899493948	0.5187988	1.6525269	1.9294434
339527904437795	0.55055237	1.8846588	2.0125275
339527910297170	0.573761	1.8162537	1.8439331
339527914600149	0.62020874	1.6256561	1.5091858
339527919513479	0.69595337	1.469284	1.0791321
339527925464407	0.76924133	1.3862	0.61364746
339527929584280	0.7888031	1.3018951	0.17138672
339527932941213	0.7888031	1.102768	0.17138672
339527939716116	0.49313354	1.102768	-0.48954773
339527944690481	0.19136047	0.2023468	-0.7033539
339527949725881	-0.14213562	-0.3132019	-0.86216736
339527954761282	-0.4512329	-0.67115784	-0.9819031
339527960315481	-0.7016907	-0.7970123	-1.0710907
339527965076223	-0.88861084	-0.7114868	-1.1382904
339527969867483	-0.88861084	-0.50624084	-1.1382904
339527976032034	-1.1195221	-0.50624084	-1.1944733
339527979968801	-1.1195221	-0.081085205	-1.1944733
339527983356252	-1.2074738	-0.081085205	-1.173706
339527990039602	-1.3003387	0.07406616	-1.1236115
339527995044485	-1.3931885	0.21699524	-1.0539856
339528000201956	-1.4750519	0.37094116	-0.9709015
339528005389944	-1.5336761	0.53466797	-0.87805176
339528010608450	-1.5691223	0.68247986	-0.7803192
339528015582815	-1.5764465	0.7802124	-0.6874695
339528020221487	-1.5556793	0.8022156	-0.6080475
339528025409475	-1.5141449	0.750885	-0.54696655
339528030292288	-1.4726105	0.64826965	-0.5029907
339528033710256	-1.4506073	0.5224304	-0.4748993
339528040393606	-1.4542847	0.38804626	-0.4663391
339528045398489	-1.4738159	0.24876404	-0.4773407
339528050433889	-1.5043793	0.107055664	-0.51275635
339528055804983	-1.5397949	-0.032211304	-0.56285095
339528060992971	-1.5776672	-0.16539001	-0.6031647
339528065723196	-1.6167603	-0.2899933	-0.61050415
339528070575491	-1.6582947	-0.40116882	-0.57385254
339528076648489	-1.7071686	-0.49035645	-0.5005493
339528080646292	-1.7597198	-0.5538788	-0.4113617
339528084003225	-1.7597198	-0.6027374	-0.4113617
339528090778127	-1.8378906	-0.6027374	-0.21099854
339528095813528	-1.8452301	-0.7237091	-0.10470581
339528100818411	-1.8244629	-0.80555725	-0.0082092285
339528105823293	-1.7780457	-0.8825226	0.06877136
339528111438528	-1.7120667	-0.9436188	0.117630005
339528115894094	-1.7120667	-0.9827118	0.117630005
339528120960012	-1.6302032	-0.9827118	0.14085388
339528127124563	-1.4261627	-1.003479	0.13841248
339528131030813	-1.4261627	-0.9863739	0.13841248
339528134357229	-1.3101044	-0.9863739	0.12496948
339528141101614	-1.2001495	-0.924057	0.1151886
339528146137014	-1.1072998	-0.80799866	0.12373352
339528151141897	-1.0413208	-0.64430237	0.15794373
339528156238333	-1.0059052	-0.45980835	0.21536255
339528161517874	-0.9997864	-0.2899933	0.28378296
339528166705862	-1.0181122	-0.15315247	0.35098267
339528171283499	-1.0523224	-0.056640625	0.4084015
339528177509084	-1.09021	-0.0028839111	0.4499359
339528181354299	-1.1195221	0.0056610107	0.4719391
339528184711233	-1.1317444	-0.029769897	0.47314453
339528191455618	-1.1231842	-0.100616455	0.45361328
339528196491018	-1.0987549	-0.19348145	0.4181671
339528201526418	-1.0718842	-0.2948761	0.375412
339528206989065	-1.0584412	-0.38407898	0.33509827
339528211871877	-1.0694427	-0.44514465	0.31311035
339528216724172	-1.1109772	-0.46470642	0.31921387
339528221637502	-1.1818237	-0.44514465	0.36442566
339528227588430	-1.2746887	-0.4024048	0.4560547
339528231708303	-1.3760834	-0.3486328	0.59165955
339528235095754	-1.3760834	-0.28877258	0.59165955
339528241809622	-1.5507965	-0.28877258	0.94229126
339528246936575	-1.6082153	-0.14706421	1.1194458
339528251849905	-1.644867	-0.07496643	1.2770538
339528257007376	-1.6741791	-0.009002686	1.410202
339528262439504	-1.7108307	0.048416138	1.5238342
339528267139211	-1.7108307	0.09484863	1.5238342
339528271991506	-1.7572479	0.09484863	1.6264496
339528278156057	-1.853775	0.12782288	1.8341522
339528282062307	-1.853775	0.14492798	1.8341522
339528285419241	-1.8745422	0.14492798	1.9538879
339528292163626	-1.853775	0.12538147	2.0858307
339528297321096	-1.7768097	0.07652283	2.2031097
339528302234426	-1.6387482	-0.0077667236	2.264206
339528309741751	-1.2710114	-0.11894226	1.9245605
339528312640920	-1.2710114	-0.34739685	1.9245605
339528318286672	-1.1195221	-0.34739685	1.3833466
339528322345510	-1.0217896	-0.44758606	0.6490936
339528328052297	-0.96681213	-0.5196686	-0.042404175
339528332446829	-0.93626404	-0.52212524	-0.41256714
339528335803762	-0.92037964	-0.42681885	-0.3331604
339528342487112	-0.92037964	-0.25456238	0.08097839
339528347766653	-0.94236755	-0.072525024	0.56233215
339528352557913	-0.9802551	0.047210693	0.88243103
339528357990042	-1.0278778	0.0655365	0.9630585
339528362933889	-1.0792084	-0.012664795	0.85310364
339528368182913	-1.1366272	-0.14338684	0.64297485
339528372699514	-1.2038269	-0.2618866	0.39619446
339528379352346	-1.280777	-0.3156433	0.14450073
339528382739797	-1.3430939	-0.3132019	-0.090042114
339528386127249	-1.3430939	-0.31930542	-0.090042114
339528392871633	-1.2795715	-0.31930542	-0.45533752
339528398761526	-1.1146393	-0.614975	-0.57507324
339528402942434	-1.1146393	-0.88375854	-0.641037
339528408893362	-0.58807373	-0.88375854	-0.6385956
339528413470999	-0.27285767	-1.2881317	-0.56529236
339528418933645	0.036209106	-1.3174591	-0.44677734
339528423084036	0.036209106	-1.2124023	-0.44677734
339528428516165	0.2976532	-1.2124023	-0.31851196
339528433154836	0.47236633	-0.9863739	-0.21832275
339528436450735	0.52978516	-0.6785126	-0.18167114
339528443286672	0.46258545	-0.35107422	-0.23297119
339528449023977	0.28422546	-0.0627594	-0.3771515
339528453296438	0.036209106	0.14614868	-0.5897217
339528459125295	-0.21177673	0.25	-0.82185364
339528464221731	-0.3791504	0.236557	-1.0112305
339528469348684	-0.40725708	0.11315918	-1.1199646
339528473407522	-0.27409363	-0.09329224	-1.1382904
339528479266897	0.0019989014	-0.33642578	-1.0869751
339528483508840	0.37219238	-0.5795288	-1.0002289
339528486835256	0.7729187	-0.81533813	-0.9208069
339528493579641	1.1504211	-1.076767	-0.8865967
339528499347463	1.4644165	-1.4017639	-0.91226196
339528503650442	1.6843109	-1.7829285	-0.96725464
339528509479299	1.794281	-2.1457825	-1.0099945
339528514331594	1.7979431	-2.3705902	-1.0136719
339528519855276	1.7368469	-2.375473	-0.9892273
339528523761526	1.6721039	-2.1751099	-0.95625305
339528529712454	1.6513367	-1.8623505	-0.9183655
339528533832327	1.6879883	-1.5300446	-0.85972595
339528537189260	1.6879883	-1.2124023	-0.85972595
339528543903127	1.8272552	-1.2124023	-0.59584045
339528549793020	1.8406982	-0.5526581	-0.35882568
339528554004446	1.8406982	-0.19348145	-0.35882568
339528560413137	1.5658112	-0.19348145	0.25080872
339528564716116	1.2762604	0.41859436	0.5012665
339528570300833	0.95617676	0.585968	0.6307678
339528574115530	0.95617676	0.6531677	0.6307678
339528580035940	0.6983948	0.6531677	0.62220764
339528584247366	0.59088135	0.64094543	0.5037079
339528587512747	0.67030334	0.54808044	0.32409668
339528594318167	0.91464233	0.35871887	0.12861633
339528600269094	1.2493896	0.0874939	-0.06072998
339528604358450	1.5975647	-0.19224548	-0.23908997
339528610950247	1.9103546	-0.39016724	-0.39179993
339528615375295	2.16568	-0.45736694	-0.4907837
339528620410696	2.3526154	-0.396286	-0.50665283
339528624500051	2.4601135	-0.24356079	-0.43701172
339528630115286	2.475998	-0.032211304	-0.31607056
339528634570852	2.3953552	0.20967102	-0.18167114
339528637927786	2.221878	0.44424438	-0.057052612
339528644641653	1.9579926	0.6055145	0.057769775
339528650287405	1.6158905	0.5786438	0.15306091
339528654712454	1.2396088	0.23287964	0.20436096
339528660602346	0.9207306	-0.45492554	0.18482971
339528665241018	0.7558136	-1.2979126	0.1005249
339528670947805	0.80345154	-1.973526	-8.8500977E-4
339528674854055	1.0441437	-2.2508698	-0.066833496
339528680866018	1.4021149	-2.1543427	-0.079055786
339528684894338	1.7845001	-1.8904419	-0.055847168
339528688251272	1.7845001	-1.6558685	-0.055847168
339528695026174	2.1082458	-1.6558685	-0.0362854
339528700946584	2.3794708	-1.5263824	-0.09248352
339528705035940	2.3794708	-1.4127655	-0.09248352
339528710986868	2.0715942	-1.4127655	-0.23908997
339528715411917	2.0715942	-0.9167328	-0.23908997
339528721545950	1.4741821	-0.9167328	-0.3466034
339528725177542	1.4741821	0.21334839	-0.3466034
339528731311575	1.2017517	0.21334839	-0.3783722
339528735248342	0.9732666	0.7802124	-0.40647888
339528738635793	0.7790222	1.1736145	-0.43577576
339528745319143	0.6055298	1.3385468	-0.46878052
339528751514211	0.45159912	1.293335	-0.4956665
339528755420461	0.3343048	1.0966492	-0.5091095
339528762073293	0.27322388	0.8193054	-0.5139923
339528765765920	0.27812195	0.5309906	-0.52742004
339528771564260	0.34042358	0.29885864	-0.5701752
339528775562063	0.43937683	0.17669678	-0.6398163
339528782336965	0.56033325	0.18157959	-0.7290039
339528785602346	0.6971588	0.2976532	-0.82429504
339528788959280	0.6971588	0.480896	-0.9159241
339528795703665	1.02948	0.480896	-0.9892273
339528801898733	1.1931915	0.9182739	-1.0332184
339528805743948	1.3238983	1.1308594	-1.0454407
339528812213674	1.4155426	1.333664	-1.0368805
339528816241995	1.4741821	1.5596771	-1.0209961
339528820880667	1.49617	1.8553467	-1.0014648
339528825885549	1.457077	2.2389526	-0.9660187
339528831409231	1.331253	2.666565	-0.8988342
339528835986868	1.1137695	3.0599518	-0.7901001
339528839313284	1.1137695	3.339737	-0.7901001
339528846057668	0.83154297	3.339737	-0.6532593
339528852222219	0.23413086	3.439911	-0.3991394
339528856128469	0.23413086	2.932907	-0.3991394
339528862628713	-0.15802002	2.932907	-0.3331604
339528866870657	-0.15802002	1.7075043	-0.3331604
339528871234670	-0.23376465	1.7075043	-0.3856964
339528876270071	-0.22399902	1.1271973	-0.48098755
339528881824270	-0.118927	0.71302795	-0.61172485
339528886340872	0.09484863	0.47233582	-0.77542114
339528889667288	0.4137268	0.36361694	-0.9684601
339528896411672	0.80101013	0.34283447	-1.1688232
339528902667776	1.2090759	0.39660645	-1.3447571
339528906482473	1.6036835	0.5224304	-1.4766998
339528911548391	1.9628754	0.71180725	-1.5512238
339528916827932	2.2499847	0.9402771	-1.5561218
339528921619192	2.4100342	1.1589508	-1.470581
339528926624075	2.3977966	1.3055725	-1.2995453
339528931964651	2.2169952	1.3348846	-1.0869751
339528936694876	1.9360046	1.2469177	-0.89515686
339528940051809	1.9360046	1.0868835	-0.89515686
339528946796194	1.4033203	1.0868835	-0.7057953
339528951770559	1.2420502	0.69226074	-0.6764679
339528956836477	1.1467743	0.45768738	-0.641037
339528961902395	1.1040039	0.2011261	-0.5872803
339528967365042	1.1003265	-0.048080444	-0.53596497
339528971973196	1.1259766	-0.2472229	-0.50419617
339528976947561	1.1565399	-0.3486328	-0.48587036
339528982349172	1.1602173	-0.31930542	-0.45289612
339528987018362	1.1602173	-0.15927124	-0.45289612
339528990375295	1.1052094	-0.15927124	-0.3991394
339528997119680	0.9793854	0.10093689	-0.3490448
339529002246633	0.80833435	0.40637207	-0.3282776
339529007190481	0.64097595	0.7044678	-0.3331604
339529012225881	0.52612305	0.935379	-0.34049988
339529017719045	0.48703003	1.02211	-0.31362915
339529022296682	0.5016937	0.896286	-0.23420715
339529027301565	0.51145935	0.5566406	-0.12669373
339529032794729	0.45037842	0.11071777	-0.054611206
339529037402883	0.28666687	-0.28633118	-0.07661438
339529040698782	0.021560669	-0.52456665	-0.20367432
339529047473684	-0.32174683	-0.6027374	-0.38935852
339529052478567	-0.71391296	-0.6039734	-0.56407166
339529057513967	-1.11586	-0.6308594	-0.6691437
339529062549368	-1.4774933	-0.7310333	-0.6581421
339529067889944	-1.7401581	-0.84710693	-0.5164337
339529072650686	-1.8598785	-0.85198975	-0.26597595
339529077686086	-1.828125	-0.65527344	0.02355957
339529083545461	-1.6815033	-0.2802124	0.25201416
339529087756887	-1.4811401	0.14736938	0.32043457
339529091083303	-1.4811401	0.4967804	0.32043457
339529097827688	-1.1060791	0.4967804	-0.16578674
339529102832571	-0.9961395	0.7692108	-0.6385956
339529107898489	-0.98269653	0.70202637	-1.1492767
339529112903372	-1.088974	0.5102234	-1.6208649
339529118671194	-1.307663	0.20845032	-2.004486
339529123004690	-1.5923309	-0.16171265	-2.284256
339529128009573	-1.5923309	-0.5563202	-2.284256
339529133777395	-2.1445465	-0.5563202	-2.5567017
339529138110891	-2.1445465	-1.3382263	-2.5567017
339529141437307	-2.369339	-1.3382263	-2.5750275
339529148212209	-2.5904846	-1.7133026	-2.533493
339529153186575	-2.8360443	-2.0627136	-2.4345245
339529158221975	-3.1072693	-2.3412628	-2.2610474
339529163257376	-3.3772583	-2.4695435	-1.9861755
339529168781057	-3.6106262	-2.3535004	-1.5939941
339529173358694	-3.7865448	-1.9503174	-1.0967407
339529178394094	-3.9026184	-1.3003693	-0.53352356
339529184283987	-3.9575958	-0.52456665	0.045547485
339529188434377	-3.9465942	0.2206726	0.6014404
339529191791311	-3.8635254	0.8095398	1.0974579
339529198535696	-3.7169037	1.1748352	1.5018463
339529203571096	-3.5373077	1.3018951	1.7901764
339529208606497	-3.374817	1.2053833	1.9514465
339529213641897	-3.2685394	0.9194946	2.0076447
339529219135061	-3.234314	0.4857788	2.0003052
339529223712698	-3.2636414	-0.046875	1.9783325
339529228748098	-3.3369598	-0.6345062	1.9819794
339529234637991	-3.4285889	-1.2319336	2.0369568
339529238818899	-3.5165405	-1.7988129	2.1505737
339529242114797	-3.5165405	-2.2984924	2.1505737
339529248920217	-3.6216125	-2.2984924	2.5195465
339529253894583	-3.627716	-3.0364227	2.7309113
339529258960501	-3.6008453	-3.275879	2.9239502
339529264026418	-3.5263214	-3.4261627	3.0595398
339529269336477	-3.3723755	-3.460373	3.0754242
339529274066702	-3.3723755	-3.3308563	3.0754242
339529279102102	-3.1097107	-3.3308563	2.8848267
339529284991995	-2.2361908	-2.9777832	1.6508942
339529289172903	-2.2361908	-1.5361481	1.6508942
339529292499319	-1.7401581	-1.5361481	0.76148987
339529299213186	-1.3455505	-0.66871643	0.0015563965
339529304523245	-1.1305237	0.0019989014	-0.4003601
339529309314504	-1.0804291	0.32086182	-0.396698
339529314319387	-1.102417	0.31106567	-0.1352539
339529319659963	-1.0987549	0.1375885	0.1616211
339529324390188	-1.0254364	-0.029769897	0.35098267
339529329425588	-0.8959503	-0.109176636	0.4084015
339529334796682	-0.7505646	-0.107940674	0.38639832
339529339526907	-0.62228394	-0.07008362	0.3424225
339529342883840	-0.520874	-0.039535522	0.30944824
339529349597708	-0.43901062	-0.04197693	0.29112244
339529354633108	-0.3620453	-0.081085205	0.27890015
339529359668508	-0.27897644	-0.14582825	0.2642517
339529364673391	-0.19589233	-0.21546936	0.24836731
339529370166555	-0.12992859	-0.25334167	0.23736572
339529374774709	-0.111587524	-0.21546936	0.23980713
339529379779592	-0.1678009	-0.065200806	0.25569153
339529385303274	-0.3143921	0.19012451	0.28134155
339529389850393	-0.53552246	0.4882202	0.30578613
339529393207327	-0.53552246	0.73135376	0.30578613
339529399951711	-1.051117	0.73135376	0.30455017
339529404956594	-1.2600098	0.750885	0.26913452
339529409991995	-1.399292	0.5053406	0.22515869
339529415057913	-1.4616089	0.1510315	0.1933899
339529420490042	-1.4506073	-0.23745728	0.18603516
339529425128713	-1.4506073	-0.5832062	0.18603516
339529430164114	-1.3663177	-0.5832062	0.20559692
339529435657278	-1.2148132	-0.8141022	0.24836731
339529440204397	-1.0083466	-0.88131714	0.30699158
339529443622366	-0.77989197	-0.77500916	0.37786865
339529450275198	-0.56240845	-0.53067017	0.45237732
339529455280081	-0.39137268	-0.21424866	0.5159149
339529460376516	-0.2850952	0.10949707	0.56233215
339529465381399	-0.25209045	0.38316345	0.58555603
339529471118704	-0.2826538	0.573761	0.58921814
339529475452200	-0.3644867	0.66537476	0.57699585
339529480518118	-0.4793396	0.6531677	0.5476837
339529485828176	-0.60517883	0.5419922	0.5024719
339529490558401	-0.72491455	0.34407043	0.4426117
339529493976370	-0.8238678	0.0874939	0.37786865
339529500629202	-0.883728	-0.18859863	0.31555176
339529505634084	-0.89227295	-0.43782043	0.2642517
339529510730520	-0.8470764	-0.61009216	0.22636414
339529515765920	-0.7578888	-0.67115784	0.19947815
339529521228567	-0.64915466	-0.6198578	0.1823883
339529525806204	-0.5404358	-0.49401855	0.1665039
339529530841604	-0.4451294	-0.35107422	0.1481781
339529536182180	-0.37182617	-0.23867798	0.12373352
339529540942922	-0.32174683	-0.18003845	0.098083496
339529544269338	-0.32174683	-0.17515564	0.098083496
339529551013723	-0.27774048	-0.17515564	0.044326782
339529556049124	-0.26797485	-0.2765503	0.012557983
339529561054006	-0.26797485	-0.36695862	-0.028961182
339529566089407	-0.24964905	-0.36695862	-0.028961182
339529571613088	-0.14335632	-0.47447205	-0.1511383
339529576190725	-0.14335632	-0.6882782	-0.1511383
339529581226126	-0.035858154	-0.6882782	-0.23544312
339529586749807	0.11929321	-0.7444763	-0.33805847
339529591296926	0.31721497	-0.73713684	-0.4590149
339529594653860	0.54566956	-0.65774536	-0.59339905
339529601337209	0.78512573	-0.52090454	-0.7338867
339529606372610	1.016037	-0.357193	-0.87316895
339529611438528	1.2249603	-0.1971283	-1.0039063
339529616443411	1.4033203	-0.056640625	-1.1175232
339529621783987	1.5474854	0.06674194	-1.2079163
339529626544729	1.6672211	0.17669678	-1.2641296
339529631549612	1.7832794	0.25852966	-1.2787781
339529637103811	1.9213257	0.29029846	-1.253128
339529641650930	2.0887146	0.26220703	-1.1932678
339529645007864	2.2683105	0.1876831	-1.1138458
339529651691213	2.4259186	0.09849548	-1.0283203
339529656726614	2.5334167	0.019104004	-0.9476929
339529661762014	2.5859528	-0.04197693	-0.87561035
339529666766897	2.5957184	-0.08961487	-0.80718994
339529672137991	2.5859528	-0.14338684	-0.74365234
339529676868215	2.568863	-0.22525024	-0.6813507
339529681903616	2.5493011	-0.3486328	-0.61660767
339529687244192	2.5297546	-0.50868225	-0.54696655
339529691974417	2.5138702	-0.68460083	-0.4638977
339529695361868	2.5138702	-0.86543274	-0.4638977
339529702075735	2.5236511	-0.86543274	-0.26474
339529707111135	2.5236511	-1.2539368	-0.16090393
339529712146536	2.5505219	-1.2539368	-0.16090393
339529717151418	2.5981598	-1.4762878	-0.070495605
339529722675100	2.6775818	-1.7035217	-0.0045318604
339529727222219	2.8034058	-1.886795	0.024780273
339529732288137	2.9744568	-1.9674225	0.024780273
339529737750784	3.1601715	-1.8977966	0.012557983
339529742328420	3.3177643	-1.6705475	0.012557983
339529745685354	3.4008484	-1.3199005	0.03944397
339529752429739	3.3947449	-0.9057312	0.09075928
339529757465139	3.3153229	-0.49157715	0.15794373
339529762470022	3.1907043	-0.14094543	0.23612976
339529767535940	3.0465393	0.09605408	0.31433105
339529772968069	2.8975067	0.19378662	0.38031006
339529777606741	2.754547	0.16081238	0.41452026
339529782642141	2.6250458	0.04232788	0.40351868
339529788165823	2.5175323	-0.107940674	0.3448639
339529792712942	2.4381256	-0.2447815	0.2434845
339529796039358	2.3917084	-0.33642578	0.11152649
339529802753225	2.3831482	-0.3596344	-0.028961182
339529807788626	2.413681	-0.30342102	-0.15602112
339529812854543	2.4808807	-0.17759705	-0.25009155
339529817889944	2.5749512	7.7819824E-4	-0.30384827
339529823230520	2.689804	0.21090698	-0.32339478
339529827991262	2.811966	0.43447876	-0.3111725
339529832996145	2.9268188	0.64094543	-0.27574158
339529838794485	3.02211	0.7985382	-0.22200012
339529843066946	3.091751	0.8852844	-0.16212463
339529846423879	3.091751	0.8987274	-0.16212463
339529853137747	3.136963	0.8987274	-0.11325073
339529858142629	3.1601715	0.8535156	-0.090042114
339529863208547	3.161377	0.77412415	-0.1010437
339529868243948	3.1381683	0.68003845	-0.14013672
339529874194876	3.0074463	0.59573364	-0.24153137
339529878314749	3.0074463	0.5175476	-0.24153137
339529883319631	2.890152	0.5175476	-0.27085876
339529889117971	2.7325592	0.51878357	-0.27330017
339529893420950	2.532196	0.519989	-0.24765015
339529896777883	2.2878418	0.51142883	-0.20611572
339529903491751	2.0056305	0.4992218	-0.15602112
339529908496633	1.7001953	0.4882202	-0.10714722
339529913532034	1.3959961	0.4698944	-0.061935425
339529918597952	1.1137695	0.4308014	-0.021636963
339529924030081	0.86698914	0.36727905	0.012557983
339529928638235	0.6556244	0.28909302	0.04310608
339529933704153	0.47114563	0.21699524	0.0663147
339529939136282	0.30499268	0.170578	0.07975769
339529943805471	0.1437378	0.15715027	0.08097839
339529947070852	0.1437378	0.170578	0.073654175
339529953845754	-0.19100952	0.170578	0.056549072
339529958850637	-0.36816406	0.2206726	0.030883789
339529963886038	-0.5453186	0.24511719	-0.003326416
339529968951956	-0.7175598	0.27441406	-0.04484558
339529974292532	-0.8788452	0.302536	-0.090042114
339529978992239	-1.0254364	0.315979	-0.13645935
339529984058157	-1.1525116	0.302536	-0.18289185
339529989581838	-1.2575684	0.2610016	-0.22808838
339529994128958	-1.334549	0.2023468	-0.27697754
339529997485891	-1.334549	0.14614868	-0.27697754
339530004169241	-1.3846283	0.14614868	-0.3331604
339530009204641	-1.4078522	0.10217285	-0.396698
339530014270559	-1.4139557	0.07896423	-0.46022034
339530019305959	-1.412735	0.08140564	-0.5139923
339530025043264	-1.4115143	0.12049866	-0.5506439
339530029346243	-1.4151764	0.2011261	-0.57507324
339530034412161	-1.4163971	0.315979	-0.58361816
339530039722219	-1.4053955	0.45768738	-0.57141113
339530044452444	-1.3663177	0.6177368	-0.52375793
339530047839895	-1.2734528	0.79000854	-0.4321289
339530054584280	-1.1072998	0.95736694	-0.30018616
339530059558645	-0.85684204	1.0942078	-0.13891602
339530064624563	-0.5367584	1.1577301	0.026000977
339530069629446	-0.18856812	1.1186371	0.16526794
339530075153127	0.13761902	0.9634857	0.24713135
339530079730764	0.40516663	0.70570374	0.25813293
339530084735647	0.6055298	0.38316345	0.1982727
339530090503469	0.7558136	0.06309509	0.07609558
339530094836965	0.87675476	-0.17271423	-0.08760071
339530098132864	0.87675476	-0.2594452	-0.08760071
339530104907766	1.0807953	-0.2594452	-0.43945313
339530109973684	1.1834259	-0.0627594	-0.5897217
339530114948049	1.3153687	0.06309509	-0.7167969
339530120013967	1.4851837	0.11193848	-0.80352783
339530125446096	1.6745453	0.031326294	-0.7974243
339530130084768	1.8419342	-0.18615723	-0.6422577
339530135120168	1.9506531	-0.48179626	-0.317276
339530140979543	1.9653168	-0.7408142	0.12861633
339530145190969	1.9653168	-0.87519836	0.12861633
339530148517385	1.8516998	-0.87519836	0.5843353
339530155261770	1.6073608	-0.8666382	0.936203
339530160266653	1.2787018	-0.74935913	1.1426544
339530165302053	0.936615	-0.5685425	1.2404022
339530170337454	0.6055298	-0.36819458	1.2892609
339530175647512	0.24391174	-0.19468689	1.3173676
339530180438772	-0.19100952	-0.07984924	1.3173676
339530185474172	-0.6894684	-0.013885498	1.2855988
339530191333547	-1.1732788	0.0496521	1.2294006
339530195544973	-1.5581207	0.14981079	1.1499786
339530198932424	-1.7951355	0.27441406	1.0400391
339530205585256	-1.892868	0.35017395	0.88975525
339530210620657	-1.9160767	0.28053284	0.69918823
339530215686575	-1.9710541	0.011764526	0.4792633
339530220691458	-2.160431	-0.4280548	0.26179504
339530226062551	-2.5379486	-0.9313965	0.089538574
339530230792776	-3.069397	-1.3614349	3.5095215E-4
339530235828176	-3.666809	-1.6106873	0.0015563965
339530241504446	-4.222702	-1.6595459	0.07121277
339530245929495	-4.646637	-1.5825653	0.17871094
339530249225393	-4.646637	-1.5056152	0.17871094
339530255969778	-4.817688	-1.5056152	0.4316101
339530261035696	-4.512253	-1.6595459	0.55622864
339530266040579	-4.0027924	-1.8171387	0.66741943
339530271045461	-3.3907013	-1.847702	0.751709
339530276569143	-2.784729	-1.6253357	0.7944641
339530281146780	-2.2667236	-1.1366577	0.7871399
339530286182180	-2.2667236	-0.49401855	0.72483826
339530291980520	-1.6534119	-0.49401855	0.61608887
339530296222463	-1.6534119	0.6201782	0.61608887
339530299579397	-1.5544434	0.6201782	0.46826172
339530306628958	-1.5581207	0.92071533	0.29112244
339530311359182	-1.6289825	1.0722046	0.098083496
339530316364065	-1.741394	1.1198578	-0.082717896
339530321399465	-1.8818817	1.0734406	-0.22200012
339530327197805	-2.0431519	0.9109497	-0.30384827
339530331500784	-2.2129517	0.6226196	-0.3356018
339530336536184	-2.3766785	0.24876404	-0.33805847
339530342029348	-2.5196228	-0.14338684	-0.32339478
339530346576467	-2.6307983	-0.49890137	-0.29774475
339530349933401	-2.7089844	-0.79089355	-0.26229858
339530356677786	-2.7541962	-1.0218048	-0.21832275
339530361682668	-2.7688446	-1.1940765	-0.17066956
339530366779104	-2.7505188	-1.3088989	-0.12059021
339530371783987	-2.7016602	-1.3675537	-0.0692749
339530377521292	-2.6222382	-1.3724365	-0.019195557
339530381824270	-2.51474	-1.3284607	0.028442383
339530386890188	-2.382782	-1.2429352	0.06997681
339530392200247	-2.2312775	-1.1195374	0.10784912
339530396930471	-2.0688019	-0.9680481	0.14205933
339530400317922	-2.0688019	-0.7970123	0.14205933
339530407031790	-1.7303925	-0.7970123	0.20927429
339530412036672	-1.5642395	-0.45126343	0.23857117
339530417102590	-1.4115143	-0.2973175	0.25813293
339530422137991	-1.2795715	-0.15803528	0.26669312
339530428027883	-1.1757202	-0.029769897	0.26913452
339530432208792	-1.1757202	0.09361267	0.26913452
339530437244192	-1.1085205	0.09361267	0.26913452
339530442950979	-1.0840912	0.20600891	0.26179504
339530447314993	-1.0840912	0.35871887	0.26179504
339530450610891	-1.128067	0.35871887	0.25445557
339530457416311	-1.202591	0.39416504	0.2434845
339530462421194	-1.3040161	0.40881348	0.22880554
339530467426077	-1.4212799	0.41003418	0.2117157
339530472461477	-1.5483551	0.40759277	0.1933899
339530477924124	-1.6766205	0.41125488	0.17626953
339530482562795	-1.7975769	0.42347717	0.16282654
339530487628713	-1.9026489	0.44302368	0.1506195
339530493427053	-1.985733	0.4650116	0.14085388
339530497638479	-2.0407104	0.48945618	0.1322937
339530500995413	-2.063919	0.5102234	0.12617493
339530507739797	-2.0602417	0.519989	0.12373352
339530512744680	-2.0358276	0.507782	0.12861633
339530517780081	-1.9942627	0.4650116	0.14085388
339530522845999	-1.9380798	0.39048767	0.15428162
339530528186575	-1.8733215	0.29029846	0.1640625
339530532916799	-1.7963562	0.1852417	0.17138672
339530537952200	-1.7047119	0.09729004	0.1823883
339530543811575	-1.5898895	0.050857544	0.20315552
339530548023001	-1.4457245	0.06674194	0.23612976
339530551379934	-1.4457245	0.1534729	0.23612976
339530558063284	-1.0853119	0.1534729	0.33753967
339530563098684	-0.90449524	0.5016632	0.3949585
339530568225637	-0.7578888	0.69714355	0.44137573
339530573200002	-0.66625977	0.8376465	0.4658203
339530578937307	-0.6369324	0.8718567	0.4584961
339530583270803	-0.6369324	0.77900696	0.4584961
339530588306204	-0.66137695	0.77900696	0.42060852
339530594043508	-0.805542	0.5786438	0.28378296
339530598346487	-0.805542	0.02154541	0.28378296
339530601733938	-0.88861084	0.02154541	0.20436096
339530608417288	-0.95581055	-0.25456238	0.1298523
339530613452688	-0.99246216	-0.49401855	0.07243347
339530618518606	-0.98269653	-0.6821594	0.038223267
339530623554006	-0.92404175	-0.80677795	0.027236938
339530629016653	-0.8263092	-0.8531952	0.03211975
339530633624807	-0.7102356	-0.8165436	0.050445557
339530638660208	-0.59539795	-0.7127075	0.077316284
339530644000784	-0.49398804	-0.5685425	0.105407715
339530648700491	-0.40237427	-0.41949463	0.12007141
339530652087942	-0.31930542	-0.2948761	0.11274719
339530658801809	-0.24108887	-0.21057129	0.08097839
339530663837209	-0.17024231	-0.17391968	0.030883789
339530668842092	-0.10549927	-0.18371582	-0.031402588
339530673908010	-0.040740967	-0.23623657	-0.099823
339530679187551	0.038650513	-0.31930542	-0.16822815
339530683978811	0.15838623	-0.40849304	-0.23544312
339530689014211	0.3416443	-0.47691345	-0.30628967
339530694537893	0.59088135	-0.5025635	-0.3930359
339530699085012	0.8865204	-0.46470642	-0.50787354
339530702411428	0.8865204	-0.3596344	-0.50787354
339530709155813	1.4717407	-0.3596344	-0.8169708
339530714160696	1.7038727	-0.01020813	-0.9733429
339530719287649	1.8834686	0.17424011	-1.1016388
339530724262014	1.8834686	0.32695007	-1.1016388
339530729968801	2.131485	0.32695007	-1.2311249
339530734302297	2.131485	0.4857788	-1.2311249
339530739368215	2.2414246	0.4857788	-1.2225952
339530744861379	2.3660583	0.4698944	-1.1602631
339530749408499	2.5126495	0.39782715	-1.0576477
339530752795950	2.6824646	0.29885864	-0.9342499
339530759540334	2.860855	0.2035675	-0.80718994
339530764484182	3.0294495	0.1217041	-0.6850281
339530769580618	3.1601715	0.04597473	-0.5701752
339530774585501	3.232254	-0.024871826	-0.46998596
339530779895559	3.244461	-0.07496643	-0.38935852
339530784686819	3.2090302	-0.076187134	-0.32217407
339530789691702	3.1467285	-0.01876831	-0.25253296
339530795459524	3.0746307	0.075286865	-0.16456604
339530799823538	3.005005	0.1522522	-0.06072998
339530803119436	2.9402466	0.15835571	0.041885376
339530809894338	2.8755035	0.06185913	0.12007141
339530814899221	2.8107605	-0.13362122	0.15794373
339530819904104	2.7569885	-0.3889618	0.15428162
339530824939504	2.7301178	-0.6503906	0.122528076
339530830371633	2.7496643	-0.86543274	0.085861206
339530835040823	2.8192902	-1.003479	0.0675354
339530840106741	2.9255981	-1.0474701	0.0846405
339530845874563	3.039215	-0.9851532	0.13841248
339530850116506	3.1332855	-0.818985	0.21659851
339530853473440	3.1332855	-0.574646	0.21659851
339530860217825	3.1894836	-0.574646	0.37297058
339530865283743	3.1894836	-0.08352661	0.42184448
339530870258108	3.1394043	0.06918335	0.42184448
339530875324026	3.0477753	0.06918335	0.43772888
339530880603567	2.9317017	0.1534729	0.41940308
339530885364309	2.8144073	0.1852417	0.37297058
339530890430227	2.711792	0.184021	0.30699158
339530895892874	2.6311646	0.15959167	0.23492432
339530900470510	2.5737457	0.12294006	0.1665039
339530903857961	2.5334167	0.08505249	0.10784912
339530910541311	2.5077667	0.06185913	0.0663147
339530915607229	2.4955444	0.067977905	0.040664673
339530920642629	2.4979858	0.115615845	0.02355957
339530925678030	2.515091	0.20478821	0.007675171
339530931354299	2.5456238	0.32330322	-0.013092041
339530935718313	2.5835114	0.44792175	-0.04360962
339530940784231	2.6226044	0.5517578	-0.08760071
339530946094290	2.6531372	0.62506104	-0.14501953
339530950855032	2.6690216	0.67393494	-0.20976257
339530954211965	2.6690216	0.71424866	-0.27209473
339530960895315	2.6568146	0.752121	-0.32095337
339530965930715	2.63237	0.777771	-0.35882568
339530970996633	2.5957184	0.7728882	-0.3954773
339530976032034	2.540741	0.725235	-0.43701172
339530981342092	2.4723358	0.6360626	-0.4822235
339530986102834	2.3929138	0.52975464	-0.5213165
339530991107717	2.3012848	0.44058228	-0.55184937
339530996845022	2.1901093	0.39782715	-0.57873535
339531001178518	2.0532684	0.40393066	-0.6056061
339531004535452	2.0532684	0.44058228	-0.6056061
339531011310354	1.8834686	0.44058228	-0.63005066
339531016345754	1.6806641	0.480896	-0.63005066
339531021350637	1.4472961	0.4980011	-0.61294556
339531026355520	1.1931915	0.4833374	-0.5726166
339531031848684	0.93052673	0.44302368	-0.5164337
339531036456838	0.6739502	0.39292908	-0.4504547
339531041522756	0.43449402	0.34283447	-0.3808136
339531047290579	0.21824646	0.29273987	-0.3123932
339531051563040	0.021560669	0.2341156	-0.24765015
339531054889456	-0.16168213	0.16325378	-0.19143677
339531061633840	-0.33395386	0.08140564	-0.14501953
339531066638723	-0.495224	-0.001663208	-0.11325073
339531071704641	-0.64305115	-0.07374573	-0.098587036
339531076740042	-0.77253723	-0.12750244	-0.10348511
339531082111135	-0.88739014	-0.16291809	-0.12425232
339531086810842	-0.9936676	-0.18247986	-0.14990234
339531091846243	-1.0975342	-0.18736267	-0.17434692
339531097339407	-1.2050323	-0.17147827	-0.19755554
339531101886526	-1.3113403	-0.12382507	-0.22200012
339531105304495	-1.4078522	-0.0309906	-0.24641418
339531111987844	-1.4897003	0.115615845	-0.2671814
339531116992727	-1.552002	0.30741882	-0.28674316
339531122089163	-1.5874481	0.52731323	-0.30873108
339531127094045	-1.5837708	0.764328	-0.3331604
339531132831350	-1.5263519	1.0062256	-0.35760498
339531137134329	-1.3968506	1.2285919	-0.37226868
339531142169729	-1.1867065	1.3984222	-0.3673706
339531147510305	-0.90693665	1.4814911	-0.32583618
339531152301565	-0.58317566	1.4729309	-0.23420715
339531155566946	-0.58317566	1.3910828	-0.23420715
339531162372366	-0.25332642	1.3910828	-0.098587036
339531167346731	0.047210693	1.2518005	0.04676819
339531172382131	0.2927704	1.0502319	0.16038513
339531177417532	0.47602844	0.77656555	0.21659851
339531182880178	0.6079712	0.4515686	0.21903992
339531187488333	0.7044983	0.13638306	0.1823883
339531192615286	0.783905	-0.088409424	0.11274719
339531197864309	0.8523102	-0.17880249	0.007675171
339531202594534	0.90608215	-0.14826965	-0.12791443
339531205951467	0.9341736	-0.05419922	-0.2855072
339531212695852	0.92684937	0.03742981	-0.4504547
339531217761770	0.88531494	0.07772827	-0.6068268
339531222766653	0.82666016	0.0496521	-0.7338867
339531227771536	0.758255	-0.051757813	-0.8010864
339531233173147	0.666626	-0.23745728	-0.7864227
339531237872854	0.52978516	-0.51600647	-0.6789093
339531242877737	0.3501892	-0.86787415	-0.47854614
339531248401418	0.1620636	-1.2307281	-0.19267273
339531252979055	-0.01020813	-1.5178223	0.17138672
339531256335989	-0.01020813	-1.6632233	0.17138672
339531263049856	-0.34007263	-1.6632233	1.1047821
339531268054739	-0.5001068	-1.493393	1.6154785
339531273151174	-0.5685272	-1.2417145	2.0589447
339531278156057	-0.4341278	-0.9326172	2.3240662
339531283862844	-0.052978516	-0.59420776	2.333847
339531288196340	0.47236633	-0.24967957	2.1004791
339531293231741	0.9073181	0.060653687	1.7339783
339531300464407	1.0099335	0.263443	1.3662262
339531303363577	1.0099335	0.28297424	1.3662262
339531306689993	0.6898346	0.28297424	1.0595856
339531313403860	0.05697632	0.107055664	0.8103485
339531318408743	-0.6699219	-0.18125916	0.59532166
339531323474661	-1.3003387	-0.45370483	0.42304993
339531328479543	-1.7450409	-0.62353516	0.30332947
339531333820120	-2.0065002	-0.680954	0.2300415
339531338550344	-2.1323242	-0.6772766	0.17262268
339531343616262	-2.1860962	-0.67115784	0.09442139
339531348895803	-2.2312775	-0.6980438	-0.02407837
339531353717581	-2.3241425	-0.75668335	-0.17922974
339531357013479	-2.4927368	-0.8263397	-0.33927917
339531363788381	-2.7383118	-0.8764343	-0.45410156
339531368823782	-3.042511	-0.88619995	-0.47366333
339531373828665	-3.3687134	-0.85198975	-0.37471008
339531378833547	-3.6704865	-0.78601074	-0.16456604
339531384326711	-3.8842926	-0.7151489	0.117630005
339531388934866	-3.952713	-0.6723938	0.4181671
339531394000784	-3.8329773	-0.6894989	0.6783905
339531399799124	-3.532425	-0.77134705	0.85554504
339531404041067	-3.1023865	-0.87887573	0.9252014
339531407336965	-3.1023865	-0.9350586	0.9252014
339531414081350	-2.1860962	-0.9350586	0.71383667
339531419177786	-1.8366699	-0.6479492	0.44873047
339531424152151	-1.6106567	-0.3083191	0.1335144
339531429248586	-1.5104675	0.06918335	-0.16212463
339531434619680	-1.5202332	0.38926697	-0.37347412
339531439349905	-1.6082153	0.57984924	-0.47854614
339531444354788	-1.6082153	0.6213989	-0.49931335
339531450397268	-1.9087524	0.6213989	-0.47366333
339531454395071	-1.9087524	0.35139465	-0.47366333
339531457782522	-2.0871277	0.35139465	-0.42845154
339531464526907	-2.2654877	0.10217285	-0.37226868
339531469470754	-2.4316406	-0.1971283	-0.30995178
339531474597708	-2.5746002	-0.52700806	-0.24276733
339531479572073	-2.6894226	-0.85931396	-0.17311096
339531485278860	-2.781067	-1.169632	-0.102264404
339531489612356	-2.8555908	-1.4408569	-0.033843994
339531494678274	-2.9179077	-1.6619873	0.019897461
339531499988333	-2.9704437	-1.8220215	0.04676819
339531504779592	-3.0095367	-1.9210052	0.04310608
339531508075491	-3.0278625	-1.9662018	0.017440796
339531514880911	-3.0131836	-1.9686432	-0.0155181885
339531519824758	-2.964325	-1.9295502	-0.047286987
339531524890676	-2.886139	-1.8464661	-0.074157715
339531529895559	-2.7835236	-1.7181854	-0.09614563
339531535388723	-2.666214	-1.5532532	-0.10836792
339531539966360	-2.5367126	-1.3712311	-0.10958862
339531545062795	-2.4023285	-1.1806335	-0.09492493
339531550342336	-2.2679443	-0.9741516	-0.06561279
339531555164114	-2.1360016	-0.7432556	-0.026519775
339531558460012	-2.1360016	-0.49279785	-0.026519775
339531565204397	-1.9050903	-0.49279785	0.051651
339531570239797	-1.8159027	0.0056610107	0.0846405
339531575214163	-1.741394	0.2206726	0.117630005
339531580249563	-1.6717377	0.39416504	0.14938354
339531585590139	-1.5984344	0.51878357	0.1775055
339531590320364	-1.5984344	0.59573364	0.1775055
339531595447317	-1.5227051	0.59573364	0.20071411
339531600848928	-1.4542847	0.62872314	0.24224854
339531605457083	-1.4066315	0.62994385	0.24224854
339531608783499	-1.3883057	0.61161804	0.26179504
339531615527883	-1.3956299	0.5835266	0.27401733
339531620532766	-1.4176178	0.5371094	0.27033997
339531625598684	-1.4444885	0.45524597	0.24713135
339531630603567	-1.4676971	0.31962585	0.2117157
339531635974661	-1.4762573	0.13026428	0.17262268
339531640674368	-1.4640503	-0.100616455	0.14205933
339531645709768	-1.4249573	-0.34007263	0.12496948
339531651233450	-1.3565369	-0.54777527	0.12617493
339531655780569	-1.2636871	-0.680954	0.14694214
339531659168020	-1.1598358	-0.7041626	0.18603516
339531665912405	-1.0584412	-0.613739	0.23368835
339531670886770	-0.970459	-0.43293762	0.28256226
339531675983206	-0.897171	-0.20324707	0.33143616
339531680988088	-0.8336334	0.04109192	0.38275146
339531686694876	-0.77500916	0.26953125	0.43528748
339531691028372	-0.7212372	0.46012878	0.4878235
339531696094290	-0.67726135	0.59329224	0.53302
339531701740042	-0.64183044	0.6543884	0.56233215
339531706195608	-0.61616516	0.6360626	0.57089233
339531709491506	-0.61616516	0.533432	0.57089233
339531716266409	-0.59906006	0.533432	0.54156494
339531721301809	-0.6039429	0.12782288	0.5110321
339531726276174	-0.60639954	-0.100616455	0.4768219
339531731311575	-0.60639954	-0.2765503	0.4401703
339531736743704	-0.55752563	-0.36572266	0.40351868
339531741382376	-0.55752563	-0.3645172	0.40351868
339531746478811	-0.49398804	-0.3645172	0.36930847
339531751788870	-0.4109192	-0.30586243	0.33631897
339531756488577	-0.31930542	-0.23623657	0.30088806
339531759845510	-0.23132324	-0.18492126	0.26057434
339531766559377	-0.15557861	-0.16047668	0.21536255
339531771625295	-0.09326172	-0.15071106	0.1640625
339531776630178	-0.04197693	-0.14459229	0.10908508
339531781696096	0.0056762695	-0.13606262	0.054107666
339531787158743	0.054534912	-0.13238525	0.0040130615
339531791766897	0.108291626	-0.14826965	-0.038726807
339531796771780	0.16815186	-0.19836426	-0.07293701
339531802753225	0.23657227	-0.2924347	-0.1010437
339531806842581	0.315979	-0.4256134	-0.12547302
339531810230032	0.41249084	-0.57832336	-0.15357971
339531816913381	0.52856445	-0.720047	-0.19631958
339531821948782	0.666626	-0.80677795	-0.26353455
339531827045217	0.8388977	-0.80189514	-0.35760498
339531832019583	1.0563507	-0.6919403	-0.46754456
339531837787405	1.3300171	-0.49645996	-0.57629395
339531842120901	1.6476593	-0.2606659	-0.6752472
339531847156301	1.9738617	-0.033432007	-0.77053833
339531852649465	2.2658691	0.14248657	-0.8670654
339531857227102	2.4918823	0.23776245	-0.9623413
339531860614553	2.4918823	0.24511719	-0.9623413
339531867328420	2.7020264	0.24511719	-1.1138458
339531872302786	2.698349	0.115615845	-1.1517334
339531877338186	2.698349	0.09361267	-1.1627045
339531882404104	2.6482544	0.14614868	-1.1627045
339531887683645	2.579834	0.14614868	-1.1553802
339531892566458	2.5212097	0.24876404	-1.1309509
339531897540823	2.4992065	0.34651184	-1.0845337
339531902972952	2.5590668	0.39292908	-1.0026703
339531907642141	2.6287231	0.35017395	-0.87561035
339531910938040	2.475998	0.24632263	-0.7045593
339531917712942	1.9701996	0.2524414	-0.5054321
339531922717825	1.4008789	0.64704895	-0.3111725
339531927692190	1.2970428	1.5425873	-0.15968323
339531932727590	1.872467	2.5675964	-0.0839386
339531938495413	2.8022003	2.9683228	-0.08760071
339531942828909	3.5999908	2.2108612	-0.14379883
339531947894827	4.0410156	0.46624756	-0.21588135
339531953387991	4.179077	-1.5056152	-0.27330017
339531957935110	4.1009064	-2.9386902	-0.30018616
339531961261526	3.851654	-3.4652557	-0.29774475
339531967975393	3.4655914	-3.1402893	-0.26597595
339531973041311	2.9878998	-2.2606354	-0.21099854
339531978107229	2.4857788	-1.2209473	-0.14257813
339531983081594	2.0325012	-0.39505005	-0.077819824
339531988757864	1.6794281	-0.0053253174	-0.028961182
339531993182913	1.4363098	-0.06640625	0.010116577
339531998187795	1.2835999	-0.43293762	0.051651
339532004047170	1.1907501	-0.9057312	0.10664368
339532008258596	1.1369781	-1.3162384	0.17138672
339532011646047	1.1369781	-1.5593567	0.17138672
339532018359915	1.1296539	-1.5593567	0.28012085
339532023334280	1.1296539	-1.4286499	0.28012085
339532028522268	1.1760712	-1.4286499	0.31188965
339532033435598	1.2554932	-1.1097717	0.33387756
339532039172903	1.5010681	-0.6992798	0.3766327
339532043506399	1.5010681	0.15715027	0.3766327
339532048541799	1.6562195	0.15715027	0.3925171
339532053882376	1.8260498	0.5236664	0.39375305
339532058734670	2.0056305	0.82421875	0.3790741
339532061969534	2.1901093	1.0502319	0.35464478
339532068774954	2.3733826	1.1956177	0.32777405
339532073718801	2.5480804	1.2615662	0.30088806
339532078754202	2.7142334	1.2554779	0.26545715
339532083789602	2.8718262	1.1858368	0.21292114
339532089710012	3.0245514	1.0551147	0.14085388
339532093890920	3.1711578	0.8742981	0.052886963
339532099048391	3.3067627	0.66293335	-0.041168213
339532104266897	3.4167175	0.4625702	-0.13279724
339532109180227	3.4839172	0.31962585	-0.21708679
339532112323538	3.4949188	0.2610016	-0.29406738
339532119220510	3.4399414	0.2842102	-0.3661499
339532124133840	3.3043213	0.36239624	-0.4345703
339532129169241	3.070984	0.467453	-0.49687195
339532134174124	2.728897	0.5896454	-0.54452515
339532139880911	2.2854004	0.7227936	-0.5567322
339532144244924	1.767395	0.8486328	-0.522522
339532149463430	1.2261658	0.9170532	-0.4455719
339532154804006	0.7203827	0.8742981	-0.3490448
339532159381643	0.29888916	0.70570374	-0.26353455
339532162647024	0.29888916	0.45401	-0.26353455
339532169482961	-0.01876831	0.45401	-0.16822815
339532174426809	-0.24597168	0.19868469	-0.16822815
339532179767385	-0.4133606	0.019104004	-0.14868164
339532184528127	-0.54408264	-0.05053711	-0.13891602
339532189746633	-0.6540375	-0.02609253	-0.13769531
339532194568411	-0.753006	0.050857544	-0.14990234
339532199603811	-0.844635	0.13882446	-0.17555237
339532205127493	-0.93748474	0.2194519	-0.21220398
339532209827200	-1.0303497	0.2842102	-0.25009155
339532213031545	-1.1195221	0.32940674	-0.28430176
339532220050588	-1.2038269	0.35871887	-0.3148346
339532224780813	-1.2844543	0.38194275	-0.34294128
339532229999319	-1.3589783	0.4124756	-0.3685913
339532234851614	-1.4200745	0.4625702	-0.39179993
339532240741506	-1.4579315	0.53466797	-0.4186859
339532244922415	-1.4640503	0.61650085	-0.45289612
339532249988333	-1.4335022	0.70202637	-0.4907837
339532255267874	-1.3626404	0.7887726	-0.522522
339532260425344	-1.241684	0.8852844	-0.5372009
339532263385549	-1.241684	0.9952545	-0.5298767
339532270465627	-0.8507385	1.1174164	-0.49687195
339532275134817	-0.5978546	1.2383575	-0.43701172
339532280383840	-0.33517456	1.3373413	-0.35394287
339532285205618	-0.08105469	1.3862	-0.25497437
339532290271536	0.14982605	1.3703156	-0.1511383
339532295337454	0.35263062	1.2799225	-0.057052612
339532302356497	0.52368164	1.1161957	0.01499939
339532306171194	0.6580658	0.8840637	0.06021118
339532311023489	0.7496948	0.599411	0.0675354
339532313739553	0.7496948	0.28909302	0.0675354
339532320789114	0.7936859	0.28909302	-0.06437683
339532325549856	0.7985687	-0.24356079	-0.06437683
339532330951467	0.7790222	-0.24356079	-0.19143677
339532335559622	0.7545929	-0.36695862	-0.32583618
339532341785208	0.7545929	-0.35839844	-0.54208374
339532345630422	0.7545929	-0.035873413	-0.54208374
339532350787893	0.7949066	-0.035873413	-0.6068268
339532356128469	0.86943054	0.1717987	-0.6288147
339532361377493	0.97572327	0.33674622	-0.6043854
339532364124075	1.0930023	0.43447876	-0.54818726
339532371631399	1.1834259	0.46868896	-0.48342896
339532375812307	1.2005157	0.45036316	-0.41990662
339532381763235	1.1088867	0.38072205	-0.3490448
339532385913626	0.897522	0.2524414	-0.26353455
339532391345754	0.59088135	0.06674194	-0.1670227
339532395984426	0.22436523	-0.17027283	-0.0692749
339532401202932	-0.17634583	-0.44638062	0.030883789
339532406543508	-0.6039429	-0.73713684	0.13595581
339532411945120	-1.0425568	-0.9839325	0.25689697
339532414478079	-1.0425568	-1.1060944	0.25689697
339532421985403	-1.6595306	-1.1060944	0.5110321
339532426196829	-1.635086	-0.81777954	0.59288025
339532431964651	-1.3724213	-0.51478577	0.61364746
339532436267629	-1.0071106	-0.2850952	0.5831146
339532441516653	-0.7077942	-0.24111938	0.5317993
339532446338430	-0.56240845	-0.3755188	0.49147034
339532452258840	-0.5563202	-0.55999756	0.4768219
339532456683889	-0.62716675	-0.640625	0.49147034
339532462390676	-0.7236786	-0.5514374	0.5354614
339532472430959	-0.94114685	-0.33642578	0.67474365
339532476581350	-0.94114685	0.16081238	0.67474365
339532482349172	-1.0804291	0.16081238	0.74316406
339532486652151	-1.2624512	0.37339783	0.8054657
339532492297903	-1.486023	0.5554352	0.870224
339532496722952	-1.7425995	0.70570374	0.92884827
339532502582327	-2.0211487	0.82666016	0.95085144
339532507220999	-2.3106995	0.9109497	0.909317
339532512592092	-2.5990295	0.9451599	0.8152313
339532515155569	-2.8653717	0.9158325	0.70895386
339532522632376	-3.0877228	0.81321716	0.62831116
339532526904836	-3.2514343	0.62384033	0.57699585
339532532916799	-3.3479462	0.34773254	0.5342407
339532536975637	-3.3736115	0.013000488	0.47314453
339532542712942	-3.3259583	-0.330307	0.3766327
339532547046438	-3.2135468	-0.613739	0.24224854
339532552783743	-3.0510712	-0.7762451	0.07121277
339532557513967	-2.8641357	-0.78479004	-0.13279724
339532562946096	-2.6820984	-0.6503906	-0.3624878
339532565540090	-2.6820984	-0.41705322	-0.3624878
339532573108450	-2.4365387	-0.41705322	-0.80352783
339532577258840	-2.3876648	0.11071777	-0.9391327
339532583331838	-2.3803406	0.2976532	-0.9916687
339532587299124	-2.4047852	0.39416504	-0.97946167
339532592731252	-2.447525	0.39782715	-0.92448425
339532597400442	-2.501297	0.3184204	-0.84506226
339532603168264	-2.5550385	0.16569519	-0.7448883
339532607745901	-2.605133	-0.044418335	-0.6263733
339532613544241	-2.6527863	-0.28755188	-0.48954773
339532623523489	-2.7211914	-0.52944946	-0.19267273
339532627582327	-2.7211914	-0.8922882	-0.19267273
339532633563772	-2.7248688	-0.8922882	-0.057052612
339532637653127	-2.6955414	-0.9692688	0.05532837
339532643176809	-2.6210175	-0.9668274	0.13841248
339532647754446	-2.4976196	-0.89352417	0.19094849
339532653766409	-2.3253632	-0.76524353	0.22515869
339532658099905	-2.1066742	-0.6027374	0.25325012
339532663959280	-1.8513336	-0.42437744	0.28866577
339532673938528	-1.2563629	-0.0786438	0.37297058
339532677997366	-0.93748474	0.07652283	0.40596008
339532684131399	-0.62472534	0.22433472	0.42796326
339532688037649	-0.34251404	0.37460327	0.44384766
339532693927542	-0.11282349	0.5493164	0.45481873
339532698108450	0.038650513	0.7728882	0.45726013
339532704517141	0.09484863	1.0465546	0.45237732
339532708575979	0.048431396	1.3361053	0.43528748
339532714221731	-0.09082031	1.5767975	0.4022827
339532724475637	-0.5502014	1.6989594	0.27401733
339532728320852	-0.8141022	1.4069672	0.18727112
339532734576956	-1.0706482	0.99401855	0.098083496
339532738422170	-1.3003387	0.4784546	0.01499939
339532744342581	-1.4945831	-0.049316406	-0.053390503
339532748492971	-1.4945831	-0.51356506	-0.053390503
339532754260793	-1.7633667	-0.51356506	-0.12913513
339532759021536	-1.7633667	-1.0755615	-0.13279724
339532764789358	-1.8549957	-1.1451874	-0.10836792
339532774890676	-1.7218323	-1.0841217	0.019897461
339532778674856	-1.7218323	-0.666275	0.019897461
339532784656301	-1.5666809	-0.666275	0.11274719
339532788715139	-1.3687592	-0.36940002	0.21659851
339532795306936	-1.154953	-0.05419922	0.32655334
339532798816458	-0.95336914	0.25364685	0.43893433
339532805316702	-0.7896576	0.5309906	0.5476837
339532809100881	-0.67726135	0.7545624	0.64053345
339532815204397	-0.62228394	0.8987274	0.7101593
339532825336233	-0.65893555	0.8461914	0.7504883
339532829089895	-0.7285614	0.64216614	0.71751404
339532835223928	-0.8165436	0.35871887	0.65641785
339532839130178	-0.90693665	0.0496521	0.57577515
339532845172659	-0.98269653	-0.23501587	0.48538208
339532849139944	-1.024231	-0.45858765	0.3912964
339532855762258	-1.022995	-0.60765076	0.30210876
339532859454885	-0.9778137	-0.680954	0.22392273
339532865283743	-0.8996124	-0.6956024	0.15917969
339532875629202	-0.712677	-0.67115784	0.0834198
339532879382864	-0.63449097	-0.58932495	0.07609558
339532885822073	-0.5709686	-0.5502167	0.08708191
339532889453665	-0.5135498	-0.50502014	0.105407715
339532895618215	-0.4451294	-0.4414978	0.12496948
339532899524465	-0.4451294	-0.34985352	0.12496948
339532905872122	-0.24232483	-0.34985352	0.14085388
339532910053030	-0.24232483	-0.107940674	0.14085388
339532915912405	0.013000488	-0.107940674	0.10418701
339532924701467	0.10707092	0.07896423	0.056549072
339532929736868	0.15350342	0.115615845	-0.0045318604
339532934802786	0.16082764	0.1058197	-0.070495605
339532939838186	0.15470886	0.048416138	-0.12547302
339532945483938	0.16938782	-0.055419922	-0.16456604
339532949878469	0.23168945	-0.18492126	-0.19023132
339532956226126	0.35751343	-0.3070984	-0.21099854
339532960193411	0.55055237	-0.39016724	-0.23908997
339532965015188	0.8046875	-0.41827393	-0.28674316
339532968372122	1.1003265	-0.38772583	-0.3600464
339532975024954	1.4082031	-0.3083191	-0.46266174
339532980060354	1.6965485	-0.19348145	-0.59706116
339532986163870	1.9396515	-0.046875	-0.7583313
339532990161672	2.1253662	0.12660217	-0.93548584
339532995197073	2.260971	0.30741882	-1.1004028
339533000232473	2.3672638	0.4491272	-1.2286835
339533005267874	2.4747772	0.4967804	-1.2958832
339533010516897	2.5993958	0.4295807	-1.2934418
339533015338674	2.7362213	0.27809143	-1.2311249
339533018695608	2.7362213	0.10217285	-1.2311249
339533025409475	2.9634705	0.10217285	-1.0283203
339533030444876	3.012329	-0.17027283	-0.9342499
339533035449758	3.012329	-0.2594452	-0.85362244
339533040515676	3.0037842	-0.2594452	-0.85362244
339533045917288	2.9463654	-0.316864	-0.66181946
339533050586477	2.864502	-0.26800537	-0.66181946
339533055621877	2.7973175	-0.26800537	-0.5164337
339533061023489	2.7753143	-0.14459229	-0.33927917
339533065692678	2.8107605	0.0154418945	-0.1511383
339533069019094	2.89505	0.16203308	0.012557983
339533075763479	3.0074463	0.24021912	0.12741089
339533080768362	3.1210785	0.2182312	0.18847656
339533085803762	3.215149	0.099731445	0.20927429
339533090869680	3.274994	-0.081085205	0.20927429
339533096301809	3.2896729	-0.277771	0.20191956
339533100940481	3.2481384	-0.45126343	0.1982727
339533105975881	3.1528473	-0.5722046	0.20559692
339533111408010	3.0160065	-0.62353516	0.22636414
339533116046682	2.8571777	-0.6027374	0.25935364
339533119373098	2.6959076	-0.52700806	0.29478455
339533126086965	2.5517426	-0.43659973	0.32287598
339533131122366	2.4295654	-0.36819458	0.33509827
339533136157766	2.3318481	-0.3413086	0.33143616
339533141223684	2.257309	-0.34985352	0.31555176
339533146503225	2.2059937	-0.3755188	0.29356384
339533151294485	2.1742249	-0.39505005	0.26669312
339533156360403	2.1620178	-0.3938446	0.24224854
339533161578909	2.1632385	-0.36328125	0.22636414
