accelerometer_timestamp	accelerometer_x_data	accelerometer_y_data	accelerometer_z_data
252632858694965	1.450058	11.743668	0.1289978
252632863730366	1.48526	11.981308	0.06958008
252632868765766	1.50354	12.237915	0.0790863
252632873801167	1.370758	12.638138	0.7211304
252632878836567	1.3128815	12.838333	1.1964264
252632883871967	1.3841553	12.895584	1.1920776
252632888907368	1.63031	12.599884	0.3017273
252632893942768	1.6993561	12.500153	-0.26286316
252632898978168	1.8815613	12.4787445	-0.75923157
252632904013569	2.175583	12.5346985	-1.1881866
252632909048969	2.4750366	12.673828	-1.3828583
252632914084370	2.7228699	13.016754	-1.130661
252632919119770	2.8733368	13.463226	-0.91285706
252632924155170	3.0175781	13.987579	-0.64294434
252632929190571	3.1212463	14.589478	-0.3136902
252632934225971	3.164154	15.220734	0.084625244
252632939261372	2.9890137	15.629318	0.6585846
252632944296772	2.768631	15.832031	1.1772156
252632949332172	2.6492615	15.833908	1.4667664
252632954367573	2.7554932	15.661835	1.4644928
252632959402973	3.0976715	15.344833	1.0596771
252632964438374	3.4270477	14.874756	0.4454651
252632969473774	3.6022034	14.311462	-0.2527008
252632974509174	3.3764038	13.792877	-0.9920349
252632979544575	3.0019073	13.473633	-1.638031
252632984579975	2.8482208	13.403656	-1.9914398
252632989615376	2.558838	13.330338	-2.003708
252632994650776	2.032837	13.235733	-1.8495178
252632999686176	1.4168701	13.190506	-1.5873718
252633004721577	0.63061523	13.070755	-1.6794891
252633009756977	-0.11778259	12.872711	-1.9110565
252633014792377	-0.7391815	12.493607	-2.2286224
252633019827778	-1.2650757	11.972275	-2.3943176
252633024863178	-1.8456116	11.291443	-2.2404785
252633029898579	-2.1186066	10.646637	-1.7594757
252633034933979	-1.9892426	10.012314	-1.0229645
252633039969379	-1.7824097	9.345718	-0.5263977
252633045004780	-1.5593567	8.797791	-0.15060425
252633050040180	-1.5060272	8.2556	0.06274414
252633055075581	-1.4089203	7.891861	0.26341248
252633060110981	-1.0833588	7.5751953	0.4041443
252633065146381	-0.8583374	7.3227386	0.4437256
252633070181782	-0.64811707	7.1960297	0.42533875
252633075217182	-0.373703	7.02977	0.42297363
252633080252583	-0.11479187	6.833069	0.5770874
252633085287983	0.082977295	6.713974	0.58039856
252633090323383	0.26887512	6.5637817	0.51316833
252633095358784	0.6985626	6.432205	0.386734
252633100394184	0.88734436	6.3220367	0.3493805
252633105429585	0.967926	6.1827545	0.1748352
252633110464985	1.0879822	6.0708313	-0.046707153
252633115500385	1.0241394	5.9556274	-0.300766
252633120535786	1.0650635	5.9408264	-0.70780945
252633125571186	1.1580505	6.005554	-0.800766
252633130606586	1.1814117	5.9164886	-0.9547272
252633135641987	1.1696014	5.712387	-1.1898956
252633140677387	0.9211731	5.4423523	-1.427536
252633145712788	0.6426697	5.0980377	-1.675705
252633150748188	0.4059906	4.789337	-1.8970642
252633155783588	0.23884583	4.582443	-2.0849
252633160818989	0.09436035	4.3563232	-2.2515411
252633165854389	0.02218628	4.1596375	-2.3702545
252633170889790	-0.08529663	3.995697	-2.2896729
252633175925190	-0.1300354	3.892105	-2.3152313
252633180960590	-0.17823792	3.8330078	-2.314972
252633185995991	-0.19747925	3.832489	-2.2542725
252633191031391	-0.24229431	3.8344727	-2.2834473
252633196066792	-0.308136	3.841156	-2.4183044
252633201102192	-0.33966064	3.865036	-2.5878906
252633206137592	-0.40849304	3.9114685	-2.8245544
252633211172993	-0.44192505	3.9787903	-3.0478668
252633216208393	-0.4041443	4.0518494	-3.4067078
252633221243793	-0.46626282	4.159439	-3.940796
252633226279194	-0.6213379	4.217926	-4.4105377
252633231314594	-0.88786316	4.3238983	-4.948105
252633236349995	-1.2261963	4.404007	-5.447006
252633241385395	-1.5215149	4.4854126	-5.742737
252633246420795	-1.8821106	4.582611	-5.948883
252633251456196	-2.268753	4.7061462	-5.9762115
252633256491596	-2.502594	4.8685913	-5.893997
252633261526997	-2.7282104	5.0648346	-5.858383
252633266562397	-3.041275	5.1909027	-5.773041
252633271597797	-3.3170776	5.407547	-5.674347
252633276633198	-3.5809937	5.7115326	-5.579605
252633281668598	-3.7186432	6.1393585	-5.508499
252633286703999	-4.1121826	6.4201508	-5.827881
252633291739399	-4.390991	6.8436127	-6.2667084
252633296774799	-4.3916473	7.5382843	-6.697525
252633301810200	-4.2923126	8.301697	-7.3286133
252633306845600	-4.233658	9.162964	-8.0885315
252633311881001	-4.137146	10.139908	-8.795868
252633316916401	-4.018326	11.090317	-9.16124
252633321951801	-3.9780579	12.076324	-9.407028
252633326987202	-4.0107574	13.045151	-9.282211
252633332022602	-3.9050598	13.886368	-8.969666
252633337058002	-4.02124	14.477905	-8.51474
252633342093403	-4.0550537	14.757721	-8.005814
252633347128803	-3.8376617	14.780136	-7.6939545
252633352164204	-3.5790558	14.545853	-7.1928864
252633357199604	-3.2267609	14.186295	-6.88414
252633362235004	-2.873581	13.672394	-6.591812
252633367270405	-2.5068817	13.000381	-6.3119507
252633372305805	-2.1245728	12.178452	-6.053833
252633377341206	-1.7625275	11.239487	-6.023468
252633382376606	-1.0273132	10.330444	-5.985214
252633387412006	-0.46081543	9.713196	-6.161728
252633392447407	-0.24638367	9.322693	-6.4077606
252633397482807	0.33303833	9.066742	-6.7508087
252633402518208	0.9397888	8.967987	-7.412201
252633407553608	1.3544159	9.256165	-7.8580017
252633412589008	1.4003601	9.604416	-7.835785
252633417624409	1.1910095	10.014938	-7.3884583
252633422659809	0.9689331	10.16449	-6.7968445
252633427695210	0.6949158	10.272446	-6.328003
252633432730610	0.7194214	10.45256	-6.0626526
252633437766010	0.8523865	10.859619	-5.6697845
252633442801411	1.1718597	11.43988	-5.0184326
252633447836811	1.6874237	12.0989685	-4.2939606
252633452872211	2.4918976	12.667969	-3.795227
252633457907612	3.415619	13.149704	-3.2086334
252633462943012	4.3174286	13.264252	-2.6936493
252633467978413	5.048111	13.195297	-1.8851929
252633473013813	5.4587708	13.110886	-0.75575256
252633478049213	5.7523346	13.06929	0.6384735
252633483084614	5.8700867	13.027695	1.6751099
252633488120014	5.3451996	12.728729	2.1017609
252633493155415	3.9486084	11.851578	1.7666321
252633498190815	2.2167206	10.540756	0.84820557
252633503226215	1.191864	9.18956	-0.19781494
252633508261616	0.683609	8.055542	-1.0389099
252633513297016	0.29125977	7.0380096	-1.5565796
252633518332417	-0.10179138	6.168686	-1.6721344
252633523367817	-0.313797	5.6154633	-1.5729065
252633528403217	-0.33952332	5.327469	-1.3608856
252633533438618	-0.33135986	5.2365875	-1.0119934
252633538474018	-0.37678528	5.2536774	-0.664093
252633543509418	-0.49409485	5.4256897	-0.39074707
252633548544819	-0.65023804	5.8116302	-0.055282593
252633553580219	-0.74394226	6.4196167	0.45515442
252633558615620	-0.8171692	7.2075653	1.1553345
252633563651020	-0.8828888	8.032806	1.9807129
252633568686420	-0.9085388	8.826721	2.9118805
252633573721821	-0.9557953	9.656998	3.8701477
252633578757221	-0.94407654	10.261368	4.571396
252633583792622	-0.92926025	10.563065	4.718872
252633588828022	-0.9436035	10.663712	4.4035797
252633593863422	-0.9734955	10.691208	3.7156677
252633598898823	-1.105133	10.651459	2.8017426
252633603934223	-1.2765808	10.601578	1.8408356
252633608969624	-1.4053192	10.582184	1.0082245
252633614005024	-1.5349121	10.564346	0.51290894
252633619040424	-1.6330719	10.4374695	0.2370758
252633624075825	-1.6708221	10.290726	0.15849304
252633629111225	-1.5691528	10.139236	0.16296387
252633634146626	-1.3963776	9.966736	0.12905884
252633639182026	-1.1717072	9.707092	-0.056793213
252633644217426	-0.86146545	9.444199	-0.3103943
252633649252827	-0.64282227	9.244064	-0.6271057
252633654288227	-0.29719543	9.009644	-0.83491516
252633659323627	-0.063430786	8.782364	-0.8733368
252633664359028	0.20825195	8.557007	-0.88365173
252633669394428	0.5106964	8.440369	-0.6898651
252633674429829	0.6958008	8.293884	-0.21842957
252633679465229	0.6908722	8.050552	0.2829895
252633684500629	0.6053467	7.8604584	0.83421326
252633689536030	0.5065918	7.745987	1.1170044
252633694571430	0.2671051	7.622925	1.1877441
252633699606831	0.03517151	7.6589966	1.1640472
252633704642231	-0.10568237	7.784775	1.1209106
252633709677631	-0.46569824	7.940216	1.0514984
252633714713032	-0.7623291	8.180893	0.8732147
252633719748432	-0.94711304	8.398499	0.5360565
252633724783833	-1.1571655	8.69191	0.26834106
252633729819233	-1.3460388	8.922928	0.052734375
252633734854633	-1.4956665	9.160812	-0.08683777
252633739890034	-1.4839478	9.484573	-0.17443848
252633744925434	-1.4174347	9.7630005	-0.02633667
252633749960835	-1.405426	9.882477	0.18077087
252633754996235	-1.4942627	9.834442	0.15480042
252633760031635	-1.4710388	9.757675	0.0051116943
252633765067036	-1.3312073	9.724777	-0.100250244
252633770102436	-1.2826538	9.538864	0.056503296
252633775137836	-1.3251038	9.248566	0.3627472
252633780173237	-1.3213043	9.024582	0.64930725
252633785208637	-1.2937775	8.732468	0.677948
252633790244038	-1.1992188	8.579239	0.5179291
252633795279438	-1.0523834	8.521439	0.3429718
252633800314838	-0.87628174	8.4767	0.2590027
252633805350239	-0.7313843	8.4900055	0.27267456
252633810385639	-0.70788574	8.512985	0.30491638
252633815421040	-0.6815033	8.546173	0.28573608
252633820456440	-0.6342163	8.649216	0.30244446
252633825491840	-0.621109	8.738312	0.23913574
252633830527241	-0.58558655	8.855316	0.1696167
252633835562641	-0.5954132	8.952927	0.12295532
252633840598042	-0.67492676	9.008652	-0.002243042
252633845633442	-0.76750183	9.045212	-0.18333435
252633850668842	-0.93788147	9.062622	-0.3129425
252633855704243	-1.0861511	9.051437	-0.5331116
252633860739643	-0.9938812	9.103287	-0.6874237
252633865775043	-0.89694214	9.16478	-0.7108002
252633870810444	-0.8886566	9.214783	-0.66026306
252633875845844	-0.87145996	9.20813	-0.6187897
252633880881245	-0.8231201	9.264343	-0.61076355
252633885916645	-0.7098236	9.393494	-0.46728516
252633890952045	-0.5270691	9.505814	-0.25282288
252633895987446	-0.5092163	9.60701	-0.13726807
252633901022846	-0.6057892	9.6666565	-0.00881958
252633906058247	-0.67852783	9.76236	0.16033936
252633911093647	-0.71517944	9.863037	0.17236328
252633916129047	-0.9057007	10.046875	0.0978241
252633921164448	-1.1678314	10.2933655	-0.06314087
252633926199848	-1.5129852	10.535431	-0.053344727
252633931235249	-1.9030304	10.88797	0.16014099
252633936270649	-2.0664215	11.318863	0.55493164
252633941306049	-2.2304688	11.60408	0.8891144
252633946341450	-2.2822876	11.805511	1.1055603
252633951376850	-2.3951263	11.856567	1.1502686
252633956412251	-2.32901	11.929703	1.0273285
252633961447651	-2.32193	11.938538	0.7814331
252633966483051	-2.2287598	11.892715	0.622879
252633971518452	-2.098114	11.85701	0.61720276
252633976553852	-2.0745392	11.83606	0.5248108
252633981589252	-1.9439392	11.872559	0.43226624
252633986624653	-1.9099121	11.910385	0.39395142
252633991660053	-1.8482666	11.932999	0.16960144
252633996695454	-1.810852	12.036346	0.017745972
252634001730854	-1.846405	12.020096	-0.2238617
252634006766254	-1.8652802	12.024429	-0.5263214
252634011801655	-1.8955688	12.041931	-0.70606995
252634016837055	-1.9309845	12.077026	-0.7196808
252634021872456	-1.9404755	12.146927	-0.4443817
252634026907856	-1.8495331	12.257431	0.083465576
252634031943256	-1.6904602	12.406845	0.81036377
252634036978657	-1.4801941	12.514877	1.317688
252634042014057	-1.1589966	12.627472	1.4268341
252634047049458	-0.7638397	12.723618	1.1208344
252634052084858	-0.37322998	12.806183	0.7416229
252634057120258	-0.05265808	12.847382	0.646698
252634062155659	-0.00894165	12.870987	0.93359375
252634067191059	-0.23466492	12.839233	1.3883057
252634072226460	-0.64645386	12.701324	1.7908325
252634077261860	-1.0779266	12.641312	2.1298065
252634082297260	-1.4885101	12.607834	2.2643738
252634087332661	-1.7196808	12.556015	2.205185
252634092368061	-1.7397308	12.502853	1.9211426
252634097403461	-1.5444946	12.429153	1.4802246
252634102438862	-1.2106171	12.269745	1.1018524
252634107474262	-0.7312317	11.964264	0.7212982
252634112509663	-0.10058594	11.542511	0.122680664
252634117545063	0.51524353	11.190369	-0.4803009
252634122580463	1.2472839	11.060165	-0.8661957
252634127615864	2.0415802	11.140961	-1.0871124
252634132651264	2.6306763	11.377396	-1.0644684
252634137686665	3.0753021	11.696243	-0.85287476
252634142722065	3.2629242	12.040115	-0.6400604
252634147757465	3.4062347	12.488922	-0.43193054
252634152792866	3.7888794	13.003891	-0.24238586
252634157828266	3.9923248	13.3112335	-0.002090454
252634162863667	3.9282837	13.438126	0.23698425
252634167899067	3.7498474	13.485107	0.393219
252634172934467	3.571045	13.497879	0.58052063
252634177969868	3.4548187	13.484177	0.6689606
252634183005268	3.5061798	13.436676	0.6433258
252634188040668	3.492508	13.373077	0.390213
252634193076069	3.5855713	13.376053	-0.042099
252634198111469	3.5279236	13.3329315	-0.6233673
252634203146870	3.4607391	13.374161	-1.11763
252634208182270	3.1293335	13.326111	-1.2440643
252634213217670	2.643631	13.256119	-1.2717133
252634218253071	2.0795593	13.08284	-1.2913818
252634223288471	1.6187286	13.054596	-1.1007233
252634228323872	1.0075684	13.099152	-0.7053833
252634233359272	0.2384491	12.924057	-0.51156616
252634238394672	-0.5328827	12.550278	-0.8490143
252634243430073	-1.0287933	12.040268	-1.2455902
252634248465473	-1.4139252	11.646317	-1.3880157
252634253500874	-1.5351105	11.298431	-1.3117065
252634258536274	-1.5084839	10.880173	-1.0278168
252634263571674	-1.5050964	10.375061	-0.5912018
252634268607075	-1.404541	9.899902	0.011169434
252634273642475	-1.3370972	9.468353	0.50775146
252634278677876	-1.1344452	9.15123	0.7024994
252634283713276	-0.9798584	8.778702	0.645813
252634288748676	-0.854126	8.416809	0.55477905
252634293784077	-0.8410492	8.11351	0.3117218
252634298819477	-0.64694214	7.8081055	0.022735596
252634303854877	-0.43078613	7.553833	-0.22958374
252634308890278	-0.21681213	7.286621	-0.5153656
252634313925678	0.17689514	7.031296	-0.792984
252634318961079	0.43830872	6.6211853	-0.9009094
252634323996479	0.56544495	6.4068604	-1.0038605
252634329031879	0.6471863	6.2882385	-1.2910156
252634334067280	0.801178	6.2760925	-1.6707764
252634339102680	1.0005188	6.2173615	-1.7944641
252634344138081	0.9745178	5.9827576	-1.6574707
252634349173481	0.76446533	5.778824	-1.4749146
252634354208881	0.4252777	5.6822205	-1.7576904
252634359244282	0.1428833	5.5809326	-2.0875397
252634364279682	-0.19831848	5.4663544	-2.2800598
252634369315083	-0.5557556	5.345749	-2.3927765
252634374350483	-0.9720459	5.1333313	-2.4940796
252634379385883	-1.1347046	4.922165	-2.6096191
252634384421284	-1.2043762	4.7831573	-2.645813
252634389456684	-1.157196	4.700821	-2.6343842
252634394492085	-1.0484009	4.6138306	-2.535263
252634399527485	-0.96417236	4.5191345	-2.3952484
252634404562885	-0.86250305	4.4366455	-2.1615295
252634409598286	-0.75997925	4.339432	-1.9723511
252634414633686	-0.6875763	4.24411	-1.9126282
252634419669086	-0.61442566	4.1365967	-1.8527527
252634424704487	-0.45845032	4.0081024	-1.816391
252634429739887	-0.37730408	3.8589478	-1.9462585
252634434775288	-0.3251648	3.69693	-2.2065582
252634439810688	-0.28330994	3.4853363	-2.5080414
252634444846088	-0.22065735	3.2999268	-2.9057007
252634449881489	-0.1843872	3.1097565	-3.4431763
252634454916889	-0.2179718	2.9920654	-3.9487
252634459952290	-0.26353455	2.88797	-4.3688354
252634464987690	-0.3580475	2.8610382	-4.816208
252634470023090	-0.51397705	2.9346313	-5.226181
252634475058491	-0.65493774	3.006073	-5.6240387
252634480093891	-0.84794617	3.1562347	-5.9952087
252634485129292	-0.96391296	3.3027802	-6.3549347
252634490164692	-1.1309052	3.4794464	-6.473587
252634495200092	-1.2715149	3.721344	-6.3727264
252634500235493	-1.1162262	4.151825	-6.1199493
252634505270893	-1.3773346	4.5163116	-5.970154
252634510306293	-1.8305054	4.957016	-5.69545
252634515341694	-2.2695923	5.5189056	-5.5132446
252634520377094	-2.8401184	6.1132355	-5.3648224
252634525412495	-3.2210693	6.9309845	-5.013397
252634530447895	-3.967636	7.6055603	-5.2463837
252634535483295	-4.1910706	8.577744	-5.418457
252634540518696	-4.0755005	9.726303	-5.4084473
252634545554096	-3.9969177	10.976349	-5.404846
252634550589497	-3.763504	12.329712	-6.013077
252634555624897	-3.645935	13.864136	-6.729065
252634560660297	-3.7567291	15.231186	-7.6708527
252634565695698	-3.8986664	16.365494	-8.877213
252634570731098	-3.8903656	17.287735	-9.725327
252634575766499	-3.6159058	17.841507	-10.119995
252634580801899	-3.2407684	17.882935	-10.057297
252634585837299	-2.6455688	17.363098	-9.211288
252634590872700	-2.3672485	16.2668	-8.226929
252634595908100	-2.4792633	14.817108	-7.170532
252634600943501	-2.5258026	13.396454	-6.2599945
252634605978901	-2.3615265	12.053162	-5.5954895
252634611014301	-2.2563171	10.836716	-5.0956726
252634616049702	-2.1399994	9.64032	-4.791748
252634621085102	-2.1169891	8.70874	-4.6952515
252634626120502	-2.0373688	8.108582	-5.0631866
252634631155903	-1.8376923	7.786667	-5.8088226
252634636191303	-1.5326538	7.7493286	-6.587265
252634641226704	-1.2293091	7.9581604	-7.3896027
252634646262104	-1.1260071	8.447128	-8.013901
252634651297504	-1.1446686	8.971619	-7.9271393
252634656332905	-1.1408234	9.499283	-7.263626
252634661368305	-1.1404877	10.001114	-6.6151276
252634666403706	-1.1010132	10.5512085	-6.2177734
252634671439106	-0.8417969	11.286087	-5.944519
252634676474506	-0.29055786	12.157455	-5.7249146
252634681509907	0.33459473	12.950378	-5.2776337
252634686545307	1.1168823	13.671402	-4.203308
252634691580708	1.9483032	14.279449	-2.480835
252634696616108	2.651535	14.694626	-0.50453186
252634701651508	3.4560547	15.071106	1.2587738
252634706686909	4.68277	15.597977	2.5546417
252634711722309	5.9245605	15.897644	3.493393
252634716757710	7.0811157	15.929733	3.6163788
252634721793110	7.359497	15.250885	2.5606384
252634726828510	5.6148376	13.118683	0.6117859
252634731863911	3.2051697	10.206619	-1.5961609
252634736899311	1.9957733	7.852844	-3.0475464
252634741934711	1.686142	6.3256683	-3.728241
252634746970112	1.6385956	5.4295197	-3.8513489
252634752005512	1.476532	5.012207	-3.5868835
252634757040913	1.2065887	4.8718414	-3.184311
252634762076313	0.91148376	4.830719	-2.902008
252634767111713	0.58647156	4.950424	-2.5434418
252634772147114	0.25823975	5.201828	-2.0270844
252634777182514	-0.0131073	5.5597076	-1.069931
252634782217915	-0.30316162	6.068268	0.22213745
252634787253315	-0.3501892	6.8398743	1.6776733
252634792288715	-0.26985168	7.8062897	3.520584
252634797324116	-0.27166748	8.613647	5.2177277
252634802359516	-0.26637268	9.352676	6.429535
252634807394917	-0.35801697	9.736572	7.213516
252634812430317	-0.4826355	9.898132	7.5342865
252634817465717	-0.6883545	9.834396	7.067093
252634822501118	-0.921402	9.770676	5.8225555
252634827536518	-0.9559784	9.843246	4.08461
252634832571918	-0.94039917	9.973572	1.9796143
252634837607319	-0.88838196	10.23732	0.038223267
252634842642719	-0.7608795	10.44043	-1.3249359
252634847678120	-0.5478363	10.6006775	-2.0826874
252634852713520	-0.72206116	10.530518	-2.2946472
252634857748920	-0.826004	10.397354	-2.0889435
252634862784321	-1.031784	10.293884	-1.505722
252634867819721	-1.165268	10.141113	-1.0170593
252634872855122	-1.148468	10.040802	-0.67630005
252634877890522	-1.0514679	9.945496	-0.37757874
252634882925922	-0.86402893	9.82312	-0.3235321
252634887961323	-0.58625793	9.635361	-0.43104553
252634892996723	-0.4655304	9.293884	-0.33091736
252634898032124	-0.2690277	8.975235	0.07891846
252634903067524	-0.09536743	8.600037	0.40585327
252634908102924	0.15016174	8.27298	0.6921234
252634913138325	0.15826416	7.866028	1.1734772
252634918173725	0.046203613	7.5164795	1.6599426
252634923209126	0.02381897	7.2626038	1.9733124
252634928244526	0.017562866	7.2174225	2.121338
252634933279926	-0.054840088	7.344757	2.2097015
252634938315327	-0.18154907	7.6253357	2.1757965
252634943350727	-0.2637787	8.137573	1.9453583
252634948386127	-0.38874817	8.651199	1.442627
252634953421528	-0.5628662	9.063599	0.87260437
252634958456928	-0.75813293	9.436951	0.33306885
252634963492329	-0.89901733	9.711121	-0.13214111
252634968527729	-0.97169495	9.9048	-0.44400024
252634973563129	-1.0132751	10.017349	-0.5871887
252634978598530	-1.0526733	10.0338745	-0.6372528
252634983633930	-1.132843	9.913849	-0.58125305
252634988669331	-1.1906586	9.678024	-0.33110046
252634993704731	-1.2810364	9.348297	-0.119400024
252634998740131	-1.2939148	8.985413	0.019195557
252635003775532	-1.0928345	8.778763	0.121170044
252635008810932	-0.90615845	8.654343	0.32977295
252635013846333	-0.8592987	8.4856415	0.638916
252635018881733	-0.7328186	8.375793	0.9757385
252635023917133	-0.58470154	8.330994	1.223465
252635028952534	-0.47673035	8.357498	1.212326
252635033987934	-0.2514801	8.501968	1.0340881
252635039023335	-0.21688843	8.632736	0.8881378
252635044058735	-0.27722168	8.7552185	0.74212646
252635049094135	-0.33276367	8.858887	0.66181946
252635054129536	-0.4361725	8.996521	0.59265137
252635059164936	-0.58815	9.029526	0.532959
252635064200336	-0.6915283	9.049438	0.40989685
252635069235737	-0.7565918	9.08606	0.3570404
252635074271137	-0.7739563	9.089844	0.24871826
252635079306538	-0.76474	9.106323	0.0035247803
252635084341938	-0.7353821	9.06662	-0.13476563
252635089377338	-0.69958496	9.152054	-0.25546265
252635094412739	-0.6922302	9.151993	-0.4212799
252635099448139	-0.71910095	9.201202	-0.50852966
252635104483540	-0.8542938	9.284515	-0.5840149
252635109518940	-1.0043182	9.402283	-0.5910034
252635114554340	-1.1778412	9.495148	-0.4706421
252635119589741	-1.3128204	9.637024	-0.29891968
252635124625141	-1.3971863	9.737228	-0.13119507
252635129660542	-1.5210876	9.852295	-0.012359619
252635134695942	-1.5828094	9.91832	0.039123535
252635139731342	-1.6855316	10.015152	0.107543945
252635144766743	-1.7483368	10.039658	-0.025283813
252635149802143	-1.7921906	10.121979	0.14416504
252635154837543	-1.7935181	10.244873	0.28782654
252635159872944	-1.8777161	10.34903	0.5104828
252635164908344	-1.897995	10.452744	0.66215515
252635169943745	-1.8922882	10.548599	0.70181274
252635174979145	-1.9954071	10.613464	0.62416077
252635180014545	-2.0843048	10.698181	0.4150238
252635185049946	-2.0771332	10.806442	0.3889618
252635190085346	-1.9920502	11.007919	0.32473755
252635195120747	-1.8406372	11.136978	0.15977478
252635200156147	-1.7107391	11.243408	-0.021469116
252635205191547	-1.5469666	11.3602295	-0.13879395
252635210226948	-1.3180237	11.3967285	-0.11212158
252635215262348	-1.184021	11.335114	-0.026138306
252635220297749	-1.0009613	11.259216	0.061706543
252635225333149	-0.8174286	11.227219	0.058258057
252635230368549	-0.71836853	11.11972	-0.1473999
252635235403950	-0.64642334	11.036896	-0.48588562
252635240439350	-0.64907837	11.048553	-0.7619171
252635245474751	-0.77664185	11.092072	-0.92170715
252635250510151	-0.966629	11.153671	-1.0097656
252635255545551	-1.1715393	11.233765	-0.9219055
252635260580952	-1.2920532	11.316605	-0.7892456
252635265616352	-1.3143768	11.373367	-0.5520477
252635270651752	-1.2513885	11.43959	-0.05404663
252635275687153	-1.1699219	11.516907	0.65756226
252635280722553	-1.0449219	11.612442	1.3746033
252635285757954	-0.8108063	11.846085	1.7837524
252635290793354	-0.47395325	12.2734375	1.8256989
252635295828754	-0.008239746	12.789093	1.6360168
252635300864155	0.37094116	13.218079	1.2209167
252635305899555	0.5063019	13.549362	0.83651733
252635310934956	0.37602234	13.808517	0.7822418
252635315970356	0.13529968	14.016876	1.0457458
252635321005756	-0.15023804	14.067612	1.4955444
252635326041157	-0.37219238	13.949661	1.8334961
252635331076557	-0.3730011	13.689941	1.732544
252635336111958	-0.15995789	13.266617	1.370697
252635341147358	0.27267456	12.810623	1.1294556
252635346182758	0.68969727	12.320679	0.7699585
252635351218159	1.2241669	11.940689	0.34257507
252635356253559	1.943161	11.609467	-0.014678955
252635361288960	2.6076965	11.466293	-0.21627808
252635366324360	3.2381134	11.588547	-0.16812134
252635371359760	3.7041168	11.840179	0.08930969
252635376395161	3.81073	12.156631	0.1748352
252635381430561	3.7774658	12.625595	0.39790344
252635386465961	3.8160095	13.306625	0.43026733
252635391501362	3.7867737	13.939301	0.44387817
252635396536762	3.6757355	14.347626	0.4537506
252635401572163	3.6903381	14.685776	0.24920654
252635406607563	3.464859	14.740234	0.15534973
252635411642963	3.1082	14.724426	0.09892273
252635416678364	2.8281097	14.537521	0.08390808
252635421713764	2.4116516	14.272446	-0.119766235
252635426749165	2.3985748	14.129822	-0.45072937
252635431784565	2.640686	14.083176	-0.81681824
252635436819965	2.6838684	14.003128	-1.1492157
252635441855366	2.5201874	13.869049	-1.2446442
252635446890766	2.2185516	13.7187805	-1.3939514
252635451926167	1.90979	13.538849	-1.2541351
252635456961567	1.4006348	13.29953	-0.96873474
252635461996967	0.6749115	12.980957	-0.60240173
252635467032368	-0.0894928	12.5095825	-0.5317993
252635472067768	-0.78292847	11.925018	-0.60343933
252635477103168	-1.3757324	11.300522	-0.7663574
252635482138569	-1.7164917	10.702957	-0.78826904
252635487173969	-1.859726	10.195419	-0.4232025
252635492209370	-1.833847	9.788025	-0.14923096
252635497244770	-1.7539825	9.361298	0.0063323975
252635502280170	-1.6578827	8.971451	0.101623535
252635507315571	-1.4694366	8.56839	0.2962036
252635512350971	-1.3391571	8.261124	0.6303253
252635517386372	-1.208786	8.063843	0.8220825
252635522421772	-0.9606781	7.8652954	0.98298645
252635527457172	-0.67401123	7.612961	1.0999756
252635532492573	-0.49450684	7.414154	0.95521545
252635537527973	-0.20661926	7.351181	0.6262665
252635542563374	0.12158203	7.2430725	0.37135315
252635547598774	0.29473877	7.0107727	-0.06034851
252635552634174	0.5731964	6.7915497	-0.36413574
252635557669575	1.0553741	6.6862946	-0.27870178
252635562704975	1.3060608	6.5928955	-0.22229004
252635567740376	1.282898	6.462906	-0.527359
252635572775776	1.162674	6.3923187	-1.0036163
252635577811176	1.0341034	6.3767548	-1.392868
252635582846577	0.96250916	6.3831177	-1.6512909
252635587881977	0.9686127	6.2759247	-1.8474121
252635592917377	0.8047638	6.058609	-2.122223
252635597952778	0.5522156	5.816269	-2.3096924
252635602988178	0.27072144	5.6108246	-2.3852386
252635608023579	0.053146362	5.558075	-2.4775085
252635613058979	-0.12974548	5.4789886	-2.4757843
252635618094379	-0.26904297	5.410095	-2.3582
252635623129780	-0.2891388	5.3981323	-2.2374115
252635628165180	-0.25079346	5.3663483	-2.1561127
252635633200581	-0.20193481	5.38002	-2.127304
252635638235981	-0.14125061	5.3836975	-2.094696
252635643271381	-0.084198	5.337311	-2.0263672
252635648306782	-0.096206665	5.324753	-1.9729309
252635653342182	-0.0647583	5.2398376	-1.8741302
252635658377583	-0.022781372	5.147888	-1.9021149
252635663412983	0.027069092	5.014984	-1.8966064
252635668448383	0.02067566	4.8238983	-1.827179
252635673483784	0.071502686	4.6275177	-1.8958893
252635678519184	0.08091736	4.3494415	-2.0742645
252635683554585	-0.008666992	4.0921326	-2.2275085
252635688589985	-0.105773926	3.7997284	-2.638031
252635693625385	-0.16423035	3.5984955	-3.0305023
252635698660786	-0.42216492	3.4452515	-3.5809937
252635703696186	-0.7063751	3.3556213	-4.062546
252635708731586	-0.9061279	3.3152313	-4.621399
252635713766987	-1.1954803	3.3068237	-5.0494843
252635718802387	-1.413971	3.3077087	-5.370575
252635723837788	-1.5468597	3.4093475	-5.577057
252635728873188	-1.7118683	3.5362244	-5.6947174
252635733908588	-1.9644165	3.7398071	-5.817337
252635738943989	-2.0996857	4.096924	-5.900238
252635743979389	-2.4113464	4.6436005	-5.778763
252635749014790	-2.7968292	5.2361298	-5.646881
252635754050190	-3.2653809	5.906952	-5.5160522
252635759085590	-3.798355	6.6683655	-5.4592285
252635764120991	-4.257431	7.406967	-5.4456787
252635769156391	-4.722763	8.127518	-5.6865234
252635774191792	-4.9510345	9.028687	-5.8925934
252635779227192	-4.724106	10.09227	-5.9850616
252635784262592	-4.427017	11.222992	-6.0384064
252635789297993	-3.9645996	12.503616	-6.0793457
252635794333393	-3.6616669	13.776138	-6.3853607
252635799368793	-3.4546967	15.11348	-7.007187
252635804404194	-3.454605	16.389862	-7.8450317
252635809439594	-3.6255646	17.306168	-8.512283
252635814474995	-3.66391	17.91452	-8.809113
252635819510395	-3.5147858	18.089706	-8.561859
252635824545795	-3.3545532	17.663284	-7.9134216
252635829581196	-3.2700958	16.613602	-7.141281
252635834616596	-3.1561127	15.073944	-6.4508514
252635839651997	-2.9893188	13.453308	-5.997406
252635844687397	-2.7968597	11.851593	-5.6520844
252635849722797	-2.5861206	10.348175	-5.373001
252635854758198	-2.3562164	9.099991	-5.1906586
252635859793598	-2.021225	8.092651	-5.2774963
252635864828999	-1.681076	7.369705	-5.875946
252635869864399	-1.3204956	7.02153	-6.829422
252635874899799	-0.9473572	7.1050415	-7.6222076
252635879935200	-0.85058594	7.429199	-8.081848
252635884970600	-1.0000305	7.829941	-7.872864
252635890006001	-1.3045197	8.204117	-7.264618
252635895041401	-1.1929016	8.721893	-6.5009613
252635900076801	-0.78608704	9.434128	-5.810959
252635905112202	-0.44711304	10.306503	-5.164276
252635910147602	-0.019973755	11.486176	-4.4772034
252635915183002	0.36541748	12.725662	-3.9328156
252635920218403	0.8260193	14.056412	-3.3351898
252635925253803	1.4251862	15.279526	-2.8133545
252635930289204	2.421692	16.399994	-1.7322235
252635935324604	3.3054047	17.117111	-0.15367126
252635940360004	4.227295	17.520233	1.3681641
252635945395405	5.598221	17.593826	2.2800293
252635950430805	6.799759	17.135773	2.8214111
252635955466206	6.961334	15.981384	2.920166
252635960501606	4.828125	13.585846	2.420868
252635965537006	2.048584	10.869232	1.7168884
252635970572407	1.0540314	8.805862	0.72714233
252635975607807	0.8460541	7.344986	-0.45672607
252635980643208	0.8051758	6.085663	-1.6909943
252635985678608	0.7826996	5.3350067	-2.5066376
252635990714008	0.8414612	4.9169006	-3.1153107
252635995749409	0.72598267	4.795334	-3.3993683
252636000784809	0.65945435	4.763672	-3.551422
252636005820210	0.48718262	4.8878326	-3.5351715
252636010855610	0.3508606	5.2683563	-3.0886383
252636015891010	0.122161865	5.7605133	-2.438385
252636020926411	-0.26283264	6.177307	-1.4859314
252636025961811	-0.5536041	6.5861053	-0.035079956
252636030997211	-0.5635376	7.1200104	1.779892
252636036032612	-0.4074402	7.6651917	3.6263733
252636041068012	-0.19844055	8.259064	5.206604
252636046103413	-0.037750244	8.746613	5.8709564
252636051138813	0.036514282	9.126953	5.725876
252636056174213	0.055664063	9.584076	4.7572174
252636061209614	0.10891724	10.1045685	3.2289734
252636066245014	-0.0393219	10.450607	1.6268005
252636071280415	-0.1804657	10.797607	0.29626465
252636076315815	-0.3070984	11.056488	-0.60136414
252636081351215	-0.5696411	11.281036	-0.8805847
252636086386616	-0.87997437	11.459564	-0.7637634
252636091422016	-1.238266	11.497025	-0.6160126
252636096457417	-1.6459045	11.383148	-0.4719696
252636101492817	-1.9224701	11.250336	-0.40127563
252636106528217	-1.9530487	11.121887	-0.5014343
252636111563618	-1.8716888	10.825485	-0.6859741
252636116599018	-1.6951904	10.425613	-0.9680176
252636121634418	-1.5561371	9.94931	-1.2234802
252636126669819	-1.4360352	9.408493	-1.2096405
252636131705219	-1.2542725	8.78093	-0.8600464
252636136740620	-1.0827789	8.160446	-0.45046997
252636141776020	-0.92596436	7.6491547	-0.05154419
252636146811420	-0.8432312	7.1539154	0.3843994
252636151846821	-0.91044617	6.7482147	0.7236328
252636156882221	-1.0302734	6.4907227	0.9131012
252636161917622	-1.0932465	6.4636993	1.1614227
252636166953022	-1.1417389	6.5672913	1.2874908
252636171988422	-1.1253662	6.844162	1.1790619
252636177023823	-1.1212769	7.23526	1.0230408
252636182059223	-1.1764069	7.667862	0.79959106
252636187094624	-1.2958527	8.203644	0.49086
252636192130024	-1.4751434	8.7039795	0.08731079
252636197165424	-1.4822998	9.144196	-0.46458435
252636202200825	-1.3185272	9.52832	-0.87849426
252636207236225	-1.0133667	9.870712	-1.0477142
252636212271626	-0.92419434	10.001816	-0.7801361
252636217307026	-0.8816376	9.986191	-0.35897827
252636222342426	-0.74572754	9.935684	-0.116760254
252636227377827	-0.54408264	9.862518	-0.08808899
252636232413227	-0.4595337	9.731064	-0.37677002
252636237448627	-0.25897217	9.467728	-0.504303
252636242484028	-0.1669159	9.2491	-0.5388794
252636247519428	-0.09744263	9.015457	-0.49562073
252636252554829	-0.029541016	8.797913	-0.39505005
252636257590229	0.09072876	8.652725	-0.20652771
252636262625629	0.25616455	8.523727	-0.031143188
252636267661030	0.15612793	8.343185	0.13868713
252636272696430	0.037246704	8.212692	0.32263184
252636277731831	-0.03665161	8.1158905	0.46723938
252636282767231	-0.11117554	8.113663	0.5240936
252636287802631	-0.27722168	8.117706	0.5363617
252636292838032	-0.3899536	8.151764	0.33898926
252636297873432	-0.54203796	8.248886	0.2904663
252636302908833	-0.6656494	8.391205	0.14904785
252636307944233	-0.7763977	8.502792	-0.05961609
252636312979633	-0.7691498	8.651703	-0.31147766
252636318015034	-0.7767792	8.828857	-0.52153015
252636323050434	-0.7711334	8.912918	-0.651947
252636328085835	-0.7229614	9.055405	-0.69104004
252636333121235	-0.7727356	9.124832	-0.67100525
252636338156635	-0.6679077	9.20256	-0.54203796
252636343192036	-0.60025024	9.339371	-0.42533875
252636348227436	-0.6331177	9.526306	-0.1619873
252636353262836	-0.7537842	9.613342	0.0118255615
252636358298237	-0.97776794	9.696411	0.23883057
252636363333637	-1.2045135	9.731934	0.51605225
252636368369038	-1.3377991	9.835358	0.82128906
252636373404438	-1.3990326	9.96196	1.0483093
252636378439838	-1.4195251	10.097733	1.2629852
252636383475239	-1.4576111	10.2153015	1.3718262
252636388510639	-1.4176178	10.341522	1.4451752
252636393546040	-1.2711945	10.465118	1.4733582
252636398581440	-1.1241608	10.624222	1.4469604
252636403616840	-0.98353577	10.75798	1.3180847
252636408652241	-0.832077	10.913376	1.0856171
252636413687641	-0.65382385	11.089584	0.89286804
252636418723042	-0.48109436	11.229141	0.7668152
252636423758442	-0.3330536	11.356491	0.714859
252636428793842	-0.17274475	11.481079	0.6392212
252636433829243	0.007858276	11.673416	0.5569458
252636438864643	0.1639862	11.869171	0.5621948
252636443900043	0.23667908	12.018692	0.48091125
252636448935444	0.25100708	12.168442	0.33029175
252636453970844	0.21635437	12.348907	0.033813477
252636459006245	0.1040802	12.482483	-0.37443542
252636464041645	0.009902954	12.580902	-0.6901703
252636469077045	-0.17353821	12.629395	-0.95280457
252636474112446	-0.3986206	12.662842	-1.1251221
252636479147846	-0.61473083	12.610397	-1.1085663
252636484183247	-0.782959	12.556686	-0.95692444
252636489218647	-0.8791504	12.498413	-0.7843628
252636494254047	-0.9755554	12.456039	-0.5192871
252636499289448	-1.0904388	12.405304	0.01776123
252636504324848	-1.0946198	12.313248	0.6568756
252636509360249	-0.9899597	12.317017	1.1424255
252636514395649	-0.8550873	12.453262	1.4532471
252636519431049	-0.6214905	12.698502	1.4762573
252636524466450	-0.54338074	13.0035095	1.3877869
252636529501850	-0.3192749	13.252777	1.5761414
252636534537251	-0.25338745	13.366989	1.8030548
252636539572651	-0.50601196	13.480515	1.7903748
252636544608051	-0.9001312	13.604599	1.6023712
252636549643452	-1.196228	13.839966	1.3479462
252636554678852	-1.3076935	14.0625305	1.0232544
252636559714252	-1.3413849	14.189148	0.74765015
252636564749653	-1.2116089	14.149231	0.5464325
252636569785053	-0.94299316	13.991226	0.09950256
252636574820454	-0.3731842	13.701477	-0.20469666
252636579855854	0.07411194	13.160553	-0.24946594
252636584891254	0.58888245	12.504562	-0.375412
252636589926655	1.244812	11.88147	-0.35160828
252636594962055	1.8768921	11.375305	-0.2952881
252636599997456	2.3940735	11.033997	-0.3330078
252636605032856	2.6938324	10.767029	-0.35987854
252636610068256	2.9193573	10.736435	-0.36671448
252636615103657	3.286789	10.930756	-0.32850647
252636620139057	3.690796	11.179047	-0.2454071
252636625174458	3.8098297	11.348007	-0.012145996
252636630209858	3.5863953	11.469879	0.40115356
252636635245258	3.090332	11.600372	0.8501282
252636640280659	2.593277	11.719925	1.2372437
252636645316059	2.218567	11.770721	1.3858643
252636650351460	1.9137878	11.837357	1.2799072
252636655386860	1.8495789	11.920654	1.0345154
252636660422260	1.9291382	12.051941	0.39431763
252636665457661	1.9914093	12.253693	-0.4925232
252636670493061	2.0030823	12.42009	-1.3360138
252636675528461	1.8493805	12.572922	-2.0474396
252636680563862	1.4289856	12.703354	-2.3999634
252636685599262	0.83428955	12.772018	-2.3526154
252636690634663	0.2239685	12.802261	-2.1278687
252636695670063	-0.20959473	12.903519	-1.6871185
252636700705463	-0.6322632	12.88736	-1.1886597
252636705740864	-1.0302429	12.6666565	-0.9979248
252636710776264	-1.3854828	12.257477	-1.074585
252636715811665	-1.506958	11.734161	-1.192276
252636720847065	-1.3632355	11.168671	-1.0550079
252636725882465	-1.0635681	10.587341	-0.59632874
252636730917866	-0.60935974	10.090836	-0.29618835
252636735953266	-0.17488098	9.668015	-0.0025939941
252636740988667	0.20480347	9.264603	0.29125977
252636746024067	0.43200684	8.88768	0.47361755
252636751059467	0.6667328	8.538223	0.42007446
252636756094868	0.8521271	8.195297	0.26112366
252636761130268	0.95098877	7.9188995	0.023757935
252636766165668	0.9326019	7.6744995	-0.30647278
252636771201069	0.86642456	7.458603	-0.6385498
252636776236469	0.77371216	7.330612	-1.026947
252636781271870	0.7249298	7.188843	-1.3062897
252636786307270	0.62506104	7.0980377	-1.5235901
252636791342670	0.4857483	7.064209	-1.6208038
252636796378071	0.50315857	7.0189514	-1.7291718
252636801413471	0.47387695	6.958267	-1.7898102
252636806448872	0.30584717	6.841736	-1.7979126
252636811484272	0.23422241	6.851486	-1.697937
252636816519672	0.23548889	6.718231	-1.589798
252636821555073	0.06713867	6.4729614	-1.5278625
252636826590473	-0.2758484	6.2548523	-1.6146545
252636831625874	-0.37260437	6.147293	-1.8467407
252636836661274	-0.4713745	6.04451	-1.9519653
252636841696674	-0.5914917	5.8265076	-1.9395752
252636846732075	-0.9844208	5.4798737	-1.9592438
252636851767475	-1.3490906	5.1448975	-2.00708
252636856802876	-1.481369	5.00148	-2.0027924
252636861838276	-1.4129181	4.9227753	-2.2095795
252636866873676	-1.4039307	4.808319	-2.2836304
252636871909077	-1.1799927	4.8034973	-2.277359
252636876944477	-1.0643921	4.8185577	-2.3289185
252636881979877	-0.9530182	4.802353	-2.3332214
252636887015278	-0.79338074	4.7144012	-2.3611908
252636892050678	-0.6046295	4.698242	-2.4430847
252636897086079	-0.44656372	4.577667	-2.579422
252636902121479	-0.28448486	4.4597015	-2.8305817
252636907156879	-0.31159973	4.305847	-3.015503
252636912192280	-0.32669067	4.1333466	-3.3657684
252636917227680	-0.3190918	4.0203857	-3.6372986
252636922263081	-0.44639587	3.8493347	-3.9635315
252636927298481	-0.62760925	3.692871	-4.3209686
252636932333881	-0.8778076	3.5535736	-4.794403
252636937369282	-1.0883331	3.4468994	-5.301529
252636942404682	-1.280899	3.4147186	-5.6658783
252636947440083	-1.3976746	3.4208221	-5.8600464
252636952475483	-1.5445557	3.466858	-5.959961
252636957510883	-1.750534	3.5968933	-6.017105
252636962546284	-1.9597168	3.8131714	-5.9264984
252636967581684	-2.288681	4.0777435	-5.784088
252636972617085	-2.710022	4.398224	-5.589218
252636977652485	-3.3175354	4.804291	-5.3785095
252636982687885	-3.8322296	5.3865814	-5.053055
252636987723286	-4.2541504	6.148239	-4.53833
252636992758686	-4.6585083	7.057373	-4.0850067
252636997794086	-4.975403	7.9290924	-3.9247742
252637002829487	-5.212723	8.867966	-4.021652
252637007864887	-5.2251587	9.904449	-4.018753
252637012900288	-5.0020447	10.962189	-4.037964
252637017935688	-4.685089	12.141617	-4.2427063
252637022971088	-4.2573853	13.477829	-4.630661
252637028006489	-3.6758118	14.909607	-5.416336
252637033041889	-3.0480957	16.34732	-6.574417
252637038077290	-2.4180603	17.639984	-8.096085
252637043112690	-1.9195709	18.494476	-9.495056
252637048148090	-1.2839661	18.856216	-10.332565
252637053183491	-0.4918518	18.480927	-10.11113
252637058218891	-0.114471436	17.280563	-9.084061
252637063254292	-0.27020264	15.517456	-7.6578674
252637068289692	-0.52433777	13.634094	-6.3296967
252637073325092	-0.65341187	11.93721	-5.2709656
252637078360493	-0.66075134	10.183899	-4.522171
252637083395893	-0.6743164	8.615051	-4.1652527
252637088431293	-0.61094666	7.2893677	-4.1294403
252637093466694	-0.42500305	6.226532	-4.355942
252637098502094	-0.087677	5.4647217	-4.9475555
252637103537495	0.26068115	5.002899	-5.713608
252637108572895	0.55622864	4.8042755	-6.521988
252637113608295	0.7656708	5.0824127	-7.1210785
252637118643696	0.8580475	5.8277893	-6.8471985
252637123679096	0.9691162	6.767029	-6.0502625
252637128714497	0.9586029	7.6021576	-5.5985107
252637133749897	0.8124542	8.393951	-5.6633606
252637138785297	1.0165558	9.311478	-5.6989746
252637143820698	1.2814026	10.274948	-5.297058
252637148856098	1.4556885	11.282532	-4.4120026
252637153891499	1.7456512	12.364014	-3.3833313
252637158926899	2.0374908	13.334442	-2.1963196
252637163962299	2.8072968	14.526199	-0.81604004
252637168997700	3.9590607	15.696594	0.9325104
252637174033100	5.2176666	17.287918	2.2807617
252637179068501	6.5489197	18.984955	2.22435
252637184103901	6.579727	19.476868	0.64071655
252637189139301	5.4191895	19.139587	-2.0471497
252637194174702	2.0493927	16.901154	-3.734192
252637199210102	-0.51200867	13.87886	-3.6522522
252637204245502	-1.6700897	11.451294	-2.573883
252637209280903	-2.1669006	9.28006	-1.2778931
252637214316303	-1.9570007	7.535202	-0.18940735
252637219351704	-1.4628448	6.2611237	0.4242859
252637224387104	-1.163147	5.3660126	0.3788147
252637229422504	-0.9876251	4.7375793	-0.34754944
252637234457905	-0.8896332	4.53273	-1.0997009
252637239493305	-0.7903595	4.7414093	-1.3228607
252637244528706	-0.78256226	5.1082764	-1.2021332
252637249564106	-0.8548584	5.459961	-1.0104523
252637254599506	-1.070404	5.837921	-0.6053467
252637259634907	-1.3496857	6.271652	-0.009536743
252637264670307	-1.5383148	6.673813	0.59928894
252637269705708	-1.5697021	7.111511	1.3475647
252637274741108	-1.5119629	7.6036224	2.2694244
252637279776508	-1.5061493	8.037994	3.069336
252637284811909	-1.494278	8.445587	3.4533386
252637289847309	-1.3667297	8.769394	3.1503296
252637294882710	-1.2257843	9.045639	2.3458405
252637299918110	-1.1819305	9.352982	1.3750916
252637304953510	-1.2079468	9.667938	0.35131836
252637309988911	-1.1487885	10.054306	-0.48413086
252637315024311	-0.9302826	10.524078	-1.1997223
252637320059711	-0.77445984	11.029053	-1.8094482
252637325095112	-0.6808014	11.490036	-2.1076965
252637330130512	-0.7006836	11.778488	-2.1744995
252637335165913	-0.7898102	11.912827	-2.0404053
252637340201313	-0.79714966	11.978882	-1.8660583
252637345236713	-0.75938416	11.942795	-1.7479248
252637350272114	-0.70106506	11.725769	-1.7920074
252637355307514	-0.6477356	11.364059	-1.8026428
252637360342915	-0.5711975	10.945267	-1.7372131
252637365378315	-0.5346527	10.390305	-1.539856
252637370413715	-0.5731659	9.810928	-1.2871857
252637375449116	-0.5988617	9.179977	-0.9988098
252637380484516	-0.6480255	8.599075	-0.69615173
252637385519917	-0.6663971	8.177399	-0.41513062
252637390555317	-0.7123108	7.8674164	-0.1781311
252637395590717	-0.78015137	7.613327	0.058044434
252637400626118	-0.8775635	7.4669037	0.21688843
252637405661518	-1.0922852	7.406143	0.3082428
252637410696918	-1.2382355	7.399643	0.40124512
252637415732319	-1.3355103	7.472702	0.35986328
252637420767719	-1.5001678	7.670349	0.21377563
252637425803120	-1.6214447	7.9202576	0.17176819
252637430838520	-1.6272278	8.19931	0.14659119
252637435873920	-1.5867615	8.546402	0.006591797
252637440909321	-1.554657	8.876083	0.034225464
252637445944721	-1.4971161	9.192581	5.950928E-4
252637450980122	-1.3833008	9.218323	-0.09791565
252637456015522	-1.265274	9.344711	-0.2655182
252637461050922	-1.0639801	9.350922	-0.4335785
252637466086323	-0.8525543	9.319946	-0.42384338
252637471121723	-0.73669434	9.232727	-0.4958496
252637476157124	-0.6640625	9.172562	-0.49482727
252637481192524	-0.6504059	9.086044	-0.4974823
252637486227924	-0.6316376	9.001846	-0.5478058
252637491263325	-0.63464355	8.917648	-0.5826416
252637496298725	-0.6908264	8.890854	-0.66877747
252637501334126	-0.7577667	8.848785	-0.70822144
252637506369526	-0.8396301	8.796295	-0.8095856
252637511404926	-0.8204346	8.737167	-0.7500458
252637516440327	-0.8693085	8.653793	-0.6551361
252637521475727	-0.9241333	8.582565	-0.6072235
252637526511127	-0.890625	8.552933	-0.52737427
252637531546528	-0.8616028	8.522217	-0.39170837
252637536581928	-0.8018341	8.55719	-0.34173584
252637541617329	-0.71299744	8.619354	-0.35099792
252637546652729	-0.6326294	8.6753235	-0.4520111
252637551688129	-0.48484802	8.774551	-0.52716064
252637556723530	-0.2945404	8.836929	-0.6108856
252637561758930	-0.12686157	8.951096	-0.66744995
252637566794331	-0.0020599365	9.087021	-0.618042
252637571829731	0.10719299	9.233459	-0.5153961
252637576865131	0.22546387	9.403381	-0.40301514
252637581900532	0.32009888	9.603806	-0.28123474
252637586935932	0.4287262	9.797012	-0.282547
252637591971333	0.5571747	9.964493	-0.32273865
252637597006733	0.6515808	10.10643	-0.37602234
252637602042133	0.715683	10.23526	-0.34623718
252637607077534	0.6885376	10.282623	-0.25473022
252637612112934	0.53086853	10.266281	-0.13964844
252637617148335	0.2690277	10.243286	0.014266968
252637622183735	0.018432617	10.260696	0.25428772
252637627219135	-0.17538452	10.349518	0.43328857
252637632254536	-0.44618225	10.437378	0.48602295
252637637289936	-0.67926025	10.5303955	0.40518188
252637642325336	-1.0105591	10.655197	0.4197693
252637647360737	-1.1933594	10.807541	0.42230225
252637652396137	-1.3345184	10.979477	0.4277954
252637657431538	-1.4420776	11.19397	0.29011536
252637662466938	-1.3344116	11.473785	0.16285706
252637667502338	-1.2277832	11.769516	-0.08969116
252637672537739	-1.1326599	12.049988	-0.2499237
252637677573139	-1.0756683	12.230194	-0.2776947
252637682608540	-0.9990082	12.33255	-0.23051453
252637687643940	-1.0362091	12.300842	-0.17503357
252637692679340	-1.04422	12.282928	-0.21594238
252637697714741	-1.1861877	12.247604	-0.26808167
252637702750141	-1.2697601	12.195465	-0.42468262
252637707785542	-1.3666992	12.204544	-0.49900818
252637712820942	-1.4137115	12.30336	-0.48475647
252637717856342	-1.464325	12.389038	-0.27731323
252637722891743	-1.4939423	12.504639	0.04963684
252637727927143	-1.4628906	12.643646	0.30371094
252637732962543	-1.3366241	12.83757	0.60209656
252637737997944	-1.2172394	13.087036	0.6174011
252637743033344	-0.96772766	13.271988	0.44406128
252637748068745	-0.6245117	13.386551	0.4909668
252637753104145	-0.5	13.415909	0.72398376
252637758139545	-0.5345459	13.34848	1.1309052
252637763174946	-0.6008606	13.106705	1.5869751
252637768210346	-0.73539734	12.902878	1.8100281
252637773245747	-0.9167023	12.636566	1.7543335
252637778281147	-1.0810242	12.370529	1.41362
252637783316547	-1.2069702	12.241318	0.948822
252637788351948	-1.1845703	12.233795	0.3990631
252637793387348	-0.9780426	12.229141	-0.48139954
252637798422749	-0.7063751	12.161301	-1.2622375
252637803458149	-0.430542	12.087357	-1.9672699
252637808493549	-0.18162537	11.943878	-2.5022583
252637813528950	0.08872986	11.774582	-2.6571198
252637818564350	0.37313843	11.583527	-2.3243103
252637823599751	0.61250305	11.313583	-1.7336426
252637828635151	0.80029297	11.021454	-1.1649933
252637833670551	0.93518066	10.7104645	-0.9384155
252637838705952	1.1413422	10.411819	-1.0642242
252637843741352	1.4042664	10.167099	-1.3687744
252637848776752	1.7068787	10.055603	-1.6208038
252637853812153	2.0556793	10.136536	-1.5931091
252637858847553	2.331726	10.302414	-1.3527832
252637863882954	2.5904999	10.60611	-0.91137695
252637868918354	2.766159	11.028198	-0.44726563
252637873953754	2.779358	11.402451	0.031295776
252637878989155	2.7162323	11.716339	0.5223236
252637884024555	2.585846	11.94902	0.92529297
252637889059956	2.5579376	12.078461	1.2272034
252637894095356	2.5054321	12.098389	1.3995819
252637899130756	2.3223267	12.045074	1.42659
252637904166157	2.1798096	11.968399	1.2200623
252637909201557	1.9260101	11.893112	0.6881561
252637914236958	1.412796	11.814957	-0.15615845
252637919272358	0.7696228	11.775375	-1.1663055
252637924307758	0.2523651	11.831406	-2.0455627
252637929343159	-0.13310242	11.9565735	-2.6208344
252637934378559	-0.55703735	12.112579	-2.8762054
252637939413960	-1.067215	12.134064	-2.9774933
252637944449360	-1.5096283	12.033676	-3.0669403
252637949484760	-1.7498016	11.860367	-2.9618835
252637954520161	-1.821579	11.510864	-2.5424957
252637959555561	-1.5795135	11.129059	-1.9797821
252637964590961	-1.2904968	10.731842	-1.3520355
252637969626362	-0.9901428	10.248276	-0.6462555
252637974661762	-0.69065857	9.708282	-0.21089172
252637979697163	-0.44586182	9.182251	-0.07902527
252637984732563	-0.3248291	8.624817	-0.22395325
252637989767963	-0.27931213	8.098328	-0.5635681
252637994803364	-0.25283813	7.5488586	-0.80130005
252637999838764	-0.19548035	7.0746765	-1.0039063
252638004874165	-0.06828308	6.740097	-1.1247864
252638009909565	0.06732178	6.3730774	-1.236496
252638014944965	0.2401123	6.158188	-1.1793671
252638019980366	0.3990631	5.94133	-1.2106018
252638025015766	0.46452332	5.830719	-1.4611664
252638030051167	0.54467773	5.7790375	-1.611969
252638035086567	0.5188446	5.752487	-1.6482086
252638040121967	0.47138977	5.8639526	-1.5971375
252638045157368	0.43518066	5.9858093	-1.7330475
252638050192768	0.4101715	6.131546	-1.8317261
252638055228168	0.28544617	6.251007	-1.9827728
252638060263569	0.16184998	6.4959106	-2.1401367
252638065298969	0.076049805	6.6371	-2.1571503
252638070334370	-0.11746216	6.597885	-2.2228394
252638075369770	-0.40403748	6.5707245	-2.3959503
252638080405170	-0.6746063	6.48407	-2.5649567
252638085440571	-0.815094	6.4536896	-2.7760925
252638090475971	-0.78723145	6.5075226	-2.9837646
252638095511372	-0.7105408	6.521591	-3.1569672
252638100546772	-0.6343994	6.46286	-3.318695
252638105582172	-0.6770935	6.210495	-3.4976654
252638110617573	-0.6690674	5.981369	-3.6793823
252638115652973	-0.6114807	5.8148956	-3.8543854
252638120688374	-0.48458862	5.6867523	-3.9960022
252638125723774	-0.47612	5.5265045	-4.0806427
252638130759174	-0.4532776	5.4052887	-4.2121887
252638135794575	-0.49812317	5.2712708	-4.184967
252638140829975	-0.51626587	5.1395264	-4.1459045
252638145865376	-0.52578735	5.023361	-4.2687225
252638150900776	-0.6378937	4.92453	-4.362274
252638155936176	-0.71961975	4.858719	-4.4554596
252638160971577	-0.8335571	4.784622	-4.532959
252638166006977	-0.99565125	4.731491	-4.6548767
252638171042377	-1.1271667	4.668228	-4.757736
252638176077778	-1.2785645	4.5775146	-4.820709
252638181113178	-1.5027466	4.4821167	-4.885391
252638186148579	-1.7978058	4.3299713	-4.9509277
252638191183979	-2.0910034	4.2387085	-5.0582123
252638196219379	-2.3699646	4.222275	-5.154999
252638201254780	-2.515854	4.3640137	-5.1544952
252638206290180	-2.8287811	4.515167	-5.245575
252638211325581	-3.0946045	4.8560944	-5.3641815
252638216360981	-3.1709595	5.408722	-5.2368317
252638221396381	-3.2940216	6.040848	-5.17865
252638226431782	-3.4585419	6.7807617	-5.130783
252638231467182	-3.6002502	7.5143127	-5.2743225
252638236502583	-3.8620148	8.288376	-5.4932404
252638241537983	-4.0405884	9.184982	-5.2761536
252638246573383	-4.122757	10.228653	-5.2468414
252638251608784	-4.0669403	11.454041	-4.9929504
252638256644184	-4.0841064	12.787949	-4.741455
252638261679585	-3.9848785	14.116577	-4.9740295
252638266714985	-3.6954346	15.594498	-5.513031
252638271750385	-3.427185	16.812607	-6.6318817
252638276785786	-3.065796	17.576385	-7.6469116
252638281821186	-2.7422028	17.892883	-8.444717
252638286856586	-2.4645233	17.534302	-8.8367
252638291891987	-2.2826538	16.694656	-8.864609
252638296927387	-1.9864349	15.504547	-8.488388
252638301962788	-1.6408691	14.120697	-7.8673706
252638306998188	-1.1608582	12.536301	-7.3013306
252638312033588	-0.75294495	10.946487	-6.7111206
252638317068989	-0.4414215	9.530716	-6.201996
252638322104389	-0.09802246	8.374863	-5.8855286
252638327139790	0.32859802	7.351425	-5.7212677
252638332175190	0.69551086	6.769638	-5.643173
252638337210590	0.86442566	6.548752	-5.76593
252638342245991	0.78941345	6.555237	-5.583374
252638347281391	0.5424652	6.892288	-5.1119843
252638352316792	0.26339722	7.364609	-4.517853
252638357352192	0.0023651123	7.9907227	-4.209366
252638362387592	-0.17901611	8.700073	-4.3941345
252638367422993	-0.017333984	9.534851	-4.71196
252638372458393	0.20652771	10.346085	-4.973053
252638377493793	0.4237976	11.131668	-4.819748
252638382529194	0.6434479	11.827423	-4.120682
252638387564594	0.9367676	12.525452	-2.9235687
252638392599995	1.2447357	13.084808	-1.4013367
252638397635395	1.6906128	13.620743	0.3197174
252638402670795	2.1759338	14.278259	2.070938
252638407706196	2.8932953	15.189972	3.4168243
252638412741596	3.6914368	15.8754425	3.630783
252638417776997	4.3497467	15.975723	2.4436646
252638422812397	3.897812	14.956833	0.5550995
252638427847797	2.4595947	12.879715	-1.4132233
252638432883198	1.0031586	10.45076	-2.7776184
252638437918598	0.48051453	8.641327	-3.3591309
252638442953999	0.38923645	7.3993073	-3.2584991
252638447989399	0.3583374	6.5197754	-2.491745
252638453024799	0.19833374	5.981949	-1.6515198
252638458060200	-0.029571533	5.7699585	-1.2173615
252638463095600	-0.24597168	5.8109894	-1.2784119
252638468131001	-0.4620514	6.042511	-1.4100342
252638473166401	-0.710968	6.405411	-1.3067627
252638478201801	-0.98535156	6.798935	-0.9275818
252638483237202	-1.2578735	7.1194763	-0.21411133
252638488272602	-1.4314575	7.432266	0.7320862
252638493308002	-1.3978119	7.8781433	1.792099
252638498343403	-1.1974182	8.396469	2.7085419
252638503378803	-1.0519562	8.917374	3.3493805
252638508414204	-0.9255371	9.2690735	3.569397
252638513449604	-0.9154663	9.537231	3.380722
252638518485004	-0.92477417	9.663483	2.7596893
252638523520405	-0.8303833	9.735565	1.6591492
252638528555805	-0.83447266	9.746887	0.38389587
252638533591206	-0.77667236	9.849045	-0.7693939
252638538626606	-0.702652	10.037613	-1.3279572
252638543662006	-0.6604614	10.170471	-1.4428711
252638548697407	-0.88790894	10.2213745	-1.3055725
252638553732807	-1.0928955	10.288162	-1.1427765
252638558768208	-1.2412262	10.287231	-0.9622345
252638563803608	-1.3826141	10.197144	-0.8598633
252638568839008	-1.446106	10.098679	-0.9878082
252638573874409	-1.3987274	9.931641	-1.1845703
252638578909809	-1.2713013	9.761551	-1.3858032
252638583945210	-1.1835022	9.498459	-1.5938721
252638588980610	-1.025177	9.321548	-1.4350891
252638594016010	-0.7906494	9.116013	-1.152832
252638599051411	-0.64331055	8.88385	-0.874588
252638604086811	-0.47756958	8.723648	-0.5313568
252638609122211	-0.37428284	8.461533	-0.42637634
252638614157612	-0.2872162	8.277176	-0.35179138
252638619193012	-0.3298645	8.090897	-0.3293457
252638624228413	-0.4249115	8.039597	-0.37731934
252638629263813	-0.63209534	7.8907013	-0.4216919
252638634299213	-0.8544159	7.8441925	-0.34455872
252638639334614	-1.0359039	7.9070587	-0.2243042
252638644370014	-1.1863403	8.027695	-0.0667572
252638649405415	-1.198288	8.225845	-0.08883667
252638654440815	-1.3445435	8.443802	-0.27166748
252638659476215	-1.4060211	8.639984	-0.7164154
252638664511616	-1.4482727	8.860764	-1.1387634
252638669547016	-1.4755707	9.028809	-1.3670197
252638674582417	-1.4882965	9.154602	-1.3385773
252638679617817	-1.4863586	9.256241	-1.1417847
252638684653217	-1.5101624	9.333282	-0.79515076
252638689688618	-1.447052	9.368454	-0.7488251
252638694724018	-1.3216553	9.363861	-0.8581848
252638699759418	-1.201416	9.355057	-0.77090454
252638704794819	-1.0245667	9.246826	-0.6105194
252638709830219	-0.8752594	9.087494	-0.32530212
252638714865620	-0.7693329	8.907486	-0.13670349
252638719901020	-0.7131195	8.681061	-0.10661316
252638724936420	-0.6433258	8.443314	-0.14790344
252638729971821	-0.59410095	8.318314	-0.21903992
252638735007221	-0.59259033	8.225784	-0.30059814
252638740042622	-0.59661865	8.185837	-0.39605713
252638745078022	-0.62527466	8.17189	-0.4232483
252638750113422	-0.6839142	8.220245	-0.4287567
252638755148823	-0.68452454	8.358871	-0.5159912
252638760184223	-0.66204834	8.49971	-0.5717468
252638765219624	-0.7084656	8.599625	-0.5797577
252638770255024	-0.7129364	8.681519	-0.5649719
252638775290424	-0.6449127	8.783981	-0.4680786
252638780325825	-0.51782227	8.89238	-0.3712921
252638785361225	-0.4235077	9.021713	-0.43824768
252638790396626	-0.22624207	9.164047	-0.48321533
252638795432026	0.011703491	9.348572	-0.48815918
252638800467426	0.29829407	9.620331	-0.41729736
252638805502827	0.45910645	9.886215	-0.3014679
252638810538227	0.56025696	10.1154785	-0.1431427
252638815573627	0.56204224	10.269196	0.07118225
252638820609028	0.496521	10.476044	0.26628113
252638825644428	0.4671173	10.614288	0.4037323
252638830679829	0.3789978	10.711258	0.47491455
252638835715229	0.19444275	10.729599	0.5430603
252638840750629	-0.101989746	10.757355	0.6217346
252638845786030	-0.51672363	10.708511	0.82225037
252638850821430	-0.91773987	10.58551	1.0331268
252638855856831	-1.2071533	10.452301	1.0883026
252638860892231	-1.4604797	10.406021	1.179306
252638865927631	-1.6925812	10.414429	1.1544342
252638870963032	-1.8439178	10.439804	1.0115356
252638875998432	-1.8897552	10.545654	0.8724365
252638881033833	-1.960846	10.624878	0.78038025
252638886069233	-1.9608765	10.731705	0.42074585
252638891104633	-1.9699249	10.861954	0.14067078
252638896140034	-1.9268646	11.10022	-0.09564209
252638901175434	-1.8498535	11.3750305	-0.4343872
252638906210835	-1.8124237	11.64801	-0.6448822
252638911246235	-1.7608795	11.949829	-0.8750458
252638916281635	-1.7619629	12.297684	-0.9177704
252638921317036	-1.6709137	12.640427	-0.96739197
252638926352436	-1.6090546	12.938919	-1.019989
252638931387836	-1.5692291	13.102997	-1.0926208
252638936423237	-1.6140137	13.273773	-1.0948181
252638941458637	-1.6630859	13.342392	-0.99920654
252638946494038	-1.7024536	13.37825	-0.6926422
252638951529438	-1.7433777	13.322205	-0.36065674
252638956564838	-1.8187866	13.3211975	0.015533447
252638961600239	-1.8325958	13.351471	0.3128662
252638966635639	-1.625	13.4075165	0.52789307
252638971671040	-1.2672272	13.517609	0.77194214
252638976706440	-0.9070282	13.582611	1.0401611
252638981741840	-0.62727356	13.558273	1.4252472
252638986777241	-0.56973267	13.478134	1.7313843
252638991812641	-0.6897125	13.261688	1.7892303
252638996848042	-0.91485596	13.002716	1.5621643
252639001883442	-1.024704	12.91658	1.1167297
252639006918842	-0.9751282	12.908752	0.68943787
252639011954243	-0.6976166	12.854584	0.27708435
252639016989643	-0.23158264	12.687042	-0.22972107
252639022025043	0.32006836	12.453278	-0.78414917
252639027060444	0.91645813	12.186142	-1.214325
252639032095844	1.4080963	11.935196	-1.5695496
252639037131245	1.6952972	11.611435	-1.7880859
252639042166645	1.7885132	11.308075	-1.6335449
252639047202045	1.8483124	11.080566	-1.3350067
252639052237446	1.9904785	10.9232025	-1.2091675
252639057272846	2.2900085	10.901062	-1.2328796
252639062308247	2.6805878	10.927017	-1.3635559
252639067343647	3.04982	10.92569	-1.4692383
252639072379047	3.3584747	11.014465	-1.4455719
252639077414448	3.559616	11.228226	-1.390564
252639082449848	3.7808075	11.620178	-1.3309479
252639087485249	3.9634552	12.058182	-1.2630615
252639092520649	4.086151	12.460114	-1.2362823
252639097556049	4.064575	12.823456	-1.1471252
252639102591450	3.9834747	13.110901	-1.1058655
252639107626850	3.8076172	13.346725	-1.0661011
252639112662251	3.497696	13.451935	-0.8943329
252639117697651	3.083084	13.48381	-0.7431183
252639122733051	2.7341003	13.3823395	-0.642334
252639127768452	2.245453	13.189468	-0.71435547
252639132803852	1.6436157	12.898514	-0.6791382
252639137839252	1.2431335	12.637238	-0.5942383
252639142874653	0.7338257	12.35965	-0.41886902
252639147910053	0.17503357	12.040497	-0.454422
252639152945454	-0.44499207	11.643585	-0.87794495
252639157980854	-1.1058807	11.189819	-1.6707306
252639163016254	-1.4845581	10.838379	-2.330246
252639168051655	-1.7006836	10.539246	-2.808319
252639173087055	-1.911438	10.2226715	-2.8494415
252639178122456	-1.9883575	9.916824	-2.527954
252639183157856	-2.0427551	9.545197	-1.8661041
252639188193256	-2.1258545	9.147583	-1.2108002
252639193228657	-1.9711151	8.795914	-0.57559204
252639198264057	-1.8766937	8.493393	-0.33042908
252639203299458	-1.690628	8.128647	-0.26168823
252639208334858	-1.4792938	7.7215576	-0.34254456
252639213370258	-1.2649689	7.392624	-0.05444336
252639218405659	-1.0852814	7.172699	-0.09033203
252639223441059	-0.9082794	6.977005	-0.09812927
252639228476460	-0.8229065	6.688904	-0.3347931
252639233511860	-0.743927	6.3780823	-0.6210327
252639238547260	-0.64790344	6.1258545	-0.7531433
252639243582661	-0.5391846	5.835388	-0.9662018
252639248618061	-0.31295776	5.5088043	-1.2115784
252639253653461	-0.11767578	5.260559	-1.2664642
252639258688862	-0.11274719	5.14386	-1.4509583
252639263724262	-0.07356262	5.1465607	-1.5515289
252639268759663	-0.0062408447	5.172455	-1.6322937
252639273795063	-0.019119263	5.173065	-1.851181
252639278830463	0.013580322	5.269638	-2.0813751
252639283865864	-0.047561646	5.3918915	-2.4204407
252639288901264	-0.10487366	5.6132507	-2.7722473
252639293936665	-0.12055969	5.897812	-2.971634
252639298972065	-0.067596436	6.1021423	-3.0912628
252639304007465	-0.045028687	6.162369	-3.137024
252639309042866	-0.094314575	6.1584625	-3.2503967
252639314078266	-0.13720703	6.114029	-3.328247
252639319113667	-0.16833496	6.0443115	-3.3867035
252639324149067	-0.1826477	5.983429	-3.4858704
252639329184467	-0.18669128	5.9756927	-3.5493317
252639334219868	-0.16711426	5.9704742	-3.6344147
252639339255268	-0.14387512	5.9299316	-3.6464844
252639344290668	-0.116104126	5.9216614	-3.5704346
252639349326069	-0.0967865	5.890915	-3.4670105
252639354361469	-0.14027405	5.8178864	-3.4666443
252639359396870	-0.16989136	5.7447357	-3.536499
252639364432270	-0.20973206	5.658539	-3.649765
252639369467670	-0.30978394	5.52742	-3.8828735
252639374503071	-0.4124756	5.419037	-4.086136
252639379538471	-0.52445984	5.34877	-4.201828
252639384573872	-0.7115021	5.236374	-4.4314117
252639389609272	-0.8871155	5.115448	-4.5992584
252639394644672	-1.1790924	4.986603	-4.702133
252639399680073	-1.418869	4.895279	-4.8323975
252639404715473	-1.6486664	4.7858887	-5.0222015
252639409750874	-1.8725891	4.7109528	-5.0931244
252639414786274	-2.054779	4.6825714	-5.1544495
252639419821674	-2.4720306	4.512558	-5.275055
252639424857075	-2.843689	4.524109	-5.2835846
252639429892475	-3.0932007	4.670044	-4.990082
252639434927876	-3.309372	4.937439	-4.6685944
252639439963276	-3.4038239	5.36499	-4.394745
252639444998676	-3.5499878	5.8027496	-4.220215
252639450034077	-3.6302643	6.30777	-4.40625
252639455069477	-3.6678772	6.8986206	-4.78891
252639460104877	-3.7062225	7.4955444	-5.330826
252639465140278	-3.6686401	8.187668	-5.790268
252639470175678	-3.629776	8.789459	-6.0368195
252639475211079	-3.5856934	9.657089	-6.3584747
252639480246479	-3.4577637	10.6154175	-6.322571
252639485281879	-3.352478	11.842712	-6.188095
252639490317280	-3.0735016	13.19577	-6.5476685
252639495352680	-2.8216705	14.577255	-7.0777435
252639500388081	-2.4204712	15.717377	-7.469223
252639505423481	-2.0692902	16.586243	-7.7802734
252639510458881	-2.0102844	17.033737	-7.7834015
252639515494282	-1.83992	17.020676	-7.728302
252639520529682	-1.8909302	16.44748	-7.4422913
252639525565083	-2.0401154	15.504028	-6.949051
252639530600483	-2.3069763	14.28714	-6.444153
252639535635883	-2.377716	13.0095215	-6.158264
252639540671284	-2.2816315	11.821793	-5.9207153
252639545706684	-2.1431427	10.60759	-5.7615814
252639550742085	-1.7882538	9.684128	-5.692581
252639555777485	-1.3208618	8.97348	-5.8310394
252639560812885	-0.79852295	8.526947	-6.2238617
252639565848286	-0.26976013	8.377914	-6.722885
252639570883686	0.05921936	8.506989	-7.053665
252639575919086	0.16200256	8.950867	-7.115341
252639580954487	-0.07382202	9.524582	-6.9141235
252639585989887	-0.3306427	10.217407	-6.5635376
252639591025288	-0.5410919	11.008255	-6.1984253
252639596060688	-0.7182312	11.8688965	-5.765259
252639601096088	-0.8108673	12.875473	-5.1752777
252639606131489	-0.6430359	14.012878	-4.262741
252639611166889	-0.15879822	15.080597	-3.2624207
252639616202290	0.5174103	15.927704	-2.1748657
252639621237690	1.4628143	16.491837	-1.2389374
252639626273090	2.403839	16.65866	-0.50942993
252639631308491	3.1036987	16.34372	0.07211304
252639636343891	3.7462006	15.499023	0.49050903
252639641379292	3.9391785	13.936096	0.70721436
252639646414692	3.1030273	11.56456	0.75857544
252639651450092	1.8388519	8.94664	0.8404846
252639656485493	1.0716095	6.877121	0.96365356
252639661520893	0.91467285	5.253311	1.2875824
252639666556293	1.0623932	4.0447235	1.7575684
252639671591694	1.1407318	3.1726685	1.9759521
252639676627094	1.3782806	2.6091766	1.2153015
252639681662495	1.5773468	2.343811	-0.28834534
252639686697895	1.6970062	2.3833313	-1.9970856
252639691733295	1.76857	2.8085022	-3.6788635
252639696768696	1.7041321	3.3963013	-4.980652
252639701804096	1.2868958	4.1102905	-5.5592194
252639706839497	0.70913696	4.9664764	-5.218628
252639711874897	-0.014297485	5.980377	-4.2050323
252639716910297	-0.61009216	7.0756836	-2.7640686
252639721945698	-1.2514496	8.303848	-0.93348694
252639726981098	-1.8887329	9.400284	0.9960022
252639732016499	-2.3957977	10.401276	2.9578094
252639737051899	-2.51326	11.201569	4.413971
252639742087299	-2.20047	11.920303	5.3675385
252639747122700	-1.6997833	12.399124	5.8125
252639752158100	-1.3717651	12.805084	5.649704
252639757193501	-1.0687866	12.94104	4.264694
252639762228901	-0.6587372	13.071091	2.4431305
252639767264301	-0.4363556	12.971466	0.56004333
252639772299702	-0.36608887	12.54187	-1.0704498
252639777335102	-0.3750763	12.097488	-1.9659576
252639782370502	-0.49617004	11.411652	-2.2115936
252639787405903	-0.77053833	10.815598	-1.9794922
252639792441303	-1.0028839	10.132629	-1.6344604
252639797476704	-1.1323242	9.534317	-1.3699493
252639802512104	-1.190628	9.028915	-1.081253
252639807547504	-1.2077179	8.634766	-0.7882538
252639812582905	-1.0850983	8.358749	-0.74142456
252639817618305	-1.044754	8.162582	-0.524765
252639822653706	-0.94148254	7.8944397	-0.5063324
252639827689106	-0.81333923	7.734024	-0.4593506
252639832724506	-0.6517029	7.594269	-0.17391968
252639837759907	-0.5971985	7.4611206	0.32724
252639842795307	-0.53829956	7.4297485	1.0007935
252639847830708	-0.5300293	7.471939	1.5276031
252639852866108	-0.51672363	7.64299	1.9199371
252639857901508	-0.4484558	7.880661	2.052414
252639862936909	-0.24937439	8.203506	1.9009094
252639867972309	-0.031936646	8.600937	1.7237091
252639873007710	0.18458557	8.979233	1.3451233
252639878043110	0.2681427	9.211182	0.9032898
252639883078510	0.364151	9.382828	0.5231323
252639888113911	0.4078369	9.483505	0.23223877
252639893149311	0.38064575	9.512802	-0.013244629
252639898184711	0.33166504	9.469055	-0.1831665
252639903220112	0.30400085	9.353607	-0.366333
252639908255512	0.28199768	9.270782	-0.5476837
252639913290913	0.046966553	9.088196	-0.56056213
252639918326313	-0.23387146	8.901489	-0.43171692
252639923361713	-0.33895874	8.806442	-0.213974
252639928397114	-0.37446594	8.740341	0.045333862
252639933432514	-0.39115906	8.703461	0.32473755
252639938467915	-0.4333496	8.631165	0.57218933
252639943503315	-0.44010925	8.586487	0.8417511
252639948538715	-0.46339417	8.563461	1.0340118
252639953574116	-0.46228027	8.53952	1.0814056
252639958609516	-0.4658966	8.511841	1.0625458
252639963644917	-0.43780518	8.447739	0.9453888
252639968680317	-0.41220093	8.399567	0.8531189
252639973715717	-0.4671173	8.362183	0.88119507
252639978751118	-0.4984131	8.41507	0.7773895
252639983786518	-0.52493286	8.427261	0.6478119
252639988821918	-0.6316681	8.483978	0.5375061
252639993857319	-0.7555237	8.597977	0.35733032
252639998892719	-0.8108063	8.694183	0.13493347
252640003928120	-0.83384705	8.884308	-0.061462402
252640008963520	-0.8009033	9.093628	-0.16401672
252640013998920	-0.80952454	9.218536	-0.41299438
252640019034321	-0.86283875	9.386261	-0.59375
252640024069721	-0.8661957	9.491577	-0.80422974
252640029105122	-0.8330841	9.575256	-0.97676086
252640034140522	-0.7501221	9.7109375	-0.9643402
252640039175922	-0.73298645	9.733887	-0.88319397
252640044211323	-0.6491089	9.766632	-0.71891785
252640049246723	-0.6208954	9.774963	-0.62590027
252640054282124	-0.5157776	9.844101	-0.6053467
252640059317524	-0.31036377	10.065384	-0.5202637
252640064352924	-0.14109802	10.321396	-0.29914856
252640069388325	0.014877319	10.54895	-0.25405884
252640074423725	0.142807	10.7285	-0.1418457
252640079459126	0.20558167	10.963608	0.064697266
252640084494526	0.18066406	11.130341	0.2525177
252640089529926	0.16802979	11.205872	0.47402954
252640094565327	0.09454346	11.264114	0.5440674
252640099600727	-0.19224548	11.31311	0.52812195
252640104636127	-0.31158447	11.395004	0.6138611
252640109671528	-0.40582275	11.540817	0.61953735
252640114706928	-0.5233307	11.770782	0.6008301
252640119742329	-0.65960693	12.0251465	0.46844482
252640124777729	-0.7802429	12.2951355	0.23144531
252640129813129	-0.8873749	12.542831	-0.16989136
252640134848530	-0.94610596	12.77124	-0.5155945
252640139883930	-0.97317505	12.832687	-0.7559204
252640144919331	-1.1025391	12.771118	-0.85328674
252640149954731	-1.2798767	12.625168	-0.8687744
252640154990131	-1.444046	12.502884	-0.73365784
252640160025532	-1.6157227	12.318527	-0.7308197
252640165060932	-1.7345276	12.140366	-0.76086426
252640170096333	-1.8765411	12.013916	-0.6509094
252640175131733	-2.0021973	11.968475	-0.45402527
252640180167133	-2.110077	12.01355	-0.17015076
252640185202534	-2.0922394	12.164658	0.14950562
252640190237934	-1.926117	12.388901	0.5758972
252640195273335	-1.6205292	12.60878	0.9413605
252640200308735	-1.2492371	12.851791	1.121048
252640205344135	-0.9424286	13.108856	1.27034
252640210379536	-0.67089844	13.352753	1.4461823
252640215414936	-0.6886444	13.511261	1.5232697
252640220450336	-1.0509491	13.601349	1.51857
252640225485737	-1.5142975	13.704575	1.5388031
252640230521137	-1.96344	13.830551	1.5171661
252640235556538	-2.3296204	13.865067	1.2675781
252640240591938	-2.3719788	13.703384	0.8166199
252640245627338	-1.9758759	13.395294	0.32043457
252640250662739	-1.3546448	13.007477	-0.088897705
252640255698139	-0.63417053	12.601303	-0.5842285
252640260733540	0.061767578	12.20372	-1.0177917
252640265768940	0.7157898	11.8728485	-1.0662689
252640270804340	1.39534	11.593887	-0.95503235
252640275839741	1.9241486	11.293793	-0.7876587
252640280875141	2.308258	11.039215	-0.8822479
252640285910542	2.6775818	10.895737	-0.9635315
252640290945942	3.2528687	10.940735	-1.057251
252640295981342	3.9636688	11.213593	-0.9715271
252640301016743	4.523102	11.601776	-0.8531647
252640306052143	4.496048	11.995941	-0.28929138
252640311087543	3.9850616	12.329941	0.6951294
252640316122944	3.2574615	12.667526	1.8187866
252640321158344	2.7914276	12.932602	2.4333038
252640326193745	2.656723	13.158325	2.4839478
252640331229145	2.5029755	13.226181	2.024887
252640336264545	2.3615875	13.19899	1.4290619
252640341299946	2.3682098	13.224152	0.7296448
252640346335346	2.392517	13.207092	-0.08526611
252640351370747	2.302414	13.131912	-0.6793213
252640356406147	1.9880219	13.152191	-1.1769714
252640361441547	1.3200226	13.136154	-1.6262512
252640366476948	0.5896759	13.128799	-1.7400513
252640371512348	-0.11720276	13.027451	-1.6977997
252640376547749	-0.8032532	12.890778	-1.6939087
252640381583149	-1.3701324	12.691467	-1.7795563
252640386618549	-1.8895416	12.365036	-2.0837097
252640391653950	-2.2945404	11.818771	-2.2152863
252640396689350	-2.335785	11.263382	-1.929596
252640401724751	-2.0782013	10.67038	-1.5229797
252640406760151	-1.4265137	9.977402	-0.87812805
252640411795551	-0.73753357	9.332748	-0.28788757
252640416830952	-0.18952942	8.7556	0.16960144
252640421866352	0.28541565	8.21965	0.5048218
252640426901752	0.53541565	7.766678	0.7281647
252640431937153	0.63526917	7.3360443	0.72709656
252640436972553	0.5956726	6.950363	0.54415894
252640442007954	0.608551	6.649643	0.25239563
252640447043354	0.5874939	6.3884583	-0.067977905
252640452078754	0.6963501	6.2100677	-0.4373932
252640457114155	0.8426361	6.089325	-0.7995148
252640462149555	0.8949127	6.001175	-1.1138153
252640467184956	0.9241638	5.927887	-1.2732849
252640472220356	0.9966736	5.7789764	-1.4632874
252640477255756	0.8920746	5.573593	-1.7011566
252640482291157	0.66270447	5.4522247	-1.961441
252640487326557	0.51148987	5.511078	-2.2357483
252640492361958	0.41716003	5.5924377	-2.4220428
252640497397358	0.3060608	5.580963	-2.5190125
252640502432758	0.21942139	5.562668	-2.6481018
252640507468159	-0.0026855469	5.4948883	-2.7915802
252640512503559	-0.23327637	5.435562	-2.9487762
252640517538960	-0.3735962	5.4487915	-3.0668945
252640522574360	-0.36065674	5.4919586	-3.0789948
252640527609760	-0.3197174	5.504074	-3.1795502
252640532645161	-0.2681427	5.4946594	-3.0955963
252640537680561	-0.1217041	5.4888153	-2.9733582
252640542715961	-0.008560181	5.500946	-2.857788
252640547751362	0.066604614	5.534729	-2.7612152
252640552786762	0.054092407	5.4972534	-2.6215057
252640557822163	0.06947327	5.4216003	-2.581955
252640562857563	0.019454956	5.295639	-2.6409302
252640567892963	-0.043533325	5.1246643	-2.750702
252640572928364	-0.08622742	4.96579	-2.9241638
252640577963764	-0.23062134	4.786621	-3.015564
252640582999165	-0.3653412	4.5701447	-3.1856537
252640588034565	-0.5379944	4.4176483	-3.338791
252640593069965	-0.74050903	4.273758	-3.5402527
252640598105366	-0.84921265	4.19252	-3.7453156
252640603140766	-0.9900055	4.1222076	-4.071686
252640608176167	-1.0201416	4.0785522	-4.263214
252640613211567	-1.0901947	4.019516	-4.368622
252640618246967	-1.1970978	4.034668	-4.5768585
252640623282368	-1.4314575	4.038269	-4.754059
252640628317768	-1.6506958	4.138199	-4.9239807
252640633353168	-1.8121185	4.3701935	-5.1883087
252640638388569	-2.0183105	4.6303864	-5.2791595
252640643423969	-2.290619	4.996887	-5.4373474
252640648459370	-2.5725555	5.446823	-5.434723
252640653494770	-2.818634	5.9836273	-5.4683533
252640658530170	-3.0136414	6.6996	-5.3900604
252640663565571	-3.0022278	7.421036	-5.3486176
252640668600971	-3.0640259	8.119751	-5.465393
252640673636372	-3.1032867	9.07756	-5.6062775
252640678671772	-3.1981964	10.042374	-5.475403
252640683707172	-3.4194336	10.9652405	-5.262146
252640688742573	-3.6603394	11.920914	-5.168686
252640693777973	-3.7475128	12.936371	-5.22348
252640698813374	-3.8131256	13.7526245	-5.336212
252640703848774	-3.8631744	14.5607605	-5.7595673
252640708884174	-3.8754272	15.163986	-6.1758575
252640713919575	-3.7764893	15.533829	-6.677368
252640718954975	-3.5448303	15.683594	-7.078293
252640723990376	-3.3052368	15.643021	-7.2890778
252640729025776	-3.1419678	15.372589	-7.351944
252640734061176	-2.9605865	14.838501	-7.2239075
252640739096577	-2.734787	14.188126	-7.055847
252640744131977	-2.4750977	13.3784485	-6.7474823
252640749167377	-2.169876	12.442932	-6.5377502
252640754202778	-1.9234924	11.482452	-6.4210815
252640759238178	-1.6902618	10.516983	-6.3643646
252640764273579	-1.5795441	9.511368	-6.413437
252640769308979	-1.611908	8.622726	-6.531006
252640774344379	-1.7082672	7.79335	-6.6692657
252640779379780	-1.7689514	7.098419	-6.853668
252640784415180	-1.7943115	6.6009064	-7.104431
252640789450581	-1.7771759	6.3551636	-7.4241943
252640794485981	-1.6707611	6.4601746	-7.584854
252640799521381	-1.56633	6.7556	-7.501526
252640804556782	-1.5394897	7.157852	-7.1444244
252640809592182	-1.7103882	7.6397247	-6.661087
252640814627583	-1.6746826	8.275421	-6.249878
252640819662983	-1.3084564	9.21376	-5.8754883
252640824698383	-0.8146057	10.35936	-5.552414
252640829733784	-0.21269226	11.696808	-5.0844116
252640834769184	0.32695007	13.153336	-4.3294373
252640839804585	0.8738098	14.6979065	-3.2908478
252640844839985	1.6377563	16.272675	-2.2783813
252640849875385	2.431137	17.754532	-1.1334991
252640854910786	3.4897308	19.143753	0.014556885
252640859946186	4.5261383	19.476868	0.7863312
252640864981586	5.3326263	19.476868	1.21875
252640870016987	5.84169	18.734344	1.432785
252640875052387	4.5384674	16.129028	1.4254913
252640880087788	1.9475403	12.266708	1.1829834
252640885123188	0.8887024	9.241486	0.58735657
252640890158588	0.8136902	7.038025	-0.014419556
252640895193989	0.96543884	5.298584	-0.3214569
252640900229389	1.4054871	3.9015503	-0.22241211
252640905264790	1.7249756	2.8700104	-0.13626099
252640910300190	2.0982819	1.8965149	-0.08869934
252640915335590	2.2476501	1.300415	-0.18727112
252640920370991	2.3063202	0.97813416	-1.0509033
252640925406391	2.2859192	1.0890961	-2.0526123
252640930441792	2.3676147	1.5703735	-3.1805878
252640935477192	2.410263	2.250412	-3.817978
252640940512592	2.2035065	3.2895203	-3.8796997
252640945547993	1.6662598	4.456314	-3.1974792
252640950583393	0.9117737	5.870804	-2.1891785
252640955618793	0.22650146	7.2911377	-1.0584869
252640960654194	-0.52134705	8.638184	0.5033417
252640965689594	-1.4585724	9.795212	2.2510986
252640970724995	-2.159729	11.075424	4.2927246
252640975760395	-2.5661316	12.1475525	5.778961
252640980795795	-2.8089752	13.090866	6.5793457
252640985831196	-2.9257813	13.774521	6.5904694
252640990866596	-2.994812	14.1948395	5.720398
252640995901997	-2.9023438	14.352951	4.0946198
252641000937397	-2.715332	14.297501	1.7791138
252641005972797	-2.4958954	13.9891815	-0.32263184
252641011008198	-2.0563354	13.364517	-1.8840332
252641016043598	-1.7696686	12.482178	-2.3057556
252641021078999	-1.5537415	11.579102	-2.1425781
252641026114399	-1.2737885	10.643112	-1.7711182
252641031149799	-1.0203247	9.682434	-1.2943573
252641036185200	-0.826355	8.910324	-0.9122009
252641041220600	-0.68807983	8.243301	-0.5372925
252641046256001	-0.62416077	7.661148	-0.3530426
252641051291401	-0.43977356	7.2048035	-0.41131592
252641056326801	-0.14834595	6.9228363	-0.3942566
252641061362202	0.085235596	6.7398224	-0.25706482
252641066397602	0.22077942	6.634201	-0.081451416
252641071433002	0.30459595	6.6046753	0.22206116
252641076468403	0.35411072	6.74823	0.6212158
252641081503803	0.33616638	7.0135193	0.98942566
252641086539204	0.20547485	7.333267	1.2454529
252641091574604	0.11021423	7.6884003	1.2927856
252641096610004	0.09182739	8.10968	1.194397
252641101645405	0.12454224	8.607681	1.0730591
252641106680805	0.19821167	9.052017	0.96795654
252641111716206	0.20269775	9.396774	0.84936523
252641116751606	0.22261047	9.704758	0.7514801
252641121787006	0.25971985	9.948242	0.5943756
252641126822407	0.28727722	10.060303	0.44779968
252641131857807	0.2434082	10.032318	0.23999023
252641136893208	0.09477234	9.9136505	0.100875854
252641141928608	0.008529663	9.729736	0.010726929
252641146964008	-0.054977417	9.486053	-0.045822144
252641151999409	-0.03894043	9.264664	-0.036819458
252641157034809	0.019470215	9.10965	-0.043136597
252641162070210	-0.016860962	8.845413	0.13467407
252641167105610	-0.10714722	8.623367	0.28649902
252641172141010	-0.04373169	8.499023	0.5881195
252641177176411	-0.018951416	8.364838	0.7367554
252641182211811	0.034606934	8.243164	0.6432953
252641187247211	0.021896362	8.17868	0.5270386
252641192282612	-0.02180481	8.13147	0.3625641
252641197318012	0.001373291	8.232819	0.30899048
252641202353413	-0.049575806	8.283997	0.32321167
252641207388813	-0.15829468	8.4101715	0.48521423
252641212424213	-0.20108032	8.455811	0.46141052
252641217459614	-0.16343689	8.573715	0.4208374
252641222495014	-0.15385437	8.692993	0.45587158
252641227530415	-0.14173889	8.735336	0.3368683
252641232565815	0.034332275	8.803055	0.15853882
252641237601215	-0.004058838	8.8042755	-0.16105652
252641242636616	0.12420654	8.928879	-0.49822998
252641247672016	0.057617188	9.036621	-0.52757263
252641252707417	0.047698975	9.122437	-0.7658386
252641257742817	-0.13253784	9.228806	-0.78796387
252641262778217	-0.152771	9.323502	-0.77767944
252641267813618	-0.37631226	9.451157	-0.7122803
252641272849018	-0.5774231	9.545517	-0.66093445
252641277884418	-0.65711975	9.679398	-0.59025574
252641282919819	-0.64471436	9.732681	-0.41532898
252641287955219	-0.5349579	9.827988	-0.265625
252641292990620	-0.5190582	9.846054	-0.177948
252641298026020	-0.4499359	9.961227	0.039489746
252641303061420	-0.38861084	10.100067	0.16499329
252641308096821	-0.5113678	10.156616	0.3448944
252641313132221	-0.66789246	10.345032	0.52334595
252641318167622	-0.76086426	10.636856	0.70910645
252641323203022	-0.8533325	11.00769	0.85346985
252641328238422	-1.0906677	11.396622	0.87332153
252641333273823	-1.2908173	11.746979	0.75790405
252641338309223	-1.3031616	12.082352	0.66397095
252641343344624	-1.258728	12.304871	0.62716675
252641348380024	-1.2594757	12.384964	0.6576233
252641353415424	-1.2570343	12.321426	0.69918823
252641358450825	-1.1707458	12.259079	0.78681946
252641363486225	-1.0315399	12.231308	0.76138306
252641368521626	-0.9562988	12.140091	0.50805664
252641373557026	-0.9428406	12.076279	0.16433716
252641378592426	-0.90618896	12.097916	-0.23773193
252641383627827	-0.8821411	12.151627	-0.56944275
252641388663227	-0.96691895	12.219635	-0.66293335
252641393698627	-1.0751495	12.300812	-0.54730225
252641398734028	-1.154541	12.415039	-0.1490326
252641403769428	-1.1807251	12.597183	0.46255493
252641408804829	-1.0405426	12.822296	0.95259094
252641413840229	-0.8027344	13.03656	1.2050171
252641418875629	-0.48510742	13.2005005	1.1959229
252641423911030	-0.023849487	13.370483	1.0834045
252641428946430	0.36010742	13.491699	1.2112427
252641433981831	0.5723877	13.667007	1.535492
252641439017231	0.56967163	13.75914	1.7831268
252641444052631	0.380661	13.7968445	1.9650421
252641449088032	-0.024993896	13.868195	2.064331
252641454123432	-0.4651184	13.978088	2.0206451
252641459158833	-0.8677063	14.096481	1.6822052
252641464194233	-1.2114716	14.256424	1.1906891
252641469229633	-1.3863983	14.305954	0.6851654
252641474265034	-1.3157043	14.173935	0.17715454
252641479300434	-1.0300293	13.898987	-0.016677856
252641484335835	-0.61990356	13.376999	-0.0115356445
252641489371235	-0.23669434	12.734436	-0.037399292
252641494406635	0.2315979	12.084671	-0.6132202
252641499442036	0.79437256	11.549194	-0.9579773
252641504477436	1.427414	11.147415	-0.9532623
252641509512836	1.9528809	10.966919	-0.6252594
252641514548237	2.3609314	11.062927	-0.2807312
252641519583637	2.8497925	11.266235	0.061294556
252641524619038	3.2674255	11.54187	0.231781
252641529654438	3.5085907	11.746506	0.31747437
252641534689838	3.7924194	11.971344	0.2677307
252641539725239	3.7368927	12.10257	0.35435486
252641544760639	3.6095428	12.271317	0.5922699
252641549796040	3.4088898	12.330704	0.65148926
252641554831440	3.0654907	12.294281	0.64237976
252641559866840	2.8489532	12.342056	0.5656433
252641564902241	2.7737122	12.480759	0.21998596
252641569937641	2.6797028	12.543762	-0.48266602
252641574973042	2.6005402	12.682907	-1.2377167
252641580008442	2.48143	12.843918	-1.7788849
252641585043842	2.2733917	12.980652	-1.8973846
252641590079243	1.7996063	12.966614	-1.5993958
252641595114643	1.1326752	12.952011	-0.89175415
252641600150043	0.6768341	12.897415	-0.2243042
252641605185444	0.3136444	12.708481	0.08126831
252641610220844	-0.0708313	12.442474	0.090423584
252641615256245	-0.43151855	12.06929	-0.03300476
252641620291645	-0.6667023	11.550446	-0.3256836
252641625327045	-0.9174957	10.881058	-0.6556854
252641630362446	-0.9670105	10.305588	-0.68573
252641635397846	-0.92544556	9.76857	-0.4512329
252641640433247	-0.750885	9.33638	-0.0032043457
252641645468647	-0.53001404	8.953125	0.37963867
252641650504047	-0.37400818	8.543793	0.5830536
252641655539448	-0.106658936	8.215576	0.7026367
252641660574848	0.2101593	7.9378967	0.59117126
252641665610249	0.441864	7.605179	0.38305664
252641670645649	0.6310272	7.3040314	0.23246765
252641675681049	0.8250427	7.133423	-0.044815063
252641680716450	1.1216583	6.9725494	-0.34983826
252641685751850	1.2926178	6.7661743	-0.68281555
252641690787251	1.3300781	6.6135406	-1.156189
252641695822651	1.3678741	6.5044403	-1.4051361
252641700858051	1.265564	6.407501	-1.5216522
252641705893452	1.2185974	6.3190155	-1.6643524
252641710928852	1.1469116	6.1461945	-1.6710358
252641715964252	0.98605347	5.914459	-1.6238708
252641720999653	0.718277	5.7611847	-1.7834625
252641726035053	0.5374756	5.8281555	-1.9412231
252641731070454	0.3436432	5.7572937	-1.9716797
252641736105854	0.17703247	5.6430054	-2.0559082
252641741141254	-0.2662506	5.439926	-2.0003052
252641746176655	-0.7371216	5.3214264	-2.1100311
252641751212055	-0.88230896	5.3112183	-2.2343292
252641756247456	-1.0675964	5.2429504	-2.350418
252641761282856	-1.1450958	5.2716675	-2.4752197
252641766318256	-1.0480804	5.2741394	-2.5327606
252641771353657	-0.8534851	5.2914276	-2.5626373
252641776389057	-0.6019287	5.2860413	-2.390152
252641781424458	-0.40615845	5.2421265	-2.447586
252641786459858	-0.13981628	5.067566	-2.0856628
252641791495258	-0.35307312	4.9023285	-2.312729
252641796530659	-0.21392822	4.884384	-2.422699
252641801566059	0.049942017	4.8513947	-2.5798187
252641806601460	0.15177917	4.68927	-2.7444916
252641811636860	0.11790466	4.488098	-2.9599762
252641816672260	-0.038589478	4.2531586	-3.3214874
252641821707661	-0.203125	3.9811401	-3.6405334
252641826743061	-0.45741272	3.7284088	-4.0498047
252641831778461	-0.8403778	3.538559	-4.7276154
252641836813862	-1.027298	3.4544678	-5.3274994
252641841849262	-1.2535095	3.3813324	-5.8222504
252641846884663	-1.3956146	3.3650208	-6.0987396
252641851920063	-1.4612732	3.4356537	-6.348694
252641856955463	-1.5591736	3.4389038	-6.5169983
252641861990864	-1.7112579	3.489975	-6.514572
252641867026264	-1.897232	3.6308746	-6.504471
252641872061665	-2.047882	3.8872223	-6.389328
252641877097065	-2.3429565	4.223709	-6.13501
252641882132465	-2.679657	4.6674194	-5.8168488
252641887167866	-3.1464996	5.157089	-5.6008606
252641892203266	-3.6461792	5.8421783	-5.4292297
252641897238667	-4.067032	6.498169	-5.3652954
252641902274067	-4.55011	7.241287	-5.2215424
252641907309467	-4.984085	8.157715	-5.043579
252641912344868	-5.3577423	9.127914	-4.7552185
252641917380268	-5.624176	10.2285	-4.3813324
252641922415668	-5.7714996	11.563477	-4.3210754
252641927451069	-5.677429	12.952026	-4.337387
252641932486469	-5.4739227	14.349182	-4.6961365
252641937521870	-5.38591	15.557022	-5.309799
252641942557270	-5.3052216	16.474792	-6.044327
252641947592670	-5.0287476	17.108307	-6.897415
252641952628071	-4.50856	17.343277	-7.61763
252641957663471	-3.9283905	17.108932	-8.067886
252641962698872	-3.3885803	16.510483	-8.200668
252641967734272	-2.756607	15.711945	-8.137772
252641972769672	-1.9997406	14.755707	-8.093277
252641977805073	-1.1364899	13.582993	-8.050522
252641982840473	-0.34996033	12.184006	-7.845642
252641987875874	0.20379639	10.721176	-7.2887573
252641992911274	0.5138092	9.270599	-6.6207123
252641997946674	0.41415405	7.9484253	-6.1698
252642002982075	0.32380676	6.836273	-5.887863
252642008017475	0.27418518	5.83255	-5.720276
252642013052876	0.2969513	5.066162	-5.9010315
252642018088276	0.40374756	4.569168	-6.4168243
252642023123676	0.53826904	4.4194336	-6.9370575
252642028159077	0.6333008	4.664856	-6.972183
252642033194477	0.76356506	5.2722473	-6.240402
252642038229877	0.8280487	5.9440765	-5.4270477
252642043265278	0.6148071	6.4489136	-5.2493286
252642048300678	0.91204834	7.073532	-5.5190277
252642053336079	1.4087219	7.7041016	-5.8673096
252642058371479	1.8959656	8.307861	-5.8684235
252642063406879	2.0965881	9.061157	-5.0371094
252642068442280	2.2289734	10.195999	-3.08609
252642073477680	2.2055054	11.384018	-0.654541
252642078513081	3.0329895	13.399933	1.7201538
252642083548481	4.14415	15.855179	4.2920227
252642088583881	5.641571	19.153763	6.284683
252642093619282	6.9552917	19.469208	6.7180786
252642098654682	7.8940277	19.476868	5.0412292
252642103690083	7.707718	19.476868	1.4094543
252642108725483	4.3531647	19.476868	-2.7364502
252642113760883	1.1172333	18.978897	-4.829788
252642118796284	-0.59858704	14.746735	-4.6272583
252642123831684	-1.8397827	11.134247	-2.9739075
252642128867085	-1.937088	7.981262	-0.99617004
252642133902485	-1.1460571	6.0101166	-0.09161377
252642138937885	-0.17434692	4.630615	-0.30592346
252642143973286	0.5963745	3.6596375	-1.7116699
252642149008686	1.1204834	3.069641	-3.2614899
252642154044086	1.287384	2.845337	-4.145279
252642159079487	1.1243439	2.8611603	-3.9896088
252642164114887	1.0030365	2.9249573	-3.3395996
252642169150288	1.0362396	2.999527	-2.59169
252642174185688	1.0311584	3.1295624	-1.6245117
252642179221088	0.92796326	3.3501587	-0.55708313
252642184256489	0.7820282	3.7137756	0.89515686
252642189291889	0.6531372	4.4452667	3.031311
252642194327290	0.48068237	5.5284424	5.26445
252642199362690	0.04373169	6.649048	7.0362396
252642204398090	-0.42242432	7.8612213	8.106766
252642209433491	-0.7071686	9.050781	8.295715
252642214468891	-1.0265961	10.206512	7.6127777
252642219504292	-1.1652069	11.409058	5.9301147
252642224539692	-1.1263428	12.500595	3.9364014
252642229575092	-1.0284424	13.481293	2.0659027
252642234610493	-1.0019989	14.221329	0.3937683
252642239645893	-1.1814728	14.560486	-0.8103943
252642244681293	-1.4400024	14.458359	-1.5931854
252642249716694	-1.5586395	13.963898	-1.9450378
252642254752094	-1.3898468	13.27533	-1.9492188
252642259787495	-1.0597839	12.402679	-2.0038452
252642264822895	-0.69306946	11.566254	-2.0766907
252642269858295	-0.37036133	10.795456	-1.9889526
252642274893696	-0.13989258	9.892349	-1.7979889
252642279929096	0.044891357	8.975357	-1.494461
252642284964497	0.28997803	8.213562	-1.0258789
252642289999897	0.38974	7.5941925	-0.5492859
252642295035297	0.42295837	6.996109	0.13804626
252642300070698	0.38642883	6.553009	0.7280731
252642305106098	0.2409668	6.255539	1.1434174
252642310141499	0.14953613	6.008301	0.97257996
252642315176899	0.101745605	6.042221	0.9143524
252642320212299	0.062088013	6.3137054	0.84877014
252642325247700	-0.06326294	6.783066	0.9495239
252642330283100	-0.06590271	7.428482	1.0428314
252642335318501	-0.23236084	8.142273	0.9969635
252642340353901	-0.50372314	8.81398	0.84225464
252642345389301	-0.62161255	9.402161	0.57299805
252642350424702	-0.74098206	9.919479	0.20967102
252642355460102	-0.7875366	10.34053	-0.052642822
252642360495502	-0.84291077	10.578461	-0.0158844
252642365530903	-0.916687	10.645416	0.02708435
252642370566303	-1.0918274	10.529648	0.10876465
252642375601704	-1.1311646	10.325943	0.28852844
252642380637104	-0.94548035	10.1129	0.36073303
252642385672504	-0.98246765	9.712006	0.5406647
252642390707905	-1.0722504	9.254166	0.6035156
252642395743305	-0.9675598	8.802048	0.87898254
252642400778706	-0.74823	8.539825	0.8506317
252642405814106	-0.6170807	8.391617	0.68133545
252642410849506	-0.43041992	8.340881	0.52690125
252642415884907	-0.24601746	8.372391	0.46551514
252642420920307	-0.12371826	8.424881	0.49684143
252642425955708	-0.06555176	8.443405	0.53678894
252642430991108	0.058303833	8.558517	0.5452881
252642436026508	0.15019226	8.672424	0.5832672
252642441061909	0.18797302	8.832565	0.56166077
252642446097309	0.19642639	8.888809	0.48535156
252642451132710	0.14694214	8.963058	0.3834839
252642456168110	0.06539917	9.0368805	0.2386322
252642461203510	-0.020141602	9.086639	0.032485962
252642466238911	-0.04663086	9.155548	-0.11694336
252642471274311	-0.059951782	9.244217	-0.31246948
252642476309711	-0.050949097	9.299149	-0.51982117
252642481345112	-0.10336304	9.33844	-0.74464417
252642486380512	-0.21383667	9.382507	-0.919281
252642491415913	-0.31384277	9.436295	-1.047409
252642496451313	-0.41223145	9.516006	-1.0366821
252642501486713	-0.52845764	9.603699	-0.9024658
252642506522114	-0.629776	9.613327	-0.73864746
252642511557514	-0.7614441	9.563492	-0.53097534
252642516592915	-0.8112488	9.540436	-0.3634491
252642521628315	-0.7554321	9.628098	-0.15943909
252642526663715	-0.65367126	9.835678	0.12719727
252642531699116	-0.5708008	10.117569	0.3343811
252642536734516	-0.52098083	10.439774	0.42648315
252642541769917	-0.54599	10.787323	0.49136353
252642546805317	-0.6313324	11.153671	0.44670105
252642551840717	-0.685318	11.470642	0.28579712
252642556876118	-0.73638916	11.667267	0.28118896
252642561911518	-0.7920227	11.73851	0.40078735
252642566946918	-0.8109436	11.675735	0.54522705
252642571982319	-0.8220215	11.527374	0.77708435
252642577017719	-0.75875854	11.3403015	0.8986206
252642582053120	-0.7248688	11.156998	0.97006226
252642587088520	-0.707016	10.989929	0.79792786
252642592123920	-0.71591187	10.96846	0.55474854
252642597159321	-0.7496338	11.026184	0.28834534
252642602194721	-0.82354736	11.151108	-0.05871582
252642607230122	-0.90734863	11.303131	-0.34236145
252642612265522	-1.1177521	11.461777	-0.5092468
252642617300922	-1.2933502	11.601654	-0.57821655
252642622336323	-1.4167175	11.679825	-0.52046204
252642627371723	-1.5236511	11.737503	-0.30200195
252642632407124	-1.61586	11.849701	0.03161621
252642637442524	-1.359726	11.962677	0.3662262
252642642477924	-1.2281342	12.085297	0.97572327
252642647513325	-1.0370941	12.272308	1.7353821
252642652548725	-0.7576599	12.556107	2.2201843
252642657584126	-0.2942047	13.011002	2.1952667
252642662619526	0.26974487	13.609848	1.7512207
252642667654926	0.42720032	13.983734	1.1357269
252642672690327	0.4388275	14.254837	0.6935425
252642677725727	0.2324524	14.499313	0.9500885
252642682761127	-0.18353271	14.482391	1.4791412
252642687796528	-0.52238464	14.4331665	1.8235931
252642692831928	-0.64611816	14.214645	1.6806793
252642697867329	-0.5081482	14.008865	1.2880096
252642702902729	-0.23216248	13.79866	0.70783997
252642707944000	0.16412354	13.530197	0.42884827
252642712979401	0.654953	13.146469	0.3812561
252642718014801	1.1157684	12.657181	0.06636047
252642723050202	1.5976257	11.978348	-0.20285034
252642728085602	2.1717987	11.538986	-0.2941742
252642733121002	2.751587	11.287872	-0.2411499
252642738156403	3.0752258	11.155853	-0.105285645
252642743191803	3.3501434	11.301422	0.0046539307
252642748227204	3.7764282	11.654953	0.020950317
252642753262604	4.129074	12.137268	0.09603882
252642758298004	4.1793365	12.51178	0.15480042
252642763333405	4.010895	12.873474	0.2190857
252642768368805	3.7629242	13.263824	0.32341003
252642773404206	3.52417	13.542053	0.24880981
252642778439606	3.2339783	13.638306	0.13581848
252642783475006	2.9346466	13.725113	-0.044662476
252642788510407	2.8504639	13.768036	-0.33744812
252642793545807	2.8051605	13.726288	-0.80322266
252642798581207	2.5909882	13.617538	-1.1791534
252642803616608	2.4445038	13.533676	-1.3165894
252642808652008	2.2721558	13.4526825	-1.2987823
252642813687409	1.9119263	13.276764	-1.0748901
252642818722809	1.3929596	13.091904	-0.60536194
252642823758209	0.7425995	12.879303	0.01473999
252642828793610	-0.03741455	12.504211	0.338562
252642833829010	-0.6856537	12.100311	0.3527069
252642838864411	-1.3014832	11.581329	0.10223389
252642843899811	-1.7641144	10.983673	-0.3879242
252642848935211	-1.9683685	10.5074005	-0.66864014
252642853970612	-2.0209503	10.0972595	-0.7455139
252642859006012	-2.0645905	9.622086	-0.70025635
252642864041413	-2.0506287	9.147308	-0.4998474
252642869076813	-1.8408508	8.7170105	-0.26644897
252642874112213	-1.6564789	8.285339	-0.022735596
252642879147614	-1.3038177	7.9585266	0.39118958
252642884183014	-1.1145782	7.659683	0.69451904
252642889218414	-0.8450012	7.4032745	0.89889526
252642894253815	-0.61317444	7.213928	0.9554291
252642899289215	-0.4001007	6.9947968	0.84288025
252642904324616	-0.15278625	6.813095	0.55152893
252642909360016	0.06123352	6.6210785	-0.0037078857
252642914395416	0.17614746	6.5241394	-0.53660583
252642919430817	0.32633972	6.4293213	-1.2229156
252642924466217	0.33952332	6.344757	-1.5983276
252642929501618	0.3887787	6.2089233	-1.8224792
252642934537018	0.29748535	6.02092	-1.8339081
252642939572418	0.16589355	5.838501	-2.011261
252642944607819	0.023269653	5.782028	-2.2630463
252642949643219	0.12625122	5.944031	-2.4963226
252642954678620	-0.071624756	5.8201294	-2.531189
252642959714020	-0.49472046	5.6544647	-2.673706
252642964749420	-0.8972931	5.458725	-2.863739
252642969784821	-1.1942444	5.4402924	-3.0526276
252642974820221	-1.4822998	5.4072876	-2.9039001
252642979855622	-1.4427643	5.4718323	-2.8078156
252642984891022	-1.3036957	5.5498047	-2.7570038
252642989926422	-1.0906525	5.5910797	-2.4970703
252642994961823	-0.79896545	5.4960327	-2.327057
252642999997223	-0.69828796	5.463028	-2.3870392
252643005032623	-0.46774292	5.404175	-2.3815308
252643010068024	-0.09637451	5.361603	-2.30867
252643015103424	0.17951965	5.2730713	-2.219757
252643020138825	0.42295837	5.222183	-2.2754822
252643025174225	0.5575409	5.144516	-2.3782501
252643030209625	0.67536926	5.106537	-2.6061401
252643035245026	0.7640686	5.0705414	-2.795639
252643040280426	0.7900238	5.003433	-2.9670105
252643045315827	0.72787476	4.8962555	-3.195343
252643050351227	0.5989685	4.7579346	-3.4885712
252643055386627	0.42767334	4.6236725	-3.7563934
252643060422028	0.21231079	4.4939575	-4.079941
252643065457428	0.020248413	4.336624	-4.373993
252643070492829	-0.18685913	4.2456665	-4.619934
252643075528229	-0.4156189	4.235611	-4.824402
252643080563629	-0.57766724	4.2756042	-4.998703
252643085599030	-0.6781769	4.4160004	-5.072983
252643090634430	-0.8243561	4.618744	-5.064926
252643095669831	-1.0418396	4.8393707	-5.039978
252643100705231	-1.2617035	5.0779266	-4.956848
252643105740631	-1.6520844	5.297714	-4.913086
252643110776032	-2.1462402	5.5615997	-5.10849
252643115811432	-2.4893494	5.9375153	-5.1367493
252643120846832	-2.781601	6.3629913	-5.0874634
252643125882233	-3.038025	6.9243317	-5.155182
252643130917633	-3.1314392	7.557617	-5.2651215
252643135953034	-3.1958618	8.299545	-5.640503
252643140988434	-3.2841034	9.108459	-6.089157
252643146023834	-3.290451	9.90123	-6.2158813
252643151059235	-3.2295837	10.734787	-6.3920135
252643156094635	-3.2072754	11.522858	-6.799591
252643161130036	-3.1570587	12.190826	-7.1344604
252643166165436	-3.078827	12.884293	-7.3058014
252643171200836	-2.9785004	13.486984	-7.4485016
252643176236237	-2.910965	14.009445	-7.7311707
252643181271637	-2.845871	14.466293	-7.929596
252643186307038	-2.7972412	14.74971	-7.932266
252643191342438	-2.8715363	14.828262	-7.8388214
252643196377838	-2.7672272	14.758774	-7.6464844
252643201413239	-2.5830383	14.467239	-7.3889313
252643206448639	-2.4641724	13.903946	-7.084305
252643211484039	-2.3913727	13.136658	-6.78244
252643216519440	-2.3060913	12.231018	-6.5557404
252643221554840	-2.132309	11.304794	-6.453018
252643226590241	-1.960434	10.288376	-6.314331
252643231625641	-1.8227844	9.443588	-6.0839844
252643236661041	-1.6987	8.745071	-6.0730896
252643241696442	-1.6464539	8.263535	-6.14447
252643246731842	-1.509079	7.8693237	-6.5194397
252643251767243	-1.2846527	7.920944	-6.981781
252643256802643	-1.3021698	8.133438	-7.4177704
252643261838043	-1.4859772	8.413071	-7.5641937
252643266873444	-1.553833	8.752319	-7.3651886
252643271908844	-1.3408966	9.381393	-7.1532135
252643276944245	-0.95085144	10.306625	-6.8572845
252643281979645	-0.4611969	11.500671	-6.5997467
252643287015045	0.27270508	13.168091	-5.743683
252643292050446	1.2145691	14.986282	-4.1439056
252643297085846	2.2967834	16.91008	-2.1427155
252643302121247	3.1425476	18.455322	-0.012435913
252643307156647	4.2322235	19.452927	1.4873505
252643312192047	5.4230957	19.476868	2.3804474
252643317227448	6.308914	19.335693	2.580658
252643322262848	6.544525	18.295624	2.4371796
252643327298248	5.4820404	15.594101	2.1434631
252643332333649	3.3731384	12.01442	1.8804321
252643337369049	1.9925385	8.849091	1.5843353
252643342404450	1.6884003	6.5200043	1.2914734
252643347439850	1.8088989	4.5880585	1.0641022
252643352475250	1.9957428	3.2109222	0.95166016
252643357510651	2.1061707	2.1601715	0.36428833
252643362546051	2.2293396	1.4557953	-1.2305298
252643367581452	2.3418121	1.2094727	-3.0580597
252643372616852	2.459137	1.3907471	-4.3771667
252643377652252	2.3154907	1.7891235	-4.8753967
252643382687653	1.9658966	2.3585815	-4.659363
252643387723053	1.6272888	3.155777	-3.8309326
252643392758454	1.1221924	4.134735	-2.5181122
252643397793854	0.44754028	5.210373	-0.86047363
252643402829254	-0.22166443	6.4345245	1.215622
252643407864655	-0.8166809	7.7160797	3.38089
252643412900055	-1.2588959	8.826706	5.358551
252643417935456	-1.5750427	9.7382965	7.064865
252643422970856	-1.7031555	10.499771	7.953598
252643428006256	-1.5686188	11.25853	8.000748
252643433041657	-1.2620392	12.0894165	7.055969
252643438077057	-0.7352905	12.843063	4.792145
252643443112457	-0.34936523	13.342957	2.1174316
252643448147858	-0.114151	13.602692	-0.07897949
252643453183258	-0.14840698	13.587509	-1.4854279
252643458218659	-0.33021545	13.3216095	-2.085205
252643463254059	-0.5134735	12.954041	-2.085907
252643468289459	-0.8729706	12.362808	-1.6418762
252643473324860	-1.1977692	11.710632	-1.1129761
252643478360260	-1.4241486	10.9783325	-0.6894989
252643483395661	-1.6086731	10.198776	-0.49972534
252643488431061	-1.5367279	9.583405	-0.50894165
252643493466461	-1.3756714	9.028259	-0.54182434
252643498501862	-1.3029022	8.344986	-0.605072
252643503537262	-1.1043091	7.8255005	-0.7355957
252643508572663	-0.8356323	7.385788	-0.3580475
252643513608063	-0.7167969	7.0192566	0.1789856
252643518643463	-0.72158813	6.75766	0.88775635
252643523678864	-0.7228699	6.679535	1.6539459
252643528714264	-0.71577454	6.7964783	2.3445282
252643533749664	-0.6267853	7.060257	2.3593445
252643538785065	-0.35487366	7.3647766	2.0628204
252643543820465	-7.019043E-4	7.945236	1.8865967
252643548855866	0.2147522	8.450211	1.4870911
252643553891266	0.4224701	8.853622	0.8721161
252643558926666	0.41603088	9.068237	0.5241699
252643563962067	0.32292175	9.346191	0.13017273
252643568997467	0.34620667	9.648285	-0.17918396
252643574032868	0.23402405	9.791046	-0.45877075
252643579068268	0.28401184	9.952881	-0.602478
252643584103668	0.31170654	10.011429	-0.67507935
252643589139069	0.07749939	9.885361	-0.6013794
252643594174469	-0.24786377	9.690689	-0.44110107
252643599209870	-0.3774109	9.441772	-0.28271484
252643604245270	-0.34020996	9.259567	-0.012817383
252643609280670	-0.2729187	9.098694	0.0789032
252643614316071	-0.14555359	8.947784	0.09927368
252643619351471	-0.072006226	8.83699	0.33952332
252643624386872	-0.1565094	8.659195	0.5723572
252643629422272	-0.21714783	8.590836	0.76075745
252643634457672	-0.21522522	8.553741	0.86932373
252643639493073	-0.27648926	8.49791	0.9442444
252643644528473	-0.38020325	8.453491	0.9624176
252643649563873	-0.43803406	8.465271	0.95654297
252643654599274	-0.4768982	8.517868	0.8381958
252643659634674	-0.53915405	8.603851	0.6646271
252643664670075	-0.63082886	8.648544	0.49023438
252643669705475	-0.7107239	8.734711	0.31826782
252643674740875	-0.6964874	8.883011	0.22142029
252643679776276	-0.6676178	8.9561	0.07684326
252643684811676	-0.54629517	9.047775	-0.11401367
252643689847077	-0.40361023	9.071579	-0.32421875
252643694882477	-0.4233551	8.953506	-0.5787811
252643699917877	-0.47427368	8.889938	-0.74235535
252643704953278	-0.42585754	8.923279	-0.7492218
252643709988678	-0.46032715	9.018097	-0.682312
252643715024079	-0.47305298	9.205246	-0.5738983
252643720059479	-0.50109863	9.4254	-0.41049194
252643725094879	-0.53334045	9.6358185	-0.2604828
252643730130280	-0.5379944	9.8675995	-0.12820435
252643735165680	-0.6548157	10.084869	0.0236969
252643740201081	-0.8028717	10.248306	0.045578003
252643745236481	-0.9089966	10.399078	0.04270935
252643750271881	-0.8370209	10.5816345	-0.034332275
252643755307282	-0.8016052	10.741501	0.07272339
252643760342682	-0.8159027	10.868607	0.18434143
252643765378082	-0.8673706	10.934448	0.43415833
252643770413483	-0.98750305	11.035751	0.67871094
252643775448883	-1.0800018	11.184036	0.66674805
252643780484284	-1.1460876	11.374664	0.5125885
252643785519684	-1.1793671	11.493149	0.36184692
252643790555084	-1.171814	11.666977	0.1828003
252643795590485	-1.2321014	11.754654	0.12623596
252643800625885	-1.1583557	11.796265	0.11405945
252643805661286	-0.96806335	11.821304	0.08831787
252643810696686	-0.7599945	11.901611	0.024276733
252643815732086	-0.59754944	11.914139	-0.23913574
252643820767487	-0.40335083	11.828888	-0.6167755
252643825802887	-0.1651001	11.789581	-0.9662628
252643830838288	-0.06274414	11.662003	-1.1600037
252643835873688	-0.003692627	11.646347	-1.1066132
252643840909088	-0.039901733	11.618515	-0.9503021
252643845944489	-0.10185242	11.658447	-0.54927063
252643850979889	-0.29940796	11.692886	0.10333252
252643856015289	-0.3850708	11.8333435	0.7915497
252643861050690	-0.23417664	11.976685	1.2862854
252643866086090	-0.18373108	12.083618	1.7115479
252643871121491	0.11607361	12.347168	1.7721558
252643876156891	0.49577332	12.645081	1.4692078
252643881192291	0.8627167	13.015808	1.0617218
252643886227692	0.8957367	13.284164	0.96014404
252643891263092	0.5173645	13.630356	1.0871582
252643896298493	-0.012756348	13.962692	1.3916931
252643901333893	-0.48457336	14.194885	1.7985992
252643906369293	-0.8255768	14.284088	1.936264
252643911404694	-0.8952179	14.246933	1.6484528
252643916440094	-0.806015	14.101028	1.09552
252643921475495	-0.5748749	13.891113	0.4512329
252643926510895	-0.33457947	13.559708	0.072402954
252643931546295	-0.07577515	13.085693	-0.18307495
252643936581696	0.38319397	12.599457	-0.44648743
252643941617096	1.0501404	12.110214	-0.6161804
252643946652497	1.7810364	11.802185	-0.72813416
252643951687897	2.507019	11.710297	-0.6832123
252643956723297	3.0368652	11.816452	-0.4540558
252643961758698	3.3920898	12.082016	-0.38105774
252643966794098	3.7574615	12.512299	-0.44433594
252643971829498	3.987259	12.956558	-0.3305359
252643976864899	3.9646149	13.286148	-0.028747559
252643981900299	3.876999	13.509979	0.2507019
252643986935700	3.7960358	13.542603	0.5024872
252643991971100	3.6985168	13.439697	0.7798462
252643997006500	3.5790253	13.215866	0.85905457
252644002041901	3.5590515	13.019287	0.64953613
252644007077301	3.5596771	12.960999	0.31248474
252644012112702	3.4930115	12.907196	-0.14659119
252644017148102	3.2864685	12.936493	-0.6319885
252644022183502	3.0240936	13.064804	-1.0129242
252644027218903	2.5701447	13.132645	-1.2545471
252644032254303	2.0585938	13.171875	-1.2180176
252644037289704	1.4980621	13.29039	-0.833725
252644042325104	0.83599854	13.32605	-0.42575073
252644047360504	0.03425598	13.137024	-0.4302063
252644052395905	-0.74838257	12.759979	-0.67204285
252644057431305	-1.4794769	12.25798	-1.0337982
252644062466706	-1.8427887	11.770767	-1.203125
252644067502106	-1.7613983	11.286987	-0.97088623
252644072537506	-1.7227631	10.812607	-0.6435852
252644077572907	-1.5582123	10.26564	-0.35162354
252644082608307	-1.4624023	9.716293	-0.030517578
252644087643707	-1.3694763	9.058548	0.073638916
252644092679108	-1.2364807	8.6875	0.30863953
252644097714508	-1.0291901	8.336075	0.3782959
252644102749909	-0.81951904	8.00531	0.4759369
252644107785309	-0.6395569	7.6398773	0.59198
252644112820709	-0.40481567	7.414139	0.5536194
252644117856110	-0.058563232	7.093689	0.4855957
252644122891510	0.27041626	6.8052063	0.3621521
252644127926911	0.52319336	6.5802307	-0.0115356445
252644132962311	0.67355347	6.40152	-0.41937256
252644137997711	0.71902466	6.2824707	-0.7561188
252644143033112	0.75671387	6.1535645	-0.88449097
252644148068512	0.736969	5.870514	-1.1188049
252644153103913	0.7113037	5.7179413	-1.3241425
252644158139313	0.54371643	5.631607	-1.5387421
252644163174713	0.49609375	5.6566772	-1.6203461
252644168210114	0.34614563	5.5005646	-1.6236267
252644173245514	0.12901306	5.247986	-1.8429413
252644178280914	-0.20942688	5.0730743	-1.9610443
252644183316315	-0.51101685	4.9548187	-2.1125488
252644188351715	-0.72592163	4.854309	-2.206009
252644193387116	-0.8057556	4.821518	-2.3467102
252644198422516	-0.81791687	4.770035	-2.3430939
252644203457916	-0.7219391	4.72818	-2.403839
252644208493317	-0.56889343	4.661377	-2.4098663
252644213528717	-0.35551453	4.6362305	-2.3943176
252644218564118	-0.14859009	4.565048	-2.4015198
252644223599518	0.048675537	4.55542	-2.3634644
252644228634918	0.22885132	4.568405	-2.3909912
252644233670319	0.3081665	4.552307	-2.4357758
252644238705719	0.41358948	4.524536	-2.450058
252644243741120	0.48716736	4.5239105	-2.518509
252644248776520	0.51322937	4.4792175	-2.6209106
252644253811920	0.539978	4.3952484	-2.8073578
252644258847321	0.4915161	4.3453064	-2.9351807
252644263882721	0.3840027	4.288315	-3.1809082
252644268918122	0.19515991	4.254715	-3.557785
252644273953522	-0.012954712	4.254013	-3.8724365
252644278988922	-0.22232056	4.273346	-4.219681
252644284024323	-0.41818237	4.2956543	-4.467331
252644289059723	-0.6253662	4.359085	-4.717087
252644294095123	-0.8254547	4.488327	-4.9055634
252644299130524	-1.1716919	4.553253	-5.1813507
252644304165924	-1.6670837	4.672043	-5.4205627
252644309201325	-1.9723969	4.968872	-5.5333405
252644314236725	-2.2220306	5.3583984	-5.4727173
252644319272125	-2.4956207	5.7433167	-5.3632355
252644324307526	-2.8070374	6.2431335	-5.1256256
252644329342926	-3.1229858	6.7645874	-5.0296936
252644334378327	-3.2933044	7.3507233	-4.9303284
252644339413727	-3.3771667	8.022873	-4.9329376
252644344449127	-3.4184723	8.694412	-5.50325
252644349484528	-3.3913574	9.340271	-5.7540436
252644354519928	-3.369751	9.983673	-5.9797363
252644359555329	-3.3156738	10.618103	-6.2976837
252644364590729	-3.1649628	11.2916565	-6.4279785
252644369626129	-3.2126007	11.908371	-6.712082
252644374661530	-3.3753357	12.411819	-7.1491547
252644379696930	-3.4200897	12.876877	-7.5319366
252644384732331	-3.558487	13.349319	-7.579941
252644389767731	-3.6880798	13.671234	-7.579834
252644394803131	-3.7006073	13.892822	-7.577469
252644399838532	-3.7273102	13.96875	-7.2934113
252644404873932	-3.7929077	13.879349	-7.162201
252644409909332	-3.765976	13.704285	-6.922058
252644414944733	-3.6059723	13.323669	-6.580078
252644419980133	-3.372879	12.838165	-6.2085724
252644425015534	-3.082489	12.282074	-6.0937653
252644430050934	-2.8250122	11.669052	-6.0905
252644435086334	-2.5355835	11.152252	-6.3220367
252644440121735	-2.1913757	10.734177	-6.4490204
252644445157135	-1.8650665	10.363022	-6.6344147
252644450192536	-1.5420227	10.141403	-6.883316
252644455227936	-1.2918243	10.052658	-7.2378693
252644460263336	-1.1049194	10.075287	-7.6464386
252644465298737	-1.0077362	10.230347	-7.851486
252644470334137	-0.9165039	10.351837	-7.830246
252644475369538	-0.7001953	10.552124	-7.7099304
252644480404938	-0.4850464	10.810425	-7.423691
252644485440338	-0.19358826	11.259399	-6.9732056
252644490475739	0.39483643	12.009903	-6.239502
252644495511139	1.096344	12.961426	-5.0438385
252644500546539	1.9238586	13.996338	-3.6470947
252644505581940	2.9608612	15.088806	-1.9765015
252644510617340	4.007538	15.898666	-0.5254822
252644515652741	5.0142517	16.47174	0.6823425
252644520688141	6.056198	16.819992	1.4580383
252644525723541	7.059784	16.911331	1.6434631
252644530758942	7.580475	16.517227	1.2361603
252644535794342	7.450531	15.406052	0.3968048
252644540829743	6.0909424	13.405136	-0.2494812
252644545865143	3.7741852	10.735092	-0.5939789
252644550900543	2.2428436	8.368988	-0.81895447
252644555935944	1.5980988	6.5101624	-1.0263062
252644560971344	1.1325531	4.8062897	-1.0793457
252644566006745	0.6873779	3.37294	-0.7545471
252644571042145	0.4585724	2.394455	-0.3426056
252644576077545	0.43040466	1.8350525	-0.19165039
252644581112946	0.72283936	1.7213745	-0.33903503
252644586148346	1.0917511	1.9733276	-0.59594727
252644591183747	1.2481995	2.428482	-0.85839844
252644596219147	1.2040253	3.0039825	-1.0733643
252644601254547	1.136795	3.7066345	-1.1009827
252644606289948	0.8886261	4.6689453	-0.9455261
252644611325348	0.59072876	5.829376	-0.5171814
252644616360748	0.26153564	7.030655	0.21269226
252644621396149	-0.09779358	8.391388	1.3800812
252644626431549	-0.31993103	9.566345	2.3697205
252644631466950	-0.41342163	10.497253	3.3560638
252644636502350	-0.58677673	11.157944	4.2059784
252644641537750	-0.82987976	11.540222	4.5689087
252644646573151	-0.9906616	11.872818	4.271057
252644651608551	-0.96221924	12.198975	3.0848694
252644656643952	-0.8357849	12.416565	1.1913757
252644661679352	-0.75061035	12.499802	-0.5705261
252644666714752	-0.7554016	12.445419	-1.6066895
252644671750153	-0.63401794	12.327942	-1.7758331
252644676785553	-0.8403015	12.10083	-1.3452454
252644681820954	-1.142807	11.696411	-0.4384308
252644686856354	-1.6110687	11.193665	0.26846313
252644691891754	-1.6603394	10.782242	0.6860504
252644696927155	-1.6376495	10.304916	0.73172
252644701962555	-1.452713	9.89212	0.64582825
252644706997956	-1.1299133	9.594162	0.5419922
252644712033356	-0.87609863	9.125229	0.58898926
252644717068756	-0.6254425	8.610306	0.48805237
252644722104157	-0.39611816	8.162506	0.49621582
252644727139557	-0.24855042	7.7000275	0.6680145
252644732174957	-0.2015686	7.3637695	0.8479767
252644737210358	-0.20535278	7.1349945	1.0758057
252644742245758	-0.1977539	7.0818634	1.2541351
252644747281159	-0.0683136	7.2472687	1.3143616
252644752316559	-0.11856079	7.258713	0.8261261
252644757351959	-0.0036468506	7.4288635	0.5474701
252644762387360	0.031967163	7.742996	0.37008667
252644767422760	-0.06021118	8.073883	0.30647278
252644772458161	-0.16184998	8.382477	0.10055542
252644777493561	-0.29716492	8.627243	-0.017425537
252644782528961	-0.39518738	8.860992	-0.058639526
252644787564362	-0.23239136	9.119003	-0.0546875
252644792599762	8.8500977E-4	9.2673645	-0.018753052
252644797635163	0.17648315	9.349106	0.035232544
252644802670563	0.30419922	9.343689	0.1699524
252644807705963	0.32487488	9.228989	0.22038269
252644812741364	0.23239136	9.012497	0.122680664
252644817776764	0.11087036	8.720917	0.12640381
252644822812164	0.10206604	8.514038	0.35061646
252644827847565	0.115615845	8.352386	0.59358215
252644832882965	0.118392944	8.227142	0.72605896
252644837918366	0.13183594	8.15184	0.7746887
252644842953766	0.08287048	8.119675	0.77500916
252644847989166	0.011779785	8.135544	0.8101959
252644853024567	0.01574707	8.243347	0.9156952
252644858059967	-0.0076446533	8.384033	1.0472107
252644863095368	-0.14793396	8.505005	1.0947876
252644868130768	-0.32852173	8.681061	1.1235962
252644873166168	-0.45217896	8.943787	1.0654144
252644878201569	-0.64352417	9.174408	0.87605286
252644883236969	-0.8814087	9.345169	0.5568695
252644888272370	-1.1443176	9.434952	0.20587158
252644893307770	-1.258194	9.496674	0.0034484863
252644898343170	-1.3403015	9.480637	-0.24101257
252644903378571	-1.3673706	9.469788	-0.3113556
252644908413971	-1.3826447	9.448334	-0.3432312
252644913449372	-1.3852539	9.333862	-0.34605408
252644918484772	-1.4201965	9.25116	-0.3622284
252644923520172	-1.3888092	9.206253	-0.35557556
252644928555573	-1.4398041	9.264954	-0.3809967
252644933590973	-1.4129333	9.432907	-0.21284485
252644938626373	-1.370636	9.669144	0.11412048
252644943661774	-1.3852997	9.892181	0.37727356
252644948697174	-1.331543	10.088562	0.6500702
252644953732575	-1.1774445	10.27124	0.84280396
252644958767975	-0.9790344	10.437332	0.8517151
252644963803375	-0.81448364	10.521973	0.73683167
252644968838776	-0.60998535	10.592636	0.7160797
252644973874176	-0.34843445	10.838501	0.8347626
252644978909577	-0.080566406	11.091522	0.90119934
252644983944977	0.08555603	11.294952	0.8803406
252644988980377	0.2814026	11.41423	0.80422974
252644994015778	0.27929688	11.54126	0.57115173
252644999051178	0.31791687	11.645554	0.40345764
252645004086579	0.37516785	11.721252	0.26168823
252645009121979	0.23638916	11.692078	0.28477478
252645014157379	0.30911255	11.739929	0.29026794
252645019192780	0.31808472	11.783203	0.21864319
252645024228180	0.3204651	11.827301	0.21859741
252645029263581	0.2927704	11.880035	0.22688293
252645034298981	0.18504333	11.910492	0.28511047
252645039334381	0.05126953	11.956009	0.09580994
252645044369782	-0.117996216	12.01416	-0.08694458
252645049405182	-0.27738953	12.056244	-0.4276886
252645054440582	-0.45481873	12.097916	-0.7779083
252645059475983	-0.64881897	12.019638	-1.0478668
252645064511383	-0.7505188	11.927643	-1.134201
252645069546784	-0.79927063	11.8089905	-1.0582733
252645074582184	-0.7719574	11.742401	-0.8701782
252645079617584	-0.7813263	11.640564	-0.45983887
252645084652985	-0.7830658	11.567886	0.042556763
252645089688385	-0.755188	11.551437	0.51213074
252645094723786	-0.68685913	11.627869	1.0162354
252645099759186	-0.49020386	11.830475	1.3735504
252645104794586	-0.32720947	12.073975	1.445221
252645109829987	-0.10151672	12.431686	1.4544678
252645114865387	0.05117798	12.71817	1.4488373
252645119900788	0.061416626	12.875	1.3617859
252645124936188	-0.106552124	13.006409	1.2341919
252645129971588	-0.39117432	13.180176	1.1516876
252645135006989	-0.6440735	13.328995	1.2140198
252645140042389	-0.8341675	13.394516	1.4265594
252645145077789	-0.9508362	13.36087	1.5305939
252645150113190	-0.8810272	13.227356	1.4800568
252645155148590	-0.5891571	12.974152	1.4367065
252645160183991	-0.154953	12.632004	1.2719269
252645165219391	0.34431458	12.242126	0.80696106
252645170254791	0.9849243	11.832397	0.3475952
252645175290192	1.6987457	11.48027	-0.009735107
252645180325592	2.3565063	11.228516	-0.20957947
252645185360993	2.939087	11.050232	-0.17520142
252645190396393	3.2932434	11.14386	-0.057678223
252645195431793	3.5033875	11.420914	-0.13952637
252645200467194	3.8844604	11.910248	-0.23928833
252645205502594	4.102051	12.4652405	-0.33361816
252645210537995	3.9571228	12.892761	0.022232056
252645215573395	3.6907196	13.293854	0.5491028
252645220608795	3.5018158	13.70047	0.66815186
252645225644196	3.2395325	13.937042	0.6070862
252645230679596	2.9691315	13.983429	0.64508057
252645235714997	2.6880798	13.96051	0.5201111
252645240750397	2.537918	13.945236	0.20457458
252645245785797	2.7175293	13.95192	-0.44836426
252645250821198	2.7899933	13.875671	-1.1950531
252645255856598	2.903656	13.85553	-1.8104095
252645260891998	2.7716675	13.826981	-2.1466217
252645265927399	2.6667786	13.678879	-2.140686
252645270962799	2.1769562	13.444122	-1.8562622
252645275998200	1.5133514	13.301102	-1.3473969
252645281033600	0.5759735	12.857697	-1.0805054
252645286069000	-0.09269714	12.332504	-1.0255737
252645291104401	-0.7387085	11.769531	-1.0484772
252645296139801	-1.2845001	11.162109	-1.1091156
252645301175202	-1.5268402	10.664185	-1.1608887
252645306210602	-1.5323639	10.071655	-1.0136261
252645311246002	-1.358017	9.592041	-0.7636719
252645316281403	-1.2424774	9.08429	-0.5241699
252645321316803	-1.0880585	8.754425	-0.009536743
252645326352204	-0.94584656	8.451843	0.28349304
252645331387604	-0.93510437	8.127335	0.51631165
252645336423004	-0.9960785	7.9752502	0.7688446
252645341458405	-0.9704437	7.788681	1.0659485
252645346493805	-0.8858032	7.6487274	1.1776886
252645351529206	-0.7655487	7.4752655	1.3268127
252645356564606	-0.62812805	7.342636	1.3628693
252645361600006	-0.38627625	7.2521973	1.1000061
252645366635407	-0.1499176	7.06044	0.54611206
252645371670807	0.10664368	6.8644257	-0.0135650635
252645376706207	0.18840027	6.7132263	-0.4892578
252645381741608	0.19926453	6.569458	-0.82081604
252645386777008	0.21669006	6.4257813	-1.1358795
252645391812409	0.2935791	6.2918854	-1.4842987
252645396847809	0.40715027	6.1143036	-1.7085419
252645401883209	0.32081604	5.9444733	-2.0008698
252645406918610	0.18862915	5.933853	-2.3410645
252645411954010	0.18643188	5.9736176	-2.48703
252645416989411	0.043121338	5.8246	-2.5518188
252645422024811	-0.19392395	5.594269	-2.7167664
252645427060211	-0.500824	5.373871	-2.837494
252645432095612	-0.7899933	5.263733	-2.86026
252645437131012	-0.93670654	5.220093	-2.8571777
252645442166413	-0.93881226	5.183655	-2.8226166
252645447201813	-0.779953	5.1796722	-2.7711945
252645452237213	-0.5510864	5.2059174	-2.6937408
252645457272614	-0.31791687	5.21904	-2.588684
252645462308014	-0.08673096	5.161377	-2.3843079
252645467343414	0.1320343	5.103897	-2.2485657
252645472378815	0.37698364	5.065216	-2.1835327
252645477414215	0.55015564	4.9600983	-2.0994568
252645482449616	0.70791626	4.8612213	-2.1731415
252645487485016	0.8102112	4.788147	-2.299408
252645492520416	0.9064026	4.6979218	-2.3465881
252645497555817	0.9121704	4.5822754	-2.53685
252645502591217	0.88072205	4.480301	-2.7494202
252645507626618	0.79415894	4.3891754	-3.0688324
252645512662018	0.6535187	4.297989	-3.5010376
252645517697418	0.38204956	4.2161407	-3.949463
252645522732819	0.08868408	4.1716156	-4.3079376
252645527768219	-0.22384644	4.1498566	-4.611725
252645532803620	-0.45422363	4.160919	-4.9295044
252645537839020	-0.5805664	4.263687	-5.3973236
252645542874420	-1.0037384	4.2789307	-5.383774
252645547909821	-1.2798004	4.4575806	-5.552185
252645552945221	-1.5136871	4.707428	-5.5121613
252645557980622	-1.7511902	5.007187	-5.4351196
252645563016022	-1.9515228	5.3756866	-5.3151245
252645568051422	-2.234314	5.743759	-5.1310883
252645573086823	-2.54924	6.2162323	-4.878723
252645578122223	-2.7146454	6.7051086	-4.839798
252645583157623	-2.9551544	7.217148	-4.7698364
252645588193024	-3.1951904	7.7421417	-4.7907715
252645593228424	-3.4593506	8.2586975	-5.1231384
252645598263825	-3.560913	8.800064	-5.2967377
252645603299225	-3.5193176	9.51181	-5.2104645
252645608334625	-3.4353027	10.151947	-5.533493
252645613370026	-3.481369	10.746597	-5.796219
252645618405426	-3.4256134	11.382294	-6.1773376
252645623440827	-3.3404388	12.028671	-6.5502625
252645628476227	-3.3807373	12.629761	-6.841278
252645633511627	-3.5134277	13.18959	-7.195282
