linearaccelerometer_timestamp	linearaccelerometer_x_data	linearaccelerometer_y_data	linearaccelerometer_z_data
252633115195210	-0.32876074	-5.6206865	-0.34901482
252633120139057	-0.20814359	-5.5406656	-0.69978637
252633125479633	-0.023507714	-5.3726997	-0.71930695
252633130057270	0.066185474	-5.345454	-0.78284824
252633135001118	0.15690398	-5.4416647	-0.9425107
252633139944965	-0.011358917	-5.5955486	-1.1028374
252633144888813	-0.21905631	-5.8342247	-1.280561
252633149832661	-0.3959443	-6.055769	-1.4360825
252633155142719	-0.49924576	-6.1648684	-1.5696847
252633159781391	-0.59207267	-6.2729635	-1.6570212
252633164664204	-0.58518463	-6.3619013	-1.783694
252633169608051	-0.6582796	-6.4343176	-1.6177342
252633174551899	-0.6470393	-6.439001	-1.5946372
252633179495747	-0.6631905	-6.4168644	-1.5804284
252633184836323	-0.64354205	-6.319109	-1.4654932
252633189413960	-0.63650286	-6.217149	-1.4110498
252633194357807	-0.7001576	-6.1274023	-1.5160763
252633199301655	-0.70115715	-6.007448	-1.6055257
252633204245502	-0.74103737	-5.9046144	-1.8206428
252633209189350	-0.8260169	-5.7224693	-1.995914
252633214529926	-0.76093936	-5.6216564	-2.221701
252633219107563	-0.7699764	-5.378147	-2.7250094
252633224051411	-0.90813744	-5.299021	-3.1372576
252633228995258	-1.0898192	-5.1050606	-3.5799012
252633233939106	-1.4549127	-4.9575195	-4.1284227
252633238882954	-1.7565305	-4.8182516	-4.4791512
252633244223530	-2.0610347	-4.6685934	-4.66116
252633248801167	-2.4723647	-4.5102854	-4.830869
252633253745014	-2.7842035	-4.3276825	-4.674435
252633258688862	-2.936851	-4.0971365	-4.634209
252633263632710	-3.2025018	-3.8542767	-4.59257
252633268576557	-3.5279431	-3.7447958	-4.4780936
252633273917133	-3.7697053	-3.377058	-4.3989944
252633278464252	-4.0186906	-3.0791903	-4.3109665
252633283438618	-4.0608006	-2.5577717	-4.2703867
252633288382465	-4.616743	-2.379033	-4.7873335
252633293326313	-4.7303543	-1.8189688	-5.177087
252633298270161	-4.6634245	-1.0675793	-5.6072087
252633303610737	-4.536653	-0.25895786	-6.344252
252633308157856	-4.503821	0.55598927	-7.021186
252633313101704	-4.38092	1.5149813	-7.645892
252633318076069	-4.2613225	2.4075203	-7.8599515
252633323019917	-4.2401853	3.3499794	-8.041645
252633327963764	-4.278521	4.243165	-7.767473
252633333273823	-4.123789	5.042964	-7.3615026
252633337851460	-4.2926364	5.4544096	-6.8552303
252633342795307	-4.2802505	5.6248817	-6.298586
252633347769672	-4.0157595	5.55474	-5.9664207
252633352713520	-3.7469137	5.2393637	-5.387807
252633357657368	-3.3775392	4.827223	-5.055746
252633362967426	-2.9972372	4.2297525	-4.6895604
252633367545063	-2.6512032	3.5635242	-4.3820157
252633372488911	-2.2672565	2.7257824	-4.074369
252633377432758	-1.9052258	1.7860155	-3.99704
252633382407124	-1.1686443	0.8839321	-3.9035757
252633387350971	-0.60763234	0.2780466	-4.021886
252633392661030	-0.37831026	-0.12891865	-4.2252464
252633397238667	0.16315645	-0.35650158	-4.4728107
252633402182514	0.7682638	-0.474576	-5.0814114
252633407126362	1.202469	-0.19461918	-5.5074787
252633412070210	1.2738254	0.13273716	-5.4895964
252633417014057	1.0702548	0.5612707	-5.041401
252633422354633	0.8471777	0.71006393	-4.3940477
252633426932270	0.55893236	0.788846	-3.923927
252633431876118	0.57612294	0.9102907	-3.678926
252633436819965	0.67670584	1.2565899	-3.3495612
252633441763813	0.95978236	1.7741461	-2.7612307
252633446707661	1.3820947	2.4169436	-2.0004005
252633452048237	2.189115	2.9804764	-1.5311985
252633456625874	2.9962163	3.4750757	-0.9799824
252633461630756	3.86634	3.6087828	-0.58581257
252633466513569	4.629395	3.515542	0.09622407
252633471457417	5.0139713	3.3810062	0.98912454
252633476401264	5.2615347	3.2953377	2.4083242
252633481741840	5.462872	3.2363443	3.5655143
252633486319477	5.1863103	3.1184778	4.128767
252633491263325	4.130603	2.437624	4.0032063
252633496207172	2.1378384	1.2177153	3.165474
252633501151020	0.83930475	-0.19946003	2.0348353
252633506094868	0.230322	-1.3946323	1.0638615
252633511435444	-0.15860277	-2.455247	0.31184447
252633515982563	-0.5510461	-3.356063	0.086601734
252633520956928	-0.8843091	-4.0145264	0.079586625
252633525900776	-0.9496975	-4.3781166	0.24190176
252633530844624	-0.9299759	-4.520096	0.43856192
252633535788471	-0.93503696	-4.5035543	0.84840906
252633541129047	-1.0294788	-4.4315653	1.0655419
252633545676167	-1.1757693	-4.121044	1.2860098
252633550650532	-1.3389089	-3.667122	1.5878595
252633555594379	-1.3962681	-2.935481	2.128123
252633560538227	-1.4949329	-2.1147547	2.7981634
252633565482075	-1.5567138	-1.3023376	3.568363
252633570822651	-1.5841852	-0.48184967	4.497109
252633575369770	-1.6639261	0.296381	5.2607746
252633580313618	-1.6297154	0.752718	5.724272
252633585287983	-1.652935	0.9634409	5.5750237
252633590231831	-1.6944271	1.0013514	5.056526
252633595175678	-1.7509618	1.0117626	4.195903
252633600516254	-1.951958	0.94026375	3.1003773
252633605063374	-2.1263132	0.893651	2.171256
252633610037739	-2.2586465	0.8761854	1.3300807
252633614981586	-2.4050422	0.85205555	0.87268114
252633619925434	-2.5064442	0.69822216	0.58677685
252633624869282	-2.544363	0.55262566	0.4961632
252633630209858	-2.4249048	0.38930702	0.45859456
252633634787495	-2.2661777	0.22709179	0.3711944
252633639731342	-2.053805	-0.03779316	0.12292656
252633644675190	-1.7557257	-0.29123116	-0.17491338
252633649619038	-1.5690361	-0.47653294	-0.53133076
252633654562885	-1.2400174	-0.70295906	-0.76419824
252633659903461	-1.0250583	-0.9345579	-0.835606
252633664481098	-0.7958405	-1.1293955	-0.87667596
252633669424946	-0.52614474	-1.2302666	-0.71998584
252633674368793	-0.37228477	-1.3609886	-0.29725325
252633679312641	-0.40408623	-1.5876617	0.14893095
252633684256489	-0.5160059	-1.7630568	0.6565611
252633689597065	-0.6508299	-1.8682022	0.9051951
252633694174702	-0.89332926	-1.9756298	0.93037
252633699118549	-1.1579401	-1.9328356	0.86393356
252633704062397	-1.2910599	-1.7954674	0.7804127
252633709036762	-1.6747515	-1.6397524	0.6817117
252633713950092	-2.0040064	-1.3854399	0.49704614
252633719290668	-2.2184	-1.1508121	0.09273493
252633723868305	-2.4293737	-0.8614664	-0.19004363
252633728812153	-2.6327033	-0.62040424	-0.4550044
252633733786518	-2.8357897	-0.39933395	-0.6241746
252633738730366	-2.8607457	-0.07275677	-0.80193275
252633743674213	-2.805707	0.2475338	-0.7234097
252633749014790	-2.7847981	0.41543484	-0.4948911
252633753561909	-2.9002857	0.39909363	-0.5129396
252633758505756	-2.9512281	0.29843712	-0.6764185
252633763541157	-2.815306	0.30287647	-0.9042671
252633768423969	-2.7313464	0.21028423	-0.84646904
252633773367817	-2.8145814	-0.12514019	-0.6104731
252633778708393	-2.83743	-0.30125237	-0.2755261
252633783286030	-2.8443532	-0.5957632	-0.20846891
252633788229877	-2.8179748	-0.79508114	-0.35776496
252633793173725	-2.6871839	-0.83416367	-0.6241586
252633798117573	-2.5898705	-0.87722015	-0.75370765
252633803061420	-2.3883858	-0.883975	-0.8585292
252633808401997	-2.3897276	-0.80390835	-0.7759414
252633812979633	-2.413621	-0.81580734	-0.8929856
252633817923481	-2.404189	-0.6983843	-0.8669832
252633822867329	-2.393556	-0.57878685	-0.925483
252633827811176	-2.4503016	-0.4878235	-1.0514593
252633832755024	-2.4082189	-0.32118225	-1.1260015
252633838095600	-2.5395076	-0.2461834	-1.2063286
252633842673237	-2.6438234	-0.17843342	-1.4146533
252633847617085	-2.7852225	-0.14051247	-1.5987777
252633852560932	-3.0329897	-0.10975742	-1.7232541
252633857504780	-3.1780636	-0.1193161	-2.0229807
252633862021381	-3.0291896	-0.018767357	-2.106854
252633867789204	-3.0088248	0.05722046	-2.1293545
252633872336323	-3.0675185	0.11719704	-2.0627074
252633877310688	-3.071028	0.10272694	-2.0555546
252633882254536	-3.0570757	0.20924377	-2.067663
252633887198383	-2.9620059	0.36516476	-1.89063
252633892142231	-2.8049955	0.48018074	-1.6910623
252633897482807	-2.8862298	0.6031494	-1.6223809
252633902029926	-3.0264332	0.6539068	-1.504631
252633906973774	-3.1187773	0.77424717	-1.3508341
252633911948139	-3.1811948	0.8843498	-1.3912488
252633916891987	-3.4286745	1.0929308	-1.4894234
252633921835835	-3.718244	1.3521252	-1.6735299
252633927176411	-4.12158	1.6154461	-1.6461108
252633931723530	-4.495862	1.9622393	-1.4250208
252633936667377	-4.647229	2.393241	-1.0342486
252633941641743	-4.8252687	2.662918	-0.72136426
252633946585590	-4.8802567	2.8546724	-0.5253781
252633951529438	-5.005048	2.895423	-0.49509525
252633956870014	-4.9413166	2.97149	-0.63239336
252633961417133	-4.947509	2.9689894	-0.8627616
252633966360981	-4.8648252	2.9191017	-1.0164375
252633971335346	-4.738508	2.8782759	-1.0114504
252633976279194	-4.7268133	2.8487263	-1.0931273
252633981223042	-4.594467	2.8778048	-1.1784663
252633986563618	-4.561537	2.911168	-1.205698
252633991110737	-4.501614	2.9119911	-1.4064007
252633996054585	-4.450221	3.0213976	-1.5322353
252634001028950	-4.4817576	2.9921074	-1.7451192
252634005972797	-4.4890747	2.9834213	-2.0443802
252634010916645	-4.5057063	2.985735	-2.232279
252634016257221	-4.529931	3.006092	-2.2605147
252634020804340	-4.5418606	3.0491886	-2.0366044
252634025748188	-4.4525647	3.126586	-1.5679199
252634030722553	-4.2836018	3.2713022	-0.78675735
252634035666401	-4.0851083	3.3549786	-0.17716026
252634040610249	-3.7787488	3.45119	0.10141754
252634045950825	-3.3329725	3.5307455	-0.14337564
252634050497944	-2.9676876	3.5931988	-0.50644433
252634055441792	-2.5346682	3.622446	-0.6902808
252634060416157	-2.37315	3.6074762	-0.45796728
252634065421040	-2.4600856	3.6242838	0.06784022
252634070303852	-2.8165116	3.4265585	0.5155786
252634075613911	-3.1958451	3.31223	0.985374
252634080191547	-3.5721622	3.26371	1.2504022
252634085135395	-3.825482	3.1824598	1.3106676
252634090109760	-3.8695333	3.0985966	1.2476741
252634095053608	-3.7061675	3.0150394	0.8589543
252634099997456	-3.3290408	2.8892584	0.5370506
252634105307514	-2.8720655	2.6207266	0.2591207
252634109885151	-2.2216296	2.2213287	-0.046031237
252634114828999	-1.5351171	1.7730064	-0.6982461
252634119803364	-0.85782146	1.4695234	-1.0643479
252634124747211	0.031519532	1.4435635	-1.2751322
252634129691059	0.8543538	1.5661154	-1.3165468
252634135001118	1.4191108	1.8619823	-1.0536871
252634139578754	1.8689392	2.1482267	-0.7075491
252634144522602	1.9785175	2.4721947	-0.4269785
252634149466450	2.2387686	2.948495	-0.099249184
252634154440815	2.7727573	3.4436893	0.17534131
252634159384663	2.9035745	3.625597	0.54611135
252634164694721	2.8415046	3.705989	0.8867001
252634169272358	2.7114747	3.7091856	1.0789331
252634174216206	2.616178	3.703516	1.3739803
252634179190571	2.5905771	3.6677275	1.4987837
252634184134418	2.7611718	3.5994987	1.5242372
252634189047749	2.7902606	3.5226421	1.2878747
252634194388325	3.0089755	3.5322542	0.86930597
252634198965961	2.9689538	3.4616737	0.36288702
252634203909809	2.9952533	3.5132217	-0.032217264
252634208853657	2.7066586	3.4374094	-0.033896565
252634213797504	2.3036942	3.3604975	0.0057759285
252634218741352	1.8363854	3.1712093	0.047146797
252634224081928	1.4669199	3.1554317	0.33809936
252634228659565	0.978015	3.2017908	0.7833971
252634233603413	0.32004252	3.013155	1.0174294
252634238547260	-0.32749927	2.6397266	0.72360754
252634243491108	-0.69541633	2.1415863	0.39990604
252634248434956	-0.9639415	1.7658806	0.33124602
252634253775532	-0.97678924	1.4116154	0.48905706
252634258353168	-0.8471855	1.0455761	0.8191105
252634263297016	-0.7495043	0.5676241	1.3087189
252634268240864	-0.55129063	0.121287346	1.9754121
252634273184711	-0.40739954	-0.28888988	2.5579097
252634278128559	-0.1163038	-0.5658035	2.8482492
252634283469135	0.13572443	-0.9282713	2.8663294
252634288046772	0.34201598	-1.2354794	2.8715405
252634292990620	0.3952626	-1.4955597	2.718876
252634297934467	0.646188	-1.7701588	2.5042922
252634302908833	0.93544185	-1.9762163	2.3417716
252634307822163	1.1503018	-2.2096863	2.1481469
252634313162739	1.6434168	-2.3961782	1.912571
252634317740376	1.9592594	-2.7789755	1.8745716
252634322684223	2.1474338	-2.965557	1.8939958
252634327628071	2.2638984	-3.0730104	1.7528853
252634332602436	2.4016304	-3.0517197	1.3832779
252634337546284	2.721252	-2.9905453	1.2613084
252634342856342	2.7584386	-3.1836414	1.3918469
252634347433979	2.6946845	-3.3721628	1.8114524
252634352377827	2.318759	-3.434888	1.6653409
252634357352192	2.1433082	-3.4647179	1.3348935
252634362296040	1.7708935	-3.564331	1.1874697
252634367300922	1.5586776	-3.5884047	1.0881035
252634372549946	1.0278366	-3.7546482	1.1047952
252634377127583	0.8624457	-3.9281263	0.9628117
252634382071430	0.77207243	-4.0699873	1.0114288
252634387015278	0.76629376	-4.1184654	0.98010373
252634391989643	0.89707696	-4.1592607	1.1256058
252634396933491	1.0000544	-4.2212057	1.2523477
252634402243549	1.0806422	-4.286175	1.4822783
252634406821186	1.203784	-4.3222494	1.7719352
252634411765034	1.2727203	-4.4113417	1.9014711
252634416708881	1.3319954	-4.4618473	1.947603
252634421652729	1.3907144	-4.5640383	2.050887
252634426596577	1.5743113	-4.6679945	2.0735426
252634431937153	1.550771	-4.81847	1.8679202
252634436514790	1.6016628	-4.9476204	1.609771
252634441458637	1.5813956	-5.163931	1.3248103
252634446402485	1.6231847	-5.306183	0.8994055
252634451346333	1.5921395	-5.493431	0.33801007
252634456290180	1.491486	-5.56441	-0.12491155
252634461630756	1.3920611	-5.677162	-0.5501406
252634466208393	1.2343556	-5.6581335	-0.9847548
252634471152241	1.017887	-5.5677404	-1.3812954
252634476096088	0.8345357	-5.507312	-1.7942467
252634481039936	0.5776979	-5.34622	-2.1787283
252634485983784	0.43294048	-5.2199316	-2.5657797
252634491324360	0.1847961	-5.0428762	-2.6866813
252634495901997	0.021086812	-4.8241596	-2.5960257
252634500845844	0.1675092	-4.397832	-2.3923824
252634505789692	-0.20101249	-4.0793095	-2.3294237
252634510733540	-0.70769775	-3.6657848	-2.118269
252634515677387	-1.181247	-3.1353407	-2.028211
252634520987446	-1.8391358	-2.542592	-1.961263
252634525565083	-2.1984286	-1.8021812	-1.6917868
252634530508930	-2.9830856	-1.1788902	-2.0182974
252634535483295	-3.2372985	-0.2489729	-2.2617993
252634540427143	-3.1639369	0.8427448	-2.3202772
252634545370991	-3.1342926	2.031949	-2.3544998
252634550711567	-2.9332867	3.4308996	-3.0531924
252634555289204	-2.8519545	4.8074694	-3.725971
252634560233051	-2.9940317	6.1357327	-4.6446886
252634565176899	-3.1774192	7.2369385	-5.8692455
252634570120747	-3.2273967	8.151717	-6.7471266
252634575064594	-2.9871426	8.742212	-7.17946
252634580405170	-2.6253128	8.801933	-7.158082
252634584982807	-2.0467298	8.397984	-6.3862185
252634589926655	-1.6854948	7.384059	-5.4172254
252634594870502	-1.7899944	5.9419165	-4.3358984
252634599814350	-1.8922439	4.5284986	-3.3630455
252634604758198	-1.6967783	3.1628227	-2.6496286
252634610098774	-1.5820047	1.8833113	-2.057842
252634614676411	-1.426982	0.7451868	-1.731226
252634619620258	-1.3958836	-0.26242352	-1.4897342
252634624564106	-1.3356183	-0.91747665	-1.6648464
252634629507954	-1.1616876	-1.32096	-2.3510406
252634634451801	-0.87040013	-1.4171209	-3.0829442
252634639792377	-0.48515493	-1.2946234	-3.874781
252634644370014	-0.3053496	-0.85459614	-4.628539
252634649313862	-0.3270408	-0.34352493	-4.828773
252634654257710	-0.30936527	0.18993187	-4.2471714
252634659201557	-0.29198217	0.6884184	-3.4637375
252634664145405	-0.2778238	1.1662416	-3.0130813
252634669547016	-0.16277009	1.8225479	-2.6814923
252634674063618	0.33155447	2.6370306	-2.519843
252634679007465	0.8926229	3.4175243	-2.303006
252634683951313	1.5657398	4.1502085	-1.6951873
252634688895161	2.4149957	4.782694	-0.29512835
252634693839008	3.1822233	5.2891703	1.5524535
252634699179585	3.8301513	5.573963	3.6001961
252634703757221	4.7057457	5.94569	4.899563
252634708701069	6.0503335	6.476289	5.9329844
252634713644917	7.132049	6.5465183	6.6394806
252634718588764	8.240287	6.493862	6.272321
252634723532612	7.9771223	5.427375	4.75358
252634728842670	5.2682276	2.5638618	2.4046633
252634733450825	3.130858	-0.2344675	0.3590393
252634738394672	2.4354486	-2.2254505	-0.7241373
252634743338520	2.2831552	-3.5078945	-1.2207844
252634748282368	2.2631142	-4.220625	-1.2020788
252634753226215	2.0402882	-4.5134077	-0.8726711
252634758566792	1.7241077	-4.6020536	-0.45323706
252634763144428	1.4424645	-4.6180544	-0.28169394
252634768088276	1.1063716	-4.4634714	0.06410384
252634773032124	0.77657884	-4.1969404	0.5492935
252634777975971	0.5154958	-3.832738	1.5157752
252634782919819	0.22102219	-3.316432	2.760222
252634788260395	0.21043581	-2.469431	4.237384
252634792838032	0.29986572	-1.5686264	5.908308
252634797781879	0.28085512	-0.8174	7.440093
252634802725727	0.2811883	-0.11589241	8.470823
252634807669575	0.17417306	0.21403027	9.093343
252634812613422	0.037997603	0.3427124	9.267696
252634817953999	-0.20017374	0.24861622	8.626289
252634822531635	-0.4316232	0.17832088	7.331481
252634827475483	-0.48730132	0.23766422	5.5465374
252634832419331	-0.49875668	0.35112572	3.411388
252634837363178	-0.47953758	0.6035795	1.4282352
252634842307026	-0.39069498	0.7970419	0.0063660145
252634847647602	-0.1956282	0.95914555	-0.84121
252634852225239	-0.38919678	0.89398956	-1.1050142
252634857169086	-0.5038216	0.75010014	-0.9946271
252634862112934	-0.7365165	0.64921856	-0.4586097
252634867087299	-0.911729	0.48204994	-0.0036637783
252634872031147	-0.92804545	0.37480164	0.27933276
252634877341206	-0.8525468	0.26995182	0.5581434
252634881918842	-0.73146176	0.1570139	0.5965014
252634886862690	-0.42734003	0.013333321	0.40159535
252634891837055	-0.35719186	-0.34342003	0.34356695
252634896780903	-0.16384763	-0.632452	0.70056087
252634901724751	-0.05653786	-1.029665	0.98900634
252634907034809	0.22701925	-1.3474617	1.1713941
252634911612446	0.27581027	-1.7347002	1.5284815
252634916556293	0.109405264	-2.087554	1.9804323
252634921500141	0.05235906	-2.4034252	2.3044386
252634926474506	0.03476484	-2.5138206	2.387008
252634931418354	-0.015067518	-2.4263496	2.467297
252634936758930	-0.20193534	-2.2104664	2.393642
252634941306049	-0.29367706	-1.7902822	2.259891
252634946249897	-0.41567197	-1.2116547	1.7778112
252634951224262	-0.61053306	-0.8002453	1.1416516
252634956168110	-0.8227315	-0.3965721	0.5634897
252634961111958	-1.0594825	-0.071870804	-0.009731688
252634966422016	-1.1641569	0.15276432	-0.4608904
252634971060688	-1.2717032	0.30817795	-0.6964611
252634975943501	-1.3054512	0.3639145	-0.8114179
252634980917866	-1.4139305	0.34632778	-0.8855164
252634985861713	-1.5319109	0.14631557	-0.80580795
252634990805561	-1.6028016	-0.1050539	-0.5132944
252634996146137	-1.7798579	-0.5047159	-0.4464699
252635000693256	-1.7256811	-0.8109913	-0.3431883
252635005637104	-1.5032222	-0.9210491	-0.32912037
252635010611469	-1.4067976	-1.0398397	-0.086824656
252635015555317	-1.4543712	-1.2196531	0.17733496
252635020499165	-1.308542	-1.2774658	0.47038007
252635025809223	-1.2252473	-1.3033161	0.6324758
252635030386860	-1.1814022	-1.2369938	0.46484506
252635035330708	-0.95982516	-1.0534935	0.23144537
252635040274555	-1.0626209	-0.93169785	0.06359637
252635045248920	-1.1755638	-0.79778576	-0.12734848
252635050192768	-1.2787902	-0.692256	-0.22469085
252635055502827	-1.4573025	-0.5240526	-0.3435169
252635060080463	-1.6537408	-0.52344227	-0.42952687
252635065024311	-1.7921469	-0.48612404	-0.6029647
252635069998676	-1.9021025	-0.43662453	-0.6753056
252635074942524	-1.9614431	-0.42742062	-0.82889414
252635079886372	-1.9989413	-0.39665985	-1.1207134
252635085196430	-2.0183558	-0.43386364	-1.2822171
252635089774067	-2.0290291	-0.32051468	-1.4181641
252635094717915	-2.0708337	-0.3182001	-1.6119586
252635099692280	-2.144611	-0.25406837	-1.7190397
252635104636127	-2.3254442	-0.15930557	-1.817861
252635109579975	-2.5133438	-0.031579018	-1.8471713
252635114890034	-2.73752	0.07756901	-1.7452319
252635119467670	-2.8910003	0.22035217	-1.6081489
252635124411518	-3.0048184	0.32781982	-1.4659562
252635129385883	-3.161943	0.45396042	-1.3689709
252635134329731	-3.2481344	0.5250006	-1.3451818
252635139273579	-3.3805914	0.6361933	-1.2806066
252635144583637	-3.4767017	0.6695423	-1.4576528
252635149161274	-3.548431	0.74654007	-1.3190887
252635154105122	-3.5611293	0.87891865	-1.2155011
252635159048969	-3.6812048	0.989727	-1.00888
252635164023335	-3.7400498	1.1003284	-0.86027956
252635168967182	-3.737215	1.2104292	-0.8184103
252635174277241	-3.8748865	1.2826385	-0.88368964
252635178854877	-4.0018253	1.3693514	-1.1331605
252635183798725	-4.0379095	1.4441624	-1.1637033
252635188742573	-4.006617	1.6679678	-1.198719
252635193716938	-3.8746657	1.8124323	-1.3525655
252635198630268	-3.769504	1.908431	-1.5398608
252635203970844	-3.6604416	2.0517597	-1.7018383
252635208548481	-3.4214756	2.1148558	-1.6986549
252635213492329	-3.3203564	2.0898228	-1.6166883
252635218436176	-3.1811154	1.9668598	-1.5180657
252635223410542	-2.9705667	1.9765787	-1.4432898
252635228354389	-2.869158	1.8786764	-1.5630466
252635233664448	-2.7972617	1.7520046	-1.9003129
252635238242085	-2.7450385	1.7385607	-2.224416
252635243185932	-2.8341448	1.7792702	-2.3754725
252635248160297	-3.0090225	1.8191986	-2.5198903
252635253104145	-3.2100303	1.896287	-2.5171976
252635258047993	-3.4063196	1.9676609	-2.3150344
252635263358051	-3.4414167	2.054594	-2.2190204
252635267935688	-3.4367275	2.0647984	-1.8037782
252635272971088	-3.3094027	2.1641455	-1.2321882
252635277823383	-3.252284	2.2054672	-0.3896221
252635282797749	-3.063085	2.3215256	0.25076556
252635287741596	-2.784566	2.611926	0.54220295
252635293082172	-2.3679936	3.1325502	0.47983253
252635297629292	-1.8673773	3.5903168	0.286237
252635302573139	-1.5617573	3.9404469	-0.14914942
252635307547504	-1.4813483	4.224284	-0.4101597
252635312491352	-1.6656609	4.432719	-0.27080643
252635317435200	-1.8717203	4.601619	0.13530636
252635322745258	-2.139744	4.5661983	0.72823083
252635327322895	-2.2564301	4.382762	1.0298189
252635332266743	-2.1414146	4.0743637	0.8919436
252635337241108	-1.824894	3.5904627	0.5814367
252635342184956	-1.289378	3.1220665	0.4863369
252635347128803	-0.8322606	2.6100235	0.19205332
252635352469379	-0.16104877	2.2151165	-0.15384409
252635357016499	0.59568274	1.9053345	-0.35468343
252635361990864	1.3018241	1.7791805	-0.42103344
252635366934711	1.9863236	1.9209499	-0.22779071
252635371878559	2.4899068	2.1662388	0.158654
252635376822407	2.6247818	2.469801	0.33155724
252635382162983	2.6536827	2.9689674	0.7040025
252635386740620	2.7635918	3.6076336	0.80440533
252635391684467	2.7975836	4.2132063	0.9289051
252635396628315	2.7532282	4.595935	1.0465183
252635401572163	2.8379207	4.917612	0.9470747
252635406516010	2.6885076	4.9643145	0.9552592
252635411826069	2.3901472	4.940875	0.99838865
252635416403706	2.2160456	4.76338	1.0783622
252635421347553	1.8552742	4.489688	0.97118115
252635426321918	1.8964722	4.336012	0.7263082
252635431265766	2.233025	4.2902412	0.44150305
252635436209614	2.3828213	4.2168236	0.15388548
252635441519672	2.3108275	4.076022	0.13534117
252635446097309	2.1127043	3.9424105	0.016707301
252635451041157	1.9328243	3.7773762	0.19647586
252635455985004	1.5769434	3.5568972	0.50594354
252635460959370	0.97700715	3.2790174	0.99828017
252635465903217	0.31475264	2.8536787	1.1670212
252635471213276	-0.304723	2.2588825	1.1803176
252635475790913	-0.8032622	1.7004948	1.0996542
252635480734760	-1.0802488	1.1155376	0.99279046
252635485709126	-1.1691117	0.5859537	1.4440016
252635490652973	-1.0703185	0.22758198	1.8238647
252635495596821	-0.87907904	-0.1903925	2.073548
252635500906879	-0.72664493	-0.5591097	2.2582657
252635505484516	-0.44520283	-0.9179325	2.3966916
252635510428364	-0.23144054	-1.2468433	2.8600414
252635515402729	-0.029355526	-1.4241934	3.1625834
252635520346577	0.17918348	-1.5623283	3.3655872
252635525290424	0.6440569	-1.7562065	3.6409929
252635530631001	0.84945905	-2.012639	3.7269893
252635535178120	1.1398424	-2.0353622	3.4419405
252635540152485	1.503777	-2.059208	3.2728155
252635545096333	1.8858852	-2.1753254	3.1016402
252635550040180	1.9304574	-2.438099	2.5863976
252635554984028	2.4962096	-2.531372	2.6515334
252635560324604	2.9914718	-2.5715466	2.9246032
252635564902241	3.061367	-2.633706	2.9286094
252635569846088	3.0126705	-2.735774	2.5338275
252635574850971	2.8890164	-2.7111273	2.1442661
252635579733784	2.80374	-2.6850739	1.8988976
252635584677631	2.781557	-2.6257353	1.764169
252635590018208	2.8428922	-2.773468	1.6445677
252635594565327	2.580131	-2.95823	1.4007442
252635599539692	2.3782167	-3.1574564	1.3546052
252635604483540	2.0946898	-3.3056002	1.358536
252635609427387	1.9364271	-3.2650194	1.3103731
252635614371235	1.772248	-3.3404455	1.4048715
252635619711811	1.6579168	-3.3633986	1.6078055
252635624289448	1.6958892	-3.328124	1.7463562
252635629233295	1.7468481	-3.343174	1.8553834
252635634177143	1.8044919	-3.289072	1.9057417
252635639120991	1.8708811	-3.26818	1.9713645
252635644064838	1.926733	-3.3018637	2.071404
252635649405415	1.8982259	-3.2868366	2.1487164
252635653983051	1.9349608	-3.3686628	2.2687392
252635658926899	1.9649572	-3.4424562	2.237462
252635663870747	2.0002213	-3.5660849	2.2625103
252635668814594	1.9693803	-3.7490149	2.3460956
252635673758442	2.0008748	-3.9341402	2.2741961
252635679099018	1.9788159	-4.228511	2.083211
252635683676655	1.8571446	-4.4555454	1.9474821
252635688620502	1.7276696	-4.742217	1.5349298
252635693564350	1.63546	-4.9408846	1.1447444
252635698508198	1.3432311	-5.0969744	0.5910044
252635703452045	1.0181098	-5.194127	0.106134415
252635708792622	0.7592846	-5.2484226	-0.50971603
252635713370258	0.44851077	-5.267292	-0.9304404
252635718314106	0.17826748	-5.2938204	-1.2913895
252635723257954	0.0017734766	-5.216982	-1.5480399
252635728201801	-0.19273698	-5.124654	-1.7123775
252635733145649	-0.5144521	-4.976081	-1.8934948
252635738486225	-0.6963707	-4.650367	-2.0724282
252635743063862	-1.0161113	-4.190322	-2.0276313
252635748007710	-1.4331613	-3.6568422	-1.97893
252635752951557	-1.9218673	-3.060398	-1.9049327
252635757895405	-2.5223806	-2.347889	-1.9415064
252635762839252	-3.0206156	-1.6446171	-1.9224646
252635768179829	-3.5831625	-0.94810486	-2.2563484
252635772726948	-4.0125875	-0.22766972	-2.549243
252635777701313	-3.8269901	0.7932997	-2.7046824
252635782645161	-3.696176	1.7970524	-2.8551412
252635787619526	-3.2323236	3.0426197	-2.871974
252635792532856	-2.9564033	4.2429256	-3.0975924
252635797873432	-2.7533298	5.591654	-3.673959
252635802451069	-2.682407	6.8713655	-4.4851217
252635807394917	-2.9102077	7.862754	-5.2495728
252635812369282	-3.0750377	8.58571	-5.7435746
252635817313129	-2.9976103	8.975828	-5.7296357
252635822256977	-2.799395	8.835572	-5.1492577
252635827597553	-2.69973	7.999134	-4.336977
252635832144672	-2.6338134	6.672576	-3.5767355
252635837119038	-2.4577374	5.071661	-3.0005822
252635842062885	-2.2706082	3.481183	-2.63419
252635847006733	-2.0355349	1.9318638	-2.275531
252635851950581	-1.80145	0.530385	-2.0318878
252635857291157	-1.5058001	-0.62550354	-1.8518372
252635861868793	-1.090641	-1.4456968	-2.1268826
252635866812641	-0.78360766	-2.0120249	-2.8806436
252635871756489	-0.35008025	-2.1880817	-3.8981404
252635876761372	0.024010956	-1.9299173	-4.50541
252635881644184	-0.00211066	-1.5646944	-4.8358564
252635886984760	-0.18949074	-1.116332	-4.29405
252635891531879	-0.5072942	-0.80224323	-3.6765037
252635896506245	-0.1682393	-0.21779537	-2.8908794
252635901450092	0.28216314	0.5250063	-2.2691252
252635906393940	0.59114146	1.4143095	-1.6508105
252635911337788	1.0621126	2.6497936	-0.98499894
252635916678364	1.4471571	3.9380674	-0.48702335
252635921225483	1.8990525	5.1602106	0.06429696
252635926169331	2.5009441	6.302021	0.51464534
252635931143696	3.549983	7.3690157	1.673666
252635936087543	4.3553767	7.967001	3.2524838
252635941031391	5.2472796	8.292035	4.673358
252635946341450	6.7324257	8.29199	5.483679
252635950919086	7.747442	7.7461967	5.8674107
252635955862934	7.7796836	6.526923	5.8744783
252635960837299	5.477985	4.042858	5.289027
252635965781147	2.7212362	1.3492699	4.5486555
252635970724995	1.8470031	-0.6482477	3.5331306
252635976065571	1.6626902	-2.1795826	2.2492213
252635980612690	1.6478951	-3.2997541	1.116492
252635985587055	1.6309772	-4.0416384	0.30088973
252635990530903	1.6979384	-4.4565268	-0.31177258
252635995474751	1.5796571	-4.5744753	-0.6014948
252636000418598	1.5163715	-4.613039	-0.7711508
252636005759174	1.3225069	-4.4828568	-0.7738402
252636010336811	1.1941309	-4.149729	-0.40490866
252636015280659	0.97875285	-3.6607265	0.17267942
252636020224506	0.5816944	-3.253356	0.9992564
252636025168354	0.24197894	-2.8848639	2.3060267
252636030112202	0.19226998	-2.3746576	4.012849
252636035452778	0.342453	-1.8241024	5.894983
252636040030415	0.5330762	-1.2848206	7.420446
252636044974262	0.6970297	-0.7935858	8.146399
252636049918110	0.7861671	-0.4496603	8.108922
252636054861958	0.7500576	-0.0664711	7.24487
252636059805805	0.8550656	0.49664688	5.7106376
252636065146381	0.6788847	0.8365736	3.8880014
252636069724018	0.49700588	1.1679773	2.5311494
252636074667866	0.39972937	1.4229946	1.3952779
252636079611713	0.13340789	1.6330853	0.87817407
252636084555561	-0.18880987	1.8336296	0.9173547
252636089499409	-0.53508615	1.9270544	1.021245
252636094839985	-0.9924921	1.8295078	1.097311
252636099417622	-1.3796759	1.6459942	1.2061442
252636104361469	-1.4885523	1.58111	1.0672866
252636109305317	-1.4561462	1.3455667	0.8877753
252636114249165	-1.3564776	0.96104527	0.57523906
252636119193012	-1.1348704	0.53709984	0.21542048
252636124533588	-1.1207111	-0.038648605	-0.05882442
252636129111225	-0.91286576	-0.5454178	0.16225171
252636134055073	-0.8056708	-1.2396088	0.4861709
252636138998920	-0.6104249	-1.7851448	0.83893263
252636143973286	-0.51561046	-2.2629957	1.1473463
252636148886616	-0.47138205	-2.7609758	1.5514762
252636154227192	-0.6557441	-3.11804	1.7367196
252636158804829	-0.7508737	-3.2900963	1.8087442
252636163748676	-0.8187334	-3.2194881	2.053132
252636168692524	-0.8891759	-3.101035	2.0104432
252636173666889	-0.86499274	-2.7470694	1.775878
252636178671772	-0.91248417	-2.3433113	1.5708086
252636183951313	-1.0208095	-1.8781233	1.2353848
252636188498432	-1.1828003	-1.3461037	0.8784435
252636193442280	-1.4029753	-0.8907881	0.40177086
252636198416645	-1.379089	-0.46662998	-0.24044701
252636203360493	-1.2180243	-0.10684109	-0.64128923
252636208304340	-0.9225672	0.21954918	-0.8066299
252636213644917	-0.93777686	0.2985983	-0.47283524
252636218192036	-0.92589176	0.25217915	-0.12634587
252636223166401	-0.8109272	0.20144844	0.015145309
252636228110249	-0.642168	0.12513065	-0.044839907
252636233054096	-0.6197164	-0.012387276	-0.4297617
252636237997944	-0.44404113	-0.28707314	-0.5782912
252636243338520	-0.40884987	-0.50842094	-0.66408736
252636247916157	-0.38724267	-0.7220745	-0.66052604
252636252860004	-0.36536026	-0.93000793	-0.61066437
252636257803852	-0.28992686	-1.0634356	-0.4722048
252636262747700	-0.17269674	-1.1842842	-0.35176474
252636267691547	-0.32463142	-1.3567953	-0.23462343
252636273032124	-0.50156575	-1.4878607	-0.09120065
252636277609760	-0.60904306	-1.5691557	-0.003172785
252636282553608	-0.7246327	-1.5640659	0.009403706
252636287497456	-0.9374673	-1.5538998	-0.0071803927
252636292441303	-1.0904965	-1.5172939	-0.25500113
252636297385151	-1.2883844	-1.4186544	-0.33207363
252636302725727	-1.4684551	-1.2575359	-0.5199713
252636307303364	-1.6268804	-1.1520452	-0.7361012
252636312247211	-1.662939	-1.005538	-1.0220706
252636317221577	-1.7162671	-0.8018904	-1.2729132
252636322165424	-1.7719183	-0.72668934	-1.4479258
252636327109272	-1.7421325	-0.56099796	-1.5242255
252636332449848	-1.8708855	-0.4777708	-1.5549152
252636336996967	-1.8156726	-0.4075384	-1.4452674
252636341971333	-1.769338	-0.2911749	-1.4172739
252636346915180	-1.8291088	-0.060620308	-1.1520028
252636351859028	-1.9565444	0.024848938	-1.0279369
252636356802876	-2.208152	0.1436472	-0.84763277
252636362143452	-2.5157075	0.1704979	-0.61397004
252636366721088	-2.690868	0.26963902	-0.32397556
252636371664936	-2.8150609	0.38853168	-0.15654778
252636376608784	-2.8570318	0.5501909	0.06968331
252636381552631	-2.9335103	0.65941334	0.15558088
252636386496479	-2.9947257	0.8089056	0.20424497
252636391837055	-2.877444	0.92567444	0.22806716
252636396414692	-2.7684627	1.0857382	0.17577922
252636401358540	-2.6615005	1.2389002	0.1216197
252636406302387	-2.5536623	1.3605595	-0.15297234
252636411276752	-2.4212837	1.5648661	-0.3792584
252636416220600	-2.2591038	1.718461	-0.57154155
252636421530659	-2.128837	1.860076	-0.66736996
252636426108295	-2.0213735	1.9784803	-0.7016021
252636431052143	-1.8741006	2.1039	-0.8324053
252636436026508	-1.7136993	2.3523216	-0.89246976
252636440970356	-1.6039032	2.5071964	-0.85364723
252636445914204	-1.5942863	2.6518345	-1.0325731
252636451254780	-1.607369	2.815115	-1.1826252
252636455832417	-1.6815912	3.0006094	-1.582483
252636460776264	-1.8278258	3.0904121	-1.9718652
252636465720112	-1.9045728	3.1888962	-2.2430983
252636470663960	-2.1448832	3.2080326	-2.4958324
252636475607807	-2.360809	3.2429476	-2.6250124
252636481009418	-2.590888	3.14149	-2.53517
252636485526020	-2.7137163	3.1082363	-2.3548732
252636490469868	-2.787094	3.0360632	-2.1828642
252636495413715	-2.8801887	2.9963684	-1.8763878
252636500357563	-2.9883888	2.9344254	-1.2616966
252636505301411	-2.952644	2.8264837	-0.6048746
252636510641987	-2.8106651	2.8480587	-0.102948785
252636515219624	-2.6731167	2.9953747	0.1668973
252636520163471	-2.411352	3.2383022	0.18096304
252636525107319	-2.346137	3.5319529	0.12710917
252636530051167	-2.079377	3.752616	0.4022261
252636535025532	-2.0097094	3.8337183	0.6805787
252636540335590	-2.2743535	3.9363184	0.7044525
252636544913227	-2.6132598	4.032407	0.5697942
252636549857075	-2.8501387	4.250016	0.38817906
252636554831440	-2.9000287	4.4476013	0.14082491
252636559775288	-2.873622	4.5471926	-0.046773434
252636564719135	-2.6831849	4.4848843	-0.15456247
252636570029194	-2.3293943	4.295701	-0.5245102
252636574606831	-1.7271637	4.0167923	-0.7114305
252636579550678	-1.2193233	3.4740276	-0.6419482
252636584525043	-0.6469145	2.807128	-0.66405964
252636589468891	0.073598385	2.171318	-0.52819985
252636594412739	0.78190947	1.6428576	-0.34192386
252636599753315	1.4212066	1.2688351	-0.2508723
252636604300434	1.7730131	0.99127483	-0.16393486
252636609274799	2.0431294	0.91789913	-0.054292887
252636614218647	2.4523048	1.0917549	0.10149509
252636619162495	2.9599905	1.3507385	0.2795502
252636624106342	3.2146447	1.5304832	0.5809306
252636629446918	3.0895586	1.6621475	1.1346354
252636634024555	2.7048938	1.7798033	1.6462218
252636638968403	2.23242	1.9271975	2.1758766
252636643912251	1.9245795	1.9776316	2.5128107
252636648856098	1.6124736	2.0451279	2.4954686
252636653799946	1.5435488	2.1247435	2.4739227
252636659140522	1.6943676	2.2384977	1.9698898
252636663718159	1.8201163	2.4436035	1.2187449
252636668662006	1.919777	2.6135921	0.43584716
252636673605854	1.9566962	2.7812881	-0.29033983
252636678549702	1.6847725	2.9184332	-0.77774537
252636683493549	1.2500068	3.0491858	-0.75651073
252636688834126	0.607149	3.0465622	-0.50879514
252636693411762	0.27237868	3.1504622	-0.1579895
252636698355610	-0.025315017	3.2569275	0.48143828
252636703299458	-0.36735985	3.127387	0.93635106
252636708243305	-0.60500395	2.8477964	0.9740366
252636713187153	-0.8633295	2.3588867	0.9205513
252636718527729	-0.6463575	1.8195429	0.87622666
252636723105366	-0.38341802	1.2881413	1.3301613
252636728049213	0.088967085	0.7626133	1.8718343
252636732993061	0.66988456	0.34800243	2.099028
252636737967426	1.1311786	-0.024614334	2.548127
252636742911274	1.5742452	-0.39124107	2.8453693
252636748221333	1.7910138	-0.7399845	3.0805008
252636752798969	2.1327772	-1.0203047	2.9544492
252636757742817	2.3079586	-1.3255739	2.9005365
252636762717182	2.4503424	-1.5318327	2.6920846
252636767661030	2.4336119	-1.7372103	2.4275951
252636772604877	2.415681	-1.9012518	2.1877956
252636777945454	2.3531213	-1.9667177	1.8359501
252636782553608	2.3717277	-2.0819616	1.7166846
252636787466938	2.2864122	-2.1091156	1.580087
252636792410786	2.1833801	-2.0953884	1.5972598
252636797354633	2.2790823	-2.107686	1.5533025
252636802298481	2.2644343	-2.1318731	1.5810139
252636807639057	2.0975914	-2.227086	1.6572084
252636812216694	2.0980396	-2.1448488	1.8384473
252636817160542	2.1380634	-2.2699614	2.0052032
252636822104389	1.9793624	-2.485858	2.1216235
252636827048237	1.6555079	-2.6592703	2.0786219
252636831992085	1.6157935	-2.7190342	1.8954551
252636837332661	1.53858	-2.7913818	1.8548186
252636841910297	1.4503398	-2.9741135	1.9287791
252636846854145	1.0769112	-3.2865086	1.9560528
252636851797993	0.7419698	-3.5833998	1.9540269
252636856741840	0.63019776	-3.6938915	2.0035553
252636861685688	0.7143519	-3.742114	1.8359551
252636867026264	0.73544836	-3.8359919	1.7970142
252636871603901	0.9572885	-3.8163195	1.839664
252636876547749	1.0724471	-3.7787437	1.815247
252636881491596	1.1732249	-3.767521	1.8400702
252636886435444	1.316603	-3.849204	1.8428402
252636891379292	1.4929509	-3.8358583	1.7903895
252636896719868	1.6366055	-3.952979	1.6773496
252636901297504	1.794904	-4.0470943	1.4444103
252636906241352	1.7401185	-4.1838427	1.3168173
252636911185200	1.6790035	-4.368204	0.9600005
252636916159565	1.683029	-4.462287	0.71159315
252636921103413	1.5295242	-4.63501	0.39740705
252636926443989	1.3108399	-4.808672	0.03606844
252636930991108	1.0300748	-4.942707	-0.37429
252636935934956	0.781942	-5.0806036	-0.9185314
252636940909321	0.51475537	-5.1385202	-1.3471212
252636945853168	0.34337115	-5.1546135	-1.6060481
252636950797016	0.19158626	-5.1553097	-1.7294884
252636956107075	-0.115460396	-5.0762014	-1.8873591
252636960684711	-0.28026974	-4.9103622	-1.8560429
252636965628559	-0.6809814	-4.7170067	-1.804997
252636970572407	-1.0254208	-4.4338055	-1.670757
252636975516254	-1.6797162	-4.1577835	-1.5525098
252636980460102	-2.3320725	-3.679039	-1.389678
252636985800678	-2.8188672	-3.028987	-1.0136008
252636990378315	-3.2900822	-2.213582	-0.49922514
252636995322163	-3.6886506	-1.3915215	-0.34500623
252637000266010	-4.0334315	-0.5799446	-0.3423066
252637005240376	-4.2815857	0.3810377	-0.6770532
252637010153706	-4.198154	1.383131	-0.49465537
252637015494282	-3.9623318	2.4692135	-0.81257844
252637020071918	-3.6973433	3.636384	-1.0003617
252637025046284	-3.2740278	4.9505854	-1.5791845
252637029990131	-2.685792	6.390091	-2.5269446
252637034933979	-2.1268156	7.755089	-3.7998762
252637039877827	-1.5338504	8.9455595	-5.414832
252637045218403	-1.1171	9.626053	-6.7185
252637049765522	-0.41844082	9.761308	-7.1728354
252637054739887	0.35634816	9.1404505	-6.5637045
252637059683735	0.54432786	7.7101393	-5.3258705
252637064627583	0.25906414	5.8584166	-3.8153908
252637069571430	0.038853467	4.016137	-2.5504718
252637074912006	-0.041233003	2.2913914	-1.4730563
252637079459126	0.00360471	0.6676359	-0.8728106
252637084494526	-0.003771305	-0.82130337	-0.5659931
252637089377338	0.10044384	-2.0439234	-0.56749487
252637094321186	0.323739	-3.0216322	-0.8025613
252637099265034	0.6987042	-3.700551	-1.4147375
252637104605610	1.0837986	-4.123192	-2.2120395
252637109152729	1.3534669	-4.232033	-2.9178364
252637114127094	1.5675097	-3.8873558	-3.4539802
252637119070942	1.6629	-3.0968847	-3.0701387
252637124014790	1.7916571	-2.1544619	-2.2400498
252637128958637	1.7882912	-1.3411827	-1.8253815
252637134299213	1.6400869	-0.50743675	-1.9331641
252637138846333	1.8696415	0.32678127	-1.9780767
252637143820698	2.1303988	1.2642031	-1.6060956
252637148764545	2.2906315	2.2319431	-0.7798817
252637153708393	2.5604827	3.2731352	0.17463183
252637158652241	2.7982717	4.184122	1.2706673
252637163992817	3.5856304	5.413476	2.6645653
252637168570454	4.5975986	6.4119005	4.2143245
252637173514301	5.768925	7.910178	5.6081867
252637178458149	7.1929865	9.695626	5.673392
252637183401997	7.3036823	10.228999	4.277584
252637188345844	6.5454307	10.208563	1.4665499
252637193686420	2.8941734	7.927541	-0.49870563
252637198264057	0.29896182	5.061062	-0.60986686
252637203207905	-0.9434076	2.636816	0.3947246
252637208151752	-1.5683415	0.41791344	1.6986163
252637213095600	-1.4318904	-1.4048557	2.846032
252637218039448	-0.84695834	-2.7747974	3.5981946
252637223380024	-0.46658915	-3.7677803	3.6748748
252637227957661	-0.241862	-4.442692	3.0536602
252637232901508	-0.13833117	-4.790701	2.1281908
252637237845356	0.013994038	-4.6637697	1.723331
252637242819721	0.040814042	-4.293561	1.8256011
252637247763569	0.025609493	-3.9451923	1.9300444
252637253073627	-0.16874278	-3.579708	2.2482884
252637257651264	-0.4593321	-3.1754198	2.7774296
252637262595112	-0.70867366	-2.7772741	3.3181336
252637267538960	-0.8428494	-2.4062262	3.913484
252637272513325	-0.77789795	-1.9217529	4.7346525
252637277457172	-0.7723061	-1.4681597	5.631276
252637282767231	-0.8083121	-1.0814743	6.1952453
252637287344868	-0.7774397	-0.6947613	6.2002525
252637292288715	-0.59676987	-0.5108423	5.471422
252637297263081	-0.53643894	-0.18542194	4.50751
252637302206928	-0.5481388	0.06995106	3.4618816
252637307150776	-0.6243193	0.39994526	2.4069276
252637312491352	-0.49055982	0.82688236	1.637578
252637317068989	-0.24871618	1.2911167	0.9232991
252637322012836	-0.20549357	1.7612514	0.377985
252637326956684	-0.11599505	2.1808662	0.18167734
252637331900532	-0.22973287	2.362112	0.12901783
252637336844379	-0.33030388	2.445486	0.2955954
252637342184956	-0.31498381	2.4824781	0.41118312
252637346762592	-0.29199132	2.385519	0.45329
252637351706440	-0.24378905	2.10468	0.30244493
252637356650288	-0.21183854	1.7005243	0.27854395
252637361624653	-0.14137259	1.2658367	0.30483127
252637366568501	-0.13676938	0.6652899	0.48395967
252637371878559	-0.21105728	0.047966957	0.69485986
252637376456196	-0.23528108	-0.55728436	0.9145483
252637381400043	-0.30570292	-1.1197338	1.1522036
252637386435444	-0.3293561	-1.5198174	1.3661613
252637391318256	-0.39632446	-1.8117762	1.5265509
252637396262104	-0.48131996	-2.0627232	1.697859
252637401572163	-0.60704964	-2.209054	1.7865214
252637406149799	-0.8430858	-2.2557478	1.8013859
252637411093647	-0.9962971	-2.2645597	1.8343081
252637416068012	-1.1107045	-2.192069	1.7228605
252637421011860	-1.3000925	-1.9954987	1.5153564
252637425955708	-1.4406979	-1.7535477	1.4229082
252637431265766	-1.4702505	-1.4644661	1.3364097
252637435843403	-1.453845	-1.1481361	1.146504
252637440787251	-1.4497105	-0.82994366	1.1194572
252637445761616	-1.4224682	-0.5117693	1.0329258
252637450705463	-1.3383181	-0.49783707	0.8853437
252637455649311	-1.2568474	-0.3693714	0.6671233
252637460959370	-1.0757062	-0.3669796	0.42919993
252637465537006	-0.9000975	-0.39200974	0.39955872
252637470511372	-0.81056637	-0.4858961	0.26656306
252637475455219	-0.7593617	-0.54356766	0.21547312
252637480399067	-0.77772355	-0.6316643	0.17215729
252637485342915	-0.78731364	-0.71448517	0.06772268
252637490652973	-0.81674844	-0.8136072	-0.011153877
252637495230610	-0.89900416	-0.83581924	-0.1537078
252637500174458	-0.9819356	-0.87442875	-0.20921054
252637505148823	-1.1344929	-0.9268904	-0.40293223
252637510092670	-1.1301167	-0.97654724	-0.41113633
252637515036518	-1.1994982	-1.0566998	-0.3510812
252637520346577	-1.3210754	-1.1459179	-0.35030097
252637524924213	-1.3181497	-1.163353	-0.36653647
252637529868061	-1.3246005	-1.2089396	-0.24226072
252637534842426	-1.3238649	-1.2017851	-0.24742824
252637539786274	-1.2491081	-1.1086683	-0.24799637
252637544730122	-1.2291508	-1.096097	-0.41789573
252637550040180	-1.1335049	-0.95456505	-0.55169433
252637554617817	-0.98581123	-0.9200907	-0.67535514
252637559561665	-0.84156114	-0.8160629	-0.8152583
252637564536030	-0.72953415	-0.6831064	-0.88674897
252637569479877	-0.6731791	-0.53791904	-0.8129565
252637574423725	-0.58712244	-0.3852415	-0.7985395
252637579764301	-0.51270664	-0.17709255	-0.690554
252637584311420	-0.48306572	0.020942688	-0.6727672
252637589255268	-0.38648218	0.19824982	-0.793015
252637594229633	-0.31249148	0.3638878	-0.85621905
252637599173481	-0.28153515	0.4939232	-0.9849767
252637604117329	-0.2696389	0.6287422	-0.91274095
252637609457905	-0.40578127	0.623786	-0.87548447
252637614035542	-0.64610016	0.6105604	-0.7689971
252637618979389	-0.9665488	0.59298515	-0.64693266
252637623923237	-1.2306234	0.6394434	-0.39053798
252637628867085	-1.438172	0.75695896	-0.29533255
252637633810932	-1.7838386	0.8360348	-0.29745442
252637639151508	-2.0250218	0.9484825	-0.4509796
252637643729145	-2.425058	1.078599	-0.37856555
252637648672993	-2.544289	1.2372179	-0.4274493
252637653616840	-2.723178	1.4143934	-0.42296004
252637658591206	-2.8358994	1.6410522	-0.6222084
252637663535053	-2.6920824	1.933712	-0.74199545
252637668845112	-2.617163	2.2474728	-1.0616833
252637673422749	-2.54442	2.498108	-1.174016
252637678366596	-2.5117154	2.6556864	-1.1935341
252637683340961	-2.4441242	2.7461653	-1.1451457
252637688345844	-2.5131965	2.6935282	-1.0972507
252637693228657	-2.523736	2.680911	-1.15599
252637698569233	-2.7035413	2.6396008	-1.2118611
252637703146870	-2.7736802	2.588128	-1.3712189
252637708090717	-2.8800604	2.600686	-1.4294162
252637713034565	-2.9313498	2.7008238	-1.4008014
252637717978413	-2.9890518	2.781374	-1.1758708
252637722922260	-3.0240917	2.8921814	-0.8353351
252637728262836	-2.9961014	3.0354242	-0.5437502
252637732840473	-2.8763812	3.208743	-0.23951524
252637737784321	-2.7631211	3.4498167	-0.1862967
252637742728168	-2.5196104	3.6278782	-0.33639646
252637747702534	-2.1549468	3.7382603	-0.26710594
252637752615864	-2.001886	3.766899	-0.020549953
252637757956440	-2.0152407	3.6919622	0.44948542
252637762534077	-2.0426402	3.4555483	0.9269563
252637767477924	-2.1339736	3.2538204	1.2272453
252637772421772	-2.2767916	2.985052	1.2701508
252637777396137	-2.3971267	2.687419	1.0117874
252637782339985	-2.5004687	2.5205421	0.62056303
252637787650043	-2.4476032	2.495675	0.16987965
252637792227680	-2.2222033	2.4983902	-0.5906272
252637797171528	-1.8985907	2.4150696	-1.2988317
252637802145893	-1.5498581	2.3512697	-1.9492675
252637807089741	-1.2412977	2.2097912	-2.4682853
252637812033588	-0.91590595	2.0337162	-2.704957
252637817374165	-0.52343	1.8467474	-2.3214545
252637821951801	-0.23129058	1.6004086	-1.7258174
252637826895649	0.06462824	1.3200397	-0.9629989
252637831839497	0.25386274	1.0110178	-0.4808462
252637836783344	0.49309492	0.7091961	-0.40361667
252637841727192	0.83172095	0.43367958	-0.5467351
252637847067768	1.1800808	0.24202824	-0.7998401
252637851645405	1.6082675	0.27985382	-0.72419715
252637856589252	1.9569032	0.42933083	-0.4920237
252637861533100	2.2870328	0.630105	0.0074106455
252637866476948	2.5986872	1.0625095	0.6039666
252637871420795	2.7589135	1.481081	1.127927
252637876761372	2.7546465	1.84865	1.7907747
252637881339008	2.7631946	2.121128	2.276541
252637886282856	2.6337276	2.3133707	2.7152333
252637891226704	2.804096	2.407528	3.030724
252637896170551	2.6967387	2.3892593	3.204032
252637901114399	2.5762455	2.3299751	3.223958
252637906454975	2.5289776	2.2546234	2.9366775
252637911032612	2.2530606	2.1987085	2.3307993
252637915976460	1.7383891	2.1273546	1.467633
252637920920307	1.1509392	2.1210747	0.47278762
252637925894672	0.78341454	2.2231092	-0.2637198
252637930838520	0.50161797	2.373989	-0.6799512
252637936148579	0.102380216	2.560978	-0.79313064
252637940726215	-0.32239687	2.525775	-0.8011029
252637945670063	-0.64674187	2.42986	-0.83421445
252637950613911	-0.7527423	2.2623978	-0.60235
252637955588276	-0.71221185	1.8950338	-0.049412012
252637960532124	-0.32314467	1.5484142	0.5891967
252637965842182	0.05465126	1.1529856	1.3345473
252637970419819	0.39870906	0.71410275	2.0567946
252637975363667	0.75750196	0.20694065	2.4955492
252637980338032	1.051935	-0.27996254	2.6518135
252637985281879	1.2098981	-0.80164146	2.5421638
252637990286762	1.2994176	-1.2885666	2.2538445
252637995535786	1.3748684	-1.830102	2.093565
252638000113422	1.4708717	-2.2181158	1.975903
252638005057270	1.6375409	-2.5061007	1.9293456
252638010001118	1.8052835	-2.834426	1.88637
252638014975483	2.007995	-3.0103073	2.0113468
252638019919331	2.1931272	-3.1911726	2.0466394
252638025229389	2.2894063	-3.2724	1.8503683
252638029807026	2.3886657	-3.2867289	1.7697535
252638034750874	2.3852994	-3.2896595	1.7880208
252638039725239	2.3563251	-3.1477604	1.9146025
252638044669086	2.3349195	-2.9995165	1.8346698
252638049612934	2.3379807	-2.8210144	1.8008454
252638054922993	2.2219663	-2.672121	1.7030787
252638059500629	2.1123822	-2.4114132	1.5856135
252638064444477	2.058361	-2.2068167	1.6245382
252638069418842	1.8995727	-2.2241678	1.6326883
252638074362690	1.6335297	-2.206812	1.5048516
252638079306538	1.3529849	-2.2759724	1.3936803
252638084616596	1.1844926	-2.3016968	1.2166321
252638089194233	1.2102866	-2.2177887	1.0546596
252638094138081	1.2731755	-2.1839104	0.9142909
252638099112446	1.4101822	-2.1445646	0.79251194
252638104056293	1.3498204	-2.3759098	0.6507673
252638109000141	1.3606372	-2.6018133	0.49177074
252638114340717	1.3637269	-2.7882128	0.34121752
252638118887836	1.5468802	-2.8642244	0.17915487
252638123862202	1.519273	-3.034505	0.16060019
252638128806049	1.5621223	-3.1453104	0.009925842
252638133749897	1.5184628	-3.258583	-0.054085255
252638138693745	1.4335766	-3.40528	0.12525463
252638144034321	1.462826	-3.5143137	-0.029908657
252638148611958	1.3375413	-3.6417112	-0.103215694
252638153555805	1.2005066	-3.6959085	-0.21863699
252638158499653	1.1225469	-3.783493	-0.29999828
252638163443501	0.91111946	-3.8567896	-0.3948617
252638168387348	0.73535	-3.9086132	-0.5698271
252638173727924	0.5663378	-4.0118284	-0.648644
252638178305561	0.36079407	-4.1166945	-0.74251604
252638183249409	0.069863915	-4.225526	-0.8292694
252638188193256	-0.2915187	-4.4390116	-0.93808985
252638193137104	-0.60203063	-4.481168	-1.1094513
252638198080952	-0.9261519	-4.5209208	-1.2315495
252638203421528	-1.0470929	-4.3039846	-1.2421122
252638207999165	-1.5479562	-4.2503366	-1.4721518
252638212943012	-1.7434576	-3.8205194	-1.6132619
252638217886860	-1.8419212	-3.2734442	-1.4582899
252638222830708	-2.0549827	-2.6704025	-1.5412979
252638227774555	-2.2799506	-1.9440727	-1.5393875
252638233115131	-2.4881988	-1.2203197	-1.848927
252638237692768	-2.8416495	-0.52338123	-2.1070359
252638242636616	-3.0353985	0.35313892	-1.8244321
252638247580463	-3.1633575	1.3788967	-1.9415185
252638252554829	-3.1368704	2.5970469	-1.6643941
252638257498676	-3.232307	3.8967142	-1.4778216
252638262839252	-3.1512675	5.2772083	-1.8572226
252638267416889	-2.885683	6.644945	-2.4174588
252638272360737	-2.6720283	7.7787027	-3.5949817
252638277304585	-2.3337817	8.465379	-4.546766
252638282248432	-2.042894	8.728655	-5.2752886
252638287192280	-1.7837656	8.320781	-5.582058
252638292593891	-1.5942782	7.394883	-5.5340843
252638297110493	-1.3002971	6.2884054	-5.09466
252638302054340	-0.9403427	4.935794	-4.429126
252638306998188	-0.441535	3.3897877	-3.828644
252638311942036	-0.010803103	1.8403234	-3.2059987
252638316885883	0.32365203	0.45586395	-2.6614327
252638322226460	0.71955913	-0.7533865	-2.290119
252638326804096	1.1378119	-1.6937637	-2.11326
252638331747944	1.5392923	-2.2820187	-1.991694
252638336722309	1.7529143	-2.5079403	-2.1227438
252638341666157	1.7215284	-2.5316257	-1.9647238
252638346579487	1.5052248	-2.2155304	-1.5205665
252638351920063	1.2275254	-1.724021	-0.8740511
252638356497700	1.0045666	-1.1643982	-0.51406693
252638361441547	0.7656619	-0.50095844	-0.67846084
252638366385395	0.917274	0.31885433	-1.0012627
252638371359760	1.1420838	1.1095581	-1.3533776
252638376303608	1.3592241	1.8998003	-1.3637514
252638381613667	1.5619226	2.6052675	-0.75052094
252638386191303	1.8382157	3.2691345	0.22043896
252638391135151	2.0598416	3.8007584	1.6032922
252638396109516	2.521344	4.322893	3.2337391
252638401053364	2.871475	4.7888556	4.920678
252638405997211	3.5785	5.7368574	6.54024
252638411307270	4.2912235	6.5078764	7.161169
252638415884907	5.2535934	6.947994	6.332961
252638420828754	5.209355	6.363703	4.60851
252638425803120	4.1147184	4.6743526	2.4748948
252638430746967	2.2125967	2.087346	0.7860086
252638435690815	1.4218515	-0.028598785	-0.087993145
252638441031391	1.2518976	-1.4834394	-0.29353786
252638445609028	1.2780678	-2.4172325	0.22491097
252638450552876	1.1859648	-3.1167889	1.1739218
252638455496723	0.9599274	-3.4681664	1.8380768
252638460440571	0.7298064	-3.5425758	1.9936779
252638465384418	0.5165928	-3.406209	1.6958196
252638470724995	0.2628448	-3.0880985	1.6599567
252638475302631	-0.0022903085	-2.70757	1.8384273
252638480246479	-0.2874127	-2.3503094	2.2953837
252638485190327	-0.56831443	-2.0780363	3.108233
252638490134174	-0.68978834	-1.7652016	4.046198
252638495078022	-0.5832231	-1.2741823	5.070117
252638500418598	-0.33344603	-0.73937035	5.874448
252638504996235	-0.27188516	-0.28200626	6.2819214
252638509940083	-0.13239384	-0.033444405	6.292943
252638514883930	-0.19094872	0.21092129	5.927515
252638519827778	-0.19349116	0.2639141	5.134036
252638524771626	-0.081053674	0.32096577	3.8739915
252638530112202	-0.14492553	0.29774094	2.4558222
252638534689838	-0.06271911	0.42489433	1.4251621
252638539633686	-0.012975931	0.6086426	0.98389196
252638544577534	0.008358955	0.7113075	0.9036355
252638549521381	-0.28600693	0.7350769	1.0352118
252638554465229	-0.48437715	0.794117	1.1474164
252638559805805	-0.6477201	0.76631165	1.2916667
252638564383442	-0.78773606	0.6546669	1.3202097
252638569327290	-0.85314393	0.54710865	1.1186516
252638574271137	-0.8098868	0.3637495	0.8717449
252638579214985	-0.6937431	0.18551445	0.6246898
252638584158833	-0.625934	-0.089865685	0.37009907
252638589499409	-0.47227138	-0.28491783	0.5005785
252638594138081	-0.2647634	-0.48762512	0.72242355
252638599020893	-0.14242488	-0.72385406	0.9379628
252638603964741	0.0023062527	-0.88843536	1.2255983
252638608939106	0.08371577	-1.1595955	1.2746093
252638613882954	0.15425342	-1.3491888	1.295531
252638619223530	0.083476365	-1.5556173	1.260161
252638623770649	-0.015683353	-1.5982151	1.166965
252638628745014	-0.24444386	-1.7625656	1.0548612
252638633688862	-0.4957826	-1.828927	1.0711123
252638638632710	-0.70331085	-1.7808342	1.1224117
252638643576557	-0.90982044	-1.68258	1.2516155
252638648917133	-0.9395582	-1.4825048	1.1787021
252638653494770	-1.1197883	-1.2834063	1.0145571
252638658438618	-1.2174745	-1.1061058	0.52570164
252638663382465	-1.2964245	-0.88344955	0.020578623
252638668326313	-1.3588237	-0.71302223	-0.32781422
252638673300678	-1.4142041	-0.58769417	-0.3944903
252638678610737	-1.4361078	-0.4816122	-0.309754
252638683188374	-1.5071985	-0.41010952	0.020073771
252638688132221	-1.5139792	-0.35533047	0.11378282
252638693106586	-1.4042718	-0.38097095	-0.14712667
252638698050434	-1.3537937	-0.35371017	-0.12150067
252638702994282	-1.2011288	-0.44245625	-0.095404685
252638708334858	-1.0728791	-0.5997505	0.14990473
252638712912495	-0.9800619	-0.7749052	0.34065098
252638717856342	-0.95701516	-0.9352398	0.3427232
252638722800190	-0.9397828	-1.2493572	0.27264687
252638727744038	-0.8860606	-1.3723383	0.14256239
252638732687885	-0.92935705	-1.4922333	0.028727233
252638738028461	-0.9637321	-1.5495834	-0.1349238
252638742606098	-1.0243962	-1.5612221	-0.25631434
252638747549946	-1.1018741	-1.5699015	-0.27356943
252638752493793	-1.228231	-1.4615536	-0.36185104
252638757437641	-1.2034299	-1.2933836	-0.53563535
252638762381489	-1.2698861	-1.1724501	-0.5787718
252638767722065	-1.3932176	-1.0770006	-0.65015197
252638772299702	-1.3856854	-1.0007048	-0.65273356
252638777243549	-1.3611579	-0.8784914	-0.57417
252638782187397	-1.2541506	-0.7724819	-0.5509094
252638787131245	-1.2500088	-0.6232271	-0.7489325
252638792075092	-1.03217	-0.47834778	-0.78735495
252638797415668	-0.8544716	-0.25170994	-0.85584104
252638801993305	-0.60182166	0.04060459	-0.7875562
252638806937153	-0.56614006	0.28826618	-0.72686845
252638811881001	-0.5098504	0.51446915	-0.60042393
252638816824848	-0.59186554	0.6477928	-0.42203832
252638821768696	-0.70957243	0.8831949	-0.28414583
252638827109272	-0.7712817	1.0071449	-0.1967035
252638831686909	-0.91468275	1.0963039	-0.18590093
252638836630756	-1.1490304	1.1025047	-0.14877838
252638841574604	-1.4950043	1.141736	-0.1017831
252638846548969	-1.9551861	1.0832119	0.0903337
252638851492817	-2.372231	0.95784855	0.2684266
252638856802876	-2.6892457	0.82326794	0.2761879
252638861380512	-2.9378428	0.8040323	0.3518989
252638866324360	-3.1861854	0.8204918	0.29551172
252638871298725	-3.3488925	0.85076714	0.12959856
252638876242573	-3.40409	0.9636917	-0.019972324
252638881186420	-3.4896789	1.0426807	-0.12053448
252638886526997	-3.4996176	1.1593695	-0.52302396
252638891074116	-3.5159893	1.2795887	-0.7775616
252638896109516	-3.478097	1.5182743	-1.0226965
252638900992329	-3.4038324	1.7845793	-1.3638148
252638905936176	-3.367467	2.0500278	-1.575036
252638910880024	-3.3098052	2.3407564	-1.8199489
252638916220600	-3.3074002	2.7067194	-1.867801
252638920798237	-3.2157955	3.0170383	-1.9124917
252638925742085	-3.146922	3.324132	-1.9567012
252638930685932	-3.0871139	3.4758902	-2.0307045
252638935629780	-3.1221442	3.65557	-2.0318274
252638940573627	-3.1640005	3.7204876	-1.967
252638945914204	-3.1980228	3.7656822	-1.6230494
252638950491840	-3.217935	3.6966066	-1.3132588
252638955435688	-3.283969	3.67914	-0.9017959
252638960379536	-3.3387647	3.6990786	-0.54680306
252638965323383	-3.172592	3.723052	-0.30735612
252638970267231	-2.8065958	3.8295345	-0.0195297
252638975607807	-2.4029288	3.9109774	0.28443086
252638980185444	-2.0574172	3.8856354	0.6845909
252638985129292	-1.9215246	3.8305912	1.1214323
252638990073139	-1.9339134	3.6655807	1.3245294
252638995047504	-2.1435761	3.324213	1.2899046
252638999960835	-2.261086	3.187459	0.92358863
252639005301411	-2.2129703	3.1522474	0.5395241
252639009879047	-1.9938841	3.156662	0.24909861
252639014822895	-1.5153741	2.9895792	-0.08931242
252639019797260	-0.9223801	2.799492	-0.6043326
252639024741108	-0.2756043	2.494031	-0.989457
252639029684956	0.40596312	2.2613573	-1.2533199
252639035025532	0.8765361	1.9610825	-1.5091947
252639039572651	1.1247671	1.6039906	-1.4534109
252639044547016	1.2187481	1.3820267	-1.0075151
252639049490864	1.4154631	1.1528959	-0.6436413
252639054434711	1.6712234	1.0617313	-0.5184994
252639059378559	2.151445	1.0989056	-0.45862854
252639064719135	2.6508083	1.1270466	-0.5337634
252639069266254	3.048234	1.1155014	-0.4576893
252639074240620	3.4059741	1.2803144	-0.28670323
252639079184467	3.6378336	1.5346775	-0.122648
252639084128315	3.9681602	2.009098	0.048505306
252639089072163	4.187772	2.4367924	0.2234186
252639094412739	4.3891425	2.8689528	0.34028172
252639098990376	4.3657045	3.1963778	0.5553864
252639103934223	4.369446	3.470582	0.647974
252639108878071	4.2352395	3.706729	0.78419197
252639113821918	3.9752798	3.7857914	1.0683388
252639118765766	3.6230447	3.8219318	1.269627
252639124106342	3.3609629	3.69549	1.4365823
252639128683979	2.9320354	3.5138483	1.3695524
252639133627827	2.407049	3.2268972	1.4954038
252639138571674	2.1319914	2.9952688	1.6324315
252639143546040	1.6816692	2.733756	1.870414
252639148489887	1.2078252	2.4330883	1.8513653
252639153799946	0.63166225	2.0267239	1.4129174
252639158377583	0.09941697	1.6263733	0.68470263
252639163321430	-0.16702187	1.3158989	0.11487341
252639168295795	-0.29037964	1.0505838	-0.2824397
252639173239643	-0.4170575	0.7678585	-0.23621798
252639178183491	-0.4089185	0.49841976	0.15455079
252639183493549	-0.3821031	0.13970566	0.92424655
252639188071186	-0.39484763	-0.19429874	1.5755417
252639193015034	-0.16713417	-0.50850296	2.2752311
252639198050434	-0.0062835217	-0.7737436	2.587873
252639202933247	0.23597085	-1.0891304	2.728056
252639207877094	0.50250673	-1.46031	2.6730385
252639213217670	0.78948236	-1.7732296	3.0575614
252639217795307	0.99627304	-1.943532	3.075855
252639222739155	1.227469	-2.0849152	3.1667542
252639227683002	1.3512306	-2.323636	3.015881
252639232626850	1.4584682	-2.6049385	2.7658832
252639237570698	1.5829303	-2.8076344	2.7183356
252639242911274	1.7082379	-3.0670967	2.5808501
252639247488911	1.9260676	-3.341363	2.355915
252639252432758	2.1972709	-3.5776834	2.413334
252639257376606	2.215896	-3.690775	2.2764916
252639262350971	2.2415178	-3.6689157	2.209547
252639267294819	2.3617828	-3.5865612	2.247047
252639272635395	2.3277967	-3.581627	2.07066
252639277182514	2.4036596	-3.4612703	1.9399621
252639282156879	2.3443797	-3.3424082	1.7049742
252639287100727	2.2876484	-3.1302147	1.3317108
252639292044575	2.2314005	-2.8247766	1.1746068
252639296988422	2.2781267	-2.5190954	1.0380788
252639302328999	2.3327827	-2.411395	1.0606937
252639306906635	2.286827	-2.3704586	1.006712
252639311850483	2.2255604	-2.391945	0.90674734
252639316794331	2.1919467	-2.4224167	0.93171597
252639321738178	2.1477485	-2.499977	0.838995
252639326682026	2.1474004	-2.510519	0.7881026
252639332022602	2.116125	-2.4892206	0.75455904
252639336600239	2.1653216	-2.5021076	0.65297365
252639341544086	2.1331432	-2.550086	0.75621796
252639346518452	2.1795535	-2.5147495	0.8273897
252639351462299	2.1428535	-2.5911655	0.9663205
252639356406147	2.0585163	-2.657916	0.871191
252639361716206	2.024588	-2.7415152	0.8183007
252639366293842	1.9367971	-2.8309708	0.6627588
252639371237690	1.7898691	-2.987321	0.3899355
252639376212055	1.6642525	-3.0792093	0.21627378
252639381155903	1.5107629	-3.1517477	0.11531496
252639386099751	1.2606695	-3.2977886	-0.19158363
252639391440327	1.0542072	-3.4356337	-0.33301353
252639395987446	0.68633246	-3.5748644	-0.44445992
252639400961811	0.45738864	-3.668437	-0.6155777
252639405905659	0.18036294	-3.8094978	-0.85356045
252639410849506	-0.07353759	-3.8935537	-0.92343426
252639415793354	-0.28299618	-3.9395971	-1.039392
252639421103413	-0.8316102	-4.1900396	-1.2359748
252639425681049	-1.1748707	-4.139845	-1.2580395
252639430624897	-1.4465156	-4.018176	-0.98266435
252639435568745	-1.7008798	-3.772029	-0.73784137
252639440543110	-1.8243972	-3.3654232	-0.54395247
252639445486958	-2.0259657	-2.9731894	-0.45544338
252639450797016	-2.1575508	-2.471551	-0.76604414
252639455374653	-2.2352262	-1.9536524	-1.2013161
252639460318501	-2.3276172	-1.401288	-1.8038995
252639465292866	-2.3419452	-0.74513817	-2.3118052
252639470236713	-2.3571594	-0.18697453	-2.6008806
252639475180561	-2.3652067	0.63931656	-2.9689043
252639480521137	-2.2812572	1.6269369	-2.979547
252639485098774	-2.233772	2.7291355	-2.8711119
252639490042622	-1.9984342	4.031205	-3.247055
252639494986469	-1.8003832	5.3827314	-3.8025825
252639499991352	-1.4353663	6.514966	-4.211425
252639504874165	-1.089529	7.387991	-4.556622
252639510214741	-1.0626621	7.8679476	-4.5620394
252639514792377	-0.8956847	7.917987	-4.534707
252639519736225	-0.94782716	7.4044256	-4.278872
252639524680073	-1.0693922	6.5250816	-3.7935708
252639529623920	-1.3670917	5.348996	-3.232294
252639534567768	-1.4748408	4.0663595	-2.9242268
252639539908344	-1.356895	2.8296623	-2.6404116
252639544485981	-1.2668474	1.6607552	-2.4658694
252639549429829	-0.9339704	0.7106075	-2.3333707
252639554373676	-0.45872873	-0.045700073	-2.3800778
252639559317524	0.040469408	-0.5635681	-2.6846313
252639564261372	0.6618142	-0.78662014	-3.2068229
252639569601948	1.0538574	-0.73902035	-3.6089814
252639574179585	1.3115084	-0.37530518	-3.7349582
252639579123432	1.1204804	0.15262413	-3.627356
252639584067280	0.85372174	0.77990913	-3.263622
252639589011127	0.6544373	1.5398254	-2.9577157
252639593954975	0.46096623	2.3278313	-2.5402563
252639599295551	0.32384706	3.3052626	-2.1027703
252639603873188	0.3172201	4.330862	-1.3217642
252639608817036	0.70396376	5.427018	-0.41104722
252639613760883	1.2862775	6.3853035	0.59584117
252639618704731	2.0388622	7.0446043	1.666086
252639623648579	3.1414223	7.4556923	2.3699923
252639628989155	3.9661694	7.3475885	3.0842712
252639633566792	4.5300083	6.79737	3.4435072
252639638510639	5.19888	5.7465715	3.8070574
252639643454487	5.059639	3.8232107	3.841461
252639648398335	3.8090618	1.1945095	3.8384576
252639653342182	2.6354756	-1.3475285	3.9061499
252639658682758	2.168697	-3.2170725	3.9949138
252639663260395	2.2956362	-4.5992393	4.378462
252639668204243	2.504555	-5.6269684	4.784403
252639673148090	2.5659423	-6.4015093	4.8278522
252639678091938	2.9100094	-6.85548	3.6612837
252639683035786	3.060977	-7.033659	2.0110614
252639688376362	3.1722693	-6.8987236	0.16067219
252639692953999	3.202437	-6.3700933	-1.3476372
252639697897846	3.0723605	-5.7855024	-2.5090997
252639702872211	2.5318217	-5.0437984	-2.902019
252639707816059	1.9043757	-4.1770926	-2.3740003
252639712759907	1.1225363	-3.1578503	-1.2828736
252639718069965	0.4887129	-2.0042896	0.27274323
252639722647602	-0.1464858	-0.8700123	1.9783251
252639727591450	-0.79460144	0.15851021	3.805617
252639732535297	-1.2966782	1.1072521	5.6527824
252639737509663	-1.3883729	1.8488274	6.9379225
252639742453510	-1.0603735	2.5205317	7.729492
252639747763569	-0.54035497	2.9766932	8.0522785
252639752341206	-0.28618908	3.3140345	7.739053
252639757285053	-0.012493014	3.4141703	6.2519927
252639762259418	0.36794364	3.521593	4.3729954
252639767203266	0.5589083	3.4079905	2.4618292
252639772147114	0.6020122	2.9707384	0.78903246
252639777487690	0.5628451	2.4844618	-0.20810902
252639782034809	0.43660676	1.8394403	-0.48047328
252639787009174	0.13878006	1.2467918	-0.30594182
252639791953022	-0.12146938	0.5574446	-0.005480647
252639796896870	-0.27837294	-0.05027771	0.20169258
252639801901752	-0.3614291	-0.5765524	0.431957
252639807181293	-0.4149276	-1.0075722	0.7048094
252639811758930	-0.30653363	-1.2843456	0.6579462
252639816702778	-0.30287457	-1.4639397	0.8553871
252639821646626	-0.22619605	-1.7596674	0.8204528
252639826590473	-0.14321673	-1.9312468	0.7554729
252639831534321	0.024345815	-2.071518	0.922088
252639836874897	0.048517466	-2.240631	1.3364818
252639841452534	0.09500694	-2.2842102	1.9250987
252639846396381	0.07183045	-2.2924156	2.4074643
252639851370747	0.05890256	-2.145708	2.776871
252639856314594	0.032514393	-1.9439487	2.9756656
252639861258442	0.20144826	-1.6586723	2.7429395
252639866568501	0.35807884	-1.2666512	2.5532787
252639871146137	0.5960538	-0.86171055	2.1895857
252639876120502	0.62654626	-0.6141043	1.6884258
252639881064350	0.6841763	-0.42803955	1.2089882
252639886008198	0.7262447	-0.29637337	0.8573477
252639890952045	0.6651741	-0.2523346	0.5354706
252639896292622	0.5739436	-0.25090408	0.257928
252639900839741	0.47550488	-0.3649788	0.11535126
252639905814106	0.4426002	-0.47155666	-0.20238063
252639910757954	0.34175387	-0.52996445	-0.33872676
252639915701801	-0.10264027	-0.8303356	-0.33002222
252639920645649	-0.30304268	-0.90640926	-0.19302663
252639925986225	-0.40615854	-1.0223942	0.0062066093
252639930563862	-0.45517588	-1.0378876	0.2131654
252639935507710	-0.5142687	-1.086236	0.43545485
252639940451557	-0.6113626	-1.1697531	0.6057716
252639945395405	-0.6252176	-1.1837978	0.8479141
252639950339252	-0.7176209	-1.2069216	0.9242846
252639955679829	-0.7278118	-1.227068	0.8743259
252639960257465	-0.79122806	-1.2518921	0.799469
252639965201313	-0.7769116	-1.3260841	0.59870005
252639970145161	-0.80555546	-1.3546581	0.49199036
252639975089008	-0.92698896	-1.3876143	0.5125787
252639980032856	-0.97933596	-1.2965946	0.3062158
252639985373432	-1.0563715	-1.3049183	0.13871738
252639989951069	-1.2219173	-1.2185049	0.0050811768
252639994894917	-1.3783017	-1.093607	-0.22985381
252639999838764	-1.455928	-0.9995289	-0.48952043
252640004782612	-1.5143657	-0.78408813	-0.7097614
252640009726460	-1.5107813	-0.5734472	-0.8265504
252640015067036	-1.5721283	-0.45036602	-1.1566951
252640019644672	-1.664953	-0.2781496	-1.3261015
252640024588520	-1.6986792	-0.17922115	-1.5709348
252640029532368	-1.7013541	-0.09206104	-1.7652996
252640034476215	-1.6541235	0.05230999	-1.7668202
252640039420063	-1.6806918	0.07315636	-1.7137597
252640044760639	-1.6297065	0.116220474	-1.5683489
252640049338276	-1.6462138	0.12749577	-1.5202613
252640054282124	-1.580093	0.20371342	-1.5314326
252640059225971	-1.416676	0.42747498	-1.4803909
252640064169819	-1.2892001	0.6868553	-1.2863684
252640069113667	-1.1736945	0.91996	-1.275094
252640074454243	-1.0803512	1.1179237	-1.1868774
252640079031879	-1.0518541	1.3429661	-1.021756
252640083975727	-1.1162992	1.523181	-0.8692888
252640088919575	-1.1635313	1.6056299	-0.6579262
252640093863422	-1.2338	1.6711588	-0.5940815
252640098807270	-1.5812124	1.7196808	-0.64867985
252640104208881	-1.749779	1.8088856	-0.566079
252640108725483	-1.8606372	1.9271793	-0.5728508
252640113669331	-2.001522	2.152463	-0.5754678
252640118613178	-2.1689296	2.3983564	-0.6990669
252640123557026	-2.3148947	2.674306	-0.87969506
252640128500874	-2.4557366	2.913661	-1.2911105
252640133841450	-2.5575764	3.1928492	-1.6693721
252640138419086	-2.572012	3.2754507	-1.940557
252640143362934	-2.6849017	3.2623892	-2.0262764
252640148306782	-2.8897052	3.09165	-2.1262407
252640153250629	-3.03403	2.9987507	-1.943171
252640158194477	-3.248571	2.819522	-1.8767949
252640163535053	-3.355321	2.611106	-1.9571053
252640168112690	-3.503053	2.4759636	-1.8447573
252640173056538	-3.6022053	2.3733978	-1.7154835
252640178000385	-3.7431872	2.3985434	-1.3867435
252640182944233	-3.7787042	2.4536934	-1.1263417
252640187888081	-3.666148	2.7003708	-0.6927854
252640193228657	-3.3902426	2.8858004	-0.19205403
252640197806293	-3.0089629	3.1231747	0.07601392
252640202750141	-2.6465895	3.3206387	0.21934783
252640207693989	-2.3511167	3.6000538	0.458111
252640212637836	-2.050523	3.7783346	0.6679725
252640217612202	-2.2600102	3.8889074	0.7349952
252640222922260	-2.6811366	3.9360428	0.7845436
252640227499897	-3.0671554	4.0509024	0.8955751
252640232443745	-3.4297407	4.1454716	0.89494413
252640237387592	-3.6878695	4.113982	0.61898965
252640242361958	-3.5022264	3.8545818	0.20467028
252640247305805	-2.8985734	3.5034895	-0.18921065
252640252615864	-2.1292021	3.0555305	-0.47393328
252640257193501	-1.373291	2.6772137	-0.90161717
252640262137348	-0.64420944	2.278594	-1.1574354
252640267111713	0.06965625	1.9676809	-0.96362865
252640272055561	0.8212835	1.6972008	-0.7197589
252640276999409	1.3605952	1.3888721	-0.41380912
252640282339985	1.8163748	1.1358299	-0.4592612
252640286917622	2.2204866	1.0423107	-0.3723017
252640291861469	2.9000564	1.1275692	-0.3407203
252640296805317	3.6778243	1.443408	-0.078791976
252640301749165	4.2521048	1.846653	0.16922987
252640306693012	4.189231	2.2417574	0.9271692
252640312033588	3.6483734	2.5985813	2.1574764
252640316611225	3.0063848	2.9181004	3.3036761
252640321555073	2.638397	3.18186	3.9578772
252640326498920	2.5890121	3.4124393	4.064397
252640331473286	2.492305	3.4814234	3.674724
252640336417133	2.4124966	3.4624004	3.1714873
252640341757710	2.4889865	3.5042973	2.5152931
252640346304829	2.569387	3.4960737	1.8390226
252640351248676	2.551318	3.432251	1.326872
252640356223042	2.3242173	3.4663582	0.90418196
252640361166889	1.7479103	3.462737	0.5111866
252640366110737	1.1110959	3.4764624	0.45100856
252640371451313	0.45623553	3.3857927	0.56288075
252640376028950	-0.09318107	3.2817316	0.6289537
252640380972797	-0.557421	3.1170063	0.63888884
252640385916645	-0.97518015	2.8526402	0.38993073
252640390860493	-1.3263185	2.3415737	0.25624537
252640395804340	-1.3155518	1.8288479	0.5891855
252640401144917	-0.98532546	1.2477417	1.0652752
252640405783588	-0.31273186	0.63327503	1.7334621
252640410666401	0.48080158	0.02439022	2.4050088
252640415610249	1.1002554	-0.51157284	2.9604056
252640420554096	1.7012416	-1.0276489	3.3752046
252640425497944	2.0463915	-1.4430876	3.737759
252640430838520	2.2650647	-1.862073	3.8548286
252640435416157	2.2360656	-2.2096453	3.8011959
252640440360004	2.3316135	-2.4707165	3.5875983
252640445303852	2.300869	-2.7170887	3.3791232
252640450278217	2.4060812	-2.8798037	3.078228
252640455222065	2.6067128	-2.9691124	2.809451
252640460532124	2.7392347	-3.0370836	2.483226
252640465109760	2.7175605	-3.0512285	2.3961895
252640470053608	2.8744318	-3.1109524	2.319387
252640475027973	2.880295	-3.2850733	2.1430945
252640479971821	2.6855826	-3.4383001	1.9831333
252640484915668	2.4666724	-3.4374008	1.7518749
252640490225727	2.4315367	-3.2281265	1.5536506
252640494803364	2.308743	-3.2221212	1.5126817
252640499747211	2.2525806	-3.184248	1.4753032
252640504721577	2.1689887	-3.1904488	1.3660359
252640509665424	1.8629684	-3.2506256	1.2864513
252640514609272	1.7201874	-3.2553139	1.1534219
252640519949848	1.5963612	-3.1768227	1.1174159
252640524496967	1.7331645	-3.1182327	1.1901059
252640529471333	1.7192993	-3.1005697	1.0335641
252640534415180	1.8178227	-3.092454	1.3008676
252640539359028	1.99301	-3.0770931	1.3784757
252640544302876	2.0758424	-3.0425663	1.5402689
252640549643452	2.1520824	-2.985714	1.6356096
252640554190571	2.0927114	-3.0513039	1.8082457
252640559164936	2.1332867	-3.1135397	1.8029165
252640564108784	2.0428197	-3.2491093	1.7352948
252640569052631	1.9781559	-3.4198408	1.6199217
252640573996479	1.927259	-3.566311	1.4354033
252640579337055	1.7273238	-3.7625847	1.3647289
252640583914692	1.6005446	-3.9697323	1.1700864
252640588858540	1.3981614	-4.1056805	1.024579
252640593802387	1.1712673	-4.253475	0.80444
252640598746235	1.0529414	-4.3300085	0.5903187
252640603690083	0.876655	-4.4091167	0.2345891
252640609030659	0.8231007	-4.466196	0.027682304
252640613608295	0.71499896	-4.537286	-0.08028412
252640618552143	0.568514	-4.5342665	-0.32607985
252640623495991	0.28922415	-4.55299	-0.53409624
252640628439838	0.032268763	-4.4743395	-0.74238205
252640633383686	-0.16868997	-4.2696276	-1.0506282
252640638724262	-0.4358164	-4.024577	-1.2012024
252640643271381	-0.72684467	-3.7164736	-1.4043722
252640648215229	-1.0499561	-3.310442	-1.4588177
252640653189594	-1.3398927	-2.8248558	-1.5616429
252640658133442	-1.5938549	-2.1565332	-1.5467105
252640663077290	-1.6198977	-1.4788418	-1.5533168
252640668417866	-1.7362305	-0.78438854	-1.7419236
252640672995502	-1.8101287	0.054216385	-1.9580095
252640677939350	-1.9306874	0.97743225	-1.9005315
252640682883198	-2.1837773	1.8525391	-1.7234635
252640687827045	-2.497097	2.7394657	-1.6421258
252640692770893	-2.629973	3.7621784	-1.7289655
252640698111469	-2.7449992	4.59857	-1.8209965
252640702689106	-2.8291185	5.3571053	-2.2302322
252640707693989	-2.896068	5.994399	-2.618891
252640712576801	-2.8692203	6.4020815	-3.1145492
252640717520649	-2.6801457	6.58932	-3.5568
252640722464497	-2.430223	6.610547	-3.778516
252640727805073	-2.265101	6.4015846	-3.894445
252640732382710	-2.127313	5.9416037	-3.7301896
252640737326557	-1.8930223	5.362648	-3.6301055
252640742270405	-1.6792028	4.6209955	-3.2711322
252640747244770	-1.322777	3.7401962	-2.9944193
252640752188618	-1.0725684	2.7651005	-2.8388178
252640757498676	-0.7785513	1.8198881	-2.7246685
252640762076313	-0.59346586	0.8406887	-2.710228
252640767020161	-0.5567701	-0.039977074	-2.801417
252640771994526	-0.6273929	-0.8918047	-2.9135423
252640776938374	-0.70847285	-1.6531725	-3.049094
252640781882221	-0.7075844	-2.2362309	-3.2554703
252640787222797	-0.7259799	-2.6481857	-3.5443873
252640791800434	-0.6385927	-2.6952553	-3.8742516
252640796744282	-0.49905086	-2.448964	-3.8507624
252640801688129	-0.40300333	-2.1194067	-3.7227044
252640806631977	-0.4069667	-1.6760893	-3.2153478
252640811575825	-0.667698	-1.1883116	-2.786212
252640816916401	-0.40015185	-0.43113136	-2.404177
252640821494038	0.036884427	0.5735483	-2.0983148
252640826437885	0.5395758	1.6968822	-1.841968
252640831381733	1.1798525	3.0799704	-1.3375309
252640836325581	1.6502187	4.49693	-0.55132914
252640841269428	2.2027664	6.017165	0.49593163
252640846610004	3.0770369	7.6512947	1.4583442
252640851187641	3.7544653	8.920472	2.5293744
252640856131489	4.8710957	10.233836	3.5619335
252640861075336	5.826693	10.199765	4.1510344
252640866019184	6.546455	10.168239	4.4534636
252640870963032	6.974741	9.222774	4.5727797
252640876303608	5.1688523	6.0289154	4.470457
252640880881245	2.5671885	2.2448673	4.1532116
252640885825092	1.8939844	-0.5245304	3.4785535
252640890768940	1.9587697	-2.5923529	2.861651
252640895743305	2.1634114	-4.2601347	2.563832
252640900656635	2.6616762	-5.5863276	2.6685438
252640905997211	3.021923	-6.646223	2.7119489
252640910574848	3.3973212	-7.524207	2.7111812
252640915518696	3.5504198	-8.086149	2.5653696
252640920462543	3.614488	-8.39085	1.652987
252640925406391	3.5901995	-8.2719755	0.63790345
252640930350239	3.6552877	-7.8015413	-0.5012164
252640935690815	3.67085	-7.081025	-1.1974652
252640940268452	3.4532113	-6.1281977	-1.281565
252640945212299	2.899939	-5.0055695	-0.6584947
252640950156147	2.1104279	-3.6274319	0.29071832
252640955099995	1.4017627	-2.2415924	1.3086717
252640960043842	0.659129	-0.90997696	2.7596307
252640965384418	-0.3805741	0.28273392	4.5060496
252640969962055	-1.0848775	1.454175	6.3497
252640974905903	-1.5333499	2.4955053	7.8170786
252640979849751	-1.8208556	3.4407644	8.634317
252640984793598	-1.9581525	4.1343575	8.719847
252640989737446	-2.086268	4.587022	7.9418764
252640995078022	-2.036222	4.7625065	6.279995
252640999655659	-1.8664471	4.745714	4.0651097
252641004599506	-1.7700216	4.506772	1.8752638
252641009604389	-1.3142757	3.9653864	-0.074569464
252641014487202	-1.014012	3.1072865	-0.7481494
252641019431049	-0.8502757	2.2053022	-0.7040459
252641024771626	-0.57673454	1.2443295	-0.42151964
252641029349262	-0.3276078	0.2835369	0.012706399
252641034293110	-0.15970778	-0.5150242	0.33566427
252641039236958	0.027522922	-1.2268829	0.65410507
252641044180805	0.04541421	-1.8116913	0.95669913
252641049124653	0.13350087	-2.378952	0.8254292
252641054465229	0.41791505	-2.7058296	0.72513354
252641059042866	0.66942364	-2.9333305	0.7693696
252641063986713	0.8003374	-3.044404	0.88088655
252641068930561	0.8838997	-3.1479578	0.99923694
252641073874409	0.9109303	-3.1084852	1.3618175
252641078818256	0.924472	-2.8785744	1.6664784
252641084158833	0.81538576	-2.5753984	1.9899296
252641088736469	0.6077453	-2.2569332	2.055863
252641093680317	0.558753	-1.9103565	1.977911
252641098624165	0.50626135	-1.4543734	1.7681873
252641103598530	0.5378601	-0.9462023	1.6147027
252641108542377	0.57784086	-0.55941963	1.4537134
252641113852436	0.4973923	-0.23238945	1.2665051
252641118430073	0.5191259	0.040509224	1.1471297
252641123373920	0.5042031	0.24664497	0.9033142
252641128317768	0.49384832	0.30792046	0.7313683
252641133292133	0.38106215	0.23876381	0.44065034
252641138205463	0.16920318	0.10118294	0.29607046
252641143546040	0.07094798	-0.11200428	0.14995873
252641148123676	-0.02617063	-0.35287666	0.06632028
252641153067524	-0.024112042	-0.55747986	0.040941738
252641158011372	-0.0011472777	-0.6948614	-0.022559123
252641162985737	-0.100120805	-0.98381805	0.14897597
252641167929585	-0.234734	-1.1840401	0.23272261
252641173239643	-0.17773564	-1.2955408	0.53184235
252641177817280	-0.21061964	-1.4209385	0.57451546
252641182761127	-0.19265378	-1.5337877	0.40765038
252641187735493	-0.2567079	-1.5866385	0.2464852
252641192679340	-0.34516943	-1.6271343	0.03422728
252641197623188	-0.36091396	-1.510232	-0.053855896
252641202963764	-0.46950048	-1.4545164	-0.08364421
252641207510883	-0.6168704	-1.3253012	0.038780987
252641212485249	-0.70510465	-1.2762346	-0.035527825
252641217429096	-0.71562463	-1.1530418	-0.12131125
252641222372944	-0.7557833	-1.0271025	-0.12838191
252641227316792	-0.8015433	-0.9792614	-0.28730577
252641232626850	-0.6711997	-0.89957905	-0.52226794
252641237204487	-0.7716854	-0.9013958	-0.8491441
252641242148335	-0.6768436	-0.7691622	-1.2557237
252641247122700	-0.8063053	-0.6509571	-1.2940702
252641252066547	-0.84027064	-0.5611944	-1.5938599
252641257010395	-1.0998	-0.44517517	-1.6533154
252641262320454	-1.1556548	-0.34035397	-1.6822528
252641266898090	-1.4049903	-0.20586777	-1.6476207
252641271841938	-1.6784123	-0.12070179	-1.6235237
252641276816303	-1.820065	0.047753334	-1.6080167
252641281760151	-1.8936347	0.08767891	-1.4653834
252641286703999	-1.7996864	0.22037983	-1.3101838
252641292014057	-1.838992	0.2324276	-1.2893881
252641296591694	-1.8390805	0.31678486	-1.0711572
252641301535542	-1.7532952	0.5157623	-0.996385
252641306509907	-1.8922298	0.5360966	-0.8346791
252641311514790	-2.1055806	0.69649696	-0.68820286
252641316397602	-2.256349	0.95841026	-0.5110496
252641321738178	-2.344311	1.3321352	-0.36228144
252641326285297	-2.557246	1.7274513	-0.27324986
252641331259663	-2.8752193	2.0487156	-0.41176307
252641336203510	-2.9643748	2.4403534	-0.51738787
252641341147358	-2.9323592	2.690793	-0.61449647
252641346091206	-2.9291015	2.8739405	-0.59175503
252641351431782	-2.9873633	2.828639	-0.5689604
252641355978901	-2.9516618	2.7464771	-0.5205225
252641360953266	-2.8539567	2.7167244	-0.41275883
252641365897114	-2.7089884	2.6936712	-0.58015215
252641370840961	-2.7261655	2.5441809	-0.9129349
252641375784809	-2.7080126	2.5560684	-1.261083
252641381125385	-2.6721942	2.586688	-1.7317218
252641385703022	-2.6731486	2.656764	-1.9313534
252641390646870	-2.822472	2.714364	-1.9339999
252641395590717	-2.9051316	2.804368	-1.7388368
252641400534565	-2.9805021	2.9242249	-1.219321
252641405478413	-2.9746695	3.1284628	-0.5582893
252641410818989	-2.7445784	3.366763	-0.11565924
252641415366108	-2.5049431	3.5422258	0.040767908
252641420340473	-2.151808	3.6778479	-0.012871027
252641425284321	-1.6356462	3.843011	-0.10737932
252641430228168	-1.2841173	3.9282627	0.14483035
252641435172016	-1.0915732	4.1119385	0.5343677
252641440512592	-1.1166308	4.157667	0.80617344
252641445059711	-1.3023679	4.168	1.0027028
252641450034077	-1.6969979	4.230709	1.1384495
252641454977924	-2.0759466	4.3257303	1.1277457
252641459921772	-2.4063687	4.422408	0.8088979
252641464865620	-2.6724715	4.566291	0.38135815
252641470206196	-2.7607172	4.578231	-0.070433795
252641474753315	-2.5851007	4.4050274	-0.4537167
252641479697163	-2.2163572	4.1054716	-0.5231026
252641484671528	-1.7286446	3.5526257	-0.4106094
252641489615376	-1.2800767	2.8993206	-0.34068382
252641494559223	-0.7398227	2.2480822	-0.82864463
252641499899799	-0.057568014	1.6722755	-1.0671616
252641504446918	0.5901749	1.3118715	-0.929681
252641509421284	1.1855584	1.1220398	-0.4901394
252641514365131	1.6544793	1.2079468	-0.035707176
252641519308979	2.206499	1.4004402	0.42688075
252641524252827	2.6966076	1.6755953	0.71906745
252641529593403	3.0216138	1.8933191	0.94049263
252641534140522	3.3728397	2.1096277	0.992391
252641539084370	3.3915114	2.2350168	1.1685786
252641544058735	3.3371859	2.4212246	1.5437446
252641549002583	3.2352202	2.5061073	1.7199134
252641553946430	2.9408424	2.463396	1.820585
252641559256489	2.7610414	2.5055075	1.867136
252641563834126	2.7588744	2.6629725	1.7157636
252641568777973	2.7238286	2.7122965	1.1363581
252641573721821	2.7232838	2.8549318	0.44229484
252641578696186	2.680682	3.012473	-0.117865205
252641583640034	2.6206346	3.2133408	-0.27399004
252641588950092	2.2895565	3.213994	0.0057319403
252641593527729	1.6909503	3.203907	0.68356466
252641598471577	1.2977223	3.222602	1.5219223
252641603445942	1.0212276	3.0672474	2.0226204
252641608389790	0.7916197	2.8712835	2.1511173
252641613394672	0.4233538	2.5450478	2.1504765
252641618643696	0.3487121	2.139742	2.0219138
252641623221333	0.10331744	1.4955912	1.6644964
252641628165180	0.10584414	0.95839405	1.6252763
252641633139545	0.19453251	0.4235344	1.8042517
252641638083393	0.36339283	-0.026537895	2.2893686
252641643027241	0.7056602	-0.34914494	2.8593183
252641648337299	0.9579078	-0.7367697	3.2283707
252641652914936	1.1476253	-1.0806503	3.4180446
252641657858784	1.5852803	-1.2849197	3.6174514
252641662833149	1.900174	-1.5446444	3.4022286
252641667776997	2.1588204	-1.853097	3.36352
252641672720844	2.381002	-2.065055	3.2873104
252641678030903	2.6512375	-2.1325626	3.008887
252641682608540	3.0321279	-2.2791805	2.852301
252641687552387	3.1210227	-2.4363432	2.5711584
252641692526752	3.1911554	-2.5118036	2.1376734
252641697470600	3.2685578	-2.5657482	2.1234832
252641702414448	3.1352	-2.6124067	2.0858626
252641707724506	3.1818461	-2.6534967	2.0141077
252641712302143	3.1051884	-2.8128452	2.1558201
252641717245991	2.9636426	-2.9977846	2.2673774
252641722220356	2.700055	-3.0757475	2.117353
252641727164204	2.5897565	-2.9049807	2.054359
252641732108051	2.4138865	-2.9874725	2.1212044
252641737418110	2.2794988	-3.058735	2.0774112
252641741995747	1.8091748	-3.2344818	2.2342162
252641746939594	1.3877237	-3.2877474	2.1369119
252641751883442	1.323648	-3.245494	2.0712647
252641756857807	1.1477005	-3.288578	2.0043087
252641761801655	1.106715	-3.213004	1.9235582
252641767111713	1.244324	-3.1833658	1.9133191
252641771689350	1.4449689	-3.1387768	1.9218364
252641776633198	1.7020979	-3.1215086	2.1360812
252641781607563	1.8954878	-3.1450691	2.0946069
252641786551411	2.1579187	-3.3023462	2.4894857
252641791464741	1.9330087	-3.4479628	2.2769198
252641796805317	2.0691981	-3.4525461	2.180338
252641801382954	2.306146	-3.4682875	2.0497403
252641806326801	2.3911495	-3.6172104	1.9037547
252641811270649	2.3402188	-3.8069057	1.7145891
252641816245014	2.1541843	-4.0325546	1.3607101
252641821188862	1.9672925	-4.301321	1.0604
252641826498920	1.667727	-4.5735598	0.6443796
252641831076557	1.2521048	-4.766512	0.014883995
252641836020405	1.0358295	-4.859151	-0.5936365
252641840964252	0.7555568	-4.9509487	-1.1390843
252641845938618	0.5493593	-5.00908	-1.4371381
252641850851948	0.44453406	-4.942936	-1.7236533
252641856192524	0.29398727	-4.974432	-1.9766355
252641860770161	0.12891078	-4.9714184	-2.0122485
252641865714008	-0.13521707	-4.9035854	-2.081087
252641870657856	-0.27812016	-4.701147	-2.0648007
252641875601704	-0.6184294	-4.461034	-1.9316487
252641880545551	-0.9562533	-4.05653	-1.6449714
252641885886127	-1.4671321	-3.6619635	-1.5094228
252641890433247	-2.0293243	-3.0696907	-1.3700128
252641895407612	-2.441946	-2.4670696	-1.4021606
252641900351460	-3.0001202	-1.8654556	-1.3964849
252641905295307	-3.4734664	-1.0409994	-1.2425096
252641910239155	-3.9594812	-0.13127518	-1.2241256
252641915640766	-4.318138	0.8727493	-0.6943917
252641920157368	-4.5830064	2.0429401	-0.7305095
252641925101215	-4.666712	3.3161545	-0.66857266
252641930045063	-4.484713	4.7194376	-0.8633261
252641934988911	-4.3683214	6.005786	-1.4417765
252641939932758	-4.400798	7.051835	-2.0965853
252641945273335	-4.283947	7.850174	-2.9424524
252641949850971	-3.9179888	8.277194	-3.7539868
252641954794819	-3.35351	8.308643	-4.2819
252641959738667	-2.8047056	7.8771877	-4.60646
252641964682514	-2.2983606	7.1819496	-4.542886
252641969626362	-1.603096	6.3458395	-4.4243326
252641974966938	-0.7611525	5.2741137	-4.366581
252641979544575	0.0840866	4.103917	-4.282048
252641984488422	0.7954482	2.6831923	-3.9773567
252641989432270	1.2719789	1.2513247	-3.2742698
252641994406635	1.5157368	-0.16539192	-2.6030948
252641999319965	1.2909122	-1.3956366	-2.2294438
252642004660542	1.2663057	-2.500452	-1.9437885
252642009238178	1.2216722	-3.379695	-1.8137789
252642014182026	1.275635	-4.0535345	-2.0715542
252642019125874	1.4013734	-4.4731684	-2.630521
252642024100239	1.5403835	-4.537181	-3.1160235
252642029044086	1.6275625	-4.2136097	-3.0336125
252642034354145	1.7814419	-3.5064	-2.1182911
252642038931782	1.8265952	-2.896227	-1.4071364
252642043875629	1.5855182	-2.433979	-1.3543639
252642048819477	1.9587203	-1.8124104	-1.6985185
252642053793842	2.4650292	-1.2079945	-2.0876677
252642058737690	2.936591	-0.63979626	-2.1059067
252642064047749	3.1144333	0.13719559	-1.2320507
252642068625385	3.2156806	1.1862898	0.6089997
252642073569233	3.169681	2.312976	2.915018
252642078543598	3.978681	4.2743263	5.1537256
252642083487446	5.0330095	6.627264	7.574116
252642088431293	6.463573	9.906207	9.466973
252642093741352	7.7890635	10.189612	9.817694
252642098318989	8.629721	10.152456	8.295551
252642103262836	8.672903	10.122847	4.7473946
252642108237202	5.3198853	10.103089	0.44855475
252642113181049	1.9336728	10.091462	-1.8625968
252642118124897	0.1910218	5.8434525	-1.8584023
252642123465473	-1.1799686	1.9951382	-0.13431597
252642128012592	-1.3867449	-1.0462818	1.8109567
252642132986958	-0.60942876	-3.1038446	2.8679223
252642137930805	0.4245727	-4.5394354	2.8969703
252642142874653	1.2597361	-5.570857	1.5608029
252642147818501	1.8903428	-6.2469234	-0.14183784
252642153159077	2.1639717	-6.5345125	-1.3040752
252642157706196	2.0378246	-6.534807	-1.3538756
252642162680561	1.8668014	-6.4694576	-0.7398894
252642167624409	1.9035671	-6.4103985	-0.12749577
252642172568256	1.932021	-6.3087616	0.778929
252642177512104	1.8439193	-6.1391945	1.6880159
252642182852680	1.6805319	-5.8322783	2.9370193
252642187430317	1.5307176	-5.367052	4.672721
252642192374165	1.4279728	-4.3245316	6.912653
252642197318012	1.1135316	-3.2802477	8.766589
252642202261860	0.47303653	-2.1540823	10.062391
252642207205708	0.21462888	-0.93271446	10.5099535
252642212546284	-0.17624092	0.20001125	10.084688
252642217184956	-0.46715152	1.3421268	8.787666
252642222067768	-0.4708218	2.4230776	6.659314
252642227011616	-0.46341163	3.4338045	4.76309
252642231955463	-0.35694796	4.31695	2.87092
252642236899311	-0.47499508	4.87239	1.3622969
252642242239887	-0.78712475	5.0019007	0.29488528
252642246817524	-1.0464182	4.6648397	-0.2770995
252642251761372	-1.0863016	4.066432	-0.4908774
252642256705219	-0.81514657	3.3167648	-0.42099702
252642261679585	-0.48365095	2.3683386	-0.6248591
252642266592915	-0.12986594	1.6090202	-0.6902572
252642271933491	0.1712488	0.7810497	-0.58931243
252642276511127	0.33350483	-0.13035774	-0.43629277
252642281454975	0.50893044	-1.000844	-0.15783048
252642286398823	0.77059764	-1.7037802	0.29580963
252642291373188	0.7961734	-2.2844381	0.6852263
252642296317036	0.8226635	-2.8806515	1.380987
252642301657612	0.7485815	-3.2955742	1.871955
252642306204731	0.57077324	-3.5278502	2.1426651
252642311148579	0.49076787	-3.7694645	1.7679038
252642316122944	0.42794314	-3.6680775	1.7159531
252642321066792	0.3657109	-3.3643274	1.5782126
252642326010639	0.19725478	-2.872775	1.6584872
252642331351215	0.18684733	-2.1630735	1.6906967
252642335928852	-0.042643994	-1.5055017	1.568259
252642340872700	-0.35302585	-0.85574245	1.3560903
252642345816547	-0.48932195	-0.28956127	1.0317644
252642350760395	-0.6487104	0.20977402	0.6211833
252642355704243	-0.7308344	0.61379814	0.32594112
252642361044819	-0.83638585	0.85353184	0.33169058
252642365622456	-0.9450812	0.89389896	0.32692248
252642370566303	-1.1616349	0.77518845	0.36046198
252642375510151	-1.2471439	0.5738201	0.49049515
252642380453999	-1.0996135	0.3707447	0.5078649
252642385397846	-1.1757753	-0.019457817	0.64112234
252642390738422	-1.317107	-0.50376225	0.65332913
252642395316059	-1.2708491	-0.92770195	0.8820579
252642400259907	-1.0881115	-1.1936693	0.8189288
252642405203754	-1.0107791	-1.3470812	0.6012457
252642410178120	-0.8725412	-1.4046974	0.38582942
252642415121967	-0.7274183	-1.3737955	0.25872773
252642420432026	-0.6384266	-1.30649	0.23464519
252642425009663	-0.6425627	-1.3058977	0.23218915
252642429953510	-0.56219566	-1.180912	0.17848566
252642434927876	-0.5037449	-1.0840998	0.17734832
252642439871723	-0.50945836	-0.88713074	0.12040308
252642444815571	-0.52962655	-0.8302469	0.005432725
252642450156147	-0.6275299	-0.7463684	-0.15183586
252642454703266	-0.7323097	-0.66326237	-0.2878095
252642459677631	-0.89146614	-0.6078882	-0.56799227
252642464621479	-0.9603905	-0.5475416	-0.73126286
252642469565327	-1.0440183	-0.43940067	-0.96377146
252642474509174	-1.0611824	-0.36912727	-1.184993
252642479849751	-1.1463227	-0.31698895	-1.4768173
252642484427387	-1.2827591	-0.27541733	-1.6792173
252642489371235	-1.4504356	-0.21158695	-1.8627596
252642494315083	-1.5599445	-0.15229988	-1.9870667
252642499258930	-1.7444202	-0.026240349	-1.8739876
252642504202778	-1.8682727	0.03097248	-1.7970319
252642509543354	-2.044496	0.003528595	-1.5993412
252642514120991	-2.21285	-0.05142784	-1.4620854
252642519125874	-2.2058158	-0.015022278	-1.3482969
252642524008686	-2.183035	0.14002514	-1.1276538
252642528952534	-2.089031	0.40437698	-0.85358405
252642533896381	-2.0896184	0.70874786	-0.7632158
252642539236958	-2.068749	1.0775452	-0.7178509
252642543814594	-2.1998677	1.4084072	-0.6847962
252642548758442	-2.3038907	1.7819433	-0.8192662
252642553702290	-2.3801656	2.0641603	-1.02149
252642558676655	-2.4667957	2.214736	-0.9324758
252642563620502	-2.5513897	2.2479563	-0.8163333
252642568961079	-2.5818915	2.1359863	-0.6618539
252642573508198	-2.6222606	1.9820166	-0.40828192
252642578482563	-2.548894	1.7947931	-0.35951078
252642583426411	-2.5633683	1.6213713	-0.2803018
252642588370258	-2.5608954	1.4641733	-0.5399194
252642593314106	-2.5959682	1.4919796	-0.76752806
252642598654682	-2.6506462	1.5644808	-1.0557021
252642603232319	-2.740182	1.699954	-1.393061
252642608176167	-2.8272204	1.8488522	-1.6404883
252642613120014	-3.065279	2.0038137	-1.7742963
252642618063862	-3.223487	2.1338816	-1.8157902
252642623007710	-3.3328557	2.1962805	-1.7269051
252642628348286	-3.4360738	2.250371	-1.4567674
252642632925922	-3.5060115	2.3586187	-1.1177307
252642637869770	-3.2016282	2.4608173	-0.7724469
252642642813618	-3.0709636	2.573822	-0.12623417
252642647757465	-2.859521	2.7522297	0.6552453
252642652701313	-2.560173	3.0244074	1.1496953
252642658041889	-2.0377998	3.4988718	1.1497092
252642662619526	-1.4919647	4.0419054	0.7526008
252642667563374	-1.3038634	4.394575	0.19895047
252642672507221	-1.2481381	4.6435347	-0.20191437
252642677451069	-1.3955799	4.879421	0.09577179
252642682394917	-1.7603662	4.8456697	0.6942388
252642687735493	-2.0626216	4.774666	1.141238
252642692313129	-2.1445558	4.5557985	1.1051121
252642697256977	-1.9609351	4.3336697	0.8352611
252642702200825	-1.6378964	4.1144657	0.31892678
252642707181061	-1.1920369	3.848549	0.09330481
252642712124909	-0.62935686	3.4699173	0.20541285
252642717434967	-0.060844183	2.9710503	-0.010404728
252642722012604	0.4337051	2.2975998	-0.1845747
252642726956452	1.0563123	1.806715	-0.19331628
252642731930817	1.7765129	1.5371532	-0.04741524
252642736874664	2.2071755	1.329545	0.19888622
252642741818512	2.500672	1.4096785	0.46492237
252642747159088	3.0266702	1.7345543	0.5955314
252642751706207	3.5000458	2.208211	0.76586604
252642756650055	3.7024882	2.5906382	0.97034657
252642761624420	3.6557183	2.9363317	1.0803843
252642766568268	3.4714856	3.3235245	1.38625
252642771512116	3.3266456	3.7115784	1.4286213
252642776852692	3.1279507	3.8159094	1.4434807
252642781399811	2.8873315	3.916871	1.3843585
252642786374176	2.7365687	3.9837418	1.2732632
252642791318024	2.9343839	4.0106993	0.95397747
252642796261872	2.7704132	3.9027195	0.5108303
252642801205719	2.6902716	3.8168602	0.3982612
252642806546295	2.6593096	3.754363	0.39121413
252642811123932	2.5251725	3.6761045	0.59036934
252642816067780	2.1605422	3.440754	0.94065464
252642821072663	1.709455	3.3308268	1.6241392
252642825955475	1.1103158	3.065256	2.2756205
252642830899323	0.41849512	2.6500206	2.430495
252642836239899	-0.015073895	2.272768	2.4446218
252642840817536	-0.5449604	1.7043667	2.1048536
252642845761383	-0.74023974	1.176527	1.6572742
252642850705231	-0.770365	0.7892904	1.5912161
252642855649079	-0.67198145	0.42564678	1.620161
252642860592926	-0.63568735	-0.04309082	1.7814238
252642865933502	-0.48309553	-0.49054432	2.1282103
252642870511139	-0.12415171	-0.8325138	2.3995726
252642875454987	0.09007311	-1.2252789	2.7227385
252642880398834	0.5884261	-1.4669962	3.2631125
252642885342682	0.76442194	-1.72433	3.5830717
252642890286530	1.1392553	-1.9211836	3.8494883
252642895627106	1.4226881	-2.0615206	3.9577112
252642900204743	1.6658814	-2.2355957	3.8855383
252642905148590	1.9626379	-2.3581905	3.6551838
252642910092438	2.2068946	-2.5060625	3.150806
252642915036286	2.342081	-2.5389729	2.7265644
252642919980133	2.5304232	-2.5879955	2.1177633
252642925320709	2.5586674	-2.6261597	1.8585622
252642929898346	2.6386628	-2.7162952	1.7551379
252642934842194	2.561357	-2.858348	1.8437908
252642939786041	2.45283	-2.9914083	1.739588
252642944729889	2.3318129	-2.9968233	1.568732
252642949673737	2.454857	-2.7894392	1.4166484
252642955014313	2.2572393	-2.8777933	1.4601526
252642959591950	1.8671591	-2.9924374	1.3887997
252642964535797	1.4763274	-3.1535625	1.2688785
252642969479645	1.1933212	-3.133421	1.1233692
252642974423493	0.88947606	-3.139369	1.3300447
252642979367340	0.92122436	-3.0456429	1.4817591
252642984707916	1.0669916	-2.9312449	1.5779028
252642989285553	1.2431726	-2.8494806	1.8596954
252642994229401	1.5592773	-2.9303026	2.1047711
252642999173248	1.6327128	-2.9348698	2.0701137
252643004117096	1.8129287	-2.9797354	2.0940042
252643009060944	2.1868782	-2.9913387	2.1836886
252643014401520	2.460119	-3.0782862	2.32963
252643018979157	2.6888902	-3.102439	2.299891
252643023923004	2.7979634	-3.1805067	2.2624984
252643028866852	2.8887658	-3.2131271	2.0468912
252643033810700	2.9542935	-3.236044	1.864747
252643038754547	2.971185	-3.2850227	1.7203817
252643044095123	2.8825026	-3.3889322	1.5213704
252643048672760	2.731109	-3.5112467	1.2315521
252643053616608	2.5493033	-3.6603775	1.0069633
252643058560456	2.2809386	-3.7742777	0.672801
252643063504303	2.045167	-3.9459267	0.36895514
252643068448151	1.8136042	-4.1017313	0.07588434
252643073788727	1.516248	-4.1317663	-0.14898205
252643078366364	1.2728457	-4.1568995	-0.38361692
252643083310211	1.139498	-4.0802402	-0.51720667
252643088254059	0.97676957	-3.923585	-0.5975456
252643093197907	0.75165987	-3.7366304	-0.5816364
252643098141754	0.4501449	-3.5522728	-0.6474209
252643103482331	0.20156515	-3.3184385	-0.5206399
252643108059967	-0.4295087	-3.1919155	-0.6861601
252643113003815	-0.8382844	-2.895751	-1.0041671
252643117947663	-1.2071819	-2.5360613	-0.9174433
252643122952545	-1.5253109	-2.1366653	-1.0134745
252643127835358	-1.8171741	-1.5456953	-1.1716313
252643133175934	-1.870662	-0.9242029	-1.367352
252643137753571	-2.0309548	-0.19580746	-1.9541135
252643142697418	-2.1557996	0.5481081	-2.376889
252643147671784	-2.1859522	1.2983446	-2.429058
252643152615631	-2.1652403	2.1053963	-2.7327962
252643157559479	-2.2216108	2.8218937	-3.2374418
252643162900055	-2.201404	3.4630327	-3.5697448
252643167447174	-2.1719215	4.0980225	-3.6972332
252643172391022	-2.111877	4.6270237	-3.868477
252643177365387	-2.0979273	5.1132917	-4.202232
252643182309235	-2.0672586	5.530698	-4.3702297
252643187253082	-2.055349	5.755395	-4.335225
252643192563141	-2.18986	5.787075	-4.221967
252643197140778	-2.053223	5.68338	-4.0164785
252643202084625	-1.8839214	5.358075	-3.74835
252643207058991	-1.7848575	4.761324	-3.4303
252643212002838	-1.7201385	3.98347	-3.122669
252643216946686	-1.630599	3.0814838	-2.895106
252643222287262	-1.4283655	2.1007338	-2.7830942
252643226864899	-1.261389	1.1658478	-2.637502
252643231808747	-1.1115606	0.3511734	-2.3951073
252643236752594	-0.9711869	-0.32505798	-2.3829963
252643241696442	-0.9007727	-0.78948784	-2.4465687
252643246640289	-0.7468163	-1.1804094	-2.806947
252643251980866	-0.48726642	-1.1223774	-3.2929797
252643256527985	-0.48612	-0.92566013	-3.6981955
252643261502350	-0.6552087	-0.6524124	-3.869555
252643266446198	-0.72739977	-0.34589577	-3.6818943
252643271390045	-0.5197208	0.23609924	-3.4976652
252643276333893	-0.13261521	1.1026134	-3.2173314
252643281674469	0.38666385	2.3236837	-3.0052316
252643286252106	1.0364473	3.8039646	-2.3667004
252643291195954	1.9258025	5.530773	-0.90596247
252643296139801	3.0556245	7.462225	0.9510882
252643301083649	3.8314242	9.016343	3.1104534
252643306027497	4.855755	10.237548	4.661478
252643311368073	6.148419	10.233898	5.6680064
252643315945709	7.051126	10.204916	5.8843527
252643320889557	7.579955	9.633801	5.7557745
252643325833405	7.011651	7.320878	5.4048467
252643330777252	4.8432846	3.7770824	5.1221285
252643335721100	3.065289	0.2889862	4.7903805
252643341061676	2.648019	-2.2466412	4.4376326
252643345639313	2.722412	-4.2245464	4.1284647
252643350583161	3.0088565	-5.697112	3.9814477
252643355527008	3.1073184	-6.851428	3.8145392
252643360470856	3.298716	-7.6915483	2.5054545
252643365414704	3.364048	-8.16252	0.49898767
252643370755280	3.5681014	-8.082399	-1.1827998
252643375302399	3.55083	-7.740038	-1.9875107
252643380276764	3.234982	-7.311714	-2.0481045
252643385220612	2.8100338	-6.6011715	-1.5580623
252643390164459	2.5125525	-5.747532	-0.45356917
252643395108307	1.7706206	-4.6967115	0.94771147
252643400448883	1.0728843	-3.5739727	2.8228183
252643405026520	0.4048311	-2.3245993	4.89692
252643409970368	-0.108597875	-1.1737785	6.788706
252643414914215	-0.5152394	-0.16867828	8.601558
252643419858063	-0.788935	0.6089668	10.009754
252643424862946	-0.8540722	1.3030815	10.381028
252643430142487	-0.62620854	2.0922594	10.046601
252643434720123	-0.33369207	2.8601532	8.614873
252643439663971	0.23149127	3.5216503	5.93389
252643444607819	0.46684968	3.9045954	3.239513
252643449551666	0.6365807	4.079919	1.2366759
252643454495514	0.46714908	3.968543	0.03392899
252643459836090	0.21437335	3.6072826	-0.43204272
252643464413727	0.023590147	3.241002	-0.30644965
252643469357575	-0.41221124	2.5866117	0.15375698
252643474301422	-0.7312061	1.9330568	0.6193415
252643479245270	-0.95554215	1.1830282	0.9510652
252643484189118	-1.1480548	0.40095997	1.0335406
252643489529694	-1.0375038	-0.22840214	0.9270035
252643494107331	-0.89232445	-0.7338581	0.8409641
252643499051178	-0.8469775	-1.4316559	0.71138
252643503995026	-0.64609855	-1.9262285	0.51150143
252643508938873	-0.38768482	-2.3580933	0.86661005
252643513882721	-0.2933198	-2.717805	1.3338255
252643519223297	-0.31665105	-2.9941692	2.0194063
252643523800934	-0.32729495	-3.0475025	2.6542504
252643528744782	-0.3337108	-2.9321318	3.2568395
252643533688629	-0.26457733	-2.6761332	3.1985688
252643538632477	-0.020788014	-2.3889914	2.8330991
252643543576325	0.30902392	-1.8187084	2.6039386
252643548916901	0.5059725	-1.2869825	2.1117253
252643553494538	0.67994815	-0.9091654	1.4726877
252643558438385	0.6488574	-0.70758533	1.0793769
252643563382233	0.5016116	-0.4439621	0.6260202
252643568326081	0.5096818	-0.12552261	0.26671737
252643573269928	0.33088544	0.00754261	-0.08461538
252643578610504	0.33581057	0.18354225	-0.29959342
252643583188141	0.36792147	0.26974106	-0.43964922
252643588131989	0.12800564	0.15646839	-0.4457466
252643593075836	-0.27327192	-0.015613556	-0.32792822
252643598019684	-0.49123716	-0.27733612	-0.27369642
252643602963532	-0.5029889	-0.46454716	-0.014020234
252643608304108	-0.49351743	-0.6271782	0.06895378
252643612881745	-0.42375594	-0.79402256	-0.03884933
252643617825592	-0.3349389	-0.85311127	0.15046592
252643622769440	-0.45635414	-1.0661726	0.33333915
252643627713288	-0.60679865	-1.1477365	0.50979096
252643632657135	-0.6316636	-1.1740484	0.5728981
252643637997711	-0.72523713	-1.2185755	0.63334215
252643642544831	-0.87520975	-1.282239	0.5995339
252643647488678	-1.007871	-1.2713776	0.589314
252643652463043	-1.076668	-1.2434282	0.4844968
252643657406891	-1.1903963	-1.1437845	0.2521349
252643662350739	-1.2969351	-1.0628424	0.06534332
252643667660797	-1.487968	-1.045268	-0.19561464
252643672238434	-1.5381215	-0.8570633	-0.34543473
252643677182282	-1.5541426	-0.7537699	-0.45493382
252643682156647	-1.5801337	-0.69533825	-0.7062661
252643687100495	-1.4251761	-0.56060886	-0.91051596
252643692013825	-1.3889633	-0.61359215	-1.184317
252643697354401	-1.5495964	-0.77242947	-1.500418
252643701932038	-1.5970706	-0.737154	-1.5936637
252643706875885	-1.5643398	-0.69148636	-1.59413
252643711819733	-1.7160821	-0.55290794	-1.5421958
252643716794098	-1.7214459	-0.3263178	-1.4570501
252643721737946	-1.8292109	-0.10001278	-1.3071425
252643727109039	-1.8908387	0.12917328	-1.2024084
252643731625641	-1.9237036	0.36105156	-1.1123016
252643736569489	-2.1242075	0.5694704	-0.9858942
252643741513336	-2.2963195	0.7227459	-1.0460703
252643746487702	-2.4216633	0.88044834	-1.0668252
252643751401032	-2.3288121	1.0757046	-1.194989
252643756741608	-2.3520184	1.2427139	-1.0427593
252643761319245	-2.4000711	1.3556471	-0.98203444
252643766263092	-2.4851093	1.4139748	-0.71811855
252643771206940	-2.6427603	1.5288095	-0.50336933
252643776150788	-2.7516112	1.6857052	-0.5725336
252643781094635	-2.8377128	1.8821564	-0.74679196
252643786435211	-2.8934946	1.9996567	-0.9078357
252643791012848	-2.8984957	2.172657	-1.0769104
252643795956696	-2.984314	2.250102	-1.1175596
252643800900543	-2.9182587	2.288887	-1.1233351
252643805844391	-2.7409253	2.3128986	-1.1447787
252643810788239	-2.5499115	2.3935232	-1.203724
252643816128815	-2.3914678	2.4048595	-1.4806309
252643820706452	-2.2217903	2.3179426	-1.82639
252643825650299	-1.9916759	2.2807226	-2.1660361
252643830594147	-1.8952365	2.147911	-2.359105
252643835568512	-1.8349303	2.1311426	-2.3004057
252643840481842	-1.8699944	2.094674	-2.1562054
252643845822418	-1.9314351	2.1334343	-1.7204019
252643850400055	-2.1162364	2.147787	-1.1177372
252643855343903	-2.234065	2.2775507	-0.3918259
252643860287750	-2.052021	2.422822	0.121506214
252643865262116	-2.036086	2.490714	0.62811184
252643870205963	-1.7435721	2.7356825	0.7978445
252643875516022	-1.3323818	3.0213833	0.55161875
252643880093659	-0.92217326	3.3780441	0.1646784
252643885037506	-0.7550168	3.6040487	0.062986195
252643889981354	-1.0380543	3.9261398	0.20824349
252643894955719	-1.5323956	4.256262	0.5124281
252643899899567	-1.9722352	4.5114927	1.0444696
252643905209625	-2.3445754	4.612625	1.3788669
252643909787262	-2.393282	4.5963984	1.2643881
252643914731110	-2.3017428	4.457817	0.9103302
252643919674957	-2.0246649	4.248419	0.27707067
252643924649323	-1.6856228	3.9947777	-0.06981906
252643929593170	-1.416604	3.4977856	-0.19286507
252643934903229	-0.9479487	3.0093546	-0.36244282
252643939480866	-0.27534425	2.4890776	-0.4607125
252643944424713	0.48005372	2.094472	-0.42436767
252643949368561	1.3392437	1.8904486	-0.44156408
252643954342926	2.0639088	1.9220076	-0.055832565
252643959286774	2.5314152	2.1008883	0.25231302
252643964596832	2.9457955	2.4699097	0.33315426
252643969174469	3.408308	2.956501	0.36864436
252643974118317	3.5306745	3.3163376	0.7723488
252643979092682	3.5248504	3.6180105	1.1942023
252643984036530	3.509368	3.7827177	1.5529267
252643988980377	3.5134397	3.7271194	1.900217
252643994320954	3.474529	3.597188	2.3165932
252643998868073	3.4326568	3.328082	2.2964957
252644003842438	3.550239	3.2057056	2.1134732
252644008786286	3.6058226	3.1979208	1.8199474
252644013730133	3.5958369	3.1359406	1.3986394
252644018673981	3.419022	3.2220507	0.9981283
252644024014557	3.2309375	3.3933048	0.71029174
252644028653229	2.794119	3.4229603	0.5995033
252644033536041	2.4094129	3.4807444	0.78355515
252644038479889	1.9332461	3.6353226	1.3102856
252644043423737	1.361892	3.6536732	1.7537096
252644048367584	0.64953244	3.4340467	1.7059948
252644053708161	-0.04903215	3.021861	1.4880002
252644058285797	-0.59971404	2.5586271	1.1956997
252644063229645	-0.77793586	2.116746	1.1468589
252644068173493	-0.529915	1.6700172	1.5110765
252644073117340	-0.41103065	1.2371063	1.9116557
252644078091706	-0.1378082	0.72051334	2.2702904
252644083401764	0.045173764	0.1795311	2.6942139
252644087979401	0.20548129	-0.40309143	2.8217232
252644092923248	0.41380763	-0.70802593	3.1417418
252644097867096	0.69039226	-1.014082	3.2795904
252644102841461	0.9620758	-1.2996988	3.456976
252644107785309	1.1975077	-1.6177521	3.651182
252644113095368	1.5037217	-1.8105211	3.6976266
252644117673004	1.8708082	-2.0679502	3.7104533
252644122647370	2.2442818	-2.3119411	3.6829498
252644127591217	2.5391514	-2.4913044	3.4008546
252644132535065	2.732533	-2.6272802	3.0787687
252644137478913	2.8107936	-2.6986322	2.8065975
252644142819489	2.8863893	-2.778346	2.764006
252644147366608	2.8898792	-3.0099096	2.6207654
252644152340973	2.9196153	-3.1214762	2.502087
252644157284821	2.7493584	-3.190875	2.3476872
252644162228668	2.7433102	-3.0873718	2.3099341
252644167172516	2.6254895	-3.1704407	2.438212
252644172513092	2.4358022	-3.4036932	2.2574406
252644177090729	2.1348262	-3.5415325	2.2291298
252644182034577	1.8386543	-3.6139202	2.1069207
252644186978424	1.5934806	-3.7047863	2.116125
252644191922272	1.5154593	-3.6884089	1.9591823
252644196866120	1.4685504	-3.7196627	2.0428276
252644202206696	1.564928	-3.7085314	2.0163164
252644206784332	1.6839991	-3.779869	2.0215535
252644211728180	1.8815279	-3.7426538	2.1042676
252644216672028	2.1092114	-3.8103857	2.0926514
252644221615875	2.2598262	-3.8260603	2.1724072
252644226559723	2.4997554	-3.7778463	2.2104611
252644231900299	2.5639167	-3.7767239	2.14005
252644236477936	2.6283607	-3.7843924	2.1868672
252644241421784	2.7302089	-3.810995	2.1273355
252644246365631	2.7158186	-3.7644596	2.0787644
252644251309479	2.7256205	-3.8969965	1.9410424
252644256253327	2.7028332	-3.9255629	1.7234159
252644261593903	2.5500417	-4.0031347	1.6848822
252644266171539	2.4116173	-4.04667	1.2282791
252644271115387	2.1177852	-4.0823517	0.94782305
252644276059235	1.9026828	-4.076104	0.59583473
252644281033600	1.6212536	-4.0733423	0.23132038
252644285946930	1.4078728	-4.068939	0.032607555
252644291287506	1.108271	-4.0012493	-0.3126688
252644295865143	0.901132	-3.8775225	-0.44211245
252644300808991	0.4187063	-3.8946629	-0.8466749
252644305752838	-0.14691186	-3.7575731	-1.0667586
252644310727204	-0.40119302	-3.4426832	-1.2050405
252644315671051	-0.7168963	-3.0824118	-1.1439276
252644320981110	-1.0620719	-2.7270546	-1.1043973
252644325558747	-1.4082099	-2.2522192	-0.8893275
252644330563629	-1.767441	-1.7884521	-0.9341202
252644335446442	-1.937075	-1.2350655	-0.8840995
252644340390289	-2.0573637	-0.59769154	-0.9873991
252644345364655	-2.1398566	0.024656296	-1.7410028
252644350674713	-2.1493106	0.6635809	-1.9629569
252644355252350	-2.1789541	1.2191935	-2.237612
252644360196198	-2.1659594	1.8105831	-2.6081214
252644365170563	-2.049711	2.45409	-2.7493918
252644370114411	-2.1671066	3.0263042	-3.0865364
252644375058258	-2.377791	3.486701	-3.5576093
252644380368317	-2.4565148	3.952961	-3.9792316
252644384945954	-2.631652	4.3662558	-3.9921098
252644389889801	-2.7932696	4.65913	-4.0042324
252644394864166	-2.83611	4.8610477	-4.0095644
252644399808014	-2.8924015	4.9222107	-3.7300541
252644404751862	-2.9851913	4.8260317	-3.603849
252644410092438	-2.980103	4.6318445	-3.3458552
252644414639557	-2.8495219	4.2806664	-3.030396
252644419583405	-2.6363275	3.805519	-2.636198
252644424557770	-2.35074	3.2611666	-2.5038521
252644429501618	-2.099793	2.6498356	-2.4576972
252644434445465	-1.8175223	2.1305819	-2.6861236
252644439786041	-1.440214	1.689003	-2.801272
252644444333161	-1.1353884	1.3351955	-2.947101
252644449277008	-0.78952855	1.0961313	-3.1596627
252644454251373	-0.51585823	0.994709	-3.4760628
252644459195221	-0.2936477	0.980464	-3.9040475
252644464139069	-0.17093104	1.148037	-4.1612844
252644469449127	-0.08267707	1.2590733	-4.1492524
252644474026764	0.12609226	1.4321203	-4.0798025
252644478970612	0.3660738	1.6405058	-3.8574789
252644483944977	0.5617883	1.9862995	-3.463375
252644488888825	1.1112659	2.6237803	-2.9594426
252644493832672	1.7819415	3.5334778	-1.8465068
252644499142731	2.5750704	4.533474	-0.55784345
252644503720368	3.4990625	5.6084766	0.9946153
252644508664215	4.525237	6.4633217	2.451738
252644513638581	5.519076	7.100503	3.7095573
252644518582428	6.454074	7.490754	4.6786833
252644523526276	7.5391912	7.704176	5.04278
252644528836334	8.395046	7.5719986	4.887532
252644533413971	8.381644	6.7694664	4.0539594
252644538357819	8.090619	5.394803	3.261209
252644543301666	5.6621737	2.797205	2.7506845
252644548276032	3.541126	0.12525654	2.5421603
252644553219879	2.634862	-1.8971004	2.270753
252644558529938	2.2664857	-3.6786118	2.0653162
252644563107575	1.7998053	-5.242591	2.0944817
252644568051422	1.4820876	-6.4434404	2.555632
252644573025788	1.391026	-7.247409	2.8434777
252644577969635	1.4703342	-7.6373844	2.8171387
252644582913483	1.9383502	-7.58457	2.5184627
252644588223541	2.309668	-7.2063084	2.1943197
252644592801178	2.3570645	-6.733639	1.9144723
252644597745026	2.2828517	-6.145603	1.6878221
252644602688873	2.221961	-5.416069	1.6933968
252644607663239	1.8951933	-4.3866787	1.8517745
252644612607086	1.5995724	-3.2151604	2.312478
252644617917145	1.2215682	-1.9627094	3.1046367
252644622494782	0.87256	-0.675951	4.2566566
252644627438629	0.67545533	0.3871889	5.0644364
252644632474030	0.5831729	1.2522354	5.9938097
252644637356842	0.36809123	1.8142891	6.69649
252644642300690	0.09564155	2.121275	6.8781934
252644647610748	-0.08678913	2.446538	6.3698997
252644652188385	-0.049513817	2.7212257	5.0367117
252644657132233	0.04603201	2.9009447	3.0486114
252644662076081	0.08656281	2.9512386	1.2827384
252644667050446	0.03536141	2.8691673	0.26534867
252644671994293	0.12539548	2.7328882	0.10179329
252644677304352	-0.14881277	2.4697247	0.522498
252644681881989	-0.46159285	2.0686417	1.334686
252644686825836	-0.9531742	1.5578394	1.959494
252644691769684	-1.0272241	1.1408644	2.308312
252644696744049	-1.0325332	0.6536808	2.2875261
252644701687897	-0.8793722	0.22975063	2.1347642
252644706997956	-0.5607231	-0.09623337	1.9522536
252644711575592	-0.34817594	-0.5265293	1.9469343
252644716519440	-0.12005937	-1.049201	1.7708342
252644721493805	0.096289635	-1.4946432	1.6899787
252644726437653	0.23657265	-1.9721842	1.793368
252644731381500	0.2719101	-2.3249426	1.8951505
252644736691559	0.25032967	-2.5845728	2.073947
252644741269196	0.1972523	-2.6949263	2.1672142
252644746213043	0.36208758	-2.486683	2.3230393
252644751187409	0.23714495	-2.5113087	1.7227066
252644756131256	0.33430013	-2.390421	1.3736117
252644761075104	0.38442308	-2.0909462	1.0850339
252644766385163	0.257162	-1.7442255	0.9997959
252644770962799	0.1381095	-1.4491091	0.7355805
252644775906647	0.001751557	-1.1923342	0.5314495
252644780881012	-0.22583018	-0.99491215	0.41968873
252644785824860	-0.1544266	-0.7045536	0.34401655
252644790768707	0.074964985	-0.5282097	0.32810724
252644796109284	0.21691996	-0.4349861	0.28910077
252644800656403	0.35200274	-0.37909317	0.3503057
252644805630768	0.35276872	-0.48699665	0.43813664
252644810574616	0.31080627	-0.6085396	0.29649842
252644815518463	0.068836324	-0.94105434	0.13222477
252644820462311	0.016374312	-1.1680908	0.22121684
252644825802887	-0.029052332	-1.3539076	0.4973807
252644830380524	-0.034543052	-1.4773207	0.575665
252644835324372	-0.10948224	-1.5834064	0.6490155
252644840268219	-0.1007337	-1.6199322	0.5761394
252644845212067	-0.2861896	-1.6392832	0.5496192
252644850155914	-0.34909767	-1.5867968	0.54767275
252644855496491	-0.38388017	-1.419466	0.6567118
252644860043610	-0.48751453	-1.2976007	0.7164309
252644865017975	-0.7269341	-1.1774569	0.6755397
252644869961823	-0.94970244	-0.9619322	0.6742315
252644874905670	-1.0942686	-0.670166	0.5174868
252644879849518	-1.3841072	-0.46870422	0.2533304
252644885190094	-1.6900523	-0.29517365	-0.1730926
252644889767731	-1.9922025	-0.24614143	-0.5172252
252644894711579	-2.0863402	-0.17269897	-0.6898342
252644899655426	-2.2322426	-0.21328068	-0.997578
252644904599274	-2.2844334	-0.20375156	-1.0198207
252644909543122	-2.352123	-0.22501183	-1.0880069
252644914883698	-2.4011123	-0.36438942	-1.105052
252644919461334	-2.4885068	-0.4118433	-1.1512314
252644924405182	-2.4827323	-0.4442911	-1.1616015
252644929349030	-2.5964136	-0.35766983	-1.2204605
252644934353913	-2.5919552	-0.16628647	-1.0434523
252644939236725	-2.588972	0.079527855	-0.7349524
252644944577301	-2.651423	0.3212223	-0.50357026
252644949154938	-2.6178317	0.5021143	-0.2838351
252644954098786	-2.4901276	0.6883831	-0.14044482
252644959042633	-2.3231928	0.8580332	-0.18429852
252644963986481	-2.1936116	0.9445267	-0.34326875
252644968930329	-2.020977	1.0216703	-0.40026307
252644974270905	-1.775178	1.294714	-0.3151492
252644978848541	-1.5584123	1.5328035	-0.29388773
252644983792389	-1.4280242	1.7427626	-0.34874976
252644988736237	-1.2577403	1.8666382	-0.44697928
252644993680084	-1.2946962	1.9994631	-0.7066122
252644998623932	-1.2911432	2.1102123	-0.89425707
252645003964508	-1.2590154	2.199523	-1.0664086
252645008542145	-1.4398204	2.1680927	-1.0559907
252645013485993	-1.3887283	2.2199192	-1.0456213
252645018429840	-1.40754	2.266386	-1.13481
252645023373688	-1.4291999	2.3098574	-1.1361327
252645028317536	-1.4627663	2.3693113	-1.1499649
252645033658112	-1.59754	2.402256	-1.0485084
252645038235748	-1.7255892	2.4385414	-1.2336186
252645043179596	-1.908406	2.5052166	-1.3655539
252645048123444	-2.075338	2.5306091	-1.6917341
252645053067291	-2.2358117	2.6145878	-2.0407438
252645058011139	-2.463541	2.5335617	-2.357621
252645063351715	-2.5734115	2.4517527	-2.4895396
252645067929352	-2.649087	2.3098116	-2.4273794
252645072873200	-2.605206	2.2574186	-2.3101025
252645077817047	-2.5851288	2.1519184	-1.9616796
252645082760895	-2.6152875	2.0456867	-1.422301
252645087704743	-2.5342708	2.0148115	-0.9602779
252645093045319	-2.5529845	2.001689	-0.40658092
252645097622956	-2.2893043	2.209672	0.08859229
252645102597321	-2.177374	2.3517103	0.26329148
252645107541168	-1.9085152	2.6922998	0.28415275
252645112485016	-1.6937397	3.029046	0.37262094
252645117428864	-1.5607497	3.2193089	0.36441505
252645122769440	-1.6202456	3.312314	0.304399
252645127316559	-1.8295355	3.4489841	0.23048013
252645132290924	-2.0776343	3.6074429	0.2715336
252645137234772	-2.2399464	3.7105885	0.47903055
252645142178620	-2.352428	3.711052	0.82317454
252645147122467	-2.3703475	3.6210566	0.88878435
252645152463043	-2.1229908	3.4161406	0.9127292
252645157010163	-1.7038956	3.1095304	0.9884131
252645161984528	-1.1863654	2.7435026	0.8495235
252645166928375	-0.6029352	2.326933	0.39051545
252645171872223	0.15556848	1.9124403	0.12204211
252645176816071	0.9339185	1.5834837	-0.08843256
252645182156647	1.680308	1.3421268	-0.10128333
252645186734284	2.2508934	1.1966639	0.13646016
252645191678131	2.595509	1.3765469	0.3722513
252645196621979	2.8485017	1.6773396	0.35412568
252645201565827	3.349577	2.213007	0.39808255
252645206509674	3.5685406	2.762041	0.4293719
252645211850250	3.4076982	3.1846027	1.0606673
252645216427887	3.2129185	3.554819	1.6688446
252645221371735	3.114793	3.9598484	1.814734
252645226315582	2.9106944	4.168144	1.847509
252645231259430	2.7176676	4.196224	2.0037334
252645236264313	2.5108533	4.174943	1.9510164
252645241543854	2.4505765	4.1690016	1.6910789
252645246121491	2.7375147	4.1852636	1.1177144
252645251065338	2.8755736	4.112335	0.45703435
252645256009186	3.0719647	4.1040325	-0.07031059
252645260983551	3.021932	4.0844316	-0.3279227
252645265927399	3.0134704	3.9466343	-0.25437677
252645271237457	2.6060896	3.711443	0.10800874
252645275815094	2.104387	3.6086292	0.6423614
252645280758942	1.2843859	3.192688	0.9697633
252645285733307	0.74339634	2.6938438	1.0830665
252645290677155	0.22524941	2.1667786	1.1183343
252645295621002	-0.22168946	1.5807714	1.1147943
252645300931061	-0.36028397	1.0900669	1.1131792
252645305508698	-0.2876892	0.5596113	1.2857306
252645310452545	0.0034976006	0.1309843	1.6077704
252645315426911	0.21197093	-0.37175655	1.8440001
252645320370758	0.4527123	-0.6710768	2.4617069
252645325314606	0.7072302	-0.91935444	2.8308954
252645330655182	0.82052255	-1.258771	3.1556234
252645335202301	0.810506	-1.345705	3.4162018
252645340176666	0.8886913	-1.5117512	3.8523726
252645345120514	1.0124781	-1.5960855	4.021882
252645350064362	1.1988885	-1.729351	4.2560787
252645355008209	1.3268874	-1.8496933	4.4643474
252645360348786	1.64744	-1.8683109	4.375592
252645364926422	1.8490393	-1.9921665	3.9638002
252645369870270	2.2077577	-2.15724	3.4875789
252645374814118	2.348285	-2.273882	3.0603662
252645379757965	2.3954277	-2.3542528	2.7713006
252645384701813	2.4068139	-2.4723854	2.6216474
252645390042389	2.4862173	-2.5394688	2.2781477
252645394620026	2.604863	-2.658659	2.1541748
252645399563873	2.7267644	-2.7872171	2.0200634
252645404538239	2.422855	-2.90209	1.7337184
252645409482086	2.5042138	-2.7045155	1.5150285
252645414425934	2.4284	-2.744174	1.6064119
252645419766510	2.2179122	-2.9277382	1.5302391
252645424344147	1.9650567	-3.12076	1.4173093
252645429287995	1.6429758	-3.2749205	1.4189696
252645434231842	1.3917654	-3.283515	1.4825101
252645439175690	1.3275449	-3.2942438	1.5343046
252645444119538	1.3664095	-3.2953272	1.6387935
252645449460114	1.610054	-3.2516136	1.7356448
252645454037750	1.8090801	-3.1946602	1.8646269
252645458981598	2.0340214	-3.1718082	2.004727
252645463925446	2.2468994	-3.2369099	2.2861357
252645468899811	2.4449732	-3.2614355	2.3928323
252645473813141	2.6803396	-3.2814322	2.474379
252645479153717	2.8058646	-3.407755	2.5976162
252645483731354	2.9352534	-3.4711819	2.466753
252645488675202	2.985563	-3.5320015	2.3700042
252645493649567	3.0534542	-3.6217127	2.3554854
252645498593414	2.9968243	-3.7380047	2.1302037
252645503537262	2.925284	-3.8333445	1.9319925
252645508877838	2.776933	-3.9322062	1.5656853
252645513455475	2.5970724	-4.020608	1.1427689
252645518399323	2.2659516	-4.107973	0.69596195
252645523343170	1.934503	-4.1579227	0.34393787
252645528287018	1.5815376	-4.191989	0.031564236
252645533230866	1.3212343	-4.1959925	-0.30802822
252645538632477	1.1473405	-4.101099	-0.8586693
252645543149079	0.6768582	-4.125661	-0.79781246
252645548092926	0.37454545	-3.967928	-1.0225425
252645553036774	0.10350132	-3.751258	-1.0248556
252645557980622	-0.17199016	-3.4895964	-1.0042405
252645562924469	-0.40907192	-3.1634235	-0.9480405
252645568265045	-0.7538327	-2.8135004	-0.82260036
252645572842682	-1.0869979	-2.4154272	-0.6422467
252645577786530	-1.2852137	-1.9755745	-0.67544174
