gyroscope_timestamp	gyroscope_x_data	gyroscope_y_data	gyroscope_z_data
1443280185635431269	-1.941864	0.0970459	1.7129211
1443280185639459589	-1.9113007	0.18011475	1.7373657
1443280185642663935	-1.8697662	0.33772278	1.7581329
1443280185649530390	-1.8380127	0.5527344	1.7874603
1443280185654413203	-1.8380127	0.7665405	1.8314362
1443280185659601191	-1.8807678	0.9143677	1.8778687
1443280185664453486	-1.9528656	0.9693451	1.9120789
1443280185669519404	-2.0249329	0.9485779	1.9218445
1443280185674554804	-2.0701294	0.88749695	1.8998413
1443280185679712275	-2.067688	0.8288574	1.8473206
1443280185685235956	-2.0114899	0.8019867	1.7691345
1443280185689813593	-1.9137421	0.8141937	1.6762695
1443280185692987421	-1.9137421	0.84962463	1.6762695
1443280185699853876	-1.6791687	0.84962463	1.4844666
1443280185704980830	-1.5716705	0.9326935	1.4026031
1443280185709985712	-1.5716705	0.9937897	1.4026031
1443280185714807490	-1.4776001	0.9937897	1.3378601
1443280185719934443	-1.3994141	1.0805359	1.293869
1443280185724878290	-1.3407593	1.1941528	1.2755432
1443280185729944208	-1.2992249	1.3383179	1.2865448
1443280185735895136	-1.2674713	1.5105896	1.3231964
1443280185740137080	-1.2418213	1.6987152	1.3769531
1443280185743371943	-1.2161407	1.8819885	1.4331665
1443280185750268915	-1.1880493	2.0395966	1.4820251
1443280185755121210	-1.1575165	2.1654205	1.5162354
1443280185760370234	-1.1233063	2.2631683	1.5370026
1443280185765161494	-1.0854187	2.338913	1.5467682
1443280185772058466	-1.0402222	2.3926697	1.5455475
1443280185775232294	-0.9864807	2.4195404	1.5296783
1443280185781610468	-0.91926575	2.412201	1.4979095
1443280185785821894	-0.8410797	2.3755646	1.4539337
1443280185791131953	-0.7506714	2.3218079	1.4026031
1443280185793725947	-0.7506714	2.2631683	1.4026031
1443280185800806025	-0.5332184	2.2631683	1.2975464
1443280185805383662	-0.5332184	2.1483154	1.2975464
1443280185810480097	-0.40370178	2.1483154	1.2376862
1443280185815668085	-0.26319885	2.089676	1.1704712
1443280185821374872	-0.120269775	2.0298004	1.1008453
1443280185825647333	0.020217896	1.9785004	1.0275421
1443280185830621699	0.15704346	1.9394073	0.9517822
1443280185836206415	0.29144287	1.9076385	0.87239075
1443280185840692499	0.42582703	1.8661041	0.79174805
1443280185844232539	0.56266785	1.8050232	0.7111206
1443280185850763300	0.69828796	1.7268372	0.6329346
1443280185855829218	0.83143616	1.638855	0.5547333
1443280185860834101	0.9572754	1.5435638	0.47654724
1443280185865900019	1.0757904	1.4360504	0.39224243
1443280185871850947	1.1894073	1.3151093	0.2993927
1443280185876123408	1.3018036	1.1807098	0.20043945
1443280185881006220	1.4142151	1.0377655	0.10513306
1443280185886072138	1.5241699	0.89849854	0.022064209
1443280185891046503	1.6316681	0.7726593	-0.042678833
1443280185894403437	1.6316681	0.66270447	-0.042678833
1443280185901147822	1.7367401	0.66270447	-0.095214844
1443280185906183222	1.8344727	0.57229614	-0.14163208
1443280185911371210	1.9126587	0.49899292	-0.18682861
1443280185916254023	1.956665	0.44889832	-0.23327637
1443280185921319941	1.9505463	0.4269104	-0.28457642
1443280185926324824	1.8858032	0.4391327	-0.34199524
1443280185931512812	1.7623901	0.48677063	-0.40307617
1443280185936914423	1.5815735	0.57351685	-0.460495
1443280185941431025	1.3494568	0.7030182	-0.5044861
1443280185944787958	1.073349	0.87039185	-0.5191498
1443280185951623896	0.7789154	1.0622101	-0.49594116
1443280185956994990	0.49424744	1.2466888	-0.4311676
1443280185961755732	0.24378967	1.3847351	-0.33589172
1443280185967401484	0.0385437	1.4482574	-0.22471619
1443280185971521357	-0.12271118	1.4384918	-0.10498047
1443280185976861933	-0.2436676	1.381073	0.019607544
1443280185981866816	-0.33406067	1.302887	0.14790344
1443280185986658076	-0.40248108	1.2234802	0.2774048
1443280185991937617	-0.4537964	1.1562805	0.3983612
1443280185996271113	-0.4537964	1.1208496	0.3983612
1443280186002008417	-0.4928894	1.1208496	0.5046387
1443280186006921747	-0.517334	1.1257324	0.5913849
1443280186012079218	-0.5270996	1.162384	0.6524658
1443280186016962031	-0.5185394	1.2124786	0.686676
1443280186021997431	-0.490448	1.2601318	0.701355
1443280186027032831	-0.44647217	1.294342	0.7037964
1443280186032220820	-0.397583	1.3114319	0.70744324
1443280186037683466	-0.34872437	1.3089905	0.7196808
1443280186042261103	-0.29985046	1.2919006	0.74165344
1443280186045495966	-0.23754883	1.2576904	0.77098083
1443280186052362421	-0.14958191	1.1990356	0.78930664
1443280186057245234	-0.031066895	1.1061859	0.77830505
1443280186062402705	0.111846924	0.97058105	0.7184448
1443280186067285517	0.27067566	0.7934265	0.6072693
1443280186072351435	0.4368286	0.57962036	0.45089722
1443280186077386835	0.5968628	0.331604	0.26029968
1443280186082544306	0.72514343	0.044525146	0.048934937
1443280186088312128	0.7789154	-0.28411865	-0.16362
1443280186092645624	0.7080536	-0.6432953	-0.34321594
1443280186095849970	0.7080536	-0.99760437	-0.34321594
1443280186102716425	0.479599	-0.99760437	-0.44828796
1443280186107568720	0.10574341	-1.2859344	-0.44340515
1443280186113916376	-0.8251953	-1.4423218	-0.04512024
1443280186117639521	-0.8251953	-1.2492828	-0.04512024
1443280186123163203	-1.1856079	-1.2492828	0.3201599
1443280186127923945	-1.3358765	-0.99760437	0.7318878
1443280186132898310	-1.2136993	-0.7996826	1.0996246
1443280186137872675	-0.8337555	-0.7508087	1.3366394
1443280186143091181	-0.31573486	-0.842453	1.3952789
1443280186146173456	0.16072083	-0.97805786	1.2865448
1443280186152917841	0.44903564	-1.0562439	1.0434265
1443280186157953242	0.5211334	-1.0452576	0.6903534
1443280186162988642	0.47348022	-0.99516296	0.24565125
1443280186168176630	0.45515442	-0.9988251	-0.24180603
1443280186173669794	0.57977295	-1.1430054	-0.68774414
1443280186178247431	0.86442566	-1.4728546	-1.0127106
1443280186183160761	1.2370605	-1.9688721	-1.1849823
1443280186188196162	1.588913	-2.5552979	-1.2375183
1443280186193201044	1.588913	-3.118515	-1.2363129
1443280186196710566	1.8393555	-3.5448914	-1.2363129
1443280186203271845	1.9529877	-3.5448914	-1.2387543
1443280186208368281	1.917572	-3.7452545	-1.2766113
1443280186213342646	1.7453003	-3.6768494	-1.3474731
1443280186218347529	1.4911652	-3.3469696	-1.4268799
1443280186224298456	1.2407227	-2.8130798	-1.4842987
1443280186228601435	1.0708923	-2.1814575	-1.4891968
1443280186233484247	0.993927	-1.5901489	-1.4146729
1443280186238550165	0.95851135	-1.1710968	-1.2546387
1443280186243585566	0.914505	-0.98661804	-1.042038
1443280186247064570	0.85588074	-1.0024872	-0.8453522
1443280186253778437	0.8204498	-1.1148834	-0.72439575
1443280186258630732	0.85343933	-1.2223969	-0.68774414
1443280186263849238	0.96951294	-1.2798309	-0.69506836
1443280186268732050	1.1515198	-1.3005981	-0.6963043
1443280186273767451	1.3604431	-1.3140411	-0.66329956
1443280186278741816	1.5583649	-1.3396912	-0.6071167
1443280186283838251	1.7184143	-1.3726654	-0.5558014
1443280186290369013	1.8283691	-1.398346	-0.53015137
1443280186293878535	1.8283691	-1.3995514	-0.53015137
1443280186297265986	1.8918915	-1.3995514	-0.5386963
1443280186304132441	1.916336	-1.3653412	-0.5802307
1443280186308954218	1.9151001	-1.2847137	-0.64253235
1443280186314233759	1.8980103	-1.1564178	-0.718277
1443280186319086054	1.8748016	-0.99150085	-0.7964783
1443280186324151972	1.8491516	-0.80700684	-0.8734436
1443280186329156855	1.8210449	-0.62376404	-0.9430847
1443280186334314326	1.7929382	-0.466156	-1.0053864
1443280186339654902	1.7636261	-0.35009766	-1.0603638
1443280186344446162	1.7245331	-0.28656006	-1.1092377
1443280186348169306	1.6707611	-0.27555847	-1.1556549
1443280186354455927	1.5986938	-0.30732727	-1.1984253
1443280186359338740	1.5168304	-0.3647461	-1.2350769
1443280186364526728	1.4325409	-0.4295044	-1.2607269
1443280186369470576	1.3543396	-0.48936462	-1.2717285
1443280186374444941	1.2883606	-0.5394592	-1.2705078
1443280186379510859	1.2382813	-0.584671	-1.2582855
1443280186384668330	1.2004089	-0.6274109	-1.2363129
1443280186390192011	1.1637573	-0.66897583	-1.2118683
1443280186394739130	1.1637573	-0.7019501	-1.2118683
1443280186397973994	1.1185455	-0.7019501	-1.1923065
1443280186404840449	1.0684509	-0.7202759	-1.1825409
1443280186409723261	1.0232544	-0.723938	-1.1800995
1443280186414941767	0.9914856	-0.723938	-1.1752167
1443280186419763544	0.97195435	-0.73127747	-1.1654358
1443280186424859980	0.9572754	-0.7508087	-1.1507721
1443280186429864863	0.9438324	-0.7801361	-1.1312256
1443280186435052851	0.93162537	-0.8058014	-1.1116791
1443280186440698603	0.9230652	-0.82289124	-1.0884705
1443280186446039179	0.9169769	-0.8326721	-1.0615997
1443280186456323603	0.88764954	-0.8497772	-1.0139465
1443280186460046747	0.8668823	-0.868103	-1.0053864
1443280186465723017	0.84976196	-0.8974304	-1.0127106
1443280186470117548	0.8351135	-0.9352875	-1.0371552
1443280186475183466	0.82167053	-0.96461487	-1.0786896
1443280186480401972	0.81188965	-0.96585083	-1.1336823
1443280186485254267	0.80944824	-0.9291992	-1.1947479
1443280186490350703	0.80944824	-0.85466003	-1.1947479
1443280186495355585	0.8143463	-0.85466003	-1.2570801
1443280186498682001	0.82777405	-0.7520447	-1.3096008
1443280186505426386	0.84976196	-0.63597107	-1.343811
1443280186510309199	0.875412	-0.52601624	-1.3511353
1443280186515466669	0.902298	-0.4466095	-1.3328094
1443280186520593622	0.9230652	-0.42216492	-1.2937164
1443280186526025751	0.93162537	-0.4649353	-1.2448425
1443280186530755976	0.9181824	-0.571228	-1.1923065
1443280186535608271	0.88153076	-0.723938	-1.1410065
1443280186540674189	0.82411194	-0.8925476	-1.0896912
1443280186545648554	0.7532654	-1.0415802	-1.0395966
1443280186549158076	0.6750488	-1.138092	-0.99194336
1443280186555749872	0.59198	-1.1613312	-0.9492035
1443280186560754755	0.505249	-1.1112366	-0.9100952
1443280186565820673	0.42462158	-0.9988251	-0.8722229
1443280186571008662	0.35620117	-0.84854126	-0.8319092
1443280186576807001	0.30610657	-0.6909485	-0.7818146
1443280186581109980	0.2694397	-0.55656433	-0.72195435
1443280186585931757	0.2694397	-0.4649353	-0.65597534
1443280186591791132	0.21690369	-0.4649353	-0.5912323
1443280186596002558	0.21690369	-0.39530945	-0.5912323
1443280186599512080	0.19125366	-0.39530945	-0.5313568
1443280186606073359	0.16072083	-0.3940735	-0.4788208
1443280186612268427	0.12773132	-0.4013977	-0.42996216
1443280186616388300	0.099624634	-0.4123993	-0.38352966
1443280186622308710	0.08129883	-0.42216492	-0.33955383
1443280186626153925	0.0715332	-0.43196106	-0.29678345
1443280186632135371	0.06297302	-0.44293213	-0.256485
1443280186636438349	0.04586792	-0.45516968	-0.22103882
1443280186641809443	0.014099121	-0.4759369	-0.18927002
1443280186646509150	-0.03718567	-0.50891113	-0.15505981
1443280186649774531	-0.11048889	-0.54922485	-0.11352539
1443280186656579951	-0.20210266	-0.5883179	-0.06100464
1443280186661493281	-0.30596924	-0.6188812	0.008636475
1443280186666711787	-0.41226196	-0.6408539	0.09536743
1443280186671564081	-0.5222168	-0.64941406	0.20288086
1443280186676629999	-0.64315796	-0.64208984	0.3287201
1443280186681634882	-0.7787628	-0.60543823	0.46922302
1443280186686792353	-0.7787628	-0.532135	0.6231384
1443280186692193964	-1.0634308	-0.532135	0.78686523
1443280186696893671	-1.0634308	-0.25968933	0.78686523
1443280186700159052	-1.2076111	-0.25968933	0.96157837
1443280186706933955	-1.3652039	-0.064208984	1.141159
1443280186712060908	-1.5509033	0.15568542	1.3256378
1443280186717065790	-1.7647095	0.3792572	1.5089111
1443280186721918085	-1.9882813	0.57962036	1.6799469
1443280186726861933	-2.1910858	0.7384491	1.827774
1443280186732202509	-2.338913	0.8545227	1.9438477
1443280186737146357	-2.4219818	0.93759155	2.0317993
1443280186741968134	-2.4537506	1.0047913	2.098999
1443280186747247675	-2.457428	1.0634155	2.1490936
1443280186750452021	-2.457428	1.1208496	2.1490936
1443280186757257441	-2.445221	1.1208496	2.175949
1443280186762140253	-2.4268646	1.2772217	2.138092
1443280186767297724	-2.3926697	1.3908539	2.0672302
1443280186772241572	-2.338913	1.5081482	1.9707031
1443280186778345087	-2.2729492	1.5875397	1.849762
1443280186782312372	-2.2729492	1.5838928	1.7055969
1443280186788415888	-2.1568756	1.5838928	1.5479889
1443280186793359736	-2.1251068	1.2760162	1.3928375
1443280186798242548	-2.1251068	1.0231171	1.2657776
1443280186800836542	-2.1055756	1.0231171	1.2657776
1443280186808008173	-2.0908966	0.7592163	1.1839142
1443280186812524775	-2.0774689	0.51364136	1.1521454
1443280186817804316	-2.059143	0.30718994	1.163147
1443280186822778681	-2.028595	0.15690613	1.2083588
1443280186827569941	-1.980957	0.067733765	1.2804413
1443280186832849482	-1.9198608	0.032302856	1.3671875
1443280186837701777	-1.8538818	0.04574585	1.4539337
1443280186842798212	-1.7866974	0.115371704	1.5308838
1443280186847772578	-1.7243805	0.24241638	1.6029663
1443280186851129511	-1.7243805	0.4061432	1.6029663
1443280186857843378	-1.6718445	0.4061432	1.7483673
1443280186862909296	-1.6950531	0.6639252	1.8118896
1443280186867944697	-1.7341766	0.7017975	1.8534241
1443280186873132685	-1.770813	0.69203186	1.8644257
1443280186878503779	-1.7891388	0.65904236	1.8387756
1443280186883203486	-1.7891388	0.62849426	1.7727966
1443280186888055781	-1.7744751	0.62849426	1.7727966
1443280186893793085	-1.7207336	0.62239075	1.552887
1443280186898126581	-1.6351929	0.6480408	1.552887
1443280186901514033	-1.5399017	0.7005768	1.4331665
1443280186908227900	-1.4482727	0.7665405	1.3256378
1443280186913171747	-1.3652039	0.8361969	1.2315674
1443280186918298701	-1.2882385	0.91316223	1.1558228
1443280186923456171	-1.2247009	1.0059967	1.097168
1443280186928796747	-1.1794891	1.1171875	1.0568695
1443280186933588007	-1.1538391	1.2430115	1.0287628
1443280186938562372	-1.1391907	1.3737488	1.0140991
1443280186943353632	-1.1233063	1.5093536	1.010437
1443280186948511103	-1.1013031	1.6474152	1.0177612
1443280186951990107	-1.1013031	1.7805786	1.0177612
1443280186958734492	-1.0426636	1.7805786	1.04953
1443280186964227656	-1.0084534	1.9785004	1.0641937
1443280186968835810	-0.9681549	2.0237122	1.0751953
1443280186973901728	-0.9205017	2.028595	1.0837402
1443280186978754023	-0.9205017	1.9980621	1.0861816
1443280186983819941	-0.86550903	1.9980621	1.0861816
1443280186988946894	-0.8032074	1.9406128	1.0812988
1443280186994714716	-0.7286682	1.8685455	1.0507507
1443280186998865107	-0.64437866	1.7023926	1.0507507
1443280187002405146	-0.5490875	1.7023926	1.022644
1443280187009088496	-0.4415741	1.599762	0.9896698
1443280187013971308	-0.31941223	1.4665833	0.9517822
1443280187019128779	-0.18257141	1.3016663	0.91148376
1443280187024011591	-0.035964966	1.1208496	0.8674927
1443280187030176142	0.10940552	0.9485779	0.81617737
1443280187034082392	0.24623108	0.80319214	0.75509644
1443280187039148310	0.37452698	0.6846924	0.686676
1443280187044946650	0.49546814	0.58940125	0.6145935
1443280187049402216	0.6066437	0.5124359	0.542511
1443280187052484492	0.6066437	0.46110535	0.542511
1443280187059411982	0.80700684	0.46110535	0.3959198
1443280187064294794	0.8986511	0.43789673	0.3140564
1443280187069513300	0.9878235	0.4550171	0.22120667
1443280187074365595	1.0770111	0.4757843	0.11979675
1443280187080163935	1.1637573	0.4941101	0.011077881
1443280187084436396	1.1637573	0.5051117	0.011077881
1443280187089593867	1.251709	0.5051117	-0.10131836
1443280187095453242	1.3384552	0.51119995	-0.21003723
1443280187099725703	1.4252167	0.51364136	-0.31022644
1443280187102899531	1.5119476	0.51364136	-0.39819336
1443280187109796503	1.5962524	0.5148773	-0.473938
1443280187114679316	1.6744385	0.51608276	-0.5362396
1443280187119714716	1.7342987	0.5234375	-0.5851135
1443280187124750117	1.7599487	0.54785156	-0.62420654
1443280187130609492	1.7391815	0.60650635	-0.65475464
1443280187134820917	1.6671143	0.7164459	-0.68162537
1443280187140893915	1.5412598	0.88993835	-0.70606995
1443280187145563105	1.3628845	1.1281738	-0.71951294
1443280187149927119	1.1393127	1.4091797	-0.7072754
1443280187153436640	1.1393127	1.6840668	-0.7072754
1443280187159967402	0.64575195	1.6840668	-0.5667877
1443280187165033320	0.4343872	1.9284058	-0.45317078
1443280187169946650	0.27189636	1.7805786	-0.3322296
1443280187175104121	0.27189636	1.4543762	-0.3322296
1443280187180475214	0.15583801	1.4543762	-0.058563232
1443280187185358027	0.0690918	1.0194397	-0.058563232
1443280187190179804	-5.493164E-4	0.57595825	0.11001587
1443280187195276240	-0.059188843	0.20944214	0.284729
1443280187200281122	-0.10316467	-0.031219482	0.44233704
1443280187203638056	-0.1288147	-0.13140869	0.5730591
1443280187210351923	-0.13859558	-0.1020813	0.6793518
1443280187215387324	-0.1434784	0.02619934	0.76976013
1443280187220422724	-0.15692139	0.22044373	0.84062195
1443280187225610712	-0.18869019	0.4550171	0.8858185
1443280187230951289	-0.23999023	0.7054596	0.90660095
1443280187235681513	-0.30108643	0.9559021	0.9078064
1443280187240564326	-0.36460876	1.1807098	0.90415955
1443280187245630244	-0.4220276	1.3529816	0.9029236
1443280187250604609	-0.46844482	1.4433746	0.905365
1443280187253992060	-0.46844482	1.4397278	0.905365
1443280187260705927	-0.46479797	1.4397278	0.8858185
1443280187265649775	-0.38415527	1.2185974	0.8345032
1443280187270929316	-0.24855042	1.0560913	0.73309326
1443280187275934199	-0.24855042	0.88139343	0.73309326
1443280187281457880	0.111846924	0.88139343	0.37391663
1443280187287042597	0.30610657	0.4941101	0.14666748
1443280187291040400	0.30610657	0.27418518	0.14666748
1443280187296686152	0.50157166	0.27418518	-0.08909607
1443280187300989130	0.6897278	0.028640747	-0.32244873
1443280187304468134	0.84365845	-0.23892212	-0.5435791
1443280187311212519	0.92430115	-0.5199127	-0.73539734
1443280187316217402	0.888855	-0.8106842	-0.8722229
1443280187321283320	0.7068176	-1.1075592	-0.9223175
1443280187326135615	0.37452698	-1.3824615	-0.8624573
1443280187332025507	-0.071395874	-1.5693817	-0.67430115
1443280187336236933	-0.5588684	-1.5767059	-0.35910034
1443280187341455439	-0.99868774	-1.3653412	0.056274414
1443280187346796015	-1.3065643	-1.0037079	0.51319885
1443280187351495722	-1.4189453	-0.67141724	0.92736816
1443280187355585078	-1.4189453	-0.56144714	0.92736816
1443280187361566523	-0.9363861	-0.56144714	1.3244171
1443280187366449335	-0.4073639	-1.1368866	1.2645569
1443280187371637324	0.1533966	-1.5437164	1.0935211
1443280187376520136	0.1533966	-1.8283691	1.0935211
1443280187381586054	0.5883179	-1.8283691	0.86383057
1443280187386590937	0.80700684	-1.9688721	0.5803833
1443280187391778925	0.83021545	-2.026291	0.22485352
1443280187397180537	0.7642517	-2.0580597	-0.1978302
1443280187401849726	0.7288208	-2.0935059	-0.6230011
1443280187405054072	0.79234314	-2.1460419	-0.95529175
1443280187411890009	0.95606995	-2.2376556	-1.1434479
1443280187416803339	1.1661987	-2.4001465	-1.2057495
1443280187421991328	1.3543396	-2.6383972	-1.2069855
1443280187426874140	1.4630737	-2.9120483	-1.2081909
1443280187432580927	1.4655151	-3.1307526	-1.2411957
1443280187436944941	1.3653259	-3.1905975	-1.3059387
1443280187442132929	1.2040863	-3.0232239	-1.3804626
1443280187447504023	1.0428009	-2.629837	-1.4293213
1443280187452234247	0.93774414	-2.1093903	-1.4146729
1443280187455286005	0.93774414	-1.6182404	-1.4146729
1443280187462030390	0.89741516	-1.6182404	-1.1410065
1443280187467157343	0.89741516	-1.2150726	-0.93696594
1443280187473077753	0.87176514	-1.2993622	-0.7524872
1443280187477197626	0.87176514	-1.4459686	-0.7524872
1443280187482812861	0.85710144	-1.4459686	-0.62054443
1443280187487451533	0.88520813	-1.5693817	-0.5350342
1443280187492609003	0.97439575	-1.6426849	-0.473938
1443280187497400263	1.1197815	-1.6829834	-0.42140198
1443280187502374628	1.2883606	-1.7062073	-0.38230896
1443280187505884150	1.4374237	-1.7196503	-0.37130737
1443280187512445429	1.536377	-1.7147522	-0.40307617
1443280187517511347	1.5828094	-1.6878815	-0.47149658
1443280187522546747	1.5925751	-1.628006	-0.5643463
1443280187527704218	1.5852509	-1.5241699	-0.6596527
1443280187533105830	1.5693665	-1.3739014	-0.7463989
1443280187537805537	1.5522614	-1.1943054	-0.8196869
1443280187542688349	1.5424805	-1.0110474	-0.8795471
1443280187547723749	1.5424805	-0.85098267	-0.9284363
1443280187552759150	1.5424805	-0.723938	-0.9699707
1443280187556116083	1.5424805	-0.63597107	-0.9699707
1443280187562799433	1.5046082	-0.63597107	-1.0310516
1443280187567834833	1.5046082	-0.59199524	-1.0310516
1443280187572931269	1.4581909	-0.59199524	-1.0518188
1443280187578119257	1.4019775	-0.6322937	-1.0652618
1443280187583490351	1.3409119	-0.70072937	-1.0701447
1443280187588159540	1.2798157	-0.7862396	-1.0640411
1443280187593011835	1.2248535	-0.88275146	-1.042038
1443280187598077753	1.1784058	-0.9829407	-1.002945
1443280187603082636	1.1381073	-1.0770264	-0.9540863
1443280187606470087	1.1026611	-1.1539764	-0.9076538
1443280187613275507	1.0660095	-1.2077484	-0.8783417
1443280187618188837	1.0269165	-1.239502	-0.8710022
1443280187623407343	0.9841614	-1.2505035	-0.889328
1443280187628229121	0.941391	-1.2431641	-0.9272003
1443280187634119013	0.90597534	-1.2248383	-0.97361755
1443280187639276484	0.88520813	-1.2101898	-1.0188293
1443280187643487910	0.87664795	-1.2077484	-1.0579224
1443280187648584345	0.8729706	-1.2150726	-1.0933533
1443280187653619746	0.8668823	-1.2223969	-1.1263428
1443280187656824091	0.8668823	-1.2236328	-1.1263428
1443280187663690546	0.82289124	-1.2236328	-1.1849823
1443280187668573359	0.82289124	-1.2150726	-1.1849823
1443280187673791865	0.7874603	-1.2150726	-1.2081909
1443280187678613642	0.7471466	-1.2150726	-1.2289581
1443280187683710078	0.70925903	-1.2223969	-1.2509613
1443280187688684443	0.67749023	-1.2272949	-1.2766113
1443280187693902949	0.6555176	-1.2150726	-1.3108215
1443280187699274042	0.6408539	-1.1710968	-1.3486938
1443280187703973749	0.6335144	-1.0953522	-1.3865814
1443280187708795527	0.6335144	-0.99638367	-1.4195557
1443280187714044550	0.64819336	-0.8851929	-1.4440002
1443280187719415644	0.68240356	-0.7666931	-1.4598846
1443280187724115351	0.7337036	-0.64941406	-1.4659729
1443280187728998164	0.79356384	-0.5529022	-1.4550018
1443280187734033564	0.84121704	-0.5028076	-1.4268799
1443280187739068964	0.86564636	-0.5162506	-1.382904
1443280187744226435	0.86076355	-0.59199524	-1.3279266
1443280187749597529	0.83387756	-0.7068329	-1.2668457
1443280187754175165	0.79234314	-0.8314514	-1.2021027
1443280187757501581	0.79234314	-0.93896484	-1.2021027
1443280187764398554	0.7398224	-0.93896484	-1.0750275
1443280187769250849	0.6787262	-1.0281525	-1.0750275
1443280187774469355	0.6127472	-1.0281525	-1.0200653
1443280187779321650	0.54800415	-0.99394226	-0.9748535
1443280187784418085	0.48568726	-0.91452026	-0.9357605
1443280187789422968	0.42826843	-0.8082428	-0.8942108
1443280187794427851	0.37696838	-0.6958313	-0.850235
1443280187799982050	0.3317566	-0.59565735	-0.8001404
1443280187805627802	0.29388428	-0.5199127	-0.7463989
1443280187815271357	0.23158264	-0.45393372	-0.6327667
1443280187819543818	0.19981384	-0.44537354	-0.5777893
1443280187824792841	0.16436768	-0.43804932	-0.52770996
1443280187829828242	0.12773132	-0.4258423	-0.4837036
1443280187835382441	0.095962524	-0.41607666	-0.4421692
1443280187839929560	0.076416016	-0.41363525	-0.39697266
1443280187844812372	0.06663513	-0.42216492	-0.35054016
1443280187849878290	0.060531616	-0.43440247	-0.30290222
1443280187854852656	0.044662476	-0.4478302	-0.2613678
1443280187858392695	0.044662476	-0.4649353	-0.2613678
1443280187864923456	0.015335083	-0.4649353	-0.22836304
1443280187869989374	-0.024978638	-0.49180603	-0.2002716
1443280187875024775	-0.07383728	-0.53089905	-0.17218018
1443280187880029658	-0.1312561	-0.57855225	-0.13674927
1443280187886011103	-0.19966125	-0.62864685	-0.08909607
1443280187890283564	-0.27908325	-0.67385864	-0.026794434
1443280187895135859	-0.37071228	-0.7141571	0.052612305
1443280187900232294	-0.4696808	-0.7447052	0.14666748
1443280187905206660	-0.5771942	-0.7581482	0.2566223
1443280187908746699	-0.6981354	-0.7471466	0.3800354
1443280187915307978	-0.8349762	-0.7031708	0.51564026
1443280187920343378	-0.98524475	-0.62132263	0.6561432
1443280187925378779	-1.1391907	-0.5040283	0.8003082
1443280187930414179	-1.2931213	-0.35742188	0.95422363
1443280187936120966	-1.4531555	-0.19371033	1.1228333
1443280187940668085	-1.6339874	-0.021438599	1.3024292
1443280187945489863	-1.8392334	0.15568542	1.4783478
1443280187951868037	-2.0542603	0.3291626	1.6347351
1443280187955560664	-2.2448425	0.49043274	1.7630157
1443280187958948115	-2.2448425	0.6345978	1.7630157
1443280187965784052	-2.3828888	0.6345978	1.8644257
1443280187971551874	-2.483078	0.7665405	1.9927063
1443280187975885371	-2.483078	1.0169983	1.9927063
1443280187981409052	-2.483078	1.0169983	2.019577
1443280187986597040	-2.483078	1.1342926	2.0183563
1443280187991449335	-2.4879608	1.241806	1.993927
1443280187996026972	-2.4891968	1.3407593	1.9499359
1443280188000909785	-2.4733124	1.4238434	1.8888702
1443280188005945185	-2.431778	1.4800262	1.8082275
1443280188009454706	-2.3694458	1.486145	1.7043915
1443280188016015986	-2.3083801	1.4250488	1.5748749
1443280188020898798	-2.2668304	1.2955475	1.4294891
1443280188026086787	-2.2448425	1.1159668	1.2877655
1443280188031152705	-2.2326202	0.90704346	1.1692657
1443280188036767939	-2.2191772	0.6846924	1.0874023
1443280188041192988	-2.2069702	0.46110535	1.0470886
1443280188046350458	-2.1972046	0.24853516	1.0458679
1443280188052087763	-2.1788788	0.06283569	1.0812988
1443280188056390742	-2.1434326	-0.0715332	1.1436157
1443280188059625605	-2.1434326	-0.13749695	1.1436157
1443280188066461542	-2.0884552	-0.13749695	1.215683
1443280188071374872	-2.0237122	-0.12896729	1.2828827
1443280188076593378	-1.9589539	-0.0544281	1.3390808
1443280188081445673	-1.8990936	0.07626343	1.3965149
1443280188086542109	-1.8477783	0.24365234	1.4698181
1443280188091546992	-1.8160095	0.4061432	1.5565491
1443280188096765497	-1.809906	0.51608276	1.6371765
1443280188102289179	-1.8282318	0.55029297	1.6921539
1443280188106836298	-1.8514404	0.5173187	1.7117157
1443280188110010126	-1.862442	0.4550171	1.6933899
1443280188116907099	-1.8453369	0.40124512	1.6420593
1443280188121759394	-1.7976837	0.3902588	1.565094
1443280188126886347	-1.7256165	0.43301392	1.4710236
1443280188131799677	-1.6474304	0.51119995	1.3745117
1443280188137750605	-1.5716705	0.6003876	1.2841034
1443280188141900996	-1.4983673	0.6859131	1.20224
1443280188147424677	-1.4213867	0.7751007	1.1301727
1443280188152643183	-1.3407593	0.878952	1.0666351
1443280188157831171	-1.263794	1.0011139	1.0177612
1443280188160364130	-1.263794	1.1330719	1.0177612
1443280188167230585	-1.1966095	1.1330719	0.9921112
1443280188172113398	-1.1489563	1.2662201	0.9933319
1443280188177148798	-1.1184082	1.4030609	1.0165558
1443280188182336787	-1.0951996	1.5447998	1.0483093
1443280188187707880	-1.0732117	1.6828308	1.0788574
1443280188192254999	-1.0475464	1.8037872	1.102066
1443280188197259882	-1.018219	1.8978729	1.1167297
1443280188202844599	-0.9840088	1.96138	1.1216125
1443280188207391718	-0.9449158	1.9992676	1.1179352
1443280188210718134	-0.8960571	2.015152	1.1081696
1443280188217432001	-0.8374176	2.0078278	1.0959625
1443280188222375849	-0.7665558	1.9772644	1.0825195
1443280188227502802	-0.6798096	1.9198456	1.0666351
1443280188232538203	-0.57351685	1.8331146	1.0446472
1443280188238061884	-0.4476776	1.7194824	1.0128784
1443280188242609003	-0.31085205	1.5899963	0.971344
1443280188247644404	-0.16912842	1.4568176	0.918808
1443280188253473261	-0.028625488	1.3346405	0.8577118
1443280188257715205	-0.028625488	1.2308044	0.8577118
1443280188261224726	0.11062622	1.2308044	0.79174805
1443280188267786005	0.24623108	1.1464996	0.72332764
1443280188272821406	0.37573242	1.0756531	0.6537018
1443280188277978876	0.5003662	1.0133514	0.5791626
1443280188282892206	0.61886597	0.95835876	0.49975586
1443280188288568476	0.7349396	0.90948486	0.42033386
1443280188293085078	0.84732056	0.86428833	0.33848572
1443280188297998408	0.954834	0.8203125	0.25297546
1443280188304101923	1.059906	0.7702179	0.16134644
1443280188308038691	1.1613159	0.7115631	0.06359863
1443280188311426142	1.2602692	0.64193726	-0.034118652
1443280188318262080	1.3580017	0.56617737	-0.12940979
1443280188323297480	1.4533081	0.48799133	-0.22227478
1443280188328393915	1.5449371	0.4159088	-0.30900574
1443280188333276728	1.6353455	0.35360718	-0.38352966
1443280188338159540	1.7269745	0.30595398	-0.44340515
1443280188343317011	1.8100433	0.27053833	-0.48738098
1443280188348474482	1.8735657	0.24977112	-0.5179138
1443280188353876093	1.9028931	0.25221252	-0.5374756
1443280188358575800	1.9028931	0.292511	-0.5374756
1443280188362543085	1.890686	0.292511	-0.55336
1443280188368616083	1.8295898	0.3780365	-0.5753479
1443280188373529414	1.7159729	0.50875854	-0.6119995
1443280188378686884	1.5437164	0.6846924	-0.65475464
1443280188383630732	1.3103638	0.8960571	-0.6828613
1443280188388635615	1.0256958	1.1159668	-0.67063904
1443280188393671015	0.7214966	1.2931061	-0.60466003
1443280188398828486	0.43559265	1.3664093	-0.49105835
1443280188404352167	0.19613647	1.2882233	-0.34565735
1443280188408929804	0.005569458	1.0658722	-0.17582703
1443280188412103632	-0.15080261	0.75798035	0.015960693
1443280188419000605	-0.28396606	0.4598999	0.22241211
1443280188423883417	-0.3951416	0.25709534	0.42401123
1443280188429040888	-0.4794464	0.18989563	0.5974884
1443280188433954218	-0.53686523	0.25830078	0.73309326
1443280188438989619	-0.57229614	0.4293518	0.83084106
1443280188444025019	-0.59062195	0.65904236	0.8968048
1443280188449213007	-0.59428406	0.89727783	0.9298096
1443280188454706171	-0.5784149	1.1086273	0.9298096
1443280188459314326	-0.5784149	1.2711334	0.9298096
1443280188462488154	-0.5466461	1.2711334	0.90415955
1443280188470239619	-0.50509644	1.3786316	0.86260986
1443280188474206904	-0.4586792	1.4384918	0.81495667
1443280188480218867	-0.4073639	1.4556122	0.7685394
1443280188484399775	-0.34750366	1.4397278	0.72821045
1443280188489526728	-0.27297974	1.4018402	0.6952362
1443280188494562128	-0.18013	1.3444214	0.65979004
1443280188499322871	-0.0652771	1.2613373	0.6023712
1443280188504480341	0.0690918	1.136734	0.50831604
1443280188509454706	0.22181702	0.95957947	0.37757874
1443280188512811640	0.22181702	0.7286835	0.2199707
1443280188519556025	0.5589905	0.7286835	0.0501709
1443280188524591425	0.7178192	0.13613892	-0.12086487
1443280188529626826	0.82777405	-0.1973877	-0.27845764
1443280188534814814	0.83999634	-0.52967834	-0.39941406
1443280188540491083	0.71417236	-0.84609985	-0.4494934
1443280188544733027	0.71417236	-1.1320038	-0.39819336
1443280188549768427	0.45515442	-1.3531342	-0.39819336
1443280188555292109	0.120391846	-1.3531342	0.028167725
1443280188559839228	-0.2118988	-1.461853	0.028167725
1443280188563348749	-0.4880066	-1.4215546	0.35925293
1443280188569910029	-0.69325256	-1.239502	0.71476746
1443280188574945429	-0.8068695	-0.98905945	1.0385284
1443280188579980830	-0.787323	-0.7679138	1.2657776
1443280188585138300	-0.5979614	-0.63964844	1.3464203
1443280188590692499	-0.28520203	-0.6115265	1.2792206
1443280188595209101	0.020217896	-0.65185547	1.0984039
1443280188600122431	0.19737244	-0.7361603	0.83818054
1443280188605127314	0.22914124	-0.8607788	0.51319885
1443280188610193232	0.21325684	-1.0232544	0.12713623
1443280188613550165	0.21325684	-1.2114105	0.12713623
1443280188620386103	0.4771576	-1.2114105	-0.6828613
1443280188625268915	0.7972412	-1.6035919	-0.9809723
1443280188630456904	1.1576385	-1.8271637	-1.1556549
1443280188636590937	1.470398	-2.0800629	-1.2216339
1443280188641046503	1.6683197	-2.3427277	-1.2240753
1443280188646295527	1.7135315	-2.563858	-1.2155151
1443280188650476435	1.7135315	-2.6701508	-1.2155151
1443280188656091669	1.5998993	-2.6701508	-1.2289581
1443280188660699824	1.3714447	-2.5809479	-1.2717285
1443280188663904169	1.1112213	-2.2621002	-1.3279266
1443280188670740107	0.91574097	-1.7685089	-1.365799
1443280188675622919	0.83387756	-1.239502	-1.3535767
1443280188680841425	0.8485565	-0.8326721	-1.2729492
1443280188685693720	0.89253235	-0.6384125	-1.1287842
1443280188690790156	0.91085815	-0.64453125	-0.9516449
1443280188695825556	0.8961792	-0.7691498	-0.7818146
1443280188700983027	0.88397217	-0.91207886	-0.6498718
1443280188707147578	0.92430115	-1.0147095	-0.565567
1443280188710870722	1.0428009	-1.0684662	-0.51426697
1443280188715021113	1.2248535	-1.0916748	-0.47761536
1443280188721094111	1.4264221	-1.1026764	-0.44584656
1443280188726007441	1.6011353	-1.1087952	-0.42507935
1443280188731195429	1.7171936	-1.100235	-0.4311676
1443280188736078242	1.7685089	-1.0660248	-0.46905518
1443280188741144160	1.7709503	-0.99272156	-0.5325928
1443280188746149042	1.7709503	-0.87542725	-0.5325928
1443280188751306513	1.7477417	-0.87542725	-0.6095581
1443280188756708124	1.7184143	-0.7263794	-0.69506836
1443280188761407831	1.6976471	-0.56755066	-0.78305054
1443280188764581660	1.6829987	-0.4148407	-0.8685608
1443280188771448115	1.6695557	-0.27923584	-0.9467621
1443280188776361445	1.6451111	-0.16926575	-1.0188293
1443280188781610468	1.6047821	-0.09352112	-1.0799103
1443280188786401728	1.5485992	-0.056869507	-1.1300049
1443280188791559199	1.4850769	-0.064208984	-1.1678925
1443280188796472529	1.4203033	-0.111846924	-1.1947479
1443280188801446894	1.3592377	-0.18882751	-1.2081909
1443280188807153681	1.3079224	-0.28045654	-1.2069855
1443280188812524775	1.265152	-0.37086487	-1.1886597
1443280188822534540	1.1942902	-0.45393372	-1.1336823
1443280188826684931	1.1588745	-0.58955383	-1.1141205
1443280188832056025	1.1222229	-0.62864685	-1.1067963
1443280188836908320	1.0867767	-0.64208984	-1.1128998
1443280188841821650	1.0867767	-0.63352966	-1.1128998
1443280188846979121	1.0550232	-0.63352966	-1.1300049
1443280188851861933	1.0318146	-0.61276245	-1.1507721
1443280188856897333	1.0183716	-0.58955383	-1.1690979
1443280188861932734	1.0110474	-0.56510925	-1.1813049
1443280188865320185	1.0061493	-0.5370178	-1.1898651
1443280188872003535	1.0037079	-0.51135254	-1.1947479
1443280188877069453	1.0061493	-0.4991455	-1.1971893
1443280188882104853	1.00737	-0.5076904	-1.1971893
1443280188887262324	1.0037079	-0.532135	-1.1935425
1443280188893121699	0.9914856	-0.5663452	-1.1862183
1443280188897333124	0.968277	-0.59931946	-1.1800995
1443280188902215937	0.93774414	-0.6274109	-1.1813049
1443280188907861689	0.90597534	-0.64697266	-1.1959839
1443280188912286738	0.87908936	-0.6542969	-1.2240753
1443280188915643671	0.87908936	-0.6457367	-1.2240753
1443280188922357539	0.86808777	-0.6457367	-1.3010559
1443280188927392939	0.87908936	-0.56388855	-1.3413696
1443280188932611445	0.89253235	-0.4844818	-1.3743439
1443280188937616328	0.9047394	-0.3855133	-1.396347
1443280188943201044	0.9169769	-0.28656006	-1.3975525
1443280188947534540	0.9169769	-0.20715332	-1.3975525
1443280188952722529	0.92918396	-0.20715332	-1.3804626
1443280188958063105	0.9389496	-0.16926575	-1.3474731
1443280188962823847	0.941391	-0.19126892	-1.3071594
1443280188966028193	0.93774414	-0.27923584	-1.2607269
1443280188972894648	0.9230652	-0.4197235	-1.2081909
1443280188978418330	0.89497375	-0.57366943	-1.1507721
1443280188982965449	0.85343933	-0.7056122	-1.0884705
1443280188988550165	0.7996826	-0.7911377	-1.0237122
1443280188992883662	0.7300415	-0.82289124	-0.9565277
1443280188997949580	0.644516	-0.802124	-0.8917694
1443280189003137568	0.54800415	-0.73127747	-0.836792
1443280189008935908	0.4478302	-0.6249695	-0.7891388
1443280189013177851	0.3525238	-0.5028076	-0.74516296
1443280189016382197	0.3525238	-0.3879547	-0.74516296
1443280189023248652	0.19613647	-0.3879547	-0.63887024
1443280189028009394	0.14360046	-0.26457214	-0.5765686
1443280189033288935	0.10940552	-0.26701355	-0.513031
1443280189038171747	0.10940552	-0.29878235	-0.513031
1443280189043207148	0.09107971	-0.29878235	-0.4494934
1443280189048273066	0.0849762	-0.34153748	-0.38352966
1443280189053308466	0.0849762	-0.3806305	-0.3139038
1443280189059106806	0.0849762	-0.41607666	-0.24913025
1443280189063531855	0.07885742	-0.4490509	-0.1978302
1443280189066644648	0.060531616	-0.4820404	-0.16729736
1443280189073572138	0.032424927	-0.51379395	-0.15751648
1443280189078485468	-0.0042266846	-0.54434204	-0.15995789
1443280189083703974	-0.046951294	-0.57611084	-0.16117859
1443280189088525751	-0.099487305	-0.6029968	-0.14897156
1443280189093500117	-0.1642456	-0.62620544	-0.119644165
1443280189098627070	-0.23878479	-0.64697266	-0.06954956
1443280189103815058	-0.32185364	-0.6701813	-0.0023651123
1443280189109216669	-0.4134674	-0.6958313	0.07948303
1443280189113885859	-0.516098	-0.71295166	0.17478943
1443280189117029169	-0.516098	-0.7068329	0.17478943
1443280189123987177	-0.7579956	-0.7068329	0.38368225
1443280189128839472	-0.89727783	-0.61764526	0.49853516
1443280189133935908	-0.89727783	-0.54556274	0.6268158
1443280189138910273	-1.0438843	-0.45393372	0.6268158
1443280189144769648	-1.3273315	-0.45393372	0.9371338
1443280189148950556	-1.3273315	-0.16682434	0.9371338
1443280189155115107	-1.4714813	-0.16682434	1.2841034
1443280189159662226	-1.6400757	0.04206848	1.2841034
1443280189164728144	-1.8416748	0.27418518	1.4563751
1443280189167444208	-2.0567017	0.49531555	1.6212921
1443280189174280146	-2.2497406	0.6663666	1.7740173
1443280189179162958	-2.3853302	0.7665405	1.9047241
1443280189184259394	-2.4501038	0.7995453	2.0098114
1443280189189386347	-2.4586334	0.78974915	2.0879974
1443280189194830883	-2.4403076	0.7640991	2.1429749
1443280189199500072	-2.4232178	0.7494507	2.1710663
1443280189204382885	-2.4207764	0.7677765	2.1661835
1443280189209448803	-2.4268646	0.8337555	2.1197662
1443280189214453686	-2.4219818	0.93759155	2.0379028
1443280189217810619	-2.4219818	1.0536499	2.0379028
1443280189224524487	-2.3437958	1.0536499	1.8338776
1443280189229559887	-2.2937164	1.1770477	1.7336884
1443280189234625805	-2.2937164	1.1208496	1.7336884
1443280189239752758	-2.2533875	1.1208496	1.6249695
1443280189245184887	-2.2179718	0.95835876	1.4991302
1443280189249884594	-2.1776428	0.6895752	1.3659515
1443280189254736889	-2.1287842	0.34628296	1.2474518
1443280189259802807	-2.072586	-0.0104522705	1.1619415
1443280189264777172	-2.0090485	-0.30976868	1.1203918
1443280189268164623	-1.9333038	-0.4979248	1.1179352
1443280189274847973	-1.8465576	-0.5529022	1.1460571
1443280189279791821	-1.7561493	-0.4832611	1.1912384
1443280189285101879	-1.6718445	-0.3146515	1.242569
1443280189290137279	-1.5973358	-0.07887268	1.2975464
1443280189295813549	-1.5411377	0.18867493	1.3623047
1443280189300147045	-1.5166931	0.44277954	1.4453735
1443280189305212963	-1.5252533	0.6321564	1.5382233
1443280189311682690	-1.5557861	0.721344	1.6176453
1443280189315314281	-1.5838928	0.7188873	1.6567383
1443280189318518627	-1.5838928	0.6639252	1.6567383
1443280189325415600	-1.5838928	0.6639252	1.5724335
1443280189330389965	-1.5594635	0.5576477	1.4759064
1443280189335364330	-1.5594635	0.55519104	1.4759064
1443280189340277660	-1.5240173	0.55519104	1.3732758
1443280189346167553	-1.4837189	0.59672546	1.2779999
1443280189350378979	-1.4458313	0.67370605	1.188797
1443280189355566967	-1.4165039	0.7665405	1.1081696
1443280189361395824	-1.3920898	0.8630676	1.036087
1443280189365668285	-1.3676453	0.9693451	0.9762268
1443280189369696606	-1.333435	1.0988617	0.92736816
1443280189375708569	-1.2919006	1.255249	0.8870392
1443280189380591381	-1.250351	1.4238434	0.8552704
1443280189385779369	-1.2136993	1.5789948	0.84062195
1443280189390692699	-1.1807251	1.703598	0.84672546
1443280189395697582	-1.1465149	1.7952423	0.8735962
1443280189400763500	-1.1086426	1.8599854	0.9151306
1443280189405798901	-1.0658722	1.901535	0.9603424
1443280189411322582	-1.0157776	1.9113007	1.0043182
1443280189416022289	-0.9595947	1.8832092	1.0434265
1443280189419135082	-0.9595947	1.8172302	1.0434265
1443280189426093090	-0.8288574	1.8172302	1.1069489
1443280189430975903	-0.8288574	1.6193085	1.1069489
1443280189436163891	-0.7531128	1.6193085	1.124054
1443280189441016186	-0.66760254	1.5081482	1.1264954
1443280189446784008	-0.56985474	1.3969574	1.1154938
1443280189451117504	-0.4611206	1.2845612	1.0935211
1443280189456305492	-0.34017944	1.1648254	1.0641937
1443280189461676586	-0.21066284	1.0377655	1.0299835
1443280189466376293	-0.07749939	0.90460205	0.9896698
1443280189469458569	0.051986694	0.77633667	0.94325256
1443280189477393139	0.17292786	0.6675873	0.8894806
1443280189481238354	0.28411865	0.59184265	0.82839966
1443280189487128246	0.386734	0.55519104	0.7612152
1443280189491400707	0.47836304	0.55397034	0.68911743
1443280189496802319	0.5589905	0.5808563	0.6158142
1443280189501471508	0.631073	0.62971497	0.5412903
1443280189506720531	0.7031708	0.6932373	0.46554565
1443280189512213696	0.7813568	0.7592163	0.38980103
1443280189516577709	0.8668823	0.81663513	0.3164978
1443280189519904125	0.8668823	0.8569641	0.3164978
1443280189526648510	0.96095276	0.8569641	0.24319458
1443280189531653393	1.0635681	0.8801727	0.1698761
1443280189536719311	1.1710815	0.88871765	0.09170532
1443280189541754711	1.2822571	0.88139343	0.011077881
1443280189547278393	1.3934479	0.86428833	-0.07321167
1443280189551978100	1.5021667	0.8435211	-0.15751648
1443280189556860912	1.6011353	0.82395935	-0.23936462
1443280189561926830	1.6732025	0.8141937	-0.3139038
1443280189566931713	1.7098541	0.81663513	-0.38230896
1443280189570441235	1.7013245	0.8361969	-0.4446106
1443280189576971996	1.6438751	0.88139343	-0.5020294
1443280189582007397	1.5375977	0.9620209	-0.552124
1443280189587073315	1.3812103	1.0890808	-0.58877563
1443280189592230785	1.1759644	1.2637787	-0.6022186
1443280189597601879	0.93530273	1.4641418	-0.5802307
1443280189602332104	0.6884918	1.6425323	-0.51426697
1443280189607214916	0.466156	1.7366028	-0.41407776
1443280189612280834	0.29388428	1.7023926	-0.29434204
1443280189617285717	0.17536926	1.5313568	-0.16239929
1443280189620795238	0.17536926	1.2601318	-0.16239929
1443280189627356518	0.095962524	1.2601318	-0.017028809
1443280189632361401	0.037322998	0.95469666	0.13812256
1443280189637396801	-0.016433716	0.6834717	0.29328918
1443280189643622387	-0.114151	0.4965515	0.54496765
1443280189647986401	-0.114151	0.4476776	0.54496765
1443280189653052319	-0.15080261	0.4476776	0.64146423
1443280189657752026	-0.17889404	0.56985474	0.72821045
1443280189662787426	-0.20089722	0.7567749	0.81007385
1443280189667792309	-0.2253418	0.9766693	0.878479
1443280189670966137	-0.2571106	1.201477	0.9298096
1443280189677863110	-0.30596924	1.4128418	0.9603424
1443280189682623852	-0.36460876	1.6009827	0.97746277
1443280189687903393	-0.4220276	1.7585754	0.9872284
1443280189692786205	-0.463562	1.8709869	0.9957886
1443280189697821606	-0.4794464	1.9174042	1.0018768
1443280189702857006	-0.45991516	1.8929749	1.0018768
1443280189708044994	-0.3927002	1.8025818	0.98599243
1443280189713019360	-0.27175903	1.652298	0.944458
1443280189718146313	-0.099487305	1.4421692	0.866272
1443280189721503246	-0.099487305	1.1782684	0.866272
1443280189728186596	0.11062622	1.1782684	0.7428894
1443280189733099926	0.3390808	0.88261414	0.5730591
1443280189738287914	0.56388855	0.58940125	0.36535645
1443280189743170727	0.7654724	0.33528137	0.13690186
1443280189748206127	0.92430115	0.14224243	-0.095214844
1443280189753241528	1.0220337	0.006652832	-0.3139038
1443280189758398998	1.0318146	-0.088638306	-0.5044861
1443280189764136303	0.9169769	-0.16682434	-0.64497375
1443280189768500317	0.65063477	-0.23648071	-0.71707153
1443280189771643627	0.23278809	-0.29388428	-0.70362854
1443280189778540600	-0.28396606	-0.32565308	-0.5973358
1443280189783453930	-0.7946472	-0.3170929	-0.39453125
1443280189788672436	-1.184372	-0.27189636	-0.107421875
1443280189793524731	-1.3737488	-0.23158264	0.23097229
1443280189798621166	-1.3383179	-0.26945496	0.5620575
1443280189803595531	-1.0866547	-0.4514923	0.81617737
1443280189809790600	-0.65904236	-0.7776947	0.9517822
1443280189814490307	-0.13859558	-1.1637726	0.96157837
1443280189819617260	0.347641	-1.4948425	0.8699341
1443280189829291332	0.6811676	-1.695221	0.43377686
1443280189833807934	0.83021545	-1.7868347	0.43377686
1443280189838721264	0.86320496	-1.7868347	0.10635376
1443280189844031322	0.89009094	-1.7819519	-0.24304199
1443280189849707592	0.9914856	-1.7807312	-0.55336
1443280189854041088	1.1747589	-1.7953949	-0.77571106
1443280189859015453	1.3922119	-1.8442535	-0.90519714
1443280189863989819	1.5815735	-1.9444427	-0.9650879
1443280189869055737	1.6964264	-2.0971527	-0.9882965
1443280189872565258	1.7135315	-2.2633057	-0.99438477
1443280189879096020	1.632904	-2.3683777	-1.0053864
1443280189884161938	1.4862823	-2.3390503	-1.0347137
1443280189889166821	1.3323517	-2.1362457	-1.0750275
1443280189894202221	1.2248535	-1.7941589	-1.0957947
1443280189899756420	1.1820831	-1.4068756	-1.0652618
1443280189904486645	1.1723175	-1.0929108	-0.9772949
1443280189909308422	1.1478729	-0.93040466	-0.8587799
1443280189914404858	1.0843353	-0.9243164	-0.7524872
1443280189919409740	1.0843353	-1.0134888	-0.7524872
1443280189922888744	1.0024872	-1.0134888	-0.67918396
1443280189929633129	0.94750977	-1.1307678	-0.64497375
1443280189934515942	0.9572754	-1.2407227	-0.631546
1443280189939551342	1.046463	-1.3458099	-0.62176514
1443280189944586742	1.1955261	-1.449646	-0.60343933
1443280189950293529	1.3665619	-1.5388184	-0.5802307
1443280189954779613	1.5156097	-1.588913	-0.5619049
1443280189959662426	1.6096802	-1.5779114	-0.5594635
1443280189964728344	1.6451111	-1.4997406	-0.5741272
1443280189969794262	1.6426697	-1.3677826	-0.6071167
1443280189973120678	1.6304626	-1.2065125	-0.6498718
1443280189979956615	1.6267853	-1.0428162	-0.6987457
1443280189985449779	1.6377869	-0.89863586	-0.74516296
1443280189990057934	1.6573181	-0.7837982	-0.7805939
1443280189995520580	1.6744385	-0.69950867	-0.8050232
1443280190000037182	1.6793213	-0.6457367	-0.8196869
1443280190004981029	1.6658783	-0.62620544	-0.8282471
1443280190010169018	1.6316681	-0.64697266	-0.8355713
1443280190015875805	1.580368	-0.7031708	-0.8404541
1443280190020270336	1.580368	-0.7837982	-0.8404541
1443280190023474682	1.5192719	-0.7837982	-0.8416748
1443280190030310619	1.4520721	-0.8717804	-0.8392334
1443280190035132397	1.3824463	-0.96095276	-0.8416748
1443280190040411938	1.3067017	-1.0452576	-0.8526764
1443280190045325268	1.2272949	-1.1197662	-0.8734436
1443280190050391186	1.1478729	-1.178421	-0.8991089
1443280190055365551	1.0782318	-1.2211914	-0.9284363
1443280190060523022	1.0171356	-1.252945	-0.9589691
1443280190066260326	0.9597168	-1.2773743	-0.99438477
1443280190070471752	0.9010925	-1.2871552	-1.0371552
1443280190073828686	0.83877563	-1.2737122	-1.086029
1443280190080664623	0.7813568	-1.239502	-1.1324463
1443280190085577953	0.736145	-1.191864	-1.1739807
1443280190090765942	0.70925903	-1.1442108	-1.2045441
1443280190095648754	0.6994934	-1.1051178	-1.2265167
1443280190100714672	0.7043762	-1.0806732	-1.2363129
1443280190105719555	0.7178192	-1.0684662	-1.2338562
1443280190110877026	0.7337036	-1.0660248	-1.2228699
1443280190116400707	0.7483673	-1.0660248	-1.2045441
1443280190120978344	0.7483673	-1.0660248	-1.2045441
1443280190124152172	0.7557068	-1.0660248	-1.1862183
1443280190131049145	0.75691223	-1.0684662	-1.1727753
1443280190135931957	0.7520294	-1.0696869	-1.1666565
1443280190140906322	0.7471466	-1.0660248	-1.1703339
1443280190145972240	0.7459259	-1.0525818	-1.1874237
1443280190151831615	0.749588	-1.0220337	-1.2167511
1443280190156073559	0.75691223	-0.97317505	-1.2582855
1443280190161353100	0.7715759	-0.90719604	-1.3059387
1443280190166815746	0.79600525	-0.8241272	-1.3499146
1443280190171515453	0.82777405	-0.72883606	-1.3804626
1443280190174506176	0.86564636	-0.6298523	-1.3902283
1443280190181250561	0.8986511	-0.54312134	-1.3767853
1443280190186194408	0.92185974	-0.49058533	-1.3413696
1443280190191321362	0.927948	-0.49058533	-1.2924957
1443280190196478832	0.91329956	-0.55166626	-1.2375183
1443280190202002514	0.87420654	-0.6616211	-1.1800995
1443280190206580151	0.8180084	-0.7972412	-1.1239014
1443280190211493481	0.8180084	-0.92552185	-1.0701447
1443280190216498363	0.7508087	-1.0195923	-1.0701447
1443280190221533764	0.6811676	-1.0195923	-1.0176086
1443280190224921215	0.61154175	-1.0635834	-0.96629333
1443280190231574047	0.5394592	-1.0562439	-0.9174347
1443280190236609447	0.4612732	-1.0024872	-0.875885
1443280190241675365	0.3794098	-0.908432	-0.8428955
1443280190246832836	0.2999878	-0.7825775	-0.81114197
1443280190252356518	0.22914124	-0.6432953	-0.770813
1443280190256903637	0.17292786	-0.5211334	-0.71339417
1443280190261786449	0.13627625	-0.4441681	-0.63887024
1443280190267584789	0.12162781	-0.42340088	-0.55336
1443280190271857250	0.1191864	-0.4502716	-0.4678192
1443280190275366772	0.1191864	-0.4979248	-0.38963318
1443280190282080639	0.11672974	-0.5370178	-0.32122803
1443280190286963451	0.10696411	-0.5504608	-0.26013184
1443280190292151440	0.09474182	-0.52967834	-0.20639038
1443280190297064770	0.083740234	-0.4808197	-0.16117859
1443280190302069653	0.07519531	-0.4123993	-0.1306305
1443280190308295238	0.0690918	-0.34521484	-0.119644165
1443280190312323559	0.0690918	-0.29878235	-0.12086487
1443280190318121899	0.0385437	-0.29878235	-0.123306274
1443280190322241772	0.0385437	-0.33177185	-0.123306274
1443280190325598705	0.004333496	-0.33177185	-0.11230469
1443280190332465160	-0.0493927	-0.41116333	-0.08055115
1443280190337317455	-0.120269775	-0.50891113	-0.024353027
1443280190342505444	-0.20210266	-0.59565735	0.048934937
1443280190347296703	-0.29496765	-0.65185547	0.13078308
1443280190352393139	-0.40126038	-0.6665039	0.21508789
1443280190357520092	-0.52342224	-0.64208984	0.30549622
1443280190362647045	-0.65415955	-0.59199524	0.40812683
1443280190368079174	-0.7799988	-0.532135	0.52908325
1443280190372717846	-0.89727783	-0.47225952	0.6659088
1443280190376563061	-1.0133362	-0.40751648	0.81251526
1443280190382788647	-1.1391907	-0.32321167	0.9554596
1443280190387671459	-1.2857971	-0.20347595	1.088623
1443280190392920483	-1.4555969	-0.0385437	1.215683
1443280190397742260	-1.6449738	0.16300964	1.3476257
1443280190403510082	-1.8465576	0.3743744	1.4905853
1443280190407843578	-1.8465576	0.55397034	1.6408539
1443280190413031567	-2.0432587	0.55397034	1.6408539
1443280190418372143	-2.2191772	0.6749115	1.7850037
1443280190423102367	-2.356018	0.7286835	1.9120789
1443280190426276196	-2.4476624	0.7298889	2.0146942
1443280190433142651	-2.4940796	0.7091217	2.0941162
1443280190438025463	-2.5038452	0.7091217	2.1466522
1443280190443243969	-2.4855194	0.7640991	2.164978
1443280190448096264	-2.4476624	0.88993835	2.1442108
1443280190453162182	-2.4073334	1.0719757	2.0806732
1443280190458197582	-2.3731232	1.2723389	1.9780426
1443280190463416088	-2.352356	1.447052	1.849762
1443280190468756664	-2.3413544	1.5496826	1.7068329
1443280190474402416	-2.326706	1.5423584	1.552887
1443280190484717358	-2.252182	1.407959	1.2437897
1443280190488379467	-2.19841	0.86672974	1.1301727
1443280190494238842	-2.1446686	0.56985474	1.0690765
1443280190498480785	-2.0872345	0.3157196	1.0580902
1443280190503546703	-2.02005	0.12635803	1.0812988
1443280190508551586	-2.02005	0.004211426	1.0812988
1443280190513586987	-1.940628	0.004211426	1.1301727
1443280190519690502	-1.7952423	-0.043441772	1.2779999
1443280190523657787	-1.7952423	0.09214783	1.2779999
1443280190527014721	-1.7475891	0.09214783	1.3500671
1443280190533698071	-1.7268219	0.24853516	1.4026031
1443280190538733471	-1.7402649	0.4061432	1.4356079
1443280190543768871	-1.7891388	0.5099945	1.460022
1443280190548956860	-1.862442	0.52952576	1.4783478
1443280190554663647	-1.9394226	0.47943115	1.4905853
1443280190558905590	-1.9968414	0.3988037	1.4844666
1443280190563940990	-2.02005	0.3291626	1.4514923
1443280190569464672	-2.006607	0.29374695	1.3952789
1443280190574011791	-1.9589539	0.2949524	1.3280792
1443280190577368725	-1.9589539	0.32551575	1.3280792
1443280190584052074	-1.8086853	0.32551575	1.2059174
1443280190589026440	-1.7182922	0.4391327	1.1545868
1443280190594153393	-1.6205444	0.51976013	1.1069489
1443280190599310863	-1.5166931	0.61505127	1.0666351
1443280190604834545	-1.4104156	0.721344	1.0385284
1443280190609351147	-1.4104156	0.83251953	1.0385284
1443280190614386547	-1.3102264	0.83251953	1.0263214
1443280190620306957	-1.1575165	0.94125366	1.04953
1443280190624335278	-1.1575165	1.1428375	1.04953
1443280190627783764	-1.1074219	1.1428375	1.0800781
1443280190634528149	-1.0732117	1.2320099	1.1154938
1443280190640570629	-1.046341	1.3089905	1.149704
1443280190644598949	-1.0243378	1.3676453	1.1778259
1443280190650519360	-0.9998932	1.4128418	1.1937103
1443280190655219067	-0.96936035	1.4494934	1.1937103
1443280190660284985	-0.9314728	1.4751434	1.1802673
1443280190664618481	-0.8862915	1.4873505	1.1582642
1443280190669898022	-0.8325348	1.4812622	1.1313782
1443280190674689281	-0.7665558	1.4556122	1.097168
1443280190678168285	-0.7665558	1.407959	1.097168
1443280190684912670	-0.58940125	1.407959	1.0153198
1443280190689703930	-0.4794464	1.255249	0.9689026
1443280190694983471	-0.35728455	1.1611633	0.9200134
1443280190699866283	-0.2277832	1.0683136	0.86383057
1443280190704932201	-0.2277832	0.98402405	0.86383057
1443280190709906567	-0.09338379	0.98402405	0.8003082
1443280190715003002	0.04220581	0.9143677	0.72576904
1443280190720770824	0.17781067	0.8594055	0.6451416
1443280190725226391	0.31098938	0.81663513	0.5583954
1443280190728461254	0.44415283	0.7836609	0.47166443
1443280190735297192	0.5760956	0.7628937	0.38612366
1443280190740180004	0.7031708	0.7604523	0.3006134
1443280190745367992	0.82289124	0.7787781	0.21020508
1443280190750250805	0.9340668	0.80807495	0.11491394
1443280190755316723	1.0415802	0.8361969	0.012283325
1443280190760321606	1.1527557	0.85328674	-0.09642029
1443280190765509594	1.2688293	0.85572815	-0.20759583
1443280190771002758	1.3897705	0.84962463	-0.32366943
1443280190775580395	1.5156097	0.8386383	-0.4421692
1443280190778754223	1.5156097	0.826416	-0.4421692
1443280190785651196	1.7782745	0.826416	-0.6779785
1443280190790564526	1.9053345	0.7958679	-0.7818146
1443280190795752514	2.0177307	0.7824249	-0.8722229
1443280190800574291	2.0177307	0.7775421	-0.8722229
1443280190805701244	2.1044922	0.7775421	-0.9430847
1443280190810645092	2.1545868	0.7909851	-0.98950195
1443280190817236889	2.1056976	0.83496094	-1.0090637
1443280190821692455	2.1056976	1.0414429	-1.0090637
1443280190826575268	1.9981995	1.0414429	-0.99684143
1443280190829138744	1.8332672	1.201477	-0.9809723
1443280190836218822	1.6145782	1.3932953	-0.9589691
1443280190840857494	1.3531189	1.6034241	-0.9125519
1443280190846106518	1.0672302	1.796463	-0.82458496
1443280190851080883	0.7825775	1.9223022	-0.6963043
1443280190855963696	0.51379395	1.9332886	-0.5350342
1443280190861212719	0.26091003	1.8111267	-0.34809875
1443280190866065014	0.028778076	1.5753326	-0.13552856
1443280190872260082	-0.17524719	1.2870178	0.09780884
1443280190876135815	-0.33528137	1.0206757	0.3311615
1443280190879492748	-0.33528137	0.8312988	0.3311615
1443280190886206615	-0.49900818	0.8312988	0.72576904
1443280190891211498	-0.516098	0.7408905	0.87727356
1443280190896307934	-0.5124512	0.826416	0.9957886
1443280190901465404	-0.5124512	0.97914124	0.9957886
1443280190906867016	-0.503891	0.97914124	1.1094055
1443280190911383617	-0.49656677	1.3517609	1.1094055
1443280190916388500	-0.49777222	1.3517609	1.1081696
1443280190922430981	-0.5112152	1.5093536	1.0800781
1443280190926489819	-0.53930664	1.6144257	1.0348663
1443280190929999340	-0.57595825	1.638855	0.983551
1443280190936560619	-0.60406494	1.5508881	0.932251
1443280190941626537	-0.5991821	1.34198	0.8858185
1443280190946784008	-0.53930664	1.0341187	0.8357239
1443280190951788891	-0.41835022	0.682251	0.76976013
1443280190957343090	-0.24975586	0.34872437	0.6695862
1443280190961890209	-0.0652771	0.079940796	0.52908325
1443280190966742504	0.09718323	-0.09963989	0.34703064
1443280190971686352	0.20469666	-0.1839447	0.12834167
1443280190976843822	0.23522949	-0.18026733	-0.10986328
1443280190980200756	0.23522949	-0.11064148	-0.10986328
1443280190987067211	6.713867E-4	-0.11064148	-0.5081482
1443280190992468822	-0.26808167	0.09214783	-0.592453
1443280190997138012	-0.5979614	0.16668701	-0.5765686
1443280191002173412	-0.5979614	0.18989563	-0.5765686
1443280191007086742	-0.9180603	0.18989563	-0.47149658
1443280191011969555	-1.1550751	0.13491821	-0.2931366
1443280191017279613	-1.2467041	-0.028778076	-0.054885864
1443280191022711742	-1.150177	-0.32809448	0.22608948
1443280191027350414	-0.8630676	-0.7422638	0.51564026
1443280191031836498	-0.4317932	-1.1881866	0.76242065
1443280191037421215	0.0544281	-1.5608215	0.9163666
1443280191042334545	0.51013184	-1.799057	0.9481354
1443280191047492016	0.88031006	-1.9285583	0.8577118
1443280191052374828	1.16008	-2.0116425	0.67323303
1443280191057410229	1.3628845	-2.0837097	0.44233704
1443280191062476147	1.5107269	-2.1252441	0.20899963
1443280191067633617	1.6170197	-2.0959473	0.0025177002
1443280191073004711	1.7013245	-1.9835358	-0.16973877
1443280191077673901	1.7733917	-1.8198242	-0.31510925
1443280191080878246	1.7733917	-1.6524506	-0.31510925
1443280191087775219	1.8576813	-1.6524506	-0.5704498
1443280191092658031	1.8576813	-1.4056702	-0.6804199
1443280191097846020	1.8357086	-1.3005981	-0.6804199
1443280191102850903	1.7538452	-1.3005981	-0.75372314
1443280191108405102	1.6182251	-1.1576538	-0.77571106
1443280191112799633	1.4545135	-0.95729065	-0.7500458
1443280191117987621	1.2908173	-0.7190552	-0.70606995
1443280191123358715	1.1515198	-0.4967041	-0.68162537
1443280191128058422	1.046463	-0.3464203	-0.6938629
1443280191131140697	0.97439575	-0.29756165	-0.72927856
1443280191138159740	0.93530273	-0.35009766	-0.76716614
1443280191143012035	0.93530273	-0.47958374	-0.7891388
1443280191148077953	0.9756012	-0.64208984	-0.79037476
1443280191153235424	1.0452423	-0.789917	-0.770813
1443280191159399975	1.1222229	-0.8791046	-0.7366028
1443280191163306225	1.1820831	-0.8925476	-0.6963043
1443280191168768871	1.2150574	-0.8351135	-0.6645355
1443280191174017895	1.2272949	-0.737381	-0.6462097
1443280191178412426	1.2346191	-0.63720703	-0.6413269
1443280191181586254	1.2346191	-0.55778503	-0.6413269
1443280191188208569	1.2773743	-0.55778503	-0.66574097
1443280191193335522	1.2773743	-0.4783783	-0.66574097
1443280191198431957	1.3164673	-0.4783783	-0.6840668
1443280191203589428	1.3592377	-0.47958374	-0.70362854
1443280191208716381	1.3934479	-0.51379395	-0.7207184
1443280191213629711	1.4154205	-0.57611084	-0.73539734
1443280191218543041	1.4227448	-0.6567383	-0.7463989
1443280191223547924	1.4154205	-0.7471466	-0.7549286
1443280191228613842	1.3934479	-0.8400116	-0.7622833
1443280191232123363	1.3628845	-0.9316406	-0.7732544
1443280191238684643	1.3250275	-1.0159302	-0.78793335
1443280191243720043	1.2798157	-1.0892334	-0.8013611
1443280191248755444	1.226059	-1.1490936	-0.81114197
1443280191253790844	1.1661987	-1.1930847	-0.8184662
1443280191259619701	1.1063385	-1.217514	-0.82702637
1443280191263983715	1.0501251	-1.2236328	-0.836792
1443280191268897045	0.99760437	-1.2126312	-0.850235
1443280191273932446	0.94506836	-1.1845398	-0.8710022
1443280191278937328	0.89253235	-1.1454468	-0.9015503
1443280191282294262	0.89253235	-1.098999	-0.9015503
1443280191289160717	0.80944824	-1.098999	-0.9772949
1443280191294043529	0.80944824	-0.9988251	-0.9772949
1443280191299262035	0.7850189	-0.9988251	-1.0078278
1443280191304297436	0.7679138	-0.94996643	-1.0261536
1443280191309973705	0.75935364	-0.90231323	-1.0322723
1443280191314154613	0.7557068	-0.85098267	-1.0261536
1443280191319403637	0.7581482	-0.7960205	-1.0090637
1443280191325629223	0.7691345	-0.7410431	-0.9834137
1443280191329474438	0.7874603	-0.6909485	-0.9516449
1443280191332648266	0.8143463	-0.6542969	-0.9149933
1443280191339392651	0.84487915	-0.6298523	-0.8807831
1443280191344428051	0.87664795	-0.6164398	-0.8526764
1443280191349616039	0.90597534	-0.61032104	-0.8355713
1443280191354468334	0.93162537	-0.61032104	-0.8294678
1443280191359534252	0.9572754	-0.6115265	-0.8331299
1443280191364569653	0.9829254	-0.61276245	-0.8453522
1443280191369757641	1.0085907	-0.6090851	-0.8648987
1443280191375128735	1.0318146	-0.5932007	-0.889328
1443280191379858959	1.046463	-0.55778503	-0.92108154
1443280191383612621	1.046463	-0.5076904	-0.92108154
1443280191389899242	1.0538025	-0.5076904	-0.98950195
1443280191394751537	1.0538025	-0.40872192	-0.98950195
1443280191399939526	1.0489044	-0.40872192	-1.0200653
1443280191404822338	1.0428009	-0.37574768	-1.0469208
1443280191409857738	1.034256	-0.3561859	-1.068924
1443280191414923656	1.020813	-0.35253906	-1.086029
1443280191420081127	1.0049286	-0.3647461	-1.0957947
1443280191425604809	0.9866028	-0.3965149	-1.0970154
1443280191430151928	0.9670563	-0.4490509	-1.0884705
1443280191433386791	0.94506836	-0.5235748	-1.0713654
1443280191440253246	0.9120636	-0.6139679	-1.0444794
1443280191445105541	0.8668823	-0.7117157	-1.0090637
1443280191450293529	0.80822754	-0.80700684	-0.9724121
1443280191455206860	0.737381	-0.88887024	-0.9357605
1443280191460242260	0.6555176	-0.94262695	-0.90275574
1443280191465277660	0.56510925	-0.95240784	-0.8710022
1443280191470465649	0.47470093	-0.908432	-0.8392334
1443280191475836742	0.39161682	-0.8192291	-0.80625916
1443280191480414379	0.32321167	-0.70806885	-0.770813
1443280191483710278	0.32321167	-0.59809875	-0.770813
1443280191491766918	0.22546387	-0.59809875	-0.68162537
1443280191495398510	0.22546387	-0.44293213	-0.68162537
1443280191500983227	0.19125366	-0.44293213	-0.6303253
1443280191505682934	0.16560364	-0.40507507	-0.5802307
1443280191510718334	0.14604187	-0.3855133	-0.5289154
1443280191515784252	0.1350708	-0.37451172	-0.473938
1443280191520728100	0.13139343	-0.37086487	-0.4128418
1443280191525732983	0.1350708	-0.37942505	-0.34443665
1443280191530737865	0.13995361	-0.4013977	-0.2748108
1443280191534247387	0.14115906	-0.4356079	-0.21247864
1443280191540808666	0.13383484	-0.47470093	-0.16485596
1443280191545844067	0.11550903	-0.51013184	-0.1306305
1443280191550848949	0.0874176	-0.5345764	-0.10253906
1443280191555914867	0.04586792	-0.54678345	-0.07321167
1443280191561408031	-0.012756348	-0.55166626	-0.039001465
1443280191565985668	-0.08728027	-0.54922485	7.6293945E-5
1443280191570990551	-0.17645264	-0.54067993	0.048934937
1443280191576849926	-0.27908325	-0.5223541	0.112472534
1443280191581061352	-0.397583	-0.49058533	0.19187927
1443280191584601391	-0.397583	-0.44172668	0.19187927
1443280191591132153	-0.5307617	-0.44172668	0.29083252
1443280191596198071	-0.67858887	-0.37695313	0.40444946
1443280191601233471	-0.8361969	-0.30122375	0.53396606
1443280191606238354	-0.9913635	-0.22547913	0.68299866
1443280191611975658	-1.1403961	-0.14729309	0.8503876
1443280191616461742	-1.2857971	-0.05076599	1.0287628
1443280191621344555	-1.4470673	0.08850098	1.2083588
1443280191626410473	-1.63031	0.28398132	1.3806305
1443280191631445873	-1.8294525	0.51364136	1.5431061
1443280191634772289	-2.0163727	0.7237854	1.6921539
1443280191641638744	-2.1666412	0.8606262	1.8204498
1443280191647742260	-2.2729492	0.90948486	1.9206085
1443280191651709545	-2.3437958	0.89971924	1.9878235
1443280191658026684	-2.3926697	0.8801727	2.0232391
1443280191662390697	-2.430542	0.88993835	2.029358
1443280191667395580	-2.46109	0.9461365	2.0098114
1443280191671851147	-2.4818726	1.0536499	1.9658203
1443280191676825512	-2.4891968	1.1990356	1.8998413
1443280191681799877	-2.4891968	1.3578644	1.8204498
1443280191685156811	-2.4855194	1.3578644	1.8204498
1443280191692023266	-2.4745178	1.4910278	1.7385864
1443280191696906078	-2.4549866	1.5472412	1.6567383
1443280191702124584	-2.4244232	1.4885864	1.5675507
1443280191707922924	-2.379242	1.2967834	1.4661407
1443280191713294018	-2.3242493	0.99134827	1.3561859
1443280191717047680	-2.2717133	0.616272	1.2535706
1443280191722235668	-2.226532	0.22653198	1.1778259
1443280191727606762	-2.1898804	-0.12284851	1.1387024
1443280191732306469	-2.1531982	-0.3806305	1.1350555
1443280191735480297	-2.1092224	-0.5162506	1.1607056
1443280191742377270	-2.059143	-0.5345764	1.2071228
1443280191747260082	-2.0078278	-0.46981812	1.2657776
1443280191752417553	-1.9613953	-0.35742188	1.3280792
1443280191757330883	-1.9296265	-0.22424316	1.3867188
1443280191762335766	-1.9174194	-0.08987427	1.4392548
1443280191767401684	-1.9235382	0.017654419	1.4832458
1443280191772559154	-1.9394226	0.07626343	1.5211182
1443280191778052319	-1.9589539	0.0823822	1.5504456
1443280191782660473	-1.9589539	0.048187256	1.5614319
1443280191785864819	-1.9748383	0.048187256	1.5614319
1443280191792700756	-1.9772797	0.0017700195	1.5443268
1443280191797583569	-1.9565125	-0.02999878	1.4954681
1443280191802802074	-1.9052124	-0.03366089	1.4197235
1443280191807654369	-1.8270111	-0.009231567	1.3244171
1443280191812781322	-1.73172	0.02986145	1.2218018
1443280191817755688	-1.626648	0.078704834	1.1203918
1443280191824286449	-1.5191345	0.14346313	1.0324249
1443280191828619946	-1.4165039	0.23876953	0.9652252
1443280191833594311	-1.329773	0.3743744	0.92248535
1443280191836218822	-1.2650299	0.5490875	0.905365
1443280191843420971	-1.2222595	0.7482147	0.90660095
1443280191847937572	-1.1929321	0.9559021	0.9200134
1443280191852881420	-1.1684875	1.1575012	0.94081116
1443280191858160961	-1.1477203	1.3444214	0.9603424
1443280191863745678	-1.1294098	1.5057068	0.9762268
1443280191868079174	-1.1123047	1.6376343	0.9872284
1443280191873114574	-1.0915375	1.7366028	0.9933319
1443280191878882397	-1.0622101	1.8037872	0.9945526
1443280191883185375	-1.0622101	1.8392181	0.9945526
1443280191886664379	-1.0231171	1.8392181	0.98843384
1443280191893286694	-0.96936035	1.8453369	0.9737854
1443280191898322094	-0.89971924	1.8257904	0.9505768
1443280191903326977	-0.8093262	1.78302	0.9200134
1443280191908362377	-0.69692993	1.7097168	0.8821564
1443280191914252270	-0.5637512	1.6009827	0.839386
1443280191918616283	-0.4159088	1.4629364	0.79418945
1443280191923529613	-0.2619934	1.3151093	0.74653625
1443280191928534496	-0.11048889	1.1819305	0.6903534
1443280191933569897	0.031219482	1.0719757	0.6255951
1443280191937079418	0.16316223	0.98890686	0.5535126
1443280191943823803	0.2853241	0.92658997	0.47898865
1443280191948676098	0.400177	0.88383484	0.40689087
1443280191953864086	0.51013184	0.8594055	0.33970642
1443280191958716381	0.61763	0.8545227	0.2725067
1443280191964423168	0.723938	0.86672974	0.20288086
1443280191968970287	0.83021545	0.88993835	0.13078308
1443280191973853100	0.9365082	0.91682434	0.05871582
1443280191978919018	0.9365082	0.94125366	0.05871582
1443280191983923901	1.0452423	0.94125366	-0.01335144
1443280191987280834	1.1613159	0.95835876	-0.08543396
1443280191994147289	1.2883606	0.9669037	-0.15505981
1443280191999548901	1.4239807	0.9693451	-0.22103882
1443280192004065502	1.5644836	0.9693451	-0.282135
1443280192009497631	1.7074127	0.97058105	-0.33711243
1443280192014624584	1.8491516	0.9766693	-0.38352966
1443280192019415844	1.9823151	0.98646545	-0.42019653
1443280192024329174	2.095932	1.0011139	-0.4494934
1443280192029211987	2.1790009	1.0243225	-0.47149658
1443280192034399975	2.2254333	1.0585327	-0.49105835
1443280192037634838	2.2278748	1.109848	-0.5105896
1443280192044470776	2.1838837	1.1770477	-0.5337982
1443280192049262035	2.0886078	1.2576904	-0.5582428
1443280192054541576	1.9346619	1.346878	-0.5704498
1443280192059485424	1.7171936	1.4323883	-0.5570221
1443280192064490307	1.4435425	1.4873505	-0.500824
1443280192069525707	1.1393127	1.4751434	-0.39575195
1443280192074713696	0.83877563	1.3590851	-0.2454834
1443280192080176342	0.56266785	1.1306152	-0.058563232
1443280192084753979	0.56266785	0.8251953	-0.058563232
1443280192087958324	0.32199097	0.8251953	0.14666748
1443280192094855297	0.1191864	0.5051117	0.35437012
1443280192099738110	-0.048187256	0.23632813	0.54740906
1443280192104895580	-0.18013	0.067733765	0.71476746
1443280192109808910	-0.28640747	0.018859863	0.8552704
1443280192114813793	-0.37193298	0.083618164	0.9689026
1443280192119879711	-0.44403076	0.23143005	1.0507507
1443280192125098217	-0.5063324	0.42201233	1.0959625
1443280192130591381	-0.5649719	0.6187134	1.1008453
1443280192135138500	-0.62239075	0.80563354	1.0702972
1443280192138342846	-0.62239075	0.9742279	1.0116577
1443280192145209301	-0.73846436	0.9742279	0.932251
1443280192150092113	-0.7946472	1.2308044	0.84306335
1443280192155066479	-0.8374176	1.280899	0.75509644
1443280192160162914	-0.8508606	1.2454529	0.67811584
1443280192165991772	-0.8166504	1.1061859	0.6133728
1443280192170203197	-0.8166504	0.86550903	0.5461731
1443280192175940502	-0.5747528	0.5527344	0.45942688
1443280192181097973	-0.37927246	0.21556091	0.34092712
1443280192185553539	-0.37927246	-0.09963989	0.34092712
1443280192188696850	-0.17036438	-0.09963989	0.18455505
1443280192195410717	0.020217896	-0.3647461	-0.010925293
1443280192200415600	0.15583801	-0.571228	-0.24424744
1443280192205481518	0.20349121	-0.7141571	-0.50694275
1443280192210669506	0.124069214	-0.7752533	-0.770813
1443280192216315258	-0.1129303	-0.7227173	-0.9907379
1443280192220740307	-0.49777222	-0.54678345	-1.1116791
1443280192225592602	-0.9571533	-0.28045654	-1.1043549
1443280192231329906	-1.3725281	-0.008010864	-0.9724121
1443280192235663403	-1.6376343	0.16790771	-0.75128174
1443280192239020336	-1.6376343	0.15812683	-0.75128174
1443280192245795238	-1.5386963	0.15812683	-0.19050598
1443280192250708569	-1.2026978	-0.58343506	0.09414673
1443280192255835522	-0.73846436	-1.2223969	0.33848572
1443280192261023510	-0.2094574	-1.8576965	0.5046387
1443280192266394604	0.3195343	-2.357376	0.5608368
1443280192271063793	0.3195343	-2.6786957	0.49363708
1443280192275946606	0.78990173	-2.8509674	0.49363708
1443280192281653393	1.1625214	-2.8509674	0.11491394
1443280192286047924	1.4227448	-2.899826	0.11491394
1443280192289557446	1.5791321	-2.82164	-0.09397888
1443280192296240795	1.6609955	-2.6237183	-0.26869202
1443280192301154125	1.6976471	-2.357376	-0.4128418
1443280192306311596	1.7037659	-2.1081543	-0.5411377
1443280192311224926	1.6793213	-1.9334412	-0.6645355
1443280192316260326	1.6255493	-1.8344879	-0.78305054
1443280192322363842	1.5424805	-1.7611847	-0.8917694
1443280192326331127	1.4361877	-1.6610107	-0.98217773
1443280192332312572	1.3262329	-1.5046234	-1.0457153
1443280192336371410	1.2370605	-1.3128052	-1.0713654
1443280192339758862	1.2370605	-1.1368866	-1.0713654
1443280192346594799	1.2114105	-1.1368866	-1.0249481
1443280192351477612	1.251709	-1.0159302	-0.98461914
1443280192356665600	1.2798157	-1.0770264	-0.9492035
1443280192361578930	1.2761536	-1.1820984	-0.91864014
1443280192366644848	1.2443848	-1.3005981	-0.88442993
1443280192371649731	1.2443848	-1.409317	-0.88442993
1443280192376807201	1.2101746	-1.409317	-0.8355713
1443280192382239330	1.1979675	-1.4948425	-0.77204895
1443280192386908520	1.2236176	-1.5461578	-0.69750977
1443280192390814770	1.2834778	-1.5644836	-0.62054443
1443280192396918285	1.3641205	-1.5620422	-0.5484772
1443280192401862133	1.4545135	-1.5559387	-0.4898224
1443280192407050121	1.5375977	-1.5583801	-0.4494934
1443280192411932934	1.6047821	-1.5779114	-0.4311676
1443280192416968334	1.6487885	-1.615799	-0.43240356
1443280192422003735	1.6671143	-1.6646576	-0.45072937
1443280192427191723	1.6658783	-1.7159882	-0.4812622
1443280192432532299	1.6512299	-1.7587433	-0.5191498
1443280192437293041	1.6292267	-1.785614	-0.5619049
1443280192440344799	1.6292267	-1.8002777	-0.5619049
1443280192447302807	1.5461578	-1.8002777	-0.6413269
1443280192452216137	1.4813995	-1.8198242	-0.67430115
1443280192457404125	1.404419	-1.8234863	-0.704834
1443280192462286938	1.3189087	-1.8186035	-0.7390442
1443280192467352856	1.3189087	-1.8063965	-0.7390442
1443280192472327221	1.2309418	-1.8063965	-0.7805939
1443280192477545727	1.1368713	-1.7978363	-0.8257904
1443280192483374584	1.0428009	-1.8002777	-0.9015503
1443280192487524975	0.95606995	-1.8100433	-0.9015503
1443280192490790356	0.888855	-1.8173828	-0.9198761
1443280192498602856	0.84487915	-1.8124847	-0.92108154
1443280192502539623	0.82289124	-1.8014984	-0.9100952
1443280192508460033	0.815567	-1.7880707	-0.8917694
1443280192512640942	0.8180084	-1.7746277	-0.8734436
1443280192518134106	0.82167053	-1.7538605	-0.8587799
1443280192522894848	0.82411194	-1.7245331	-0.8477936
1443280192527747143	0.82411194	-1.6854401	-0.8380127
1443280192532813061	0.82411194	-1.641449	-0.82458496
1443280192537817944	0.82289124	-1.5937958	-0.8050232
1443280192541327465	0.82289124	-1.5461578	-0.8050232
1443280192547888744	0.78990173	-1.5461578	-0.76472473
1443280192552924145	0.7544708	-1.4606476	-0.75737
1443280192557990063	0.71661377	-1.4215546	-0.7659302
1443280192563147533	0.6860504	-1.3775482	-0.7866974
1443280192568549145	0.670166	-1.318924	-0.8160248
1443280192573218334	0.670166	-1.2358398	-0.8160248
1443280192578070629	0.6677246	-1.2358398	-0.8514557
1443280192583167065	0.6738434	-1.1222076	-0.889328
1443280192588171947	0.683609	-0.98172	-0.9223175
1443280192591528881	0.6994934	-0.8265686	-0.9492035
1443280192598212231	0.722702	-0.66897583	-0.9650879
1443280192603247631	0.7544708	-0.52723694	-0.97117615
1443280192608313549	0.78990173	-0.4123993	-0.9675293
1443280192613501537	0.82655334	-0.33665466	-0.95529175
1443280192618994701	0.85832214	-0.30610657	-0.93940735
1443280192623541821	0.87908936	-0.31954956	-0.9272003
1443280192628577221	0.88764954	-0.37330627	-0.91619873
1443280192634253490	0.888855	-0.45637512	-0.9039917
1443280192638495434	0.88397217	-0.55778503	-0.8905487
1443280192642035473	0.88397217	-0.66041565	-0.8905487
1443280192648718822	0.8546448	-0.66041565	-0.8746643
1443280192653662670	0.82411194	-0.8522186	-0.875885
1443280192658789623	0.7813568	-0.9316406	-0.8807831
1443280192664557446	0.7300415	-0.99516296	-0.889328
1443280192668738354	0.7300415	-1.0305939	-0.889328
1443280192674414623	0.6750488	-1.0305939	-0.9088745
1443280192678931225	0.61886597	-1.0318146	-0.9088745
1443280192684271801	0.56388855	-0.99394226	-0.91619873
1443280192689063061	0.50891113	-0.9157562	-0.9149933
1443280192692236889	0.45635986	-0.80700684	-0.90275574
1443280192699103344	0.40628052	-0.68118286	-0.8807831
1443280192703986156	0.36228943	-0.5553436	-0.850235
1443280192709174145	0.32443237	-0.4502716	-0.8148041
1443280192714758862	0.29510498	-0.38430786	-0.77204895
1443280192719763744	0.27311707	-0.3647461	-0.71951294
1443280192724127758	0.25723267	-0.39039612	-0.6498718
1443280192729163158	0.24134827	-0.4478302	-0.5667877
1443280192734625805	0.22181702	-0.5150299	-0.47149658
1443280192739386547	0.19981384	-0.5724335	-0.37498474
1443280192742621410	0.19981384	-0.6066437	-0.37498474
1443280192749457348	0.15093994	-0.6066437	-0.19906616
1443280192754340160	0.12283325	-0.61764526	-0.12452698
1443280192759528149	0.092300415	-0.6139679	-0.059768677
1443280192764380444	0.092300415	-0.6139679	-0.059768677
1443280192770117748	0.03488159	-0.6139679	0.026947021
1443280192774481762	0.03488159	-0.6066437	0.026947021
1443280192779669750	0.0018920898	-0.6066437	0.036727905
1443280192785376537	-0.039627075	-0.5883179	0.023284912
1443280192789740551	-0.09460449	-0.5687866	-0.0060424805
1443280192792914379	-0.15692139	-0.5553436	-0.03656006
1443280192799811352	-0.22042847	-0.55656433	-0.05732727
1443280192804694164	-0.28396606	-0.57611084	-0.058563232
1443280192809882153	-0.34506226	-0.6066437	-0.03779602
1443280192814764965	-0.4159088	-0.6347656	0.0061798096
1443280192819830883	-0.5087738	-0.64697266	0.07093811
1443280192824835766	-0.63339233	-0.63597107	0.15766907
1443280192829840649	-0.7897644	-0.59687805	0.2627411
1443280192835883129	-0.96447754	-0.52601624	0.37757874
1443280192840857494	-1.1428375	-0.42216492	0.50097656
1443280192850653637	-1.4873657	-0.29022217	0.79174805
1443280192855017651	-1.6559601	0.018859863	0.9652252
1443280192860297192	-1.6559601	0.17279053	1.1423798
1443280192865088451	-1.8270111	0.3132782	1.1423798
1443280192870215404	-2.0004883	0.3132782	1.307312
1443280192875342358	-2.1641998	0.4415741	1.4490509
1443280192880194653	-2.3010406	0.5686188	1.5712128
1443280192885291088	-2.3963318	0.7017975	1.6738281
1443280192890295971	-2.4549866	0.83740234	1.7593536
1443280192893652904	-2.4953003	0.9608002	1.8216553
1443280192900366772	-2.5331726	1.0609741	1.8534241
1443280192905402172	-2.5649414	1.1403961	1.849762
1443280192910468090	-2.574707	1.2136841	1.8131104
1443280192915625561	-2.5539398	1.2979889	1.7495728
1443280192921027172	-2.5050812	1.3957367	1.6677399
1443280192925665844	-2.4403076	1.4763794	1.5724335
1443280192930579174	-2.3816833	1.499588	1.4673767
1443280192935645092	-2.3364716	1.4348297	1.3537445
1443280192940619457	-2.303482	1.2845612	1.2401276
1443280192943976391	-2.303482	1.0792999	1.2401276
1443280192950720776	-2.2350616	1.0792999	1.0861816
1443280192955634106	-2.2350616	0.62849426	1.0861816
1443280192960791576	-2.1923218	0.62849426	1.071518
1443280192965918529	-2.1409912	0.44277954	1.1008453
1443280192971320141	-2.0835724	0.32183838	1.1655884
1443280192976050365	-2.0310516	0.27542114	1.254776
1443280192980933178	-2.0004883	0.29130554	1.3476257
1443280192986670483	-1.9992828	0.35116577	1.4294891
1443280192991003979	-2.0224915	0.44889832	1.486908
1443280192994482983	-2.055481	0.57717896	1.5186768
1443280193001227367	-2.081131	0.7066803	1.526001
1443280193006934154	-2.0872345	0.7958679	1.5101166
1443280193011267651	-2.0701294	0.8276367	1.4747009
1443280193016608227	-2.0383759	0.8227539	1.4246063
1443280193021216381	-2.0078278	0.8093109	1.3635101
1443280193026312817	-1.9797211	0.80807495	1.2963257
1443280193031439770	-1.9516296	0.8203125	1.2181244
1443280193036963451	-1.9161835	0.8386383	1.1301727
1443280193041510571	-1.875885	0.84962463	1.0348663
1443280193044714916	-1.875885	0.8459625	1.0348663
1443280193051581371	-1.7903595	0.8459625	0.84306335
1443280193056464184	-1.7903595	0.81663513	0.84306335
1443280193061652172	-1.7512665	0.81663513	0.75387573
1443280193066504467	-1.7146149	0.80075073	0.6842346
1443280193071600903	-1.6730804	0.7958679	0.6488037
1443280193076605785	-1.6229858	0.8203125	0.6585846
1443280193081793774	-1.5643463	0.89115906	0.7062378
1443280193087134350	-1.5008087	0.99746704	0.77220154
1443280193091864574	-1.4323883	1.1025238	0.84306335
1443280193094946850	-1.3578644	1.1733856	0.9126892
1443280193101904858	-1.2772369	1.1990356	0.983551
1443280193106787670	-1.1904907	1.1941528	1.0580902
1443280193111975658	-1.1037445	1.1770477	1.1338196
1443280193116888988	-1.018219	1.1562805	1.2010345
1443280193122656811	-0.93759155	1.1379547	1.2511292
1443280193126959789	-0.8618469	1.1269531	1.2767792
1443280193132117260	-0.7934418	1.1257324	1.2767792
1443280193137518871	-0.73114014	1.136734	1.2535706
1443280193142249096	-0.66760254	1.1562805	1.2144775
1443280193145422924	-0.66760254	1.1770477	1.2144775
1443280193152289379	-0.5063324	1.1770477	1.1167297
1443280193157141674	-0.5063324	1.197815	1.1167297
1443280193162329662	-0.4049225	1.197815	1.0678558
1443280193167365063	-0.2962036	1.2088013	1.0140991
1443280193173804272	-0.05795288	1.2295685	0.866272
1443280193177435863	-0.05795288	1.2711334	0.866272
1443280193183386791	0.067871094	1.2711334	0.77708435
1443280193188269604	0.19493103	1.2845612	0.69155884
1443280193192481029	0.3146515	1.3041077	0.6109314
1443280193195929516	0.427063	1.333435	0.5302887
1443280193202582348	0.53456116	1.3627472	0.4460144
1443280193207556713	0.644516	1.381073	0.35925293
1443280193212592113	0.763031	1.3798523	0.2700653
1443280193217596996	0.888855	1.3603058	0.17967224
1443280193223120678	1.0171356	1.3236542	0.08924866
1443280193227789867	1.1490784	1.2747803	-0.0023651123
1443280193232672680	1.2822571	1.2185974	-0.091537476
1443280193237708080	1.4166565	1.1599426	-0.17582703
1443280193242773998	1.5473785	1.0976257	-0.25524902
1443280193246283520	1.5473785	1.03656	-0.25524902
1443280193252844799	1.6695557	1.03656	-0.33099365
1443280193257880199	1.7733917	0.97914124	-0.40063477
1443280193262915600	1.851593	0.9326935	-0.46173096
1443280193268103588	1.8992157	0.90338135	-0.50938416
1443280193273505199	1.9114532	0.89849854	-0.5423584
1443280193278174389	1.8882446	0.91926575	-0.5619049
1443280193283057201	1.824707	0.9644623	-0.5704498
1443280193288123119	1.7171936	1.0267639	-0.5667877
1443280193293128002	1.5657043	1.0903015	-0.5472412
1443280193296484936	1.3763275	1.1306152	-0.5057068
1443280193303168285	1.1588745	1.1196289	-0.4311676
1443280193308234203	0.92674255	1.0328827	-0.32122803
1443280193313452709	0.6860504	0.86795044	-0.17706299
1443280193318427074	0.44415283	0.655365	0.0012817383
1443280193323218334	0.21202087	0.4464569	0.20532227
1443280193328528393	0.009216309	0.2949524	0.42033386
1443280193333411205	-0.1434784	0.22409058	0.635376
1443280193339484203	-0.23999023	0.23265076	0.83206177
1443280193343451488	-0.29864502	0.30595398	0.99823
1443280193346838940	-0.29864502	0.4269104	0.99823
1443280193353674877	-0.34506226	0.4269104	1.1203918
1443280193358801830	-0.3951416	0.57962036	1.1912384
1443280193363776196	-0.45256042	0.7457733	1.2144775
1443280193368597973	-0.5136566	0.90582275	1.1985931
1443280193373694408	-0.57351685	1.0487671	1.1582642
1443280193378607738	-0.62605286	1.1733856	1.1032867
1443280193383917797	-0.6663666	1.2833405	1.0409851
1443280193389624584	-0.6895752	1.3737488	0.9786682
1443280193393988598	-0.6920166	1.445816	0.92248535
1443280193398200024	-0.66516113	1.5020294	0.87971497
1443280193404059399	-0.5979614	1.5374451	0.8503876
1443280193408942211	-0.48068237	1.5313568	0.82473755
1443280193414130199	-0.30963135	1.4678192	0.78564453
1443280193418982494	-0.095825195	1.3383179	0.71232605
1443280193424048412	0.13871765	1.1403961	0.5852814
1443280193429053295	0.3659668	0.88871765	0.40812683
1443280193434241283	0.56877136	0.60772705	0.19555664
1443280193439978588	0.74346924	0.33650208	-0.021911621
1443280193444342602	0.89253235	0.087265015	-0.22103882
1443280193447546947	0.89253235	-0.15461731	-0.22103882
1443280193454413403	1.0085907	-0.15461731	-0.38475037
1443280193459296215	1.0672302	-0.41363525	-0.5044861
1443280193464453686	1.0415802	-0.69706726	-0.5716858
1443280193469367016	0.91085815	-0.99028015	-0.5826721
1443280193474402416	0.671402	-1.256607	-0.53015137
1443280193479437817	0.34152222	-1.4508667	-0.4104004
1443280193484473217	-0.027420044	-1.5327301	-0.21983337
1443280193490210522	-0.35728455	-1.4899597	0.04283142
1443280193494696606	-0.58940125	-1.358017	0.35803223
1443280193497778881	-0.70669556	-1.2089539	0.6817932
1443280193504553783	-0.72502136	-1.1197662	0.94325256
1443280193509619701	-0.64071655	-1.139328	1.0849609
1443280193515601147	-0.43058777	-1.2492828	1.0861816
1443280193519843090	-0.10682678	-1.370224	0.97502136
1443280193525000561	0.24378967	-1.4178772	0.79541016
1443280193529944408	0.50157166	-1.3812256	0.5718384
1443280193535162914	0.605423	-1.3274689	0.3018341
1443280193539893139	0.6103058	-1.3335724	-0.019470215
1443280193544867504	0.6103058	-1.423996	-0.019470215
1443280193548407543	0.6396332	-1.423996	-0.36764526
1443280193554968822	0.7850189	-1.5779114	-0.68774414
1443280193560034740	1.046463	-1.7697449	-0.91864014
1443280193565039623	1.3506775	-2.0006409	-1.0322723
1443280193570044506	1.6121368	-2.265747	-1.042038
1443280193575568188	1.7758331	-2.5491943	-0.9931793
1443280193580267895	1.824707	-2.804535	-0.93940735
1443280193585211742	1.7709503	-2.9706879	-0.9223175
1443280193590216625	1.6365509	-2.9780273	-0.96629333
1443280193595221508	1.4581909	-2.7886658	-1.0615997
1443280193598761547	1.2846985	-2.4221497	-1.1690979
1443280193605322826	1.1637573	-1.951767	-1.2460785
1443280193610358227	1.1124268	-1.4838562	-1.2595215
1443280193615393627	1.1063385	-1.113678	-1.2057495
1443280193620398510	1.1038971	-0.89375305	-1.0982361
1443280193626074779	1.0843353	-0.8119049	-0.95285034
1443280193630652416	1.0647888	-0.8106842	-0.79037476
1443280193635535229	1.0782318	-0.8326721	-0.6278839
1443280193640601147	1.0782318	-0.85466003	-0.4812622
1443280193645606029	1.1551971	-0.8876648	-0.4812622
1443280193648962963	1.2944794	-0.8876648	-0.36642456
1443280193655768383	1.4655151	-0.9450836	-0.29190063
1443280193660681713	1.6206665	-1.0122681	-0.26992798
1443280193665900219	1.7220917	-1.0538025	-0.30290222
1443280193670752514	1.7599487	-1.0305939	-0.38230896
1443280193676489819	1.7501831	-0.9267578	-0.4898224
1443280193681921947	1.7245331	-0.7569275	-0.60588074
1443280193686041821	1.7098541	-0.5529022	-0.7146301
1443280193691199291	1.7220917	-0.34765625	-0.80381775
1443280193695960033	1.7501831	-0.17050171	-0.8734436
1443280193699286449	1.7709503	-0.04588318	-0.93208313
1443280193706152904	1.7648468	0.005432129	-0.9858551
1443280193712409008	1.7269745	-0.02267456	-1.0359344
1443280193716254223	1.6683197	-0.12284851	-1.0786896
1443280193721137035	1.6023407	-0.26457214	-1.1067963
1443280193727118481	1.5375977	-0.42095947	-1.1239014
1443280193731207836	1.4691925	-0.5663452	-1.1324463
1443280193736334789	1.3934479	-0.6933899	-1.1336823
1443280193741766918	1.304245	-0.8058014	-1.1300049
1443280193746466625	1.304245	-0.90963745	-1.1300049
1443280193749854076	1.2040863	-0.90963745	-1.1312256
1443280193756506908	1.1002197	-1.0012665	-1.1434479
1443280193761420238	1.0049286	-1.0647888	-1.1703339
1443280193766608227	0.92918396	-1.0953522	-1.2045441
1443280193771491039	0.87908936	-1.100235	-1.2424011
1443280193776556957	0.84976196	-1.0965576	-1.2790527
1443280193781561840	0.83755493	-1.0941162	-1.3144836
1443280193786719311	0.83755493	-1.0929108	-1.3462524
1443280193792242992	0.83999634	-1.0892334	-1.3731384
1443280193796820629	0.83143616	-1.0819092	-1.3926697
1443280193800024975	0.8033447	-1.073349	-1.4049072
1443280193806860912	0.7605896	-1.0647888	-1.4146729
1443280193811774242	0.71170044	-1.0550232	-1.4256744
1443280193816962231	0.66651917	-1.0379181	-1.4440002
1443280193821814526	0.6383972	-1.0147095	-1.4672089
1443280193826910961	0.63230896	-0.98905945	-1.4928589
1443280193831915844	0.65063477	-0.96339417	-1.5173035
1443280193836951244	0.65063477	-0.93652344	-1.5380707
1443280193842474926	0.7337036	-0.93652344	-1.5551605
1443280193848151196	0.7801361	-0.87054443	-1.5649414
1443280193858191479	0.82655334	-0.8167877	-1.5356293
1443280193862067211	0.87420654	-0.7434845	-1.5356293
1443280193867835033	0.92674255	-0.6665039	-1.4904175
1443280193872321117	0.9756012	-0.61520386	-1.4293213
1443280193877203930	1.0110474	-0.62132263	-1.3633575
1443280193882422436	1.0220337	-0.68974304	-1.2973785
1443280193887305248	1.00737	-0.7972412	-1.2313995
1443280193893164623	0.9731598	-0.91452026	-1.1617737
1443280193897406567	0.92185974	-1.0134888	-1.0896912
1443280193900885571	0.8546448	-1.0819092	-1.0176086
1443280193907477367	0.7703552	-1.1112366	-0.95285034
1443280193912482250	0.6726074	-1.1026764	-0.8954315
1443280193917517651	0.56755066	-1.0574646	-0.8465729
1443280193922553051	0.46247864	-0.9829407	-0.8074646
1443280193928229321	0.36228943	-0.8839874	-0.77449036
1443280193932776440	0.2694397	-0.7691498	-0.7414856
1443280193937659252	0.2694397	-0.65185547	-0.7414856
1443280193942725170	0.18637085	-0.65185547	-0.6999512
1443280193947730053	0.1191864	-0.54678345	-0.64253235
1443280193951086987	0.07519531	-0.4759369	-0.5692444
1443280193957770336	0.055648804	-0.4490509	-0.48493958
1443280193962836254	0.0544281	-0.4600525	-0.39697266
1443280193967871654	0.06663513	-0.48936462	-0.3139038
1443280193972907055	0.0874176	-0.5150299	-0.23692322
1443280193978766430	0.11306763	-0.52845764	-0.16117859
1443280193983130444	0.1375122	-0.52967834	-0.087875366
1443280193987982738	0.15216064	-0.52723694	-0.026794434
1443280193993048656	0.15216064	-0.52967834	0.013519287
1443280193998084057	0.13383484	-0.54190063	0.024505615
1443280194001440990	0.13383484	-0.56266785	0.024505615
1443280194008276928	0.051986694	-0.56266785	-0.017028809
1443280194014166821	-0.0017852783	-0.6347656	-0.04512024
1443280194018347729	-0.06283569	-0.6799469	-0.062210083
1443280194024420727	-0.1324768	-0.7227173	-0.059768677
1443280194029059399	-0.21310425	-0.7618103	-0.030456543
1443280194033759106	-0.30473328	-0.7972412	0.026947021
1443280194038489330	-0.30473328	-0.8351135	0.026947021
1443280194043402660	-0.4159088	-0.8351135	0.11001587
1443280194048621166	-0.5478668	-0.8791046	0.21144104
1443280194051794994	-0.6981354	-0.92796326	0.32504272
1443280194058630932	-0.8508606	-0.96095276	0.4484558
1443280194063513744	-0.99868774	-0.94018555	0.581604
1443280194068732250	-1.1526184	-0.83877563	0.7245636
1443280194073615063	-1.3346558	-0.66041565	0.8809204
1443280194078680981	-1.560669	-0.43804932	1.0544128
1443280194083685863	-1.8245697	-0.22059631	1.2376862
1443280194088873852	-2.0933533	-0.039779663	1.4197235
1443280194094244946	-2.3230286	0.104385376	1.5895233
1443280194098975170	-2.4769592	0.23388672	1.7471313
1443280194102118481	-2.4769592	0.3780365	1.7471313
1443280194109045971	-2.5563812	0.3780365	2.0207977
1443280194113898266	-2.5404968	0.7457733	2.124649
1443280194119086254	-2.518509	0.9510193	2.2003937
1443280194123969067	-2.4879608	1.1636047	2.2456055
1443280194129004467	-2.4354248	1.3859558	2.2614899
1443280194134039867	-2.4354248	1.6144257	2.2614899
1443280194139197338	-2.3499146	1.6144257	2.2443695
1443280194145056713	-2.1348877	1.8184509	2.0806732
1443280194149268139	-2.1348877	1.9223022	2.0806732
1443280194152533520	-2.067688	1.9223022	1.9328461
1443280194159399975	-2.059143	1.7329254	1.7642365
1443280194164252270	-2.103119	1.4018402	1.6042023
1443280194169470776	-2.1690826	1.0096741	1.4771423
1443280194174292553	-2.2314148	0.64682007	1.3903961
1443280194180396069	-2.2717133	0.3731537	1.3451843
1443280194184393871	-2.2790527	0.20700073	1.3366394
1443280194189948071	-2.2472992	0.13980103	1.3623047
1443280194195258129	-2.1837616	0.15934753	1.4233704
1443280194199988354	-2.1116638	0.25830078	1.513794
1443280194202857006	-2.1116638	0.42080688	1.513794
1443280194210577953	-2.0127258	0.42080688	1.7349243
1443280194214575756	-1.9858398	0.79219055	1.8240967
1443280194219519604	-1.9662781	0.90826416	1.8741913
1443280194224799145	-1.9503937	0.9461365	1.88031
1443280194229987133	-1.940628	0.91804504	1.8509827
1443280194234900463	-1.940628	0.85206604	1.8509827
1443280194239752758	-1.9345093	0.85206604	1.7996674
1443280194244849194	-1.9210968	0.7836609	1.736145
1443280194249884594	-1.888092	0.73965454	1.6579437
1443280194253363598	-1.8355713	0.73721313	1.5614319
1443280194259924877	-1.7720337	0.77142334	1.447815
1443280194264960278	-1.7109375	0.82395935	1.3305359
1443280194269995678	-1.6584015	0.8752899	1.2205658
1443280194275183666	-1.6095428	0.92536926	1.1252899
1443280194280554760	-1.5570068	0.9925537	1.0483093
1443280194285254467	-1.5020447	1.0915375	0.996994
1443280194290137279	-1.4531555	1.2234802	0.9762268
1443280194295203197	-1.4213867	1.3737488	0.9872284
1443280194300208080	-1.4030609	1.525238	1.022644
1443280194303534496	-1.4030609	1.6730652	1.022644
1443280194310461987	-1.3725281	1.6730652	1.1228333
1443280194315283764	-1.343216	1.9381714	1.1668243
1443280194320502270	-1.302887	2.0359192	1.2046814
1443280194325385082	-1.2527924	2.1018982	1.2364502
1443280194330420483	-1.2527924	2.1434326	1.2364502
1443280194335455883	-1.1966095	2.1434326	1.2669983
1443280194340613354	-1.1330719	2.167862	1.2926636
1443280194346655834	-0.979126	2.1715393	1.3219757
1443280194350562084	-0.979126	2.0884552	1.3219757
1443280194354071606	-0.8801727	2.0884552	1.3170929
1443280194360632885	-0.7579956	1.9931488	1.2963257
1443280194365881908	-0.6126251	1.8770905	1.2621155
1443280194370825756	-0.45011902	1.7659302	1.215683
1443280194375708569	-0.27908325	1.679184	1.1643829
1443280194380774487	-0.108047485	1.6242065	1.110611
1443280194385840404	0.06175232	1.5875397	1.0544128
1443280194390997875	0.22790527	1.5557709	0.9933319
1443280194396430004	0.386734	1.5215607	0.9334564
1443280194401068676	0.5394592	1.4837036	0.878479
1443280194405158031	0.684845	1.4409332	0.82962036
1443280194411139477	0.82289124	1.3884125	0.7819824
1443280194415900219	0.9487152	1.3248749	0.72332764
1443280194421210278	1.0660095	1.2491302	0.6500244
1443280194426123608	1.0660095	1.1660614	0.6500244
1443280194431128490	1.1784058	1.1660614	0.5620575
1443280194436133373	1.2883606	1.0792999	0.4643402
1443280194441321362	1.3983307	0.99990845	0.3665924
1443280194447150219	1.5070496	0.93392944	0.2774048
1443280194451361645	1.6170197	0.88627625	0.2040863
1443280194454596508	1.7294159	0.8545227	0.15034485
1443280194461432446	1.8405914	0.8312988	0.10757446
1443280194466284740	1.9395447	0.8141937	0.06970215
1443280194471503246	2.007965	0.80319214	0.029403687
1443280194476447094	2.0287323	0.8093109	-0.019470215
1443280194481451977	1.9835205	0.83984375	-0.079330444
1443280194486517895	1.8576813	0.90338135	-0.15141296
1443280194491705883	1.6426697	1.0011139	-0.22836304
1443280194497107494	1.3421173	1.1269531	-0.29190063
1443280194501807201	0.9780426	1.2625732	-0.31756592
1443280194504950512	0.9780426	1.3822937	-0.31756592
1443280194511664379	0.19737244	1.3822937	-0.20271301
1443280194516730297	-0.13980103	1.421402	-0.06588745
1443280194522833813	-0.40370178	1.3004303	0.10635376
1443280194526984203	-0.40370178	1.1074066	0.2993927
1443280194532446850	-0.7323456	1.1074066	0.5034332
1443280194536871899	-0.7323456	0.7445679	0.5034332
1443280194541876781	-0.8337555	0.7445679	0.7037964
1443280194547736156	-0.9095001	0.6798096	0.8858185
1443280194551886547	-0.96203613	0.7140045	1.0287628
1443280194555335033	-0.9889221	0.8251953	1.1203918
1443280194562048901	-0.99012756	0.9779053	1.1570282
1443280194567084301	-0.96936035	1.1379547	1.1448212
1443280194572150219	-0.93515015	1.280899	1.088623
1443280194577338207	-0.8911743	1.4042816	0.996994
1443280194582709301	-0.8349762	1.5142365	0.8845978
1443280194587378490	-0.75923157	1.6144257	0.76976013
1443280194592230785	-0.65782166	1.6938324	0.674469
1443280194597327221	-0.5307617	1.7390442	0.6121521
1443280194602332104	-0.38171387	1.7378082	0.5791626
1443280194605841625	-0.38171387	1.6865082	0.5791626
1443280194612433422	-0.03718567	1.6865082	0.54862976
1443280194617438305	0.14604187	1.4421692	0.51564026
1443280194622443188	0.14604187	1.2369232	0.51564026
1443280194627631176	0.3329773	1.2369232	0.45333862
1443280194633032787	0.5247803	0.95957947	0.35559082
1443280194637763012	0.7263794	0.6052704	0.22485352
1443280194642584789	0.94018555	0.18133545	0.06359863
1443280194647559154	1.1551971	-0.29878235	-0.12208557
1443280194652686108	1.3445587	-0.8241272	-0.32244873
1443280194656195629	1.4752808	-1.384903	-0.5252533
1443280194662909496	1.5192719	-1.951767	-0.70606995
1443280194667822826	1.4557495	-2.4710083	-0.8343506
1443280194672949779	1.2688293	-2.8582916	-0.8746643
1443280194679175365	0.94750977	-3.0122375	-0.8001404
1443280194682867992	0.49546814	-2.8582916	-0.5973358
1443280194688635815	-0.048187256	-2.3915863	-0.28089905
1443280194692938793	-0.60284424	-1.7025452	0.11001587
1443280194698645580	-1.0402222	-0.97073364	0.50831604
1443280194703192699	-1.2247009	-0.39283752	0.81985474
1443280194706397045	-1.2247009	-0.09475708	0.81985474
1443280194713110912	-0.67614746	-0.09475708	0.91148376
1443280194718115795	-0.67614746	-0.32077026	0.7343292
1443280194723364819	-0.1593628	-0.32077026	0.7343292
1443280194728186596	0.2853241	-0.6616211	0.5070801
1443280194733313549	0.56877136	-1.0305939	0.2566223
1443280194738318432	0.7202606	-1.3824615	-0.047561646
1443280194743506420	0.8351135	-1.7233124	-0.42384338
1443280194748877514	1.0012665	-2.099594	-0.8196869
1443280194753546703	1.2456207	-2.5479736	-1.1385651
1443280194756964672	1.5204926	-3.0598907	-1.3120422
1443280194763586987	1.7501831	-3.5607758	-1.3462524
1443280194768500317	1.8784485	-3.9529572	-1.3181458
1443280194773688305	1.8967743	-4.1655426	-1.3169403
1443280194778571117	1.8259277	-4.159439	-1.3853455
1443280194784277904	1.6854401	-3.9297485	-1.5050659
1443280194788641918	1.4960632	-3.489914	-1.6162567
1443280194793829906	1.2957001	-2.8949432	-1.6590118
1443280194799201000	1.1344299	-2.2474213	-1.6003723
1443280194803931225	1.0513611	-1.6732178	-1.4427643
1443280194807013500	1.0513611	-1.2761536	-1.4427643
1443280194813971508	1.059906	-1.2761536	-0.9492035
1443280194818854321	1.059906	-1.0879974	-0.9492035
1443280194824072826	1.0672302	-1.0879974	-0.71951294
1443280194829077709	1.0586853	-1.1600952	-0.5692444
1443280194834692944	1.0611267	-1.230957	-0.5044861
1443280194839179028	1.1124268	-1.2773743	-0.4837036
1443280194844031322	1.2248535	-1.3262482	-0.45928955
1443280194848975170	1.3800049	-1.4056702	-0.42019653
1443280194855078686	1.5400391	-1.514389	-0.39207458
1443280194864722240	1.7379608	-1.6536865	-0.4629364
1443280194869208324	1.7526245	-1.6219177	-0.5570221
1443280194874609936	1.7281799	-1.514389	-0.6669769
1443280194879401196	1.6854401	-1.344574	-0.77815247
1443280194884375561	1.6377869	-1.125885	-0.88442993
1443280194889533031	1.588913	-0.88642883	-0.98706055
1443280194894354809	1.5388184	-0.66285706	-1.086029
1443280194900366772	1.4875183	-0.4967041	-1.1764221
1443280194904456127	1.4361877	-0.41363525	-1.2472839
1443280194907935131	1.4361877	-0.41851807	-1.2472839
1443280194914496410	1.3885345	-0.41851807	-1.3120422
1443280194919531811	1.3409119	-0.4967041	-1.3120422
1443280194924567211	1.2883606	-0.6164398	-1.3108215
1443280194929633129	1.2285004	-0.7398224	-1.2949371
1443280194935431469	1.1674042	-0.84365845	-1.2692871
1443280194939826000	1.1124268	-0.92552185	-1.2301941
1443280194944739330	1.0660095	-0.9988251	-1.1739807
1443280194949744213	1.0293579	-1.0672302	-1.1019135
1443280194954810131	1.0024872	-1.1295624	-1.0237122
1443280194958167065	0.9853821	-1.179657	-0.9479675
1443280194964880932	0.97439575	-1.217514	-0.8795471
1443280194969916332	0.9645996	-1.2444	-0.82458496
1443280194975134838	0.9523926	-1.2578278	-0.79037476
1443280194980109203	0.93774414	-1.2578278	-0.78305054
1443280194985724438	0.91941833	-1.2505035	-0.8013611
1443280194990057934	0.89497375	-1.2468414	-0.836792
1443280194995215404	0.86442566	-1.2480621	-0.8819885
1443280195000617016	0.83021545	-1.2541656	-0.9296417
1443280195005347240	0.79600525	-1.2615051	-0.9772949
1443280195008521069	0.79600525	-1.2663879	-0.9772949
1443280195015357006	0.7654724	-1.2663879	-1.0603638
1443280195021063793	0.723938	-1.2676086	-1.0896912
1443280195025458324	0.723938	-1.2615051	-1.0896912
1443280195030737865	0.710495	-1.2615051	-1.1116791
1443280195036353100	0.69584656	-1.2480621	-1.1312256
1443280195041083324	0.68240356	-1.2138519	-1.1544495
1443280195045447338	0.6762848	-1.1490936	-1.1862183
1443280195050604809	0.6872864	-1.0550232	-1.2265167
1443280195055670727	0.7202606	-0.94018555	-1.2680664
1443280195058844555	0.7740326	-0.8131256	-1.3010559
1443280195065711010	0.83999634	-0.6860657	-1.3144836
1443280195070624340	0.9071808	-0.57855225	-1.2986145
1443280195075812328	0.95606995	-0.5150299	-1.252182
1443280195080664623	0.9756012	-0.51135254	-1.1862183
1443280195085761059	0.9645996	-0.56266785	-1.1116791
1443280195090765942	0.9255066	-0.6567383	-1.042038
1443280195095923412	0.86564636	-0.7740326	-0.9809723
1443280195101294506	0.79356384	-0.88642883	-0.9223175
1443280195105841625	0.7202606	-0.96339417	-0.8624573
1443280195109198559	0.7202606	-0.9878235	-0.8624573
1443280195116095531	0.6518402	-0.9878235	-0.8050232
1443280195120947826	0.59198	-0.95973206	-0.7622833
1443280195126166332	0.53456116	-0.8974304	-0.7414856
1443280195131018627	0.47224426	-0.8192291	-0.74884033
1443280195136084545	0.39649963	-0.7398224	-0.77571106
1443280195141119946	0.30976868	-0.66897583	-0.80992126
1443280195146155346	0.2193451	-0.6090851	-0.8343506
1443280195152136791	0.14360046	-0.55778503	-0.8392334
1443280195156378735	0.10084534	-0.5174713	-0.8160248
1443280195159461010	0.09718323	-0.49302673	-0.76348877
1443280195166480053	0.12651062	-0.49302673	-0.6889496
1443280195171301830	0.169281	-0.5211334	-0.5997772
1443280195176459301	0.20349121	-0.57733154	-0.5105896
1443280195181494701	0.21813965	-0.65553284	-0.4287262
1443280195187933910	0.20837402	-0.7508087	-0.35543823
1443280195191626537	0.17660522	-0.8497772	-0.28701782
1443280195197607983	0.124069214	-0.93408203	-0.22471619
1443280195202338207	0.0544281	-0.99150085	-0.17218018
1443280195208014477	-0.031066895	-1.0171509	-0.1306305
1443280195216681469	-0.1288147	-1.0122681	-0.09397888
1443280195221686352	-0.23266602	-0.97439575	-0.051223755
1443280195226721752	-0.33039856	-0.908432	0.0037231445
1443280195231726635	-0.41226196	-0.82289124	0.07337952
1443280195237708080	-0.4745636	-0.72883606	0.15522766
1443280195242011059	-0.52586365	-0.6249695	0.24319458
1443280195246832836	-0.5747528	-0.5150299	0.337265
1443280195251898754	-0.63583374	-0.40263367	0.44110107
1443280195256903637	-0.71769714	-0.30244446	0.5632782
1443280195260260571	-0.8251953	-0.22303772	0.7062378
1443280195266974438	-0.9595947	-0.15829468	0.866272
1443280195272040356	-1.1123047	-0.09107971	1.0312042
1443280195277045238	-1.2735748	-0.008010864	1.190033
1443280195282111156	-1.4311829	0.0970459	1.3366394
1443280195287940014	-1.577774	0.21920776	1.4747009
1443280195292365063	-1.7121735	0.3474884	1.6078491
1443280195297217358	-1.8294525	0.4806671	1.736145
1443280195302283276	-1.928421	0.6211548	1.8583069
1443280195307288158	-1.928421	0.7799835	1.8583069
1443280195310614574	-2.0053864	0.7799835	1.9658203
1443280195317358959	-2.0615845	0.9620209	2.0501251
1443280195322394360	-2.1043396	1.1611633	2.1014404
1443280195327582348	-2.1434326	1.3688507	2.1160889
1443280195332587231	-2.184967	1.5716553	2.0953217
1443280195338294018	-2.2179718	1.75737	2.0391235
1443280195342658031	-2.225296	1.9039764	1.9450531
1443280195347693432	-2.1910858	1.9809418	1.814331
1443280195354102123	-2.1116638	1.96138	1.6591797
1443280195357611645	-2.0017242	1.8441162	1.513794
1443280195361151684	-1.888092	1.6559601	1.4111633
1443280195367835033	-1.7989197	1.4409332	1.368393
1443280195372839916	-1.7512665	1.2381287	1.3732758
1443280195377936352	-1.7475891	1.0609741	1.4013977
1443280195382941235	-1.7744751	0.91070557	1.4331665
1443280195387885082	-1.8184662	0.7751007	1.4563751
1443280195392889965	-1.8697662	0.6382599	1.473465
1443280195398047436	-1.9210968	0.48799133	1.4881439
1443280195403449047	-1.9711914	0.3267212	1.4917908
1443280195408148754	-1.9711914	0.17156982	1.4722595
1443280195412055004	-2.02005	0.17156982	1.4722595
1443280195418219555	-2.0615845	0.05307007	1.4246063
1443280195423132885	-2.0957947	-6.713867E-4	1.3586273
1443280195428290356	-2.1251068	0.015213013	1.2828827
1443280195433142651	-2.160553	0.07626343	1.2010345
1443280195439185131	-2.2106476	0.15202332	1.1142883
1443280195443213451	-2.2717133	0.22164917	1.0275421
1443280195448279369	-2.3315887	0.279068	0.9530182
1443280195453803051	-2.3743439	0.3267212	0.8968048
1443280195458472240	-2.3877716	0.37071228	0.8552704
1443280195461707104	-2.3731232	0.4232483	0.82595825
1443280195468573559	-2.3401337	0.4806671	0.80519104
1443280195473425854	-2.3010406	0.5258789	0.79418945
1443280195478644360	-2.264389	0.53685	0.79663086
1443280195483496654	-2.2289734	0.5075531	0.81495667
1443280195488593090	-2.1825256	0.4574585	0.8516083
1443280195493597973	-2.120224	0.424469	0.905365
1443280195498816479	-2.0432587	0.43669128	0.9664612
1443280195504157055	-1.9662781	0.49531555	1.0189972
1443280195508887279	-1.9662781	0.57717896	1.0189972
1443280195512061108	-1.8978729	0.57717896	1.0580902
1443280195519965160	-1.7891388	0.66148376	1.1203918
1443280195523779858	-1.7891388	0.8276367	1.1203918
1443280195529395092	-1.7390594	0.8276367	1.1595001
1443280195534003246	-1.6816406	0.91804504	1.1997986
1443280195539130199	-1.6132202	1.0108795	1.2328033
1443280195544104565	-1.5325775	1.0976257	1.2584534
1443280195549262035	-1.4397125	1.1746063	1.2755432
1443280195554022778	-1.3370972	1.2344818	1.2902069
1443280195559058178	-1.2308197	1.2747803	1.3012085
1443280195562415112	-1.1245117	1.294342	1.307312
1443280195569159496	-1.0231171	1.2955475	1.3048706
1443280195574042309	-0.9278259	1.2772217	1.2902069
1443280195579169262	-0.8337555	1.2381287	1.2572174
1443280195584235180	-0.73602295	1.1782684	1.2046814
1443280195589697826	-0.62605286	1.0976257	1.1350555
1443280195594489086	-0.502655	0.99990845	1.0556335
1443280195599341381	-0.502655	0.90093994	0.9737854
1443280195604407299	-0.37561035	0.8227539	0.9737854
1443280195609412182	-0.25099182	0.8227539	0.8870392
1443280195612921703	-0.1288147	0.77633667	0.79907227
1443280195619452465	-0.009109497	0.7604523	0.7086792
1443280195624487865	0.11062622	0.7677765	0.6194916
1443280195629553783	0.22914124	0.7958679	0.53518677
1443280195634711254	0.34519958	0.8459625	0.45822144
1443280195640112865	0.46492004	0.91560364	0.39224243
1443280195644812572	0.5883179	0.9962311	0.3360443
1443280195649664867	0.71170044	1.0817566	0.28718567
1443280195654761303	0.8363342	1.1648254	0.24073792
1443280195659735668	0.96339417	1.241806	0.19432068
1443280195663092602	1.0916595	1.307785	0.14302063
1443280195669959057	1.2162933	1.3603058	0.084365845
1443280195674872387	1.331131	1.3920746	0.017166138
1443280195680060375	1.4313049	1.4030609	-0.052444458
1443280195686377514	1.5107269	1.3932953	-0.119644165
1443280195689948071	1.5583649	1.3676453	-0.1807251
1443280195696143139	1.566925	1.3321991	-0.2271576
1443280195700049389	1.566925	1.2992249	-0.2271576
1443280195706763256	1.4471893	1.2992249	-0.24304199
1443280195710120190	1.4471893	1.2833405	-0.24304199
1443280195713660229	1.3250275	1.2833405	-0.2002716
1443280195720313061	1.1710815	1.294342	-0.123306274
1443280195725287426	0.99516296	1.2979889	-0.02067566
1443280195730322826	0.80822754	1.2760162	0.09536743
1443280195735297192	0.6261902	1.2198029	0.21144104
1443280195741095531	0.46492004	1.123291	0.32260132
1443280195745337475	0.3354187	0.97914124	0.42156982
1443280195750494946	0.24502563	0.78486633	0.5070801
1443280195756049145	0.18637085	0.55397034	0.5755005
1443280195760596264	0.14971924	0.32183838	0.6255951
1443280195764594067	0.12895203	0.13369751	0.6659088
1443280195770728100	0.11306763	0.03353882	0.713562
1443280195775580395	0.09107971	0.043304443	0.77708435
1443280195780737865	0.0544281	0.17034912	0.8552704
1443280195785651196	0.0018920898	0.40370178	0.931015
1443280195790656078	-0.059188843	0.7066803	0.9811096
1443280195795721996	-0.059188843	1.0267639	0.9896698
1443280195800909985	-0.12149048	1.0267639	0.9896698
1443280195806403149	-0.22898865	1.307785	0.8711548
1443280195810980785	-0.22898865	1.6180878	0.8711548
1443280195814154613	-0.26075745	1.6180878	0.7685394
1443280195821082104	-0.26687622	1.6461945	0.65979004
1443280195825903881	-0.23631287	1.6144257	0.5547333
1443280195831122387	-0.1630249	1.538681	0.45942688
1443280195835974682	-0.04574585	1.4274902	0.36779785
1443280195841040600	0.10574341	1.2845612	0.2676239
1443280195846045483	0.27433777	1.109848	0.14422607
1443280195852576244	0.44415283	0.90338135	-0.007247925
1443280195856970776	0.6090851	0.6529236	-0.17828369
1443280195862402904	0.7703552	0.35482788	-0.35910034
1443280195872412670	1.0623474	0.0115356445	-0.7146301
1443280195876288403	1.1551971	-0.7386017	-0.8783417
1443280195881445873	1.173523	-1.113678	-1.0115051
1443280195886481274	1.0904541	-1.4606476	-1.0872498
1443280195891974438	0.888855	-1.7428589	-1.0762482
1443280195896430004	0.888855	-1.9102325	-1.0762482
1443280195901495922	0.5736542	-1.9102325	-0.96873474
1443280195907599438	-0.26075745	-1.9212341	-0.52770996
1443280195911505688	-0.26075745	-1.4899597	-0.52770996
1443280195914862621	-0.64559937	-1.4899597	-0.25280762
1443280195921637524	-0.8862915	-1.2285156	0.011077881
1443280195926550854	-0.90338135	-1.1307678	0.22732544
1443280195931677807	-0.6736908	-1.2871552	0.3617096
1443280195936835278	-0.2436676	-1.6524506	0.4008026
1443280195942236889	0.27433777	-2.078827	0.34336853
1443280195946784008	0.74346924	-2.4123535	0.20288086
1443280195951788891	1.0525818	-2.577301	-0.0060424805
1443280195957373608	1.1503143	-2.5662994	-0.27236938
1443280195961859692	1.0660095	-2.4123535	-0.5777893
1443280195965369213	1.0660095	-2.1728973	-0.5777893
1443280195971961010	0.7056122	-2.1728973	-1.1202393
1443280195976996410	0.60298157	-1.7660675	-1.2729492
1443280195982001293	0.5968628	-1.7440796	-1.3364868
1443280195987036694	0.6652832	-1.8833466	-1.3377075
1443280195993018139	0.7740326	-2.1496887	-1.2986145
1443280195997138012	0.7740326	-2.4661255	-1.2986145
1443280196002173412	0.90353394	-2.4661255	-1.2350769
1443280196007971752	1.0403595	-2.7239075	-1.1629791
1443280196012244213	1.1710815	-2.835083	-1.0982361
1443280196015723217	1.278595	-2.7727814	-1.0481567
1443280196022437084	1.3470001	-2.5736237	-1.0090637
1443280196028265942	1.3726654	-2.3011932	-0.97117615
1443280196032538403	1.3531189	-2.0165253	-0.92596436
1443280196038031567	1.2969208	-1.7660675	-0.8722229
1443280196042456615	1.2150574	-1.5791473	-0.8148041
1443280196048132885	1.1283112	-1.461853	-0.76104736
1443280196052527416	1.0586853	-1.4019928	-0.7146301
1443280196057501781	1.0269165	-1.3812256	-0.6755371
1443280196062720287	1.0428009	-1.3885498	-0.64253235
1443280196065955151	1.0428009	-1.4178772	-0.64253235
1443280196072791088	1.1942902	-1.4178772	-0.5936737
1443280196077582348	1.2993622	-1.4826355	-0.5838928
1443280196082892406	1.3995361	-1.4862976	-0.5900116
1443280196087775219	1.4801788	-1.4667511	-0.6119995
1443280196093512524	1.5339355	-1.4313202	-0.6462097
1443280196097846020	1.5339355	-1.3787842	-0.6462097
1443280196103034008	1.5608063	-1.3787842	-0.68774414
1443280196108344067	1.5681458	-1.305481	-0.73295593
1443280196113104809	1.5632477	-1.2004242	-0.77815247
1443280196116217602	1.5510406	-1.0635834	-0.8209076
1443280196123145092	1.5314941	-0.908432	-0.8600006
1443280196128058422	1.5034027	-0.7532654	-0.8929901
1443280196133215893	1.470398	-0.62132263	-0.92108154
1443280196138129223	1.4337463	-0.53089905	-0.9479675
1443280196143164623	1.3958893	-0.48814392	-0.9748535
1443280196148200024	1.3567963	-0.49180603	-1.0017395
1443280196153388012	1.3152466	-0.53089905	-1.0249481
1443280196158850658	1.2761536	-0.59809875	-1.042038
1443280196163458813	1.2431641	-0.684845	-1.0481567
1443280196166663158	1.2431641	-0.7862396	-1.0481567
1443280196173529613	1.2077332	-0.7862396	-1.0273895
1443280196178412426	1.1918488	-0.97439575	-1.0078278
1443280196183600414	1.1686401	-1.0379181	-0.98706055
1443280196188483227	1.1686401	-1.0782318	-0.96873474
1443280196193518627	1.1381073	-1.0782318	-0.96873474
1443280196198554028	1.1051025	-1.1014404	-0.9565277
1443280196204840649	1.0281372	-1.112442	-0.9565277
1443280196210242260	0.97927856	-1.1185608	-0.9748535
1443280196214514721	0.97927856	-1.1283264	-0.9748535
1443280196217017162	0.92674255	-1.1283264	-1.0078278
1443280196224097240	0.87420654	-1.1454468	-1.0481567
1443280196228735912	0.82655334	-1.1637726	-1.0884705
1443280196233893383	0.78868103	-1.1759796	-1.1214447
1443280196238989819	0.7654724	-1.1820984	-1.1410065
1443280196244482983	0.7642517	-1.1820984	-1.1483307
1443280196249060619	0.7813568	-1.1808624	-1.1483307
1443280196253912914	0.80700684	-1.1808624	-1.1422119
1443280196260107983	0.83021545	-1.1845398	-1.1312256
1443280196263983715	0.84121704	-1.1881866	-1.1165619
1443280196267340649	0.84121704	-1.1869812	-1.1165619
1443280196274085033	0.82533264	-1.1869812	-1.086029
1443280196279120434	0.802124	-1.1747437	-1.0713654
1443280196284125317	0.7703552	-1.1674194	-1.0603638
1443280196289343822	0.7703552	-1.166214	-1.0615997
1443280196295142162	0.697052	-1.166214	-1.0774689
1443280196299384106	0.697052	-1.1710968	-1.0774689
1443280196304266918	0.657959	-1.1710968	-1.1116791
1443280196310034740	0.6249695	-1.152771	-1.1580963
1443280196314337719	0.6066437	-1.1038818	-1.2057495
1443280196317847240	0.6078644	-1.020813	-1.2460785
1443280196324591625	0.63230896	-0.90963745	-1.2729492
1443280196329474438	0.671402	-0.7850189	-1.2814941
1443280196334631908	0.7153778	-0.66773987	-1.2668457
1443280196339545238	0.7520294	-0.57977295	-1.2265167
1443280196344550121	0.7691345	-0.5382385	-1.1642151
1443280196349616039	0.75691223	-0.55166626	-1.0896912
1443280196354804028	0.71417236	-0.61276245	-1.0139465
1443280196360815990	0.6493988	-0.7031708	-0.9479675
1443280196364722240	0.57733154	-0.7935791	-0.8917694
1443280196368079174	0.57733154	-0.8607788	-0.8917694
1443280196374976147	0.45515442	-0.8607788	-0.79403687
1443280196380316723	0.41238403	-0.87542725	-0.7414856
1443280196385016430	0.37452698	-0.82289124	-0.69018555
1443280196390021313	0.37452698	-0.7386017	-0.69018555
1443280196394965160	0.3354187	-0.7386017	-0.64497375
1443280196400000561	0.28778076	-0.6384125	-0.6119995
1443280196404974926	0.23034668	-0.53089905	-0.5936737
1443280196410742748	0.16436768	-0.42340088	-0.58755493
1443280196415228832	0.09840393	-0.32199097	-0.58877563
1443280196419440258	0.037322998	-0.23768616	-0.5851135
1443280196425299633	-0.009109497	-0.1815033	-0.565567
1443280196430151928	-0.035964966	-0.16194153	-0.5252533
1443280196435370434	-0.04206848	-0.17414856	-0.47029114
1443280196440222729	-0.031066895	-0.21203613	-0.40919495
1443280196445960033	-0.007873535	-0.26823425	-0.35177612
1443280196450324047	0.015335083	-0.33421326	-0.30168152
1443280196455512035	0.02633667	-0.40263367	-0.25769043
1443280196460883129	0.01777649	-0.4649353	-0.216156
1443280196465613354	-0.016433716	-0.518692	-0.17338562
1443280196468787182	-0.016433716	-0.56266785	-0.17338562
1443280196475653637	-0.15692139	-0.56266785	-0.079330444
1443280196480536449	-0.25587463	-0.59931946	-0.025558472
1443280196485724438	-0.25587463	-0.5871124	-0.025558472
1443280196490607250	-0.36094666	-0.5871124	0.035491943
1443280196495642651	-0.46600342	-0.56388855	0.10513306
1443280196500647533	-0.57229614	-0.5357971	0.1857605
1443280196505866039	-0.6871338	-0.5003662	0.27618408
1443280196511237133	-0.8166504	-0.4478302	0.37879944
1443280196515936840	-0.96447754	-0.37086487	0.4960785
1443280196519141186	-1.1269531	-0.26945496	0.6280365
1443280196526068676	-1.3016815	-0.15338135	0.76730347
1443280196530859936	-1.4824829	-0.021438599	0.90660095
1443280196535834301	-1.6620789	0.12879944	1.0409851
1443280196540930737	-1.836792	0.29862976	1.1802673
1443280196546820629	-2.006607	0.47454834	1.3317413
1443280196551032055	-2.1703186	0.64559937	1.4966736
1443280196556281078	-2.3218079	0.7995453	1.6640625
1443280196561896313	-2.442749	0.9326935	1.8204498
1443280196566290844	-2.5172882	1.0426483	1.9523773
1443280196569495190	-2.5172882	1.1452789	1.9523773
1443280196576086987	-2.5380554	1.1452789	2.1148834
1443280196581213940	-2.5380554	1.4006195	2.1148834
1443280196586310375	-2.5148468	1.4006195	2.136856
1443280196591437328	-2.4818726	1.5704498	2.1173248
1443280196596869457	-2.4391022	1.7378082	2.059906
1443280196601538647	-2.3865662	1.861206	1.9780426
1443280196606421459	-2.3352509	1.8941956	1.8790741
1443280196611487377	-2.2875977	1.80867	1.7703552
1443280196616461742	-2.2424011	1.60466	1.6579437
1443280196619849194	-2.1874084	1.3175507	1.5492249
1443280196626563061	-2.1214447	1.0035553	1.4563751
1443280196631506908	-2.0432587	0.7176819	1.394043
1443280196636633862	-1.9589539	0.50631714	1.368393
1443280196641791332	-1.8722076	0.3939209	1.3769531
1443280196647650707	-1.7940216	0.3792572	1.4160461
1443280196651862133	-1.7353821	0.44033813	1.4747009
1443280196656744946	-1.6999664	0.54052734	1.5431061
1443280196662970531	-1.6865234	0.6529236	1.6127472
1443280196666846264	-1.697525	0.7628937	1.6775055
1443280196670355785	-1.697525	0.8630676	1.6775055
1443280196676917065	-1.7353821	0.8630676	1.7630157
1443280196681860912	-1.7964783	1.0096741	1.7630157
1443280196687109936	-1.8648834	1.0096741	1.7691345
1443280196692023266	-1.9223022	1.0463257	1.7471313
1443280196697028149	-1.9577484	1.0573273	1.7043915
1443280196703192699	-1.9723969	1.0463257	1.6542969
1443280196707098949	-1.967514	1.0267639	1.6029663
1443280196714545238	-1.888092	1.0182343	1.5052338
1443280196717169750	-1.888092	1.0988617	1.5052338
1443280196720709789	-1.8160095	1.0988617	1.4612579
1443280196727423656	-1.7402649	1.1709442	1.4160461
1443280196732367504	-1.670639	1.2332458	1.368393
1443280196737463940	-1.6058807	1.2796631	1.3231964
1443280196742346752	-1.5374603	1.3297577	1.2877655
1443280196747382153	-1.4653931	1.4055176	1.2657776
1443280196752448071	-1.3969727	1.5007935	1.2535706
1443280196757636059	-1.3407593	1.5875397	1.2523346
1443280196762976635	-1.294342	1.6547394	1.2706604
1443280196767706860	-1.250351	1.718277	1.3060913
1443280196771613110	-1.250351	1.796463	1.3060913
1443280196777777660	-1.2026978	1.796463	1.3977203
1443280196782660473	-1.1538391	1.9711761	1.3977203
1443280196787817944	-1.1037445	1.9711761	1.4356079
1443280196792731274	-1.0512238	2.0261536	1.4636993
1443280196797705639	-0.99868774	2.0469208	1.4795837
1443280196802802074	-0.9437103	2.0383606	1.4807892
1443280196807990063	-0.8838501	2.0102692	1.4661407
1443280196813361156	-0.8190918	1.9699402	1.4368134
1443280196818030346	-0.7457886	1.9259644	1.3952789
1443280196821265209	-0.66516113	1.8832092	1.3488617
1443280196828101147	-0.5796356	1.8514404	1.2999878
1443280196832983959	-0.4880066	1.8245544	1.2474518
1443280196838202465	-0.38171387	1.7866974	1.1924744
1443280196843054760	-0.2571106	1.7243652	1.1350555
1443280196848792065	-0.11781311	1.6400757	1.0788574
1443280196853125561	0.025100708	1.5533295	1.0177612
1443280196858344067	0.16192627	1.4837036	0.9505768
1443280196863684643	0.29266357	1.4360504	0.87483215
1443280196868414867	0.41726685	1.3981781	0.79296875
1443280196871588696	0.41726685	1.3566437	0.79296875
1443280196879309643	0.64819336	1.3566437	0.6365814
1443280196883337963	0.64819336	1.2588959	0.6365814
1443280196889288891	0.86076355	1.2588959	0.49243164
1443280196893561352	0.86076355	1.148941	0.49243164
1443280196898993481	0.968277	1.148941	0.4142456
1443280196903479565	1.0806732	1.0780945	0.3323822
1443280196908423412	1.2004089	0.9937897	0.24685669
1443280196914252270	1.3237915	0.89849854	0.16255188
1443280196918616283	1.4423065	0.7983093	0.07826233
1443280196922125805	1.5522614	0.7005768	-0.0023651123
1443280196928656567	1.6524353	0.60772705	-0.07688904
1443280196933691967	1.7391815	0.52220154	-0.14285278
1443280196938788403	1.8076019	0.44277954	-0.20150757
1443280196943945873	1.8479156	0.36827087	-0.25404358
1443280196949378002	1.8527985	0.30595398	-0.30290222
1443280196954016674	1.8149414	0.26197815	-0.34565735
1443280196958899487	1.7318573	0.24853516	-0.37864685
1443280196963934887	1.6060181	0.27053833	-0.40063477
1443280196968970287	1.4423065	0.33894348	-0.4104004
1443280196972327221	1.4423065	0.4574585	-0.4104004
1443280196979010571	1.2443848	0.4574585	-0.4104004
1443280196984076488	1.0220337	0.6211548	-0.39575195
1443280196989081371	0.79600525	0.8044281	-0.35665894
1443280196994269360	0.5883179	0.97058105	-0.28823853
1443280196999976147	0.41238403	1.0878601	-0.19415283
1443280197004187572	0.26455688	1.1477203	-0.079330444
1443280197009375561	0.1350708	1.162384	0.045272827
1443280197015021313	0.018997192	1.1452789	0.17723083
1443280197019293774	-0.079956055	1.0976257	0.3103943
1443280197022650707	-0.1593628	1.0206757	0.44477844
1443280197029486645	-0.21434021	0.91926575	0.5767212
1443280197034430492	-0.2436676	0.8068695	0.7037964
1443280197039618481	-0.24975586	0.7042389	0.8186188
1443280197044379223	-0.24243164	0.6333771	0.9126892
1443280197050330151	-0.23266602	0.61260986	0.9786682
1443280197055426586	-0.2253418	0.6394806	1.0189972
1443280197059760082	-0.21798706	0.6956787	1.0397644
1443280197064948071	-0.20578003	0.75309753	1.0507507
1443280197069830883	-0.18501282	0.79219055	1.0580902
1443280197073035229	-0.18501282	0.8044281	1.0580902
1443280197079901684	-0.14958191	0.8044281	1.0593109
1443280197084784496	-0.09338379	0.79219055	1.0483093
1443280197089972485	-0.01399231	0.75553894	1.0177612
1443280197094824779	0.08985901	0.6932373	0.9640198
1443280197099890697	0.21813965	0.602829	0.8845978
1443280197104895580	0.3720703	0.48677063	0.77830505
1443280197110083569	0.54800415	0.3474884	0.6402588
1443280197115912426	0.7288208	0.17767334	0.46554565
1443280197120032299	0.8827667	-0.023895264	0.25297546
1443280197123572338	0.9756012	-0.24990845	0.023284912
1443280197130255688	0.9756012	-0.47714233	-0.1953888
1443280197135107983	0.86442566	-0.68730164	-0.37010193
1443280197140295971	0.6225281	-0.868103	-0.4788208
1443280197145209301	0.22914124	-1.008606	-0.49105835
1443280197150244701	-0.29864502	-1.0794678	-0.37010193
1443280197155249584	-0.88749695	-1.0354767	-0.087875366
1443280197160284985	-1.4140625	-0.8632202	0.32626343
1443280197166174877	-1.7402649	-0.6139679	0.77342224
1443280197170538891	-1.7402649	-0.42340088	1.1277313
1443280197173743237	-1.7561493	-0.42340088	1.1277313
1443280197180609692	-1.4189453	-0.4307251	1.2999878
1443280197185461987	-0.8044281	-0.67874146	1.2889862
1443280197190711010	-0.0982666	-1.0770264	1.1460571
1443280197195532787	0.4844818	-1.4655304	0.9163666
1443280197200507153	0.815567	-1.7269745	0.5913849
1443280197205634106	0.9096222	-1.8479309	0.13446045
1443280197210669506	0.888855	-1.8919067	-0.42263794
1443280197216315258	0.8961792	-1.943222	-0.95773315
1443280197221777904	1.0134888	-2.0727081	-1.3181458
1443280197231848705	1.4643097	-2.7177887	-1.3987885
1443280197235877026	1.6658783	-3.2382507	-1.3034973
1443280197241614330	1.8027191	-3.808792	-1.2460785
1443280197246100414	1.8564758	-4.2938232	-1.2570801
