gyroscope_timestamp	gyroscope_x_data	gyroscope_y_data	gyroscope_z_data
341210825371604	1.241394	1.3452606	-1.9613953
341210830407004	1.2366638	1.3609619	-1.8993225
341210835442405	1.2223358	1.403717	-1.8465881
341210840477805	1.2019196	1.4756165	-1.7992249
341210845513206	1.1860352	1.5779724	-1.7556305
341210850548606	1.1799011	1.7141266	-1.7182465
341210855584006	1.1719971	1.8552856	-1.6850433
341210860619407	1.1450043	1.9646606	-1.6437836
341210865654807	1.1005402	2.0294495	-1.5841522
341210870690208	1.0322266	2.0635986	-1.5221405
341210875725608	0.9430847	2.086197	-1.4762115
341210880761008	0.8541107	2.126892	-1.4454346
341210885796409	0.77001953	2.1969452	-1.4117584
341210890831809	0.6898346	2.2807465	-1.3585968
341210895867210	0.6169281	2.3451385	-1.2767792
341210900902610	0.54711914	2.385788	-1.1551666
341210905938010	0.48106384	2.4002228	-0.9776306
341210910973411	0.36730957	2.3466797	-0.6133423
341210916008811	0.3122406	2.2902222	-0.47979736
341210921044211	0.22454834	2.2010498	-0.342865
341210926079612	0.125	2.0999756	-0.20472717
341210931115012	0.018692017	2.0210419	-0.07322693
341210936150413	-0.09176636	1.9693298	0.058883667
341210941185813	-0.19374084	1.9413147	0.19238281
341210946221213	-0.30319214	1.9369507	0.33795166
341210951256614	-0.42158508	1.9478302	0.47634888
341210956292014	-0.5558319	1.9593048	0.5862732
341210961327415	-0.7024231	1.9854889	0.6871033
341210966362815	-0.8514252	2.0352173	0.7980652
341210971398215	-0.9901428	2.1034546	0.9108887
341210976433616	-1.1423645	2.1895905	1.0413818
341210981469016	-1.2852631	2.2739563	1.173233
341210986504417	-1.4143219	2.3552399	1.2917175
341210991539817	-1.517395	2.449768	1.375534
341210996575217	-1.5841064	2.5674744	1.4120941
341211001610618	-1.6124115	2.6802368	1.4064484
341211006646018	-1.6017761	2.7964325	1.3723297
341211011681418	-1.5510559	2.8705292	1.3261108
341211016716819	-1.4771729	2.8723297	1.2762451
341211021752219	-1.378006	2.7915192	1.2241058
341211026787620	-1.2608185	2.6340637	1.1697388
341211031823020	-1.1339417	2.4326477	1.106308
341211036858420	-0.9419708	2.1939087	1.012619
341211041893821	-0.68785095	2.017395	0.88960266
341211046929221	-0.3635254	1.8707886	0.7242584
341211051964622	-0.013320923	1.6768494	0.5137024
341211057000022	0.2924652	1.386322	0.26480103
341211062035422	0.50572205	1.0389404	0.01524353
341211067070823	0.6240387	0.65579224	-0.27157593
341211072106223	0.6327667	0.38549805	-0.5274811
341211077141624	0.58262634	0.21766663	-0.7569275
341211082177024	0.51901245	0.13471985	-0.9577637
341211087212424	0.46922302	0.11416626	-1.1355591
341211092247825	0.44873047	0.14009094	-1.2782898
341211097283225	0.45718384	0.20962524	-1.3703156
341211102318626	0.4830475	0.28729248	-1.3973999
341211107354026	0.51530457	0.34461975	-1.3852081
341211112389426	0.5285034	0.34849548	-1.3348999
341211117424827	0.4875946	0.26797485	-1.2402344
341211122460227	0.3787384	0.07836914	-1.1065369
341211127495627	0.19485474	-0.24009705	-0.9423523
341211132531028	0.008911133	-0.58847046	-0.78248596
341211137566428	-0.13542175	-0.9120941	-0.6047363
341211142601829	-0.21281433	-1.1654816	-0.38764954
341211147637229	-0.21975708	-1.3307495	-0.14382935
341211152672629	-0.18109131	-1.4357758	0.12161255
341211157708030	-0.15888977	-1.5105591	0.39709473
341211162743430	-0.2265625	-1.561203	0.63705444
341211167778831	-0.37698364	-1.5980988	0.8409271
341211172814231	-0.550827	-1.6451721	0.99409485
341211177849631	-0.7078705	-1.7134094	1.0953217
341211182885032	-0.8612366	-1.779068	1.1635895
341211187920432	-0.9870453	-1.7826385	1.1919556
341211192955833	-0.9952545	-1.6695709	1.1683502
341211197991233	-0.80926514	-1.4125366	1.0836792
341211203026633	-0.4678192	-1.0639038	0.93156433
341211208062034	-0.13168335	-0.77763367	0.7473602
341211213097434	0.13955688	-0.6031952	0.552124
341211218132835	0.26733398	-0.5664673	0.4052887
341211223168235	0.23957825	-0.6055298	0.343338
341211228203635	0.08657837	-0.67170715	0.36639404
341211233239036	-0.14562988	-0.763855	0.41923523
341211238274436	-0.38328552	-0.90245056	0.449646
341211243309836	-0.6243744	-1.137207	0.46554565
341211248345237	-0.81681824	-1.4650726	0.47418213
341211253380637	-0.9739227	-1.8608704	0.48269653
341211258416038	-1.1271515	-2.28714	0.49232483
341211263451438	-1.3003387	-2.671585	0.5124817
341211268486838	-1.4712372	-2.923584	0.54707336
341211273522239	-1.6395874	-3.0907745	0.6158447
341211278557639	-1.7450256	-3.159912	0.7069855
341211283593040	-1.7786865	-3.1432343	0.81069946
341211288628440	-1.7497253	-3.0631409	0.9078522
341211293663840	-1.675705	-2.9740906	1.0078583
341211298699241	-1.5741577	-2.905487	1.1015472
341211303734641	-1.4334717	-2.8465729	1.2079315
341211308770042	-1.3178406	-2.7779846	1.3045349
341211313805442	-1.264389	-2.6634674	1.3957062
341211318840842	-1.273056	-2.5137787	1.4660034
341211323876243	-1.3179321	-2.358139	1.5037537
341211328911643	-1.3751526	-2.2102966	1.4987488
341211333947043	-1.4400787	-2.0480652	1.4516296
341211338982444	-1.4874878	-1.9185486	1.378067
341211344017844	-1.5048523	-1.817276	1.2834167
341211349053245	-1.5007477	-1.7466125	1.1927795
341211354088645	-1.4956055	-1.7041779	1.1246185
341211359124045	-1.5014191	-1.6842957	1.0788879
341211364159446	-1.5183105	-1.6830444	1.0393372
341211369194846	-1.5418091	-1.7083588	1.0053864
341211374230247	-1.5719452	-1.7677002	0.9753876
341211379265647	-1.6061096	-1.8513641	0.94828796
341211384301047	-1.6337891	-1.9295502	0.91793823
341211389336448	-1.6439056	-1.9848938	0.8835144
341211394371848	-1.6265869	-2.0032043	0.8469696
341211399407249	-1.5872803	-1.9693146	0.8218231
341211404442649	-1.5337677	-1.8907776	0.8110657
341211409478049	-1.4827728	-1.7719269	0.81114197
341211414513450	-1.4421082	-1.6292877	0.81604004
341211419548850	-1.4111481	-1.4858398	0.8275299
341211424584251	-1.3965759	-1.3585052	0.8477173
341211429619651	-1.3996124	-1.256607	0.87316895
341211434655051	-1.4077606	-1.1548462	0.90582275
341211439690452	-1.4058228	-1.0477142	0.9405823
341211444725852	-1.3925323	-0.950531	0.9725189
341211449761252	-1.3717041	-0.86531067	1.0024109
341211454796653	-1.3487091	-0.80648804	1.0273895
341211459832053	-1.3256531	-0.78408813	1.0504456
341211464867454	-1.3030548	-0.7966919	1.0750427
341211469902854	-1.2812042	-0.8470459	1.0987854
341211474938254	-1.2578278	-0.92736816	1.1212311
341211479973655	-1.2297363	-1.0378265	1.1414642
341211485009055	-1.1993256	-1.1557617	1.1600189
341211490044456	-1.1689148	-1.2593994	1.1815338
341211495079856	-1.135315	-1.341919	1.1981049
341211500115256	-1.1011505	-1.395752	1.2106934
341211505150657	-1.0700684	-1.419693	1.2227631
341211510186057	-1.0399017	-1.4247742	1.2377625
341211515221458	-1.009201	-1.417038	1.2542267
341211520256858	-0.96873474	-1.4116058	1.2635498
341211525292258	-0.9171753	-1.4163513	1.2629852
341211530327659	-0.85736084	-1.4368286	1.2505798
341211535363059	-0.796875	-1.4722595	1.2259369
341211540398460	-0.7326813	-1.5215149	1.1921997
341211545433860	-0.6756592	-1.5616455	1.1634216
341211550469260	-0.6251221	-1.5817413	1.141159
341211555504661	-0.58096313	-1.561264	1.1182404
341211560540061	-0.5447693	-1.483902	1.0922546
341211565575461	-0.5233612	-1.355896	1.0630951
341211570610862	-0.50886536	-1.1703033	1.0219116
341211575646262	-0.5091553	-0.9721832	0.98579407
341211580681663	-0.51652527	-0.77519226	0.95002747
341211585717063	-0.51911926	-0.5979004	0.9165497
341211590752463	-0.51242065	-0.4563141	0.88331604
341211595787864	-0.5042114	-0.3666687	0.84547424
341211600823264	-0.4909973	-0.3143463	0.78993225
341211605858665	-0.4747467	-0.30455017	0.74186707
341211610894065	-0.4519043	-0.3230133	0.70022583
341211615929465	-0.42095947	-0.3519745	0.6551819
341211620964866	-0.38104248	-0.3690796	0.607666
341211626000266	-0.333313	-0.3617859	0.554718
341211631035667	-0.27755737	-0.313385	0.4766693
341211636071067	-0.22290039	-0.2313385	0.38757324
341211641106467	-0.16523743	-0.13401794	0.29519653
341211646141868	-0.10852051	-0.044937134	0.20820618
341211651177268	-0.057250977	0.01725769	0.13066101
341211656212668	-0.013366699	0.045425415	0.06097412
341211661248069	0.027664185	0.027709961	-0.00730896
341211666283469	0.068099976	-0.033309937	-0.0625
341211671318870	0.116867065	-0.12590027	-0.10771179
341211676354270	0.17756653	-0.2266388	-0.1451416
341211681389670	0.24667358	-0.3096466	-0.17810059
341211686425071	0.3171997	-0.36349487	-0.21409607
341211691460471	0.38052368	-0.38435364	-0.26431274
341211696495872	0.42921448	-0.3849945	-0.33007813
341211701531272	0.47433472	-0.39030457	-0.41267395
341211706566672	0.5343933	-0.4133606	-0.50631714
341211711602073	0.62387085	-0.44851685	-0.60440063
341211716637473	0.7532959	-0.478302	-0.7095337
341211721672874	0.9133606	-0.47885132	-0.8181305
341211726708274	1.0678558	-0.44163513	-0.92004395
341211731743674	1.1964417	-0.3721466	-1.0145874
341211736779075	1.2891998	-0.28059387	-1.0996552
341211741814475	1.3590088	-0.18800354	-1.1760712
341211746849876	1.4396362	-0.096847534	-1.2597961
341211751885276	1.5475464	-0.01625061	-1.3525543
341211756920676	1.6848602	0.056533813	-1.452179
341211761956077	1.8449554	0.13768005	-1.5598907
341211766991477	2.0055237	0.23768616	-1.6697693
341211772026877	2.1439362	0.34155273	-1.768631
341211777062278	2.2599945	0.4350891	-1.8621674
341211782097678	2.326889	0.47373962	-1.9324341
341211787133079	2.3516846	0.4487915	-1.9746857
341211792168479	2.3502655	0.36517334	-1.9865723
341211797203879	2.3255768	0.23861694	-1.9821014
341211802239280	2.2867584	0.098083496	-1.9820709
341211807274680	2.230606	-0.080947876	-1.9898376
341211812310081	2.1772003	-0.2622528	-2.004303
341211817345481	2.1273346	-0.43095398	-2.0216675
341211822380881	2.0783386	-0.5771637	-2.0370636
341211827416282	2.0207672	-0.7112427	-2.053421
341211832451682	1.9570923	-0.83802795	-2.061737
341211837487083	1.8779297	-0.9712982	-2.0633698
341211842522483	1.8068237	-1.0458374	-2.0511932
341211847557883	1.7365723	-1.0514374	-2.0358276
341211852593284	1.6525116	-1.0190277	-2.0404663
341211857628684	1.5493011	-1.0101776	-2.0642548
341211862664085	1.4474487	-1.0594788	-2.086563
341211867699485	1.3441467	-1.1398163	-2.1174316
341211872734885	1.2767487	-1.1565857	-2.1686707
341211877770286	1.2414703	-1.0956726	-2.2353058
341211882805686	1.2371521	-0.9997406	-2.3087158
341211887841086	1.2564087	-0.90127563	-2.3759308
341211892876487	1.2902985	-0.78211975	-2.428299
341211897911887	1.340805	-0.56814575	-2.4741974
341211902947288	1.3916931	-0.31173706	-2.501419
341211907982688	1.4299164	-0.029251099	-2.5109863
341211913018088	1.4597626	0.20475769	-2.4863129
341211918053489	1.4772186	0.31887817	-2.4223328
341211923088889	1.4786835	0.33370972	-2.338089
341211928124290	1.4698944	0.3267975	-2.2542114
341211933159690	1.4669495	0.3616333	-2.1970215
341211938195090	1.4752502	0.43521118	-2.153656
341211943230491	1.4870148	0.52485657	-2.1101685
341211948265891	1.4969482	0.61424255	-2.06221
341211953301292	1.5110168	0.7074127	-2.0093231
341211958336692	1.5314636	0.8042755	-1.9535065
341211963372092	1.5485077	0.89508057	-1.8972168
341211968407493	1.5600128	0.99121094	-1.8363037
341211973442893	1.5626831	1.0932617	-1.7751923
341211978478293	1.5526428	1.1854401	-1.7148743
341211983513694	1.5265045	1.2705994	-1.6513824
341211988549094	1.4850006	1.3508453	-1.5909119
341211993584495	1.4372559	1.417923	-1.5383911
341211998619895	1.3846283	1.4754181	-1.487915
341212003655295	1.3266754	1.530014	-1.4349976
341212008690696	1.2676239	1.5845184	-1.376648
341212013726096	1.2022552	1.6502075	-1.3077087
341212018761497	1.1327667	1.723053	-1.2366638
341212023796897	1.0576782	1.7917023	-1.1705322
341212028832297	0.978714	1.8552094	-1.1038513
341212033867698	0.89105225	1.9127502	-1.0281982
341212038903098	0.7973633	1.9554901	-0.9480896
341212043938499	0.6840973	1.9861755	-0.84654236
341212048973899	0.5605469	2.0031738	-0.7346802
341212054009299	0.43217468	2.0033875	-0.6191559
341212059044700	0.30271912	1.9832153	-0.49118042
341212064080100	0.1714325	1.9456329	-0.35061646
341212069115501	0.04496765	1.8913116	-0.21736145
341212074150901	-0.094833374	1.802887	-0.06790161
341212079186301	-0.22554016	1.6938782	0.07762146
341212084221702	-0.35298157	1.5849457	0.22229004
341212089257102	-0.48129272	1.4863129	0.36901855
341212094292502	-0.6251831	1.3925323	0.5158844
341212099327903	-0.779953	1.3057251	0.65411377
341212104363303	-0.9648895	1.2076111	0.8127899
341212109398704	-1.129837	1.1232147	0.9540405
341212114434104	-1.27771	1.0583191	1.0883026
341212119469504	-1.410675	1.0161438	1.2196503
341212124504905	-1.5188904	1.0061798	1.336319
341212129540305	-1.5944366	1.0340424	1.4303589
341212134575706	-1.6497955	1.1285858	1.5153503
341212139611106	-1.6749573	1.2700195	1.5732269
341212144646506	-1.6685028	1.4573364	1.6075134
341212149681907	-1.6355896	1.6638794	1.6181641
341212154717307	-1.5886841	1.8618011	1.6151428
341212159752708	-1.5298615	2.0240479	1.6042786
341212164788108	-1.447586	2.150711	1.5945435
341212169823508	-1.3588104	2.2006378	1.57901
341212174858909	-1.2565918	2.1740112	1.5427704
341212179894309	-1.1224213	2.0855408	1.4802551
341212184929710	-0.9316559	1.9753265	1.3940125
341212189965110	-0.66104126	1.8776855	1.2793427
341212195000510	-0.27748108	1.7990417	1.0885773
341212200035911	0.11643982	1.688858	0.82447815
341212205071311	0.43634033	1.4535675	0.48568726
341212210106711	0.5908966	1.0751495	0.122787476
341212215142112	0.5719757	0.66867065	-0.2006073
341212220177512	0.45391846	0.32600403	-0.49353027
341212225212913	0.33642578	0.10369873	-0.7758484
341212230248313	0.31430054	0.064315796	-1.0032806
341212235283713	0.37182617	0.1621399	-1.1707611
341212240319114	0.45835876	0.3287506	-1.2629852
341212245354514	0.5388489	0.534317	-1.2822113
341212250389915	0.60357666	0.77423096	-1.2533569
341212255425315	0.65582275	1.0125275	-1.1955872
341212260460715	0.6788025	1.1779785	-1.0994568
341212265496116	0.6215668	1.2260284	-0.95458984
341212270531516	0.45822144	1.0965576	-0.7851715
341212275566917	0.21765137	0.76412964	-0.62187195
341212280602317	-0.0756073	0.23599243	-0.4666443
341212285637717	-0.33688354	-0.32392883	-0.32685852
341212290673118	-0.5223694	-0.7609558	-0.18667603
341212295708518	-0.6457825	-1.06987	-0.039260864
341212300743918	-0.7312012	-1.3037109	0.12312317
341212305779319	-0.81799316	-1.529953	0.31581116
341212310814719	-0.9952545	-1.8298035	0.54267883
341212315850120	-1.2870483	-2.1668243	0.7531433
341212320885520	-1.613327	-2.4464264	0.9459839
341212325920920	-1.8828735	-2.5835724	1.1239929
341212330956321	-2.0444183	-2.557312	1.289154
341212335991721	-2.1029816	-2.4221344	1.4238892
341212341027122	-2.0876923	-2.1895294	1.529541
341212346062522	-1.9961395	-1.90979	1.5500793
341212351097922	-1.7913208	-1.5537567	1.4610596
341212356133323	-1.4034271	-1.09758	1.2329407
341212361168723	-0.82302856	-0.59506226	0.85687256
341212366204124	-0.20082092	-0.19822693	0.44987488
341212371239524	0.40437317	0.098358154	0.06958008
341212376274924	0.6822357	0.16065979	-0.11602783
341212381310325	0.68377686	0.06010437	-0.15847778
341212386345725	0.48976135	-0.1111145	-0.11288452
341212391381126	0.1947174	-0.28871155	-0.031402588
341212396416526	-0.10328674	-0.45687866	0.04890442
341212401451926	-0.40585327	-0.6852875	0.14376831
341212406487327	-0.64060974	-0.95469666	0.22547913
341212411522727	-0.8299866	-1.2922058	0.3000946
341212416558127	-0.9764099	-1.7043915	0.3717041
341212421593528	-1.0897827	-2.1583862	0.43971252
341212426628928	-1.1857605	-2.569931	0.5051422
341212431664329	-1.301178	-2.9721222	0.5970001
341212436699729	-1.4160461	-3.288742	0.6925354
341212441735129	-1.5159454	-3.5211792	0.7855835
341212446770530	-1.5670776	-3.673874	0.88586426
341212451805930	-1.5474548	-3.755005	0.9924011
341212456841331	-1.4696198	-3.751358	1.1072235
341212461876731	-1.347702	-3.6208344	1.2438049
341212466912131	-1.2275238	-3.3874054	1.3546295
341212471947532	-1.1381073	-3.100891	1.4221802
341212476982932	-1.1004944	-2.8190918	1.4422302
341212482018333	-1.09729	-2.5531616	1.4126129
341212487053733	-1.1022339	-2.285431	1.3423615
341212492089133	-1.1034546	-2.0082092	1.244751
341212497124534	-1.1041565	-1.7567139	1.1444702
341212502159934	-1.1167908	-1.5285034	1.0552979
341212507195335	-1.1427917	-1.348938	0.98495483
341212512230735	-1.1783905	-1.2443848	0.9287567
341212517266135	-1.228241	-1.2079468	0.86906433
341212522301536	-1.2945251	-1.2395172	0.80018616
341212527336936	-1.3617096	-1.3214264	0.7347107
341212532372336	-1.4181213	-1.4286652	0.67793274
341212537407737	-1.4531403	-1.5378876	0.6355133
341212542443137	-1.4677124	-1.6249237	0.606781
341212547478538	-1.4633026	-1.7059784	0.59550476
341212552513938	-1.4441833	-1.7719116	0.6093445
341212557549338	-1.4209595	-1.7929993	0.6391449
341212562584739	-1.3940277	-1.7349701	0.6781311
341212567620139	-1.3594055	-1.5943146	0.7266388
341212572655540	-1.3221588	-1.4134521	0.78097534
341212577690940	-1.2775574	-1.2003937	0.84336853
341212582726340	-1.2385864	-0.9748688	0.8957062
341212587761741	-1.20607	-0.76246643	0.9290619
341212592797141	-1.1674957	-0.65618896	0.97158813
341212597832542	-1.1389008	-0.6822052	1.021759
341212602867942	-1.1288452	-0.7815399	1.05867
341212607903342	-1.1208344	-0.90515137	1.1012726
341212612938743	-1.0940247	-0.99902344	1.1497498
341212617974143	-1.0500183	-1.0677338	1.187973
341212623009543	-1.0112915	-1.138092	1.2189789
341212628044944	-0.9894562	-1.2250366	1.2443695
341212633080344	-0.9817505	-1.3107605	1.2628326
341212638115745	-0.97991943	-1.4033508	1.2774506
341212643151145	-0.9712677	-1.4720154	1.2818604
341212648186545	-0.953537	-1.511673	1.2752228
341212653221946	-0.92266846	-1.5257416	1.2641602
341212658257346	-0.8819885	-1.51268	1.2485809
341212663292747	-0.8346405	-1.4824524	1.227417
341212668328147	-0.7776642	-1.4326477	1.1964874
341212673363547	-0.73080444	-1.3822632	1.1636047
341212678398948	-0.69221497	-1.3385315	1.1283569
341212683434348	-0.65789795	-1.3012695	1.0907745
341212688469749	-0.6265869	-1.2680206	1.0570831
341212693505149	-0.5955353	-1.22966	1.0286102
341212698540549	-0.55718994	-1.171402	0.9997101
341212703575950	-0.516449	-1.097992	0.9781952
341212708611350	-0.4750824	-1.002945	0.95777893
341212713646751	-0.4402008	-0.88809204	0.9374237
341212718682151	-0.41911316	-0.7568512	0.9146271
341212723717551	-0.41403198	-0.6139679	0.890625
341212728752952	-0.42288208	-0.45533752	0.86424255
341212733788352	-0.4373932	-0.30630493	0.83595276
341212738823752	-0.44929504	-0.16888428	0.8043518
341212743859153	-0.4554596	-0.05329895	0.7706146
341212748894553	-0.45233154	0.03416443	0.7362213
341212753929954	-0.44065857	0.0909729	0.69888306
341212758965354	-0.41967773	0.110076904	0.65997314
341212764000754	-0.38996887	0.08224487	0.6264801
341212769036155	-0.3499756	0.013900757	0.5950165
341212774071555	-0.30125427	-0.0736084	0.5582123
341212779106956	-0.24586487	-0.15301514	0.51390076
341212784142356	-0.18310547	-0.21282959	0.46141052
341212789177756	-0.11343384	-0.23606873	0.40480042
341212794213157	-0.04550171	-0.22024536	0.35220337
341212799248557	0.018859863	-0.17738342	0.30293274
341212804283958	0.07255554	-0.12388611	0.25442505
341212809319358	0.113983154	-0.08598328	0.20951843
341212814354758	0.15206909	-0.07809448	0.16209412
341212819390159	0.18777466	-0.10826111	0.11541748
341212824425559	0.22012329	-0.16586304	0.07254028
341212829460960	0.25315857	-0.24073792	0.031585693
341212834496360	0.28536987	-0.3186493	-0.007156372
341212839531760	0.313797	-0.386734	-0.041763306
341212844567161	0.35105896	-0.45236206	-0.07723999
341212849602561	0.40170288	-0.5113373	-0.114974976
341212854637961	0.4700775	-0.5553436	-0.15974426
341212859673362	0.5566864	-0.5801697	-0.21595764
341212864708762	0.65663147	-0.58680725	-0.28172302
341212869744163	0.7551117	-0.58488464	-0.3516693
341212874779563	0.8585968	-0.5814667	-0.4342804
341212879814963	0.9472351	-0.58940125	-0.51371765
341212884850364	1.0341339	-0.61543274	-0.5968323
341212889885764	1.1299438	-0.6593323	-0.680603
341212894921165	1.242691	-0.700058	-0.7743225
341212899956565	1.3668671	-0.707428	-0.8727417
341212904991965	1.52005	-0.6719513	-0.9988556
341212910027366	1.6630096	-0.5947418	-1.124115
341212915062766	1.7939911	-0.48910522	-1.247406
341212920098167	1.926651	-0.36987305	-1.3632355
341212925133567	2.06781	-0.25395203	-1.4700775
341212930168967	2.2027588	-0.1492157	-1.5576935
341212935204368	2.3315887	-0.028030396	-1.6509857
341212940239768	2.3889313	0.08416748	-1.7202606
341212945275168	2.38414	0.189682	-1.7707977
341212950310569	2.3388062	0.2785797	-1.810318
341212955345969	2.2837982	0.3327179	-1.8517914
341212960381370	2.2315674	0.33929443	-1.9019775
341212965416770	2.1859589	0.30807495	-1.9683228
341212970452170	2.1637878	0.26164246	-2.0235443
341212975487571	2.1400604	0.20153809	-2.0728607
341212980522971	2.0919647	0.12878418	-2.1199036
341212985558372	2.0026245	0.03515625	-2.163208
341212990593772	1.8742371	-0.094055176	-2.1875763
341212995629172	1.704071	-0.28475952	-2.1835632
341213000664573	1.5343475	-0.49786377	-2.1692963
341213005699973	1.368988	-0.7081909	-2.1631317
341213010735374	1.2207489	-0.89024353	-2.1669006
341213015770774	1.098587	-1.0237885	-2.1760864
341213020806174	0.9938965	-1.0991364	-2.1924438
341213025841575	0.8982544	-1.0996857	-2.234253
341213030876975	0.82928467	-1.0262909	-2.3016052
341213035912376	0.78512573	-0.89175415	-2.3970184
341213040947776	0.7635193	-0.7129364	-2.5207825
341213045983176	0.76867676	-0.52067566	-2.6439514
341213051018577	0.79878235	-0.32548523	-2.7453918
341213056053977	0.84620667	-0.1299591	-2.8043823
341213061089377	0.8961792	0.064697266	-2.808731
341213066124778	0.9415283	0.2665558	-2.7644348
341213071160178	0.9777527	0.4577484	-2.6842957
341213076195579	1.000885	0.62060547	-2.5906525
341213081230979	1.0139313	0.76589966	-2.489212
341213086266379	1.0208588	0.88723755	-2.3940277
341213091301780	1.0283966	0.98973083	-2.310089
341213096337180	1.0435638	1.0793915	-2.2328186
341213101372581	1.067337	1.1586609	-2.1581726
341213106407981	1.0977936	1.2508087	-2.0886383
341213111443381	1.1364899	1.3759155	-2.0169525
341213116478782	1.1733093	1.4881897	-1.9517365
341213121514182	1.2097473	1.5610199	-1.8905487
341213126549583	1.2383728	1.6015167	-1.8287964
341213131584983	1.2508087	1.6310883	-1.7690582
341213136620383	1.249176	1.673233	-1.7146149
341213141655784	1.2410583	1.7644958	-1.6631317
341213146691184	1.2211761	1.8627777	-1.6166534
341213151726585	1.1862183	1.9332123	-1.5577545
341213156761985	1.1434479	1.9899445	-1.4833527
341213161797385	1.091095	2.0483704	-1.4140778
341213166832786	1.0349426	2.115158	-1.3678589
341213171868186	0.98228455	2.2212677	-1.3138428
341213176903586	0.9446564	2.3541718	-1.2500305
341213181938987	0.9161682	2.4932861	-1.1869049
341213186974387	0.8899231	2.6146545	-1.1065521
341213192009788	0.8528595	2.6855774	-0.9422302
341213197045188	0.7783356	2.6583862	-0.776062
341213202080588	0.6586609	2.5405731	-0.6623535
341213207115989	0.5491638	2.43927	-0.60279846
341213212151389	0.45651245	2.3746338	-0.5448761
341213217186790	0.371521	2.3345032	-0.47314453
341213222222190	0.28492737	2.2936401	-0.3860321
341213227257590	0.1920166	2.2401733	-0.2970276
341213232292991	0.073272705	2.1601563	-0.19361877
341213237328391	-0.042877197	2.0677795	-0.09812927
341213242363792	-0.16371155	1.9604187	0.002243042
341213247399192	-0.29156494	1.8461761	0.11003113
341213252434592	-0.42936707	1.734314	0.22471619
341213257469993	-0.5770569	1.6268158	0.34231567
341213262505393	-0.7572937	1.5122528	0.4772339
341213267540793	-0.937027	1.4145966	0.6021118
341213272576194	-1.1194458	1.3331604	0.7211609
341213277611594	-1.298172	1.2679596	0.8328247
341213282646995	-1.4628906	1.2189484	0.9382019
341213287682395	-1.6150818	1.191391	1.041214
341213292717795	-1.7584991	1.1959839	1.1512909
341213297753196	-1.865097	1.2350922	1.2554016
341213302788596	-1.928421	1.3142853	1.3455048
341213307823997	-1.9403076	1.4444275	1.4121246
341213312859397	-1.9008789	1.610321	1.4546356
341213317894797	-1.8119965	1.7888336	1.4864655
341213322930198	-1.6764832	1.9464417	1.5132751
341213327965598	-1.51857	2.0284882	1.5244293
341213333000999	-1.3461761	2.00914	1.5119324
341213338036399	-1.1519928	1.9168243	1.4693146
341213343071799	-0.9291992	1.8055115	1.3948822
341213348107200	-0.64360046	1.7042694	1.2670898
341213353142600	-0.30245972	1.6398468	1.0690155
341213358178001	0.02772522	1.5656433	0.8050842
341213363213401	0.28234863	1.3920898	0.49345398
341213368248801	0.40164185	1.0856781	0.18847656
341213373284202	0.3909912	0.7255554	-0.07055664
341213378319602	0.30747986	0.36561584	-0.3148346
341213383355002	0.21321106	0.09971619	-0.5111847
341213388390403	0.14865112	-0.05531311	-0.64105225
341213393425803	0.13354492	-0.105392456	-0.7121582
341213398461204	0.17019653	-0.056137085	-0.75294495
341213403496604	0.23233032	0.056533813	-0.7764282
341213408532004	0.30508423	0.21817017	-0.783432
341213413567405	0.35217285	0.39241028	-0.7684784
341213418602805	0.36305237	0.56185913	-0.7296753
341213423638206	0.33172607	0.70124817	-0.674057
341213428673606	0.2571869	0.7639618	-0.60292053
341213433709006	0.14888	0.7160797	-0.5272522
341213438744407	-0.0035858154	0.5406952	-0.43499756
341213443779807	-0.13793945	0.29885864	-0.35359192
341213448815208	-0.2206726	0.0644989	-0.28767395
341213453850608	-0.25021362	-0.14710999	-0.22770691
341213458886008	-0.24824524	-0.3552246	-0.16375732
341213463921409	-0.24824524	-0.56973267	-0.07312012
341213468956809	-0.30525208	-0.84461975	0.06375122
341213473992210	-0.45059204	-1.1291351	0.18370056
341213479027610	-0.6696472	-1.4351349	0.2762909
341213484063010	-0.9268646	-1.7123413	0.36010742
341213489098411	-1.1680756	-1.9047089	0.4600525
341213494133811	-1.3591919	-1.9840546	0.5759735
341213499169211	-1.4877472	-1.9468994	0.71876526
341213504204612	-1.5088806	-1.8171234	0.83973694
341213509240012	-1.4395294	-1.6121063	0.9174042
341213514275413	-1.2831726	-1.3413391	0.9220886
341213519310813	-1.0333557	-1.0097504	0.85124207
341213524346213	-0.7060394	-0.63391113	0.7136383
341213529381614	-0.30973816	-0.22250366	0.5106201
341213534417014	-0.027786255	0.0096588135	0.34013367
341213539452415	0.098861694	0.026824951	0.25265503
341213544487815	0.08143616	-0.095687866	0.25045776
341213549523215	-0.034103394	-0.2679901	0.29592896
341213554558616	-0.20315552	-0.4631195	0.3506012
341213559594016	-0.4080963	-0.7136383	0.40200806
341213564629417	-0.6056671	-1.0208282	0.45481873
341213569664817	-0.80526733	-1.4028168	0.51356506
341213574700217	-1.0101929	-1.8433228	0.5757599
341213579735618	-1.2072601	-2.2743835	0.63323975
341213584771018	-1.3973236	-2.6571655	0.67474365
341213589806418	-1.5728607	-2.965683	0.70443726
341213594841819	-1.7076569	-3.1256714	0.7278137
341213599877219	-1.7922516	-3.1358185	0.7501373
341213604912620	-1.8060913	-3.0258331	0.7795563
341213609948020	-1.7527466	-2.851944	0.8152771
341213614983420	-1.6469269	-2.6400604	0.8516083
341213620018821	-1.5208893	-2.4082184	0.8944855
341213625054221	-1.4055634	-2.1831512	0.95106506
341213630089622	-1.2992859	-1.9843292	1.0174866
341213635125022	-1.2072296	-1.8085632	1.0789642
341213640160422	-1.1353607	-1.6584473	1.1245117
341213645195823	-1.0807343	-1.5359039	1.1513519
341213650231223	-1.056488	-1.4545746	1.146225
341213655266624	-1.0666656	-1.4001617	1.1137238
341213660302024	-1.101532	-1.3592377	1.0657196
341213665337424	-1.1475525	-1.3302307	1.0104675
341213670372825	-1.1967926	-1.313385	0.956131
341213675408225	-1.2504578	-1.3179016	0.90049744
341213680443626	-1.2935181	-1.3554535	0.85809326
341213685479026	-1.3229218	-1.4251556	0.8333893
341213690514426	-1.3473511	-1.5159149	0.8180847
341213695549827	-1.3694	-1.6113586	0.80770874
341213700585227	-1.3889313	-1.6878052	0.7913513
341213705620627	-1.4019623	-1.7530365	0.7659912
341213710656028	-1.405899	-1.7840881	0.73480225
341213715691428	-1.3938293	-1.78479	0.7042694
341213720726829	-1.358902	-1.7795258	0.69673157
341213725762229	-1.3113251	-1.7762146	0.7114258
341213730797629	-1.2679901	-1.7521667	0.74154663
341213735833030	-1.2256622	-1.6755066	0.78868103
341213740868430	-1.1932831	-1.5581818	0.83140564
341213745903831	-1.1660919	-1.399704	0.8570862
341213750939231	-1.1388855	-1.2215729	0.86143494
341213755974631	-1.1129456	-1.1136322	0.8658447
341213761010032	-1.098175	-1.0806427	0.8716278
341213766045432	-1.0914612	-1.0761261	0.8959656
341213771080833	-1.0869293	-1.0737152	0.93170166
341213776116233	-1.0816803	-1.0785675	0.96421814
341213781151633	-1.0773315	-1.0999756	0.98365784
341213786187034	-1.0721893	-1.1402893	0.99417114
341213791222434	-1.062027	-1.1906891	1.0085907
341213796257835	-1.0388336	-1.248703	1.0296173
341213801293235	-1.007431	-1.2980194	1.050293
341213806328635	-0.9707489	-1.3359528	1.0709534
341213811364036	-0.93782043	-1.3633423	1.0919647
341213816399436	-0.91586304	-1.3817749	1.1116028
341213821434836	-0.9033966	-1.3890991	1.1261902
341213826470237	-0.88882446	-1.3890533	1.1356659
341213831505637	-0.86338806	-1.381424	1.1356659
341213836541038	-0.82754517	-1.3688049	1.131073
341213841576438	-0.7828827	-1.3550415	1.1251221
341213846611838	-0.73643494	-1.3383331	1.1130066
341213851647239	-0.68917847	-1.3152161	1.0933685
341213856682639	-0.63978577	-1.2778778	1.0657501
341213861718040	-0.597229	-1.2317505	1.0358887
341213866753440	-0.560791	-1.1817169	1.0054321
341213871788840	-0.5254059	-1.1294098	0.9817352
341213876824241	-0.4902954	-1.0704803	0.9639282
341213881859641	-0.45889282	-0.9948273	0.9482269
341213886895042	-0.43878174	-0.89494324	0.93785095
341213891930442	-0.4382019	-0.77430725	0.93411255
341213896965842	-0.4555664	-0.63352966	0.9330292
341213902001243	-0.48527527	-0.48077393	0.92988586
341213907036643	-0.5181427	-0.33676147	0.92375183
341213912072043	-0.54945374	-0.19848633	0.91319275
341213917107444	-0.5739746	-0.08401489	0.90019226
341213922142844	-0.59025574	0.0018310547	0.88119507
341213927178245	-0.60369873	0.059799194	0.8522949
341213932213645	-0.6111908	0.07757568	0.81159973
341213937249045	-0.60401917	0.051437378	0.7674103
341213942284446	-0.5784302	-0.018798828	0.71377563
341213947319846	-0.5301819	-0.11010742	0.6610718
341213952355247	-0.46455383	-0.19377136	0.60899353
341213957390647	-0.3841858	-0.24989319	0.5513153
341213962426047	-0.29406738	-0.26756287	0.49256897
341213967461448	-0.20420837	-0.25151062	0.4429016
341213972496848	-0.104766846	-0.20832825	0.39730835
341213977532249	-0.01737976	-0.16041565	0.36653137
341213982567649	0.06048584	-0.12162781	0.34118652
341213987603049	0.11921692	-0.10102844	0.31822205
341213992638450	0.16114807	-0.10870361	0.2974701
341213997673850	0.17980957	-0.13969421	0.27423096
341214002709251	0.1940918	-0.19670105	0.24531555
341214007744651	0.20210266	-0.2700348	0.21687317
341214012780051	0.2216034	-0.35494995	0.18388367
341214017815452	0.26000977	-0.43978882	0.14399719
341214022850852	0.318161	-0.5083008	0.09434509
341214027886252	0.3927002	-0.55444336	0.03677368
341214032921653	0.48286438	-0.58639526	-0.04333496
341214037957053	0.57162476	-0.6014252	-0.12635803
341214042992454	0.6642761	-0.5996704	-0.21879578
341214048027854	0.75912476	-0.5815277	-0.31602478
341214053063254	0.85879517	-0.5552826	-0.4086151
341214058098655	0.9573059	-0.5282898	-0.4976654
341214063134055	1.0716248	-0.49449158	-0.6011963
341214068169456	1.1845245	-0.45065308	-0.7067261
341214073204856	1.3039551	-0.3915863	-0.81933594
341214078240256	1.4315643	-0.30986023	-0.94029236
341214083275657	1.5585175	-0.20385742	-1.0639496
341214088311057	1.6881866	-0.07342529	-1.1925659
341214093346458	1.834549	0.08482361	-1.3301239
341214098381858	1.9815369	0.22244263	-1.4486389
341214103417258	2.121292	0.33035278	-1.55159
341214108452659	2.2304993	0.39642334	-1.6370239
341214113488059	2.3010254	0.4095459	-1.707901
341214118523460	2.345337	0.36875916	-1.7644501
341214123558860	2.3663635	0.27983093	-1.802597
341214128594260	2.3587341	0.17495728	-1.8208466
341214133629661	2.3294067	0.07644653	-1.8333435
341214138665061	2.2866974	0.0033111572	-1.8492279
341214143700461	2.2394867	-0.033737183	-1.863266
341214148735862	2.1831055	-0.03691101	-1.8741455
341214153771262	2.1174316	-0.017730713	-1.8817902
341214158806663	2.049179	-0.0078125	-1.8775787
341214163842063	1.978363	-0.024642944	-1.8613739
341214168877463	1.9157257	-0.057785034	-1.8383179
341214173912864	1.8667145	-0.087387085	-1.8132019
341214178948264	1.8206482	-0.11138916	-1.7896118
341214183983665	1.7759247	-0.14082336	-1.781784
341214189019065	1.7255249	-0.1910553	-1.8021088
341214194054465	1.6667328	-0.26597595	-1.8487396
341214199089866	1.6082306	-0.3483734	-1.9100952
341214204125266	1.5652618	-0.40960693	-1.9851532
341214209160667	1.5338745	-0.44999695	-2.0905762
341214214196067	1.5211182	-0.46484375	-2.2053986
341214219231467	1.5168304	-0.4675598	-2.307251
341214224266868	1.5118103	-0.46507263	-2.3883057
341214229302268	1.5007935	-0.44244385	-2.4479523
341214234337668	1.492157	-0.39590454	-2.472992
341214239373069	1.4820557	-0.3150177	-2.4644012
341214244408469	1.4810333	-0.20724487	-2.4314728
341214249443870	1.4790192	-0.04925537	-2.4046783
341214254479270	1.4727631	0.15678406	-2.3990173
341214259514670	1.4641418	0.39065552	-2.4082031
341214264550071	1.4619598	0.5950012	-2.4203033
341214269585471	1.4637909	0.78479004	-2.4144897
341214274620872	1.4514313	0.93151855	-2.3850555
341214279656272	1.4264526	1.0747833	-2.3535614
341214284691672	1.4027405	1.232666	-2.3224335
341214289727073	1.3820953	1.3889313	-2.2810364
341214294762473	1.3627472	1.5097504	-2.2303314
341214299797874	1.3369904	1.6253662	-2.1704254
341214304833274	1.3124237	1.7164612	-2.1222687
341214309868674	1.2841339	1.8237152	-2.0796356
341214314904075	1.2566376	1.959198	-2.0429535
341214319939475	1.2314606	2.1003265	-2.0133362
341214324974876	1.1985321	2.2122803	-1.984375
341214330010276	1.147995	2.3042297	-1.9355164
341214335045676	1.0883179	2.3589935	-1.8770294
341214340081077	1.0031586	2.3820343	-1.8202667
341214345116477	0.8966522	2.3917847	-1.7777405
341214350151877	0.7864227	2.3994904	-1.7414703
341214355187278	0.68699646	2.4182892	-1.6931915
341214360222678	0.60517883	2.449173	-1.6094055
341214365258079	0.55078125	2.4809265	-1.4925079
341214370293479	0.50598145	2.5055084	-1.3375397
341214375328879	0.46580505	2.512146	-1.1553192
341214380364280	0.42466736	2.4892273	-0.973114
341214385399680	0.36763	2.437317	-0.8096924
341214390435081	0.28230286	2.3643036	-0.6736603
341214395470481	0.1799469	2.3007202	-0.56565857
341214400505881	0.06578064	2.256485	-0.46394348
341214405541282	-0.055984497	2.2276611	-0.3630066
341214410576682	-0.18133545	2.2051392	-0.2601471
341214415612083	-0.32322693	2.1839294	-0.14117432
341214420647483	-0.4854126	2.1611328	-0.008163452
341214425682883	-0.6530762	2.1487122	0.13371277
341214430718284	-0.8278351	2.1522675	0.27087402
341214435753684	-1.012619	2.1405945	0.37724304
341214440789085	-1.1935272	2.1229248	0.47018433
341214445824485	-1.3746033	2.1184692	0.582489
341214450859885	-1.5350342	2.1258698	0.70262146
341214455895286	-1.6696625	2.1333923	0.8110199
341214460930686	-1.7809143	2.131363	0.89990234
341214465966086	-1.8649597	2.1138458	0.9636841
341214471001487	-1.9148102	2.0780334	1.002655
341214476036887	-1.938797	2.0175018	1.0274658
341214481072288	-1.9302063	1.9389801	1.0405884
341214486107688	-1.8884583	1.8407135	1.0532379
341214491143088	-1.8116913	1.7248993	1.0635834
341214496178489	-1.7046661	1.5977631	1.0669098
341214501213889	-1.591507	1.4813232	1.0654602
341214506249290	-1.4530182	1.3672638	1.0508728
341214511284690	-1.2995758	1.2950287	1.0187988
341214516320090	-1.1112366	1.2753601	0.9741211
341214521355491	-0.88290405	1.3080597	0.9148865
341214526390891	-0.6425934	1.3754578	0.8104553
341214531426292	-0.4217987	1.4417572	0.6603241
341214536461692	-0.20698547	1.4704895	0.4538269
341214541497092	-0.06500244	1.4369202	0.2541504
341214546532493	0.02381897	1.3731384	0.071136475
341214551567893	0.08299255	1.2936554	-0.093933105
341214556603293	0.13186646	1.1798859	-0.23692322
341214561638694	0.16795349	1.034378	-0.34983826
341214566674094	0.19645691	0.82951355	-0.46539307
341214571709495	0.21621704	0.6331787	-0.5582428
341214576744895	0.22795105	0.45126343	-0.62971497
341214581780295	0.22341919	0.29631042	-0.6777191
341214586815696	0.19969177	0.17016602	-0.7013092
341214591851096	0.15913391	0.0655365	-0.7028351
341214596886497	0.08895874	-0.047332764	-0.68696594
341214601921897	0.0011291504	-0.16426086	-0.6616974
341214606957297	-0.093948364	-0.30249023	-0.6162262
341214611992698	-0.18022156	-0.47869873	-0.53666687
341214617028098	-0.25079346	-0.68218994	-0.4382019
341214622063499	-0.30877686	-0.8929901	-0.33448792
341214627098899	-0.36679077	-1.1208801	-0.21237183
341214632134299	-0.4264679	-1.3512268	-0.09425354
341214637169700	-0.48439026	-1.6062012	0.015335083
341214642205100	-0.51768494	-1.8541412	0.10316467
341214647240501	-0.5310211	-2.043457	0.15844727
341214652275901	-0.5467682	-2.1455078	0.19265747
341214657311301	-0.57232666	-2.1338196	0.22521973
341214662346702	-0.6172333	-2.0152588	0.26374817
341214667382102	-0.70700073	-1.784195	0.3024292
341214672417502	-0.83888245	-1.4135895	0.32229614
341214677452903	-0.9152374	-0.94563293	0.3137207
341214682488303	-0.76322937	-0.39762878	0.29911804
341214687523704	-0.29101563	0.15444946	0.3230133
341214692559104	0.2407074	0.5113983	0.38226318
341214697594504	0.5853424	0.5725403	0.44384766
341214702629905	0.66529846	0.40074158	0.49006653
341214707665305	0.53289795	0.14073181	0.5313873
341214712700706	0.22949219	-0.1837616	0.5860901
341214717736106	-0.18890381	-0.566391	0.6441803
341214722771506	-0.64627075	-1.0114746	0.6930847
341214727806907	-1.0786438	-1.5308228	0.7373047
341214732842307	-1.4224854	-2.1198883	0.79039
341214737877708	-1.6517639	-2.628708	0.83699036
341214742913108	-1.8371124	-2.9729004	0.8626404
341214747948508	-1.983841	-3.060791	0.872406
341214752983909	-2.0878143	-2.988617	0.9036865
341214758019309	-2.1180878	-2.8252563	0.9693756
341214763054710	-2.0592499	-2.5984344	1.0576782
341214768090110	-1.9261932	-2.3502197	1.1549683
341214773125510	-1.7299194	-2.0412598	1.2829285
341214778160911	-1.5306549	-1.7085114	1.4215546
341214783196311	-1.347702	-1.3714294	1.5430603
341214788231711	-1.1986847	-1.0567474	1.6133881
341214793267112	-1.1039124	-0.8205414	1.6172638
341214798302512	-1.064331	-0.70777893	1.5573425
341214803337913	-1.0537109	-0.691803	1.4263763
341214808373313	-1.0618134	-0.75949097	1.2731171
341214813408713	-1.0874939	-0.8338623	1.1258087
341214818444114	-1.1479797	-0.8934784	1.0154266
341214823479514	-1.2149048	-0.93359375	0.94692993
341214828514915	-1.2524567	-0.9608154	0.91426086
341214833550315	-1.2658844	-1.020752	0.89767456
341214838585715	-1.2736359	-1.1202545	0.8812256
341214843621116	-1.2897186	-1.2524567	0.85609436
341214848656516	-1.3101959	-1.4008484	0.8241577
341214853691917	-1.3275452	-1.5537567	0.79226685
341214858727317	-1.3335419	-1.694458	0.7696991
341214863762717	-1.3228607	-1.8110809	0.7616577
341214868798118	-1.2964935	-1.8509064	0.76872253
341214873833518	-1.2582855	-1.8153687	0.78718567
341214878868918	-1.2167511	-1.7121124	0.81703186
341214883904319	-1.1791687	-1.5549164	0.854599
341214888939719	-1.1516418	-1.358902	0.8997345
341214893975120	-1.1335449	-1.1197357	0.955307
341214899010520	-1.1292877	-0.896225	1.0058441
341214904045920	-1.136383	-0.70095825	1.0465546
341214909081321	-1.1483612	-0.55126953	1.0783234
341214914116721	-1.1622772	-0.4567871	1.1053162
341214919152122	-1.1734161	-0.41481018	1.125473
341214924187522	-1.1810608	-0.4277954	1.1384583
341214929222922	-1.1870117	-0.49124146	1.146637
341214934258323	-1.1924591	-0.58950806	1.1563873
341214939293723	-1.1929474	-0.7027283	1.1694641
341214944329124	-1.1833801	-0.8159485	1.1841583
341214949364524	-1.1648254	-0.9269562	1.1988373
341214954399924	-1.1415863	-1.0246124	1.2129669
341214959435325	-1.116394	-1.0928345	1.2258453
341214964470725	-1.0837555	-1.134613	1.2371521
341214969506126	-1.034668	-1.1457214	1.2460175
341214974541526	-0.96832275	-1.1255951	1.2507172
341214979576926	-0.88357544	-1.0780334	1.2526703
341214984612327	-0.7942505	-1.0130463	1.2501373
341214989647727	-0.7109833	-0.9440918	1.238266
341214994683127	-0.6363373	-0.883728	1.2153168
341214999718528	-0.57640076	-0.84140015	1.1844635
341215004753928	-0.5275421	-0.8199005	1.155014
341215009789329	-0.4822998	-0.8108368	1.1243286
341215014824729	-0.4429779	-0.80532837	1.0996552
341215019860129	-0.41531372	-0.79039	1.0785675
341215024895530	-0.40000916	-0.76060486	1.0587769
341215029930930	-0.3923645	-0.7162323	1.0373993
341215034966331	-0.39309692	-0.6635895	1.014328
341215040001731	-0.40470886	-0.59469604	0.98527527
341215045037131	-0.4275055	-0.5179596	0.95384216
341215050072532	-0.4612732	-0.4407196	0.91934204
341215055107932	-0.49508667	-0.36949158	0.88153076
341215060143333	-0.51756287	-0.3182068	0.84140015
341215065178733	-0.5223694	-0.29473877	0.80381775
341215070214133	-0.5057831	-0.29364014	0.75561523
341215075249534	-0.46879578	-0.31748962	0.7088623
341215080284934	-0.42274475	-0.34561157	0.66537476
341215085320335	-0.3646698	-0.3675537	0.62268066
341215090355735	-0.2982025	-0.3704071	0.57470703
341215095391135	-0.2301178	-0.35188293	0.52493286
341215100426536	-0.14456177	-0.30812073	0.46452332
341215105461936	-0.060272217	-0.24969482	0.4104004
341215110497336	0.027404785	-0.1769867	0.3587799
341215115532737	0.11009216	-0.10031128	0.31069946
341215120568137	0.17764282	-0.03727722	0.26271057
341215125603538	0.22784424	0.0018310547	0.2193451
341215130638938	0.2667389	0.019943237	0.168396
341215135674338	0.29119873	0.013977051	0.116378784
341215140709739	0.30506897	-0.007217407	0.057373047
341215145745139	0.32073975	-0.037750244	-0.009567261
341215150780540	0.34854126	-0.07133484	-0.07751465
341215155815940	0.39491272	-0.10374451	-0.14764404
341215160851340	0.46723938	-0.12661743	-0.23320007
341215165886741	0.5561981	-0.1308899	-0.33233643
341215170922141	0.6589203	-0.12458801	-0.45162964
341215175957542	0.759552	-0.11520386	-0.58122253
341215180992942	0.84272766	-0.10992432	-0.7060852
341215186028342	0.9173279	-0.11671448	-0.82476807
341215191063743	1.0111389	-0.14213562	-0.94480896
341215196099143	1.1277618	-0.1767273	-1.0547943
341215201134543	1.27565	-0.20507813	-1.1630707
341215206169944	1.4515991	-0.20722961	-1.2686615
341215211205344	1.630661	-0.17010498	-1.3684387
341215216240745	1.806778	-0.08131409	-1.4694519
341215221276145	1.9675751	0.06460571	-1.5662231
341215226311545	2.101471	0.23991394	-1.6464691
341215231346946	2.2207794	0.41734314	-1.7141724
341215236382346	2.3237152	0.5664673	-1.7729645
341215241417747	2.3937073	0.6691284	-1.8229065
341215246453147	2.4308624	0.7349396	-1.871582
341215251488547	2.429245	0.75239563	-1.9182587
341215256523948	2.3937073	0.72447205	-1.9585114
341215261559348	2.340332	0.6717224	-1.9832611
341215266594749	2.2743988	0.598526	-1.999466
341215271630149	2.2026825	0.5102234	-2.0182648
341215276665549	2.1154175	0.40318298	-2.048645
341215281700950	2.0191193	0.30046082	-2.0877686
341215286736350	1.9129333	0.205719	-2.1246185
341215291771751	1.7937012	0.10432434	-2.1422424
341215296807151	1.6656342	-0.0052490234	-2.138382
341215301842551	1.541687	-0.111846924	-2.1270294
341215306877952	1.4031067	-0.23283386	-2.1151428
341215311913352	1.275711	-0.34373474	-2.1088867
341215316948752	1.15448	-0.43022156	-2.1063538
341215321984153	1.0485535	-0.4833374	-2.1101227
341215327019553	0.95521545	-0.4970703	-2.1376648
341215332054954	0.88256836	-0.46910095	-2.1973572
341215337090354	0.8188629	-0.39234924	-2.3080444
341215342125754	0.8006439	-0.28189087	-2.4479675
341215347161155	0.81181335	-0.15359497	-2.586609
341215352196555	0.8389282	-0.028640747	-2.691803
341215357231956	0.8635254	0.09321594	-2.7577667
341215362267356	0.88064575	0.23420715	-2.79805
341215367302756	0.8858948	0.43884277	-2.822647
341215372338157	0.8829956	0.64675903	-2.8037567
341215377373557	0.8730469	0.8415375	-2.7427826
341215382408958	0.8539276	0.99468994	-2.657898
341215387444358	0.83283997	1.11969	-2.5679626
341215392479758	0.82247925	1.2439575	-2.4850006
341215397515159	0.8297577	1.4172668	-2.4052582
341215402550559	0.8469238	1.5954895	-2.3533783
341215407585960	0.86169434	1.753891	-2.3042755
341215412621360	0.8714905	1.8654938	-2.2438354
341215417656760	0.8835449	1.9369049	-2.1710205
341215422692161	0.90234375	1.979599	-2.094696
341215427727561	0.9197235	2.0251923	-2.0273132
341215432762961	0.92248535	2.108963	-1.9882507
341215437798362	0.9080963	2.243454	-1.9493866
341215442833762	0.8813019	2.394287	-1.900528
341215447869163	0.8435364	2.5262146	-1.8446045
341215452904563	0.7891388	2.6334076	-1.7825317
341215457939963	0.7073364	2.7059631	-1.7123718
341215462975364	0.6146698	2.7451324	-1.6411743
341215468010764	0.5214081	2.7680817	-1.5718536
341215473046165	0.43624878	2.786911	-1.5065155
341215478081565	0.3646698	2.8104095	-1.4407196
341215483116965	0.2979889	2.8251953	-1.361557
341215488152366	0.22773743	2.8108368	-1.2640533
341215493187766	0.1592865	2.7695923	-1.1586304
341215498223167	0.097976685	2.7086487	-1.0432281
341215503258567	0.05026245	2.6369476	-0.92292786
341215508293967	0.016113281	2.5635986	-0.81385803
341215513329368	-0.011978149	2.483673	-0.71206665
341215518364768	-0.03842163	2.4060974	-0.61950684
341215523400168	-0.06738281	2.340332	-0.5317688
341215528435569	-0.10369873	2.2797852	-0.43852234
341215533470969	-0.15188599	2.2176971	-0.3382721
341215538506370	-0.20585632	2.1576843	-0.23239136
341215543541770	-0.27243042	2.0874023	-0.109176636
341215548577170	-0.34368896	2.0030823	0.020828247
341215553612571	-0.41938782	1.9060822	0.15278625
341215558647971	-0.5034332	1.8076935	0.28720093
341215563683372	-0.60206604	1.7162933	0.42277527
341215568718772	-0.71125793	1.6432495	0.54541016
341215573754172	-0.8512573	1.5744324	0.67941284
341215578789573	-0.99842834	1.5255432	0.81199646
341215583824973	-1.1491089	1.4903717	0.9417114
341215588860374	-1.2954559	1.460556	1.0584869
341215593895774	-1.4243011	1.439148	1.1648407
341215598931174	-1.5207062	1.4292603	1.256012
341215603966575	-1.5982056	1.427124	1.3516083
341215609001975	-1.6437378	1.4291992	1.4262695
341215614037376	-1.6678467	1.4259338	1.4894409
341215619072776	-1.67836	1.4115753	1.5435944
341215624108176	-1.6729889	1.3890991	1.5873871
341215629143577	-1.6446228	1.3749237	1.6127014
341215634178977	-1.5698242	1.3961182	1.6175385
341215639214377	-1.4614868	1.4550476	1.5909729
341215644249778	-1.3112793	1.5632477	1.537323
341215649285178	-1.1112671	1.7317505	1.461029
341215654320579	-0.8570404	1.9418182	1.3596191
341215659355979	-0.5632019	2.1496582	1.2349854
341215664391379	-0.18836975	2.3157501	1.0287018
341215669426780	0.17770386	2.332367	0.7794342
341215674462180	0.51730347	2.1804504	0.5120392
341215679497581	0.7943268	1.8742065	0.24316406
341215684532981	0.9751587	1.4673004	-0.017044067
341215689568381	1.054657	1.034317	-0.27644348
341215694603782	1.0388336	0.58917236	-0.559021
341215699639182	0.94984436	0.24565125	-0.7834015
341215704674583	0.824646	0.009933472	-0.95573425
341215709709983	0.6892853	-0.10354614	-1.077713
341215714745383	0.5553589	-0.108551025	-1.1418762
341215719780784	0.42111206	-0.044769287	-1.1549683
341215724816184	0.2695923	0.040145874	-1.126648
341215729851585	0.10220337	0.06791687	-1.070404
341215734886985	-0.09150696	0.019424438	-0.991272
341215739922385	-0.2753296	-0.08409119	-0.884552
341215744957786	-0.39804077	-0.203125	-0.74853516
341215749993186	-0.4503479	-0.34300232	-0.5797272
341215755028586	-0.43385315	-0.52381897	-0.39674377
341215760063987	-0.38035583	-0.73565674	-0.23725891
341215765099387	-0.32806396	-0.996994	-0.109939575
341215770134788	-0.30725098	-1.3298035	-0.016845703
341215775170188	-0.32284546	-1.6893463	0.04472351
341215780205588	-0.37069702	-2.052719	0.091537476
341215785240989	-0.46658325	-2.3417816	0.13615417
341215790276389	-0.6125641	-2.4845276	0.15042114
341215795311790	-0.78079224	-2.4748535	0.105911255
341215800347190	-0.9508362	-2.3348236	0.017959595
341215805382590	-1.1294861	-2.0924988	-0.072280884
341215810417991	-1.3593445	-1.6956635	-0.1254425
341215815453391	-1.5677948	-1.1606903	-0.10684204
341215820488792	-1.5119476	-0.5358734	-0.04411316
341215825524192	-0.9429016	0.1789856	0.05722046
341215830559592	-0.07455444	0.850647	0.20713806
341215835594993	0.61431885	1.1696472	0.36134338
341215840630393	0.98609924	1.0613708	0.4953003
341215845665793	0.94447327	0.5723572	0.5762024
341215850701194	0.64338684	-0.08061218	0.6548004
341215855736594	0.20217896	-0.7488098	0.74002075
341215860771995	-0.28915405	-1.3683319	0.819046
341215865807395	-0.7374573	-1.929596	0.8998871
341215870842795	-1.1765289	-2.5706024	1.0014496
341215875878196	-1.489151	-3.1646576	1.1016998
341215880913596	-1.700882	-3.6784973	1.190033
341215885948997	-1.8302002	-3.9651184	1.2686615
341215890984397	-1.8891296	-4.0378265	1.3630676
341215896019797	-1.8699951	-3.9723663	1.4637756
341215901055198	-1.7753448	-3.787262	1.5877686
341215906090598	-1.6535034	-3.5280457	1.7092285
341215911125999	-1.533783	-3.1944122	1.811676
341215916161399	-1.43367	-2.807434	1.8719177
341215921196799	-1.3511658	-2.411728	1.8654022
341215926232200	-1.2849731	-2.0825348	1.7972717
341215931267600	-1.2237549	-1.7940674	1.6578369
341215936303001	-1.1743622	-1.6067352	1.4987946
341215941338401	-1.134552	-1.477951	1.3400574
341215946373801	-1.1071472	-1.3568726	1.1868896
341215951409202	-1.0947266	-1.2269745	1.0432281
341215956444602	-1.1040955	-1.0908966	0.91166687
341215961480002	-1.1461487	-0.9563141	0.7782593
341215966515403	-1.1952667	-0.89494324	0.67378235
341215971550803	-1.2425995	-0.92759705	0.59580994
341215976586204	-1.2935333	-1.0327454	0.5470123
341215981621604	-1.3511505	-1.1589661	0.5259552
341215986657004	-1.4104767	-1.2761688	0.5239258
341215991692405	-1.4637146	-1.3705444	0.5285034
341215996727805	-1.5045471	-1.416565	0.5323944
341216001763206	-1.5303802	-1.4121094	0.53756714
341216006798606	-1.5289459	-1.3482056	0.55322266
341216011834006	-1.4995422	-1.2252502	0.5831299
341216016869407	-1.4488068	-1.046524	0.62342834
341216021904807	-1.3853302	-0.84291077	0.6822357
341216026940208	-1.3286133	-0.6738434	0.7622986
341216031975608	-1.289093	-0.5421295	0.8544769
341216037011008	-1.266571	-0.43904114	0.9472809
341216042046409	-1.2555847	-0.359375	1.0266418
341216047081809	-1.2466431	-0.29167175	1.0960693
341216052117210	-1.2290802	-0.23706055	1.1508789
341216057152610	-1.2017365	-0.20246887	1.1920776
341216062188010	-1.1676788	-0.20115662	1.2272797
341216067223411	-1.1317749	-0.24191284	1.2580414
341216072258811	-1.0976105	-0.31770325	1.2867126
341216077294211	-1.0637665	-0.42510986	1.3157196
341216082329612	-1.0363312	-0.5352478	1.3458862
341216087365012	-1.0113068	-0.6263275	1.376358
341216092400413	-0.9921417	-0.69218445	1.4093323
341216097435813	-0.9798889	-0.7314453	1.4439087
341216102471213	-0.9728699	-0.7445221	1.4800568
341216107506614	-0.9704895	-0.749176	1.5191345
341216112542014	-0.964798	-0.7414856	1.5455933
341216117577415	-0.94703674	-0.727005	1.5610962
341216122612815	-0.9169464	-0.7089081	1.5695038
341216127648215	-0.8783417	-0.69129944	1.5683289
341216132683616	-0.8390503	-0.679718	1.5588837
341216137719016	-0.7860565	-0.66300964	1.5382538
341216142754417	-0.7312927	-0.6444397	1.5090485
341216147789817	-0.6726532	-0.62913513	1.4690704
341216152825217	-0.61509705	-0.6215515	1.4200592
341216157860618	-0.5678406	-0.62179565	1.3622894
341216162896018	-0.53964233	-0.6298523	1.3008575
341216167931418	-0.52253723	-0.64172363	1.2223511
341216172966819	-0.51945496	-0.655777	1.1459198
341216178002219	-0.5184784	-0.66838074	1.0662842
341216183037620	-0.51782227	-0.6755066	0.98428345
341216188073020	-0.5115967	-0.6705017	0.900589
341216193108420	-0.49990845	-0.66056824	0.8233795
341216198143821	-0.47895813	-0.6395874	0.73999023
341216203179221	-0.44702148	-0.6109772	0.6659851
341216208214622	-0.40916443	-0.56307983	0.59658813
341216213250022	-0.37493896	-0.49339294	0.53004456
341216218285422	-0.35110474	-0.40652466	0.47123718
341216223320823	-0.3283844	-0.32270813	0.41267395
341216228356223	-0.28689575	-0.24131775	0.34428406
341216233391624	-0.2140503	-0.17805481	0.2803955
341216238427024	-0.114746094	-0.12631226	0.21556091
341216243462424	-0.006668091	-0.0844574	0.15397644
341216248497825	0.09681702	-0.06211853	0.09854126
341216253533225	0.19168091	-0.059066772	0.04826355
341216258568626	0.27516174	-0.07531738	0.0020141602
341216263604026	0.3329773	-0.1063385	-0.03378296
341216268639426	0.3819275	-0.13401794	-0.062149048
341216273674827	0.43978882	-0.14906311	-0.08598328
341216278710227	0.5185394	-0.15478516	-0.112579346
341216283745627	0.62467957	-0.14698792	-0.14567566
341216288781028	0.7541504	-0.119644165	-0.19276428
341216293816428	0.87789917	-0.07524109	-0.2562256
341216298851829	0.98013306	-0.03593445	-0.33859253
341216303887229	1.0517426	-0.03555298	-0.44270325
341216308922629	1.1071167	-0.083847046	-0.5570679
341216313958030	1.1842651	-0.17512512	-0.6859741
341216318993430	1.3091125	-0.28147888	-0.8236847
341216324028831	1.4793396	-0.36727905	-0.9613342
341216329064231	1.6728058	-0.42015076	-1.1026917
341216334099631	1.8559265	-0.43499756	-1.2418976
341216339135032	2.0075073	-0.4185791	-1.3753204
341216344170432	2.1448517	-0.372818	-1.5155182
341216349205833	2.2612305	-0.29154968	-1.6447449
341216354241233	2.3659973	-0.17469788	-1.7564087
341216359276633	2.4611053	-0.02708435	-1.8509216
341216364312034	2.538391	0.13583374	-1.9302521
341216369347434	2.5670013	0.2778473	-1.9963226
341216374382835	2.5420837	0.39564514	-2.0574799
341216379418235	2.4738312	0.47322083	-2.103836
341216384453635	2.3767853	0.52363586	-2.1473541
341216389489036	2.2680664	0.54307556	-2.193695
341216394524436	2.146637	0.54193115	-2.2404785
341216399559836	2.0264893	0.5088806	-2.2777557
341216404595237	1.8810577	0.4393921	-2.3023987
341216409630637	1.7329712	0.3305664	-2.317047
341216414666038	1.5777283	0.18418884	-2.3270264
341216419701438	1.4242706	0.0043792725	-2.3357544
341216424736838	1.2732391	-0.19212341	-2.3521729
341216429772239	1.1382904	-0.3643341	-2.380371
341216434807639	0.9922943	-0.5506439	-2.4192657
341216439843040	0.8794708	-0.7145233	-2.4466095
341216444878440	0.79797363	-0.83639526	-2.458084
341216449913840	0.7407379	-0.8691101	-2.465561
341216454949241	0.72262573	-0.8023529	-2.4838562
341216459984641	0.7438812	-0.6606598	-2.519165
341216465020042	0.8147278	-0.4376526	-2.5850372
341216470055442	0.9017792	-0.1905365	-2.6540527
341216475090842	0.9911804	0.04144287	-2.6959229
341216480126243	1.0612793	0.21582031	-2.6943817
341216485161643	1.1009827	0.3412323	-2.6570282
341216490197043	1.1133881	0.45787048	-2.599884
341216495232444	1.1108246	0.6023865	-2.5233307
341216500267844	1.10672	0.7542114	-2.4359283
341216505303245	1.1098633	0.90405273	-2.3394165
341216510338645	1.1201019	1.0458221	-2.245407
341216515374045	1.1443481	1.1914673	-2.1608887
341216520409446	1.1810913	1.3563995	-2.0886536
341216525444846	1.23143	1.5503387	-2.0269165
341216530480247	1.276413	1.7199097	-1.9818268
341216535515647	1.3107452	1.8396606	-1.9358673
341216540551047	1.3425903	1.9097443	-1.882431
341216545586448	1.3739471	1.9528809	-1.830719
341216550621848	1.3967743	1.9867249	-1.789154
341216555657249	1.401001	2.0361633	-1.7666016
341216560692649	1.3804169	2.115509	-1.7627716
341216565728049	1.3388672	2.2102509	-1.7644196
341216570763450	1.2846222	2.3029327	-1.7549896
341216575798850	1.2214813	2.3765411	-1.727768
341216580834251	1.1434021	2.4309692	-1.6893616
341216585869651	1.0485535	2.4586487	-1.6452179
341216590905051	0.9440613	2.4615936	-1.6019287
341216595940452	0.83255005	2.4592743	-1.5601807
341216600975852	0.72779846	2.4651794	-1.5139465
341216606011252	0.6443176	2.4885712	-1.459198
341216611046653	0.56921387	2.5325775	-1.3816223
341216616082053	0.50624084	2.5758972	-1.2776337
341216621117454	0.45480347	2.6033936	-1.1459656
341216626152854	0.40904236	2.611084	-0.9928589
341216631188254	0.36669922	2.593521	-0.8335571
341216636223655	0.3241577	2.5564575	-0.6926727
341216641259055	0.26791382	2.4966125	-0.5402832
341216646294456	0.19714355	2.4185638	-0.39620972
341216651329856	0.112594604	2.322815	-0.26124573
341216656365256	0.012741089	2.2073212	-0.12561035
341216661400657	-0.10357666	2.0756226	0.017868042
341216666436057	-0.22741699	1.9454803	0.15823364
341216671471458	-0.38005066	1.8035736	0.31645203
341216676506858	-0.5319061	1.6778107	0.47257996
341216681542258	-0.6810913	1.565979	0.6352539
341216686577659	-0.8249512	1.4633026	0.8025818
341216691613059	-0.9611664	1.3768616	0.96377563
341216696648460	-1.0868988	1.3167877	1.1028137
341216701683860	-1.2343445	1.280838	1.240509
341216706719260	-1.3756866	1.2863617	1.338028
341216711754661	-1.5139465	1.3462982	1.4005585
341216716790061	-1.6346893	1.4613342	1.4370575
341216721825461	-1.7260284	1.609848	1.4673462
341216726860862	-1.7820435	1.7459259	1.4950256
341216731896262	-1.8013916	1.8779755	1.5345764
341216736931663	-1.7799072	1.9579468	1.5814972
341216741967063	-1.7176056	1.9775543	1.6403961
341216747002463	-1.6187286	1.9530792	1.6880493
341216752037864	-1.4748688	1.9263611	1.6973114
341216757073264	-1.2846832	1.9255371	1.6637573
341216762108665	-0.9887085	1.9819183	1.5773468
341216767144065	-0.6238098	2.0944366	1.4306946
341216772179465	-0.1985321	2.2066803	1.1928864
341216777214866	0.24249268	2.239212	0.84799194
341216782250266	0.614563	2.1055603	0.4351654
341216787285667	0.84820557	1.7809906	0.021774292
341216792321067	0.9262848	1.3148651	-0.36647034
341216797356467	0.87657166	0.89593506	-0.65896606
341216802391868	0.7518158	0.549057	-0.8782501
341216807427268	0.5882721	0.28590393	-1.029953
341216812462668	0.42108154	0.122665405	-1.1180725
341216817498069	0.27798462	0.05796814	-1.1551819
341216822533469	0.17481995	0.09828186	-1.1428375
341216827568870	0.12220764	0.21150208	-1.0911713
341216832604270	0.11392212	0.34803772	-1.0134735
341216837639670	0.14546204	0.45828247	-0.9164429
341216842675071	0.18182373	0.49996948	-0.81365967
341216847710471	0.16744995	0.43296814	-0.701828
341216852745872	0.064590454	0.20196533	-0.57922363
341216857781272	-0.09614563	-0.1741333	-0.44989014
341216862816672	-0.2642517	-0.62867737	-0.29762268
341216867852073	-0.40579224	-1.0656128	-0.11836243
341216872887473	-0.51127625	-1.4055328	0.052963257
341216877922874	-0.60401917	-1.6741333	0.22132874
341216882958274	-0.69291687	-1.8615723	0.37722778
341216887993674	-0.807251	-1.9976654	0.5198822
341216893029075	-0.99349976	-2.0907593	0.65849304
341216898064475	-1.2308655	-2.108368	0.7982025
341216903099876	-1.438736	-2.0294952	0.93444824
341216908135276	-1.5960541	-1.828537	1.0849915
341216913170676	-1.6654053	-1.5405426	1.2247162
341216918206077	-1.6399536	-1.2159882	1.3479767
341216923241477	-1.4690399	-0.88438416	1.4361572
341216928276877	-1.1290588	-0.5433502	1.416214
341216933312278	-0.7695923	-0.28294373	1.2592773
341216938347678	-0.44865417	-0.14891052	0.93089294
341216943383079	-0.22541809	-0.2023468	0.52986145
341216948418479	-0.11808777	-0.34664917	0.21702576
341216953453879	-0.13604736	-0.5017395	0.033233643
341216958489280	-0.25801086	-0.6541748	-0.026290894
341216963524680	-0.4379425	-0.81903076	0.0048217773
341216968560081	-0.6811218	-1.0493469	0.08294678
341216973595481	-0.9042053	-1.3158417	0.17243958
341216978630881	-1.0831146	-1.6264191	0.27330017
341216983666282	-1.1959839	-1.9745789	0.36636353
341216988701682	-1.253952	-2.3318176	0.45158386
341216993737083	-1.3128967	-2.5962677	0.5359192
341216998772483	-1.4375153	-2.748413	0.6505432
341217003807883	-1.5905304	-2.7706757	0.7684021
341217008843284	-1.7404633	-2.6672516	0.869339
341217013878684	-1.8360596	-2.4677734	0.93725586
341217018914085	-1.8556213	-2.2121735	0.98101807
341217023949485	-1.806076	-1.934494	1.0264282
341217028984885	-1.6807404	-1.6030426	1.1103363
341217034020286	-1.519043	-1.2892151	1.2107544
341217039055686	-1.3437042	-1.0117645	1.3000488
341217044091086	-1.192627	-0.80070496	1.3545227
341217049126487	-1.1080933	-0.6441498	1.3520966
341217054161887	-1.0714874	-0.5514984	1.29422
341217059197288	-1.0615082	-0.5262146	1.1826019
341217064232688	-1.0818939	-0.5426636	1.0527649
341217069268088	-1.1324768	-0.57662964	0.9246979
341217074303489	-1.1940308	-0.6195221	0.81365967
341217079338889	-1.2445526	-0.67375183	0.7281647
341217084374290	-1.2763977	-0.7613983	0.66433716
341217089409690	-1.2928619	-0.9149933	0.6204834
341217094445090	-1.3074036	-1.1145325	0.59558105
341217099480491	-1.3295593	-1.334259	0.57862854
341217104515891	-1.3572998	-1.5523682	0.57051086
341217109551292	-1.3823853	-1.7389526	0.57733154
341217114586692	-1.4003296	-1.8738098	0.60183716
341217119622092	-1.4073029	-1.916748	0.6417999
341217124657493	-1.3988342	-1.8488312	0.68530273
341217129692893	-1.371521	-1.7027435	0.73335266
341217134728293	-1.3313904	-1.539444	0.7904663
341217139763694	-1.2873688	-1.3965302	0.8548889
341217144799094	-1.2339325	-1.2577972	0.9326782
341217149834495	-1.1869965	-1.1252289	1.0173035
341217154869895	-1.1489716	-1.0255127	1.0928802
341217159905295	-1.1280518	-0.9644928	1.1470947
341217164940696	-1.1233215	-0.9364166	1.1828918
341217169976096	-1.129776	-0.9320679	1.2075806
341217175011497	-1.1463318	-0.9492798	1.2298889
341217180046897	-1.1668396	-0.98687744	1.2500916
341217185082297	-1.1866455	-1.039444	1.2714081
341217190117698	-1.2035828	-1.0931702	1.2905121
341217195153098	-1.2081604	-1.1347351	1.3035889
341217200188499	-1.1973114	-1.1509705	1.3062592
341217205223899	-1.166626	-1.1366882	1.3064575
341217210259299	-1.1192474	-1.0986328	1.3064575
341217215294700	-1.0565338	-1.0515137	1.3074493
341217220330100	-0.98031616	-1.0006409	1.3075256
341217225365501	-0.8938751	-0.9454193	1.3024292
341217230400901	-0.8184204	-0.88874817	1.2895813
341217235436301	-0.7400665	-0.8142853	1.2639008
341217240471702	-0.6797638	-0.7390442	1.2306213
341217245507102	-0.63171387	-0.6632385	1.1918945
341217250542502	-0.597641	-0.5937042	1.1472168
341217255577903	-0.57901	-0.52601624	1.1018829
341217260613303	-0.57406616	-0.46037292	1.0645447
341217265648704	-0.57891846	-0.38108826	1.0218506
341217270684104	-0.596817	-0.30751038	0.9862213
341217275719504	-0.62724304	-0.23754883	0.9530945
341217280754905	-0.6646118	-0.17445374	0.9243927
341217285790305	-0.7030792	-0.12760925	0.8999481
341217290825706	-0.7367554	-0.10444641	0.8786316
341217295861106	-0.7605896	-0.10661316	0.85583496
341217300896506	-0.7561493	-0.122558594	0.8321686
341217305931907	-0.7206726	-0.14680481	0.80903625
341217310967307	-0.6617279	-0.18041992	0.78630066
341217316002708	-0.5855408	-0.21757507	0.76831055
341217321038108	-0.5009613	-0.24537659	0.7533722
341217326073508	-0.410614	-0.24594116	0.73609924
341217331108909	-0.33465576	-0.2073822	0.7178955
341217336144309	-0.27571106	-0.13172913	0.69415283
341217341179710	-0.23074341	-0.032669067	0.66322327
341217346215110	-0.19363403	0.062805176	0.62442017
341217351250510	-0.15861511	0.1355896	0.5789795
341217356285911	-0.11378479	0.17146301	0.52401733
341217361321311	-0.05870056	0.1635437	0.46388245
341217366356711	1.0681152E-4	0.11714172	0.39768982
341217371392112	0.05456543	0.046020508	0.32592773
341217376427512	0.09976196	-0.03215027	0.25248718
341217381462913	0.13627625	-0.11526489	0.17425537
341217386498313	0.16723633	-0.19740295	0.091308594
341217391533713	0.20213318	-0.2711029	0.009719849
341217396569114	0.2552185	-0.34036255	-0.073776245
341217401604514	0.33332825	-0.3980255	-0.16189575
341217406639915	0.42459106	-0.43319702	-0.25146484
341217411675315	0.52749634	-0.44822693	-0.35128784
341217416710715	0.635437	-0.44781494	-0.45698547
341217421746116	0.74497986	-0.4368744	-0.5658264
341217426781516	0.8514252	-0.41522217	-0.677536
341217431816917	0.9550934	-0.3917389	-0.7911377
341217436852317	1.0532684	-0.38330078	-0.90553284
341217441887717	1.1630096	-0.38388062	-1.0362549
341217446923118	1.2860413	-0.37945557	-1.16539
341217451958518	1.4341125	-0.36271667	-1.2915802
341217456993918	1.6120911	-0.32572937	-1.4160461
341217462029319	1.8101807	-0.263031	-1.535614
341217467064719	2.0039978	-0.18713379	-1.6434479
341217472100120	2.1994476	-0.09817505	-1.745163
341217477135520	2.3374176	-0.01902771	-1.8158722
341217482170920	2.4391937	0.04815674	-1.8597107
341217487206321	2.521881	0.107940674	-1.8874207
341217492241721	2.5751953	0.16166687	-1.8994293
341217497277122	2.5970154	0.19789124	-1.8990631
341217502312522	2.5931091	0.21754456	-1.8958282
341217507347922	2.5576935	0.22866821	-1.9075012
341217512383323	2.488678	0.25738525	-1.9306488
341217517418723	2.3932953	0.31044006	-1.9710388
341217522454124	2.2779388	0.3851776	-2.0144196
341217527489524	2.1560822	0.44763184	-2.0516968
341217532524924	1.9969635	0.47525024	-2.0728607
341217537560325	1.844635	0.44381714	-2.069046
341217542595725	1.6922302	0.35176086	-2.0521698
341217547631126	1.5436859	0.18927002	-2.0402527
341217552666526	1.4124146	-0.014862061	-2.044983
341217557701926	1.2970581	-0.21777344	-2.0631866
341217562737327	1.1831207	-0.41914368	-2.0913239
341217567772727	1.09758	-0.55462646	-2.1272888
341217572808127	1.0323792	-0.6361542	-2.1828766
341217577843528	0.98075867	-0.65953064	-2.2755585
341217582878928	0.94114685	-0.6212311	-2.4131317
341217587914329	0.9136505	-0.5216522	-2.5862427
341217592949729	0.8985748	-0.34342957	-2.7877045
341217597985129	0.89852905	-0.15837097	-2.9435577
341217603020530	0.89738464	0.014877319	-3.0414429
341217608055930	0.8866272	0.18469238	-3.0778656
341217613091331	0.8737793	0.36546326	-3.0615234
341217618126731	0.8686218	0.5403595	-2.996872
341217623162131	0.87106323	0.69065857	-2.8894653
341217628197532	0.881485	0.8166809	-2.7772522
341217633232932	0.89953613	0.94255066	-2.6687317
341217638268333	0.9239807	1.0780029	-2.5654602
341217643303733	0.95217896	1.2260895	-2.4780884
341217648339133	0.983551	1.3917236	-2.4048615
341217653374534	1.0124207	1.5491028	-2.33461
341217658409934	1.033905	1.6621094	-2.2613068
341217663445335	1.0517426	1.7334442	-2.1795502
341217668480735	1.0704651	1.7756042	-2.1000671
341217673516135	1.0922394	1.8127441	-2.0493011
341217678551536	1.1206512	1.8770905	-2.0081787
341217683586936	1.1561279	1.9780579	-1.9434967
341217688622336	1.1867676	2.077362	-1.858551
341217693657737	1.1943817	2.1455383	-1.7726135
341217698693137	1.186203	2.2102509	-1.7124786
341217703728538	1.1822968	2.3042908	-1.6859283
341217708763938	1.1834869	2.4402924	-1.6630707
341217713799338	1.1727295	2.5781097	-1.646759
341217718834739	1.1541901	2.7033691	-1.5672455
341217723870139	1.1226959	2.788025	-1.371048
341217728905540	1.0626373	2.784546	-1.1654358
341217733940940	0.9764252	2.7169495	-1.0274963
341217738976340	0.8746948	2.631836	-0.92129517
341217744011741	0.7887268	2.591217	-0.8267212
341217749047141	0.7193451	2.5861053	-0.71606445
341217754082542	0.64801025	2.576294	-0.58839417
341217759117942	0.56533813	2.5436554	-0.45695496
341217764153342	0.47332764	2.498169	-0.33345032
341217769188743	0.3564148	2.4315186	-0.1981659
341217774224143	0.23251343	2.3545532	-0.07575989
341217779259543	0.09013367	2.251236	0.046417236
341217784294944	-0.07521057	2.1121216	0.17903137
341217789330344	-0.25141907	1.9567871	0.32357788
341217794365745	-0.426651	1.8077393	0.4645691
341217799401145	-0.633728	1.6384888	0.62797546
341217804436545	-0.82232666	1.4921265	0.771286
341217809471946	-1.0036469	1.3640747	0.9116211
341217814507346	-1.1808167	1.2598267	1.0518188
341217819542747	-1.3462982	1.1842957	1.1885376
341217824578147	-1.4941101	1.1407013	1.3116913
341217829613547	-1.6445923	1.1348114	1.4445343
341217834648948	-1.7651367	1.1733246	1.5531006
341217839684348	-1.8609314	1.2461853	1.6358185
341217844719749	-1.9269104	1.3491516	1.6855316
341217849755149	-1.9606171	1.4785309	1.7080383
341217854790549	-1.9642487	1.6201019	1.7087555
341217859825950	-1.9381714	1.7859344	1.6922455
341217864861350	-1.8842316	1.9453583	1.6645355
341217869896751	-1.7952423	2.110321	1.6293945
341217874932151	-1.6629333	2.2894745	1.5890656
341217879967551	-1.4677429	2.4868317	1.5376129
341217885002952	-1.1702423	2.6968536	1.4586182
341217890038352	-0.7067566	2.9214935	1.3210297
341217895073752	-0.15505981	3.0583954	1.111145
341217900109153	0.4386902	3.014557	0.8083801
341217905144553	0.9658356	2.7133026	0.42494202
341217910179954	1.2999573	2.2010345	0.025756836
341217915215354	1.4186859	1.5519104	-0.3567505
341217920250754	1.3354492	0.8729706	-0.6876068
341217925286155	1.1320953	0.3345642	-0.9287262
341217930321555	0.87802124	-0.027801514	-1.1173248
341217935356956	0.6223755	-0.18824768	-1.2617645
341217940392356	0.40615845	-0.16331482	-1.35112
341217945427756	0.22357178	-0.0062713623	-1.3844452
341217950463157	0.099121094	0.19898987	-1.3553162
341217955498557	0.028701782	0.36068726	-1.2900391
341217960533958	-0.029281616	0.41914368	-1.2139282
341217965569358	-0.10560608	0.31654358	-1.1366882
341217970604758	-0.20140076	0.07577515	-1.0487976
341217975640159	-0.285614	-0.26593018	-0.904953
341217980675559	-0.30830383	-0.59417725	-0.71829224
341217985710960	-0.2685852	-0.8528595	-0.52519226
341217990746360	-0.19342041	-1.0461884	-0.32572937
341217995781760	-0.12289429	-1.1914368	-0.11087036
341218000817161	-0.12309265	-1.2871094	0.1028595
341218005852561	-0.24911499	-1.3225403	0.33403015
341218010887961	-0.46253967	-1.2726746	0.53671265
341218015923362	-0.6641846	-1.1947021	0.7120819
341218020958762	-0.8061676	-1.1312866	0.8706665
341218025994163	-0.88279724	-1.1110687	1.0186005
341218031029563	-0.8991852	-1.1289063	1.1408997
341218036064963	-0.86398315	-1.1719971	1.231842
341218041100364	-0.77497864	-1.2272797	1.2329254
341218046135764	-0.6405945	-1.2859192	1.1352692
341218051171165	-0.4917755	-1.3233032	0.9539795
341218056206565	-0.36317444	-1.3215485	0.73158264
341218061241965	-0.28059387	-1.2832794	0.5422516
341218066277366	-0.25982666	-1.2431946	0.38545227
341218071312766	-0.31933594	-1.2471619	0.3057251
341218076348167	-0.4323883	-1.3061066	0.28189087
341218081383567	-0.56596375	-1.413269	0.30647278
341218086418967	-0.69480896	-1.5441895	0.36314392
341218091454368	-0.80506897	-1.6876221	0.42074585
341218096489768	-0.92134094	-1.8637695	0.4776001
341218101525168	-1.03656	-2.0326996	0.5161743
341218106560569	-1.167984	-2.190216	0.5533905
341218111595969	-1.3115082	-2.31073	0.5932007
341218116631370	-1.4684601	-2.4048767	0.619812
341218121666770	-1.6128693	-2.465561	0.63653564
341218126702170	-1.7064056	-2.44133	0.67544556
341218131737571	-1.7274323	-2.346405	0.7574463
341218136772971	-1.6994324	-2.2009125	0.8816681
341218141808372	-1.6353455	-2.0205078	1.0196686
341218146843772	-1.5577393	-1.8382721	1.1451111
341218151879172	-1.4890137	-1.6951904	1.2435303
341218156914573	-1.449585	-1.6278381	1.3065186
341218161949973	-1.4493713	-1.6404572	1.3232727
341218166985374	-1.472229	-1.699707	1.3018341
341218172020774	-1.5012665	-1.7833099	1.2579193
341218177056174	-1.523468	-1.8731537	1.2071533
341218182091575	-1.5388336	-1.9517822	1.1493683
341218187126975	-1.5470734	-2.0004883	1.0842896
341218192162376	-1.5498047	-2.00943	1.0206451
341218197197776	-1.5542145	-1.986908	0.95703125
341218202233176	-1.559082	-1.9502869	0.90089417
341218207268577	-1.567276	-1.9164886	0.8608551
341218212303977	-1.5816803	-1.8766327	0.83128357
341218217339377	-1.5991821	-1.8214722	0.8087311
341218222374778	-1.6091919	-1.7575989	0.79115295
341218227410178	-1.6083984	-1.6891632	0.7796936
341218232445579	-1.5954285	-1.6156769	0.77597046
341218237480979	-1.5713501	-1.5285187	0.7776642
341218242516379	-1.5361023	-1.4207611	0.7941742
341218247551780	-1.4958649	-1.2948151	0.82769775
341218252587180	-1.4595947	-1.1374359	0.861496
341218257622581	-1.4239655	-0.99443054	0.89985657
341218262657981	-1.3847198	-0.89888	0.9451294
341218267693381	-1.342865	-0.83192444	0.99313354
341218272728782	-1.2840118	-0.7581177	1.0502014
341218277764182	-1.2268524	-0.68969727	1.0975647
341218282799583	-1.1823578	-0.6425781	1.1293335
341218287834983	-1.1530457	-0.6402588	1.1577759
341218292870383	-1.1354065	-0.6885834	1.1870117
341218297905784	-1.122818	-0.7705078	1.2127533
341218302941184	-1.1080322	-0.8799286	1.2385254
341218307976585	-1.092804	-0.96772766	1.2625732
341218313011985	-1.0796356	-1.0205536	1.2865143
341218318047385	-1.0665894	-1.0337067	1.3167725
341218323082786	-1.0535126	-1.0176392	1.3461151
341218328118186	-1.0362854	-0.9872589	1.3673859
341218333153586	-1.006073	-0.9456787	1.3815613
341218338188987	-0.9671936	-0.90644836	1.3885803
341218343224387	-0.9151306	-0.8664551	1.3854523
341218348259788	-0.85150146	-0.83062744	1.3700562
341218353295188	-0.78385925	-0.80708313	1.3423767
341218358330588	-0.7228546	-0.79551697	1.310318
341218363365989	-0.6596222	-0.79385376	1.2683258
341218368401389	-0.60653687	-0.79455566	1.22789
341218373436790	-0.5680542	-0.7847595	1.1867523
341218378472190	-0.5450897	-0.75857544	1.1469421
341218383507590	-0.53800964	-0.72180176	1.109909
341218388542991	-0.54603577	-0.67567444	1.0759735
341218393578391	-0.5653076	-0.6177826	1.0405426
341218398613792	-0.5913696	-0.56230164	1.0070038
341218403649192	-0.6225891	-0.50746155	0.96980286
341218408684592	-0.65237427	-0.45724487	0.9295502
341218413719993	-0.6776428	-0.41877747	0.8898926
341218418755393	-0.6951294	-0.39505005	0.85165405
341218423790793	-0.7024689	-0.39205933	0.8166809
341218428826194	-0.6943817	-0.4116211	0.7891846
341218433861594	-0.6685791	-0.44847107	0.76634216
341218438896995	-0.6229706	-0.49598694	0.74435425
341218443932395	-0.56137085	-0.54222107	0.72439575
341218448967795	-0.480011	-0.57559204	0.7032013
341218454003196	-0.38131714	-0.5832062	0.6776581
341218459038596	-0.28883362	-0.5577545	0.64668274
341218464073997	-0.20469666	-0.5035553	0.60406494
341218469109397	-0.12869263	-0.4330597	0.55104065
341218474144797	-0.059768677	-0.36140442	0.49327087
341218479180198	0.007873535	-0.28704834	0.42869568
341218484215598	0.07147217	-0.22343445	0.36254883
341218489250999	0.12428284	-0.18966675	0.29943848
341218494286399	0.16984558	-0.18421936	0.23905945
341218499321799	0.21142578	-0.20475769	0.18078613
341218504357200	0.24639893	-0.23742676	0.12788391
341218509392600	0.27903748	-0.27157593	0.07243347
341218514428001	0.31251526	-0.30389404	0.016723633
341218519463401	0.34934998	-0.3206482	-0.040008545
341218524498801	0.3993988	-0.3267517	-0.09925842
341218529534202	0.4655609	-0.3270111	-0.16842651
341218534569602	0.54533386	-0.3173828	-0.24320984
341218539605002	0.65371704	-0.292099	-0.33447266
341218544640403	0.77819824	-0.25793457	-0.43632507
341218549675803	0.9025421	-0.22218323	-0.54592896
341218554711204	1.0154877	-0.18258667	-0.6605835
341218559746604	1.1151428	-0.15176392	-0.7815552
341218564782004	1.1994781	-0.13056946	-0.90519714
341218569817405	1.3027191	-0.114349365	-1.0556488
341218574852805	1.4164276	-0.09309387	-1.2072601
341218579888206	1.54599	-0.046813965	-1.3605194
341218584923606	1.7004852	0.020858765	-1.510788
341218589959006	1.8698578	0.12335205	-1.644989
341218594994407	2.0359955	0.23774719	-1.7505035
341218600029807	2.1977844	0.36621094	-1.8407745
341218605065208	2.3031158	0.46247864	-1.8940735
341218610100608	2.3593292	0.52456665	-1.9244537
341218615136008	2.3779602	0.5536957	-1.9377747
341218620171409	2.3730621	0.5421295	-1.9414673
341218625206809	2.3531494	0.50390625	-1.9394836
341218630242210	2.3192291	0.4295349	-1.9392242
341218635277610	2.2758942	0.3488617	-1.9460449
341218640313010	2.2120361	0.2911682	-1.9611359
341218645348411	2.125229	0.26690674	-1.9798889
341218650383811	2.021286	0.2526703	-1.9916534
341218655419211	1.9142761	0.2286377	-1.9880371
341218660454612	1.792572	0.19599915	-1.9696503
341218665490012	1.6785583	0.16799927	-1.9524536
341218670525413	1.5624695	0.13461304	-1.9522858
341218675560813	1.445282	0.07461548	-1.9791107
341218680596213	1.3266144	-0.01776123	-2.0281525
341218685631614	1.2106934	-0.138031	-2.0853882
341218690667014	1.0937347	-0.28741455	-2.1495056
341218695702415	0.9950714	-0.4028778	-2.2286377
341218700737815	0.9146118	-0.46273804	-2.3400726
341218705773215	0.86203	-0.46699524	-2.475174
341218710808616	0.8352661	-0.42204285	-2.6031036
341218715844016	0.8185425	-0.33224487	-2.7118225
341218720879417	0.80249023	-0.21092224	-2.7950897
341218725914817	0.78996277	-0.08909607	-2.8362274
341218730950217	0.7801819	0.046569824	-2.8441162
341218735985618	0.7737732	0.21516418	-2.8226776
341218741021018	0.7734375	0.41007996	-2.7793884
341218746056418	0.7839966	0.6268463	-2.7185822
341218751091819	0.8052063	0.85035706	-2.6422424
341218756127219	0.8295288	1.0575714	-2.563324
341218761162620	0.8545532	1.2534637	-2.4869995
341218766198020	0.8851166	1.4515533	-2.4195557
341218771233420	0.9193115	1.642395	-2.3612976
341218776268821	0.9591675	1.8265228	-2.2889557
341218781304221	0.99591064	1.9673462	-2.2007904
341218786339622	1.0257721	2.055252	-2.101242
341218791375022	1.0556335	2.1252747	-2.0089722
341218796410422	1.0854187	2.2137146	-1.9424744
341218801445823	1.1039276	2.3081512	-1.8805237
341218806481223	1.114975	2.4282532	-1.7928925
341218811516624	1.108902	2.5491333	-1.6985626
341218816552024	1.0937347	2.6632233	-1.6229401
341218821587424	1.0902405	2.792633	-1.5876465
341218826622825	1.1004639	2.9272003	-1.5744324
341218831658225	1.1009521	3.0327454	-1.5535736
341218836693626	1.0726929	3.095169	-1.5351563
341218841729026	1.0339661	3.1355896	-1.4410706
341218846764426	0.9889679	3.1371918	-1.257721
341218851799827	0.90934753	3.0435333	-1.1177979
341218856835227	0.7942047	2.8973694	-1.0289459
341218861870627	0.6757355	2.7604218	-0.97665405
341218866906028	0.55093384	2.6282349	-0.9168396
341218871941428	0.4471283	2.54422	-0.8290863
341218876976829	0.3600464	2.4822693	-0.7227173
341218882012229	0.27192688	2.4203186	-0.62117004
341218887047629	0.18463135	2.3447113	-0.52853394
341218892083030	0.105041504	2.2635956	-0.43388367
341218897118430	0.0113220215	2.1820679	-0.32810974
341218902153831	-0.072769165	2.113205	-0.22860718
341218907189231	-0.15995789	2.0410767	-0.1182251
341218912224631	-0.25390625	1.9608612	0.0015411377
341218917260032	-0.348114	1.8782501	0.12512207
341218922295432	-0.4396515	1.7993011	0.24450684
341218927330833	-0.55189514	1.7182465	0.3734131
341218932366233	-0.67082214	1.6513977	0.4982605
341218937401633	-0.80859375	1.5953217	0.62553406
341218942437034	-0.96266174	1.5492096	0.75061035
341218947472434	-1.1192932	1.5152588	0.8639679
341218952507835	-1.2673645	1.4959564	0.963089
341218957543235	-1.4049072	1.4958038	1.0558777
341218962578635	-1.5016327	1.52211	1.1342926
341218967614036	-1.5580597	1.5639191	1.2055206
341218972649436	-1.5739288	1.6158447	1.2707367
341218977684836	-1.5558472	1.671463	1.327179
341218982720237	-1.5161133	1.7167511	1.3778076
341218987755637	-1.4625397	1.7317352	1.4180756
341218992791038	-1.4050598	1.7195587	1.4320221
341218997826438	-1.3361206	1.7074738	1.4138031
341219002861838	-1.2452698	1.7170563	1.3677216
341219007897239	-1.1236877	1.753006	1.2982178
341219012932639	-0.947052	1.8046417	1.1923981
341219017968040	-0.70259094	1.8488922	1.0451965
341219023003440	-0.42462158	1.846344	0.8681793
341219028038840	-0.13485718	1.7489471	0.6545563
341219033074241	0.13574219	1.5317078	0.4137268
341219038109641	0.34780884	1.2488556	0.16700745
341219043145042	0.51449585	0.9318085	-0.10848999
341219048180442	0.6182251	0.6503296	-0.38183594
341219053215842	0.6602173	0.42304993	-0.63797
341219058251243	0.65545654	0.23924255	-0.8657379
341219063286643	0.6136017	0.11204529	-1.0529938
341219068322043	0.54792786	0.05419922	-1.183075
341219073357444	0.46401978	0.055633545	-1.27005
341219078392844	0.3961029	0.12246704	-1.3038483
341219083428245	0.34724426	0.23345947	-1.3012695
341219088463645	0.27734375	0.3161621	-1.2692566
341219093499045	0.14912415	0.28401184	-1.1882629
341219098534446	-0.013092041	0.11895752	-1.0782013
341219103569846	-0.18736267	-0.15336609	-0.9416199
341219108605247	-0.30213928	-0.41197205	-0.7971802
341219113640647	-0.35707092	-0.6177521	-0.6395416
341219118676047	-0.37461853	-0.78448486	-0.4512787
341219123711448	-0.38571167	-0.96118164	-0.22259521
341219128746848	-0.42826843	-1.161026	-0.012298584
341219133782249	-0.53118896	-1.4067993	0.20092773
341219138817649	-0.6898651	-1.6098633	0.37031555
341219143853049	-0.8855438	-1.7509613	0.526474
341219148888450	-1.075592	-1.8059845	0.6704407
341219153923850	-1.2222443	-1.7799683	0.8011627
341219158959251	-1.3144836	-1.6757355	0.90805054
341219163994651	-1.354126	-1.4384003	0.9894409
341219169030051	-1.2511902	-1.0657501	1.0162811
341219174065452	-0.88974	-0.510849	0.9694061
341219179100852	-0.3123474	0.122039795	0.8552704
341219184136252	0.24269104	0.62072754	0.7082977
341219189171653	0.568573	0.81996155	0.59788513
341219194207053	0.6002655	0.68717957	0.5332184
341219199242454	0.3747406	0.3625641	0.5128479
341219204277854	-2.89917E-4	-0.034225464	0.522583
341219209313254	-0.4313507	-0.45767212	0.5509949
341219214348655	-0.8422699	-0.90597534	0.58792114
341219219384055	-1.1901093	-1.3920898	0.6262207
341219224419456	-1.4728546	-1.9761658	0.6675873
341219229454856	-1.6577606	-2.5383148	0.6951294
341219234490256	-1.7923889	-3.0512695	0.71209717
341219239525657	-1.907196	-3.4136963	0.7445221
341219244561057	-2.0024872	-3.5494385	0.80336
341219249596458	-2.060135	-3.4844666	0.8844757
341219254631858	-2.0596924	-3.2569733	0.97602844
341219259667258	-1.9928284	-2.9752808	1.0598602
341219264702659	-1.8673553	-2.6821442	1.1378021
341219269738059	-1.7062836	-2.3654327	1.2090454
341219274773460	-1.5331879	-2.0165558	1.2666626
341219279808860	-1.3426819	-1.6372681	1.3041229
341219284844260	-1.1452026	-1.2927551	1.319107
341219289879661	-0.98205566	-1.0497894	1.3114014
341219294915061	-0.880661	-0.90689087	1.2784882
341219299950461	-0.85214233	-0.84858704	1.2216492
341219304985862	-0.8834686	-0.84747314	1.1492767
341219310021262	-0.9617462	-0.87597656	1.0556946
341219315056663	-1.0586853	-0.92630005	0.95710754
341219320092063	-1.140274	-1.0082092	0.8781128
341219325127463	-1.2053833	-1.1162872	0.82237244
341219330162864	-1.2608185	-1.2344513	0.78440857
341219335198264	-1.30896	-1.3363647	0.7562561
341219340233665	-1.3599701	-1.4377594	0.7197418
341219345269065	-1.402298	-1.5809326	0.6851349
341219350304465	-1.433258	-1.7560883	0.66059875
341219355339866	-1.4620819	-1.9120789	0.6410217
341219360375266	-1.4886475	-1.9943848	0.62246704
341219365410667	-1.496872	-2.0150146	0.6179657
341219370446067	-1.4774475	-1.9933624	0.6296387
341219375481467	-1.4359436	-1.903183	0.6506653
341219380516868	-1.3777008	-1.7247162	0.67733765
341219385552268	-1.3078308	-1.4965057	0.7205658
341219390587668	-1.247345	-1.2525177	0.77641296
341219395623069	-1.2139435	-1.0367279	0.82992554
341219400658469	-1.1936493	-0.848053	0.89271545
341219405693870	-1.1851196	-0.74609375	0.95466614
341219410729270	-1.1963654	-0.71180725	1.0094452
341219415764670	-1.2186279	-0.7305908	1.041565
341219420800071	-1.2279053	-0.7765808	1.0627441
341219425835471	-1.2146912	-0.82707214	1.0758057
341219430870872	-1.1816254	-0.89845276	1.0848541
341219435906272	-1.1496735	-0.9736023	1.0913391
341219440941672	-1.1239014	-1.0498505	1.1062927
341219445977073	-1.1065826	-1.130188	1.1279297
341219451012473	-1.0894165	-1.2102051	1.1522827
341219456047874	-1.0659637	-1.275589	1.1665344
341219461083274	-1.0197906	-1.3156738	1.1654205
341219466118674	-0.94880676	-1.309082	1.1594543
341219471154075	-0.8588257	-1.2548218	1.1526642
341219476189475	-0.76745605	-1.1584625	1.1485748
341219481224876	-0.69262695	-1.0446014	1.1442413
341219486260276	-0.6435089	-0.9416046	1.1340027
341219491295676	-0.6104889	-0.8607483	1.1097565
341219496331077	-0.58947754	-0.8280029	1.078186
341219501366477	-0.5713043	-0.8314972	1.0444641
341219506401877	-0.5513153	-0.8539429	1.0136108
341219511437278	-0.53204346	-0.87597656	0.9922333
341219516472678	-0.51631165	-0.88342285	0.9793091
341219521508079	-0.5079498	-0.8688965	0.971817
341219526543479	-0.50964355	-0.83306885	0.97195435
341219531578879	-0.52020264	-0.7781677	0.97680664
341219536614280	-0.5391693	-0.7095947	0.9827881
341219541649680	-0.5657196	-0.6328125	0.9870453
341219546685081	-0.5966034	-0.54530334	0.9881592
341219551720481	-0.62075806	-0.4560089	0.9811554
341219556755881	-0.6291046	-0.38471985	0.96269226
341219561791282	-0.6227112	-0.33901978	0.93608093
341219566826682	-0.6023102	-0.3282776	0.90211487
341219571862083	-0.56259155	-0.35092163	0.86557007
341219576897483	-0.4955597	-0.4045105	0.82792664
341219581932883	-0.40637207	-0.47149658	0.78944397
341219586968284	-0.3093567	-0.5223999	0.7411499
341219592003684	-0.21260071	-0.5405731	0.6773987
341219597039085	-0.118392944	-0.519577	0.6035156
341219602074485	-0.03274536	-0.46253967	0.53434753
341219607109885	0.054656982	-0.37199402	0.46646118
341219612145286	0.13002014	-0.26957703	0.41027832
341219617180686	0.18807983	-0.18167114	0.36480713
341219622216086	0.22433472	-0.12812805	0.31869507
341219627251487	0.23997498	-0.12042236	0.27104187
341219632286887	0.24453735	-0.1458435	0.22338867
341219637322288	0.24247742	-0.18911743	0.16441345
341219642357688	0.23352051	-0.23780823	0.10519409
341219647393088	0.22373962	-0.29927063	0.049331665
341219652428489	0.23443604	-0.36265564	-0.004562378
341219657463889	0.28067017	-0.41548157	-0.0695343
341219662499290	0.36264038	-0.44239807	-0.14013672
341219667534690	0.48147583	-0.44740295	-0.23460388
341219672570090	0.5970001	-0.4251709	-0.3388672
341219677605491	0.6980133	-0.39486694	-0.4454193
341219682640891	0.77931213	-0.37475586	-0.5476837
341219687676292	0.85112	-0.37294006	-0.6496887
341219692711692	0.92303467	-0.37799072	-0.746933
341219697747092	1.0259094	-0.3887024	-0.85891724
341219702782493	1.1404266	-0.38557434	-0.96347046
341219707817893	1.2785187	-0.3508911	-1.0692596
341219712853293	1.4334106	-0.2811432	-1.1773529
341219717888694	1.5956268	-0.18218994	-1.2863007
341219722924094	1.7503052	-0.07312012	-1.3877716
341219727959495	1.9245453	0.05152893	-1.4905243
341219732994895	2.0818634	0.15289307	-1.5682526
341219738030295	2.217102	0.23568726	-1.6332855
341219743065696	2.3131256	0.30699158	-1.6881714
341219748101096	2.3631287	0.37330627	-1.7331085
341219753136497	2.3697662	0.43496704	-1.766861
341219758171897	2.3398285	0.493515	-1.7969971
341219763207297	2.2963562	0.5206146	-1.8234711
341219768242698	2.246231	0.50190735	-1.8517914
341219773278098	2.1890717	0.44236755	-1.8842316
341219778313499	2.124054	0.36782837	-1.9218903
341219783348899	2.0439606	0.29599	-1.9676056
341219788384299	1.9369507	0.22473145	-2.0222626
341219793419700	1.8149872	0.14356995	-2.0673523
341219798455100	1.6819763	0.036071777	-2.0948486
341219803490501	1.5502472	-0.09706116	-2.1092072
341219808525901	1.4318085	-0.23631287	-2.1262207
341219813561301	1.3212433	-0.3764038	-2.15773
341219818596702	1.2188416	-0.51275635	-2.2013855
341219823632102	1.1322174	-0.6298218	-2.2413177
341219828667502	1.0560455	-0.71243286	-2.2784576
341219833702903	0.99082947	-0.73350525	-2.326126
341219838738303	0.9434662	-0.6908417	-2.3914948
341219843773704	0.91464233	-0.59913635	-2.4838104
341219848809104	0.91163635	-0.47746277	-2.5947113
341219853844504	0.92822266	-0.3527069	-2.7031708
341219858879905	0.9499817	-0.23608398	-2.7891083
341219863915305	0.9687195	-0.13658142	-2.837967
341219868950706	0.9801941	-0.038223267	-2.8456116
341219873986106	0.98794556	0.091278076	-2.8162842
341219879021506	0.991333	0.25146484	-2.7591705
341219884056907	0.9901581	0.43104553	-2.6871185
341219889092307	0.9897003	0.6183319	-2.6094818
341219894127708	0.9931946	0.7960205	-2.5311584
341219899163108	0.99897766	0.95202637	-2.4564514
341219904198508	1.0139313	1.1335297	-2.37883
341219909233909	1.0379333	1.3220215	-2.3163605
341219914269309	1.0648651	1.4997101	-2.26799
341219919304710	1.0891266	1.6320496	-2.214386
341219924340110	1.110199	1.6929321	-2.1406555
341219929375510	1.1256409	1.7161102	-2.0603943
341219934410911	1.1398621	1.7785645	-1.9731903
341219939446311	1.1508484	1.8829651	-1.9072113
341219944481711	1.1509094	2.0164642	-1.8526764
341219949517112	1.1396179	2.1563416	-1.7965851
341219954552512	1.1168671	2.2884216	-1.7323151
341219959587913	1.0893555	2.417801	-1.6732178
341219964623313	1.0490265	2.5515137	-1.6066437
341219969658713	1.004715	2.660614	-1.5493469
341219974694114	0.9516144	2.7575989	-1.5061951
341219979729514	0.88446045	2.8131561	-1.4734039
341219984764915	0.82341003	2.8534546	-1.4387817
341219989800315	0.78440857	2.9183197	-1.399826
341219994835715	0.73986816	2.9877014	-1.3523254
341219999871116	0.6858368	3.0238953	-1.2335205
341220004906516	0.60743713	2.989624	-1.0620422
341220009941917	0.50737	2.8849487	-0.9126892
341220014977317	0.39671326	2.759369	-0.7935791
341220020012717	0.27890015	2.6281586	-0.70428467
341220025048118	0.147995	2.4891815	-0.60058594
341220030083518	0.033340454	2.376892	-0.47175598
341220035118918	-0.07873535	2.2786255	-0.32667542
341220040154319	-0.19647217	2.178299	-0.17988586
341220045189719	-0.32336426	2.0683594	-0.04008484
341220050225120	-0.46444702	1.9363861	0.095336914
341220055260520	-0.6240845	1.774643	0.2342987
341220060295920	-0.78323364	1.6257782	0.3693695
341220065331321	-0.9466858	1.4828949	0.5036316
341220070366721	-1.1171875	1.3326721	0.6268158
341220075402122	-1.2849121	1.1873474	0.7386017
341220080437522	-1.4520111	1.0540619	0.84935
341220085472922	-1.611618	0.941391	0.95254517
341220090508323	-1.7418823	0.868515	1.036377
341220095543723	-1.8392334	0.84124756	1.1059113
341220100579124	-1.8971558	0.86221313	1.1669006
341220105614524	-1.9134369	0.91407776	1.2181091
341220110649924	-1.8871765	0.9917145	1.2583923
341220115685325	-1.8225708	1.0857086	1.2774506
341220120720725	-1.7350769	1.183197	1.2751312
341220125756126	-1.6342621	1.2912445	1.2533722
341220130791526	-1.5273438	1.4196472	1.2070313
341220135826926	-1.4186859	1.575531	1.1318359
341220140862327	-1.2897797	1.7726593	1.0117798
341220145897727	-1.1424713	1.9743805	0.8547516
341220150933127	-0.98069763	2.135727	0.67419434
341220155968528	-0.8136749	2.2118835	0.46943665
341220161003928	-0.6626892	2.1418915	0.25682068
341220166039329	-0.5362854	1.9405823	0.067276
341220171074729	-0.39741516	1.6265259	-0.1171875
341220176110129	-0.25186157	1.3088837	-0.26210022
341220181145530	-0.09942627	1.0449371	-0.37937927
341220186180930	0.06074524	0.846344	-0.48294067
341220191216331	0.21582031	0.7132263	-0.5753174
341220196251731	0.34257507	0.63822937	-0.6477051
341220201287131	0.4517517	0.5943451	-0.70184326
341220206322532	0.5174866	0.6075592	-0.7194519
341220211357932	0.54963684	0.6676636	-0.7122803
341220216393333	0.55462646	0.7556305	-0.6849365
341220221428733	0.53492737	0.8346863	-0.6498871
341220226464133	0.48327637	0.87519836	-0.60835266
341220231499534	0.3726349	0.82510376	-0.5492401
341220236534934	0.22914124	0.65727234	-0.4957428
341220241570335	0.079422	0.35873413	-0.43954468
341220246605735	-0.033187866	-0.0029449463	-0.37712097
341220251641135	-0.088760376	-0.3317566	-0.3104248
341220256676536	-0.09056091	-0.5758362	-0.23072815
341220261711936	-0.0552063	-0.76693726	-0.09114075
341220266747336	-0.026473999	-0.88661194	0.08465576
341220271782737	-0.033050537	-0.9918823	0.2983551
341220276818137	-0.11984253	-1.1111603	0.528183
341220281853538	-0.30169678	-1.2370605	0.7485199
341220286888938	-0.5342102	-1.3540802	0.9564514
341220291924338	-0.7672272	-1.4646149	1.1727753
341220296959739	-0.90431213	-1.5305481	1.3592224
341220301995139	-0.94311523	-1.5388947	1.5089874
341220307030540	-0.8935394	-1.4829102	1.5792236
341220312065940	-0.7706604	-1.359787	1.539032
341220317101340	-0.5956116	-1.1920013	1.3904877
341220322136741	-0.38946533	-1.0097656	1.1431427
341220327172141	-0.20953369	-0.87202454	0.8827667
341220332207542	-0.06500244	-0.78741455	0.64805603
341220337242942	0.020599365	-0.7759552	0.46557617
341220342278342	0.026947021	-0.8463898	0.34909058
341220347313743	-0.050369263	-0.9897003	0.28450012
341220352349143	-0.21168518	-1.1873322	0.25502014
341220357384543	-0.4236908	-1.4056396	0.24630737
341220362419944	-0.67089844	-1.6520844	0.25602722
341220367455344	-0.93663025	-1.9416962	0.2893982
341220372490745	-1.1935577	-2.2497406	0.33874512
341220377526145	-1.4486237	-2.5748444	0.39778137
341220382561545	-1.6815491	-2.8547516	0.46417236
341220387596946	-1.868988	-3.021881	0.5351105
341220392632346	-2.0070953	-3.0708008	0.6130371
341220397667747	-2.089737	-3.0159912	0.69685364
341220402703147	-2.10466	-2.873825	0.78237915
341220407738547	-2.046646	-2.6377716	0.8854523
341220412773948	-1.9189453	-2.3179474	1.0136566
341220417809348	-1.7494507	-1.9466248	1.1564636
341220422844749	-1.5752258	-1.562027	1.281311
341220427880149	-1.4246979	-1.2405701	1.3651123
341220432915549	-1.3190308	-1.0549774	1.3954468
341220437950950	-1.2482147	-0.95477295	1.3757324
341220442986350	-1.2292328	-0.91908264	1.3100586
341220448021751	-1.2511139	-0.9218445	1.2176666
341220453057151	-1.2948151	-0.9468231	1.1098633
341220458092551	-1.3415222	-1.0300293	1.0177155
341220463127952	-1.3786011	-1.1706543	0.95214844
341220468163352	-1.4190521	-1.3435516	0.8887024
341220473198752	-1.4637451	-1.4625549	0.8200073
341220478234153	-1.4988098	-1.5800171	0.76101685
341220483269553	-1.511734	-1.7157898	0.7315674
341220488304954	-1.5029602	-1.841156	0.7109833
341220493340354	-1.4918823	-1.9056091	0.69285583
341220498375754	-1.4702148	-1.9338379	0.6680603
341220503411155	-1.4367218	-1.9281464	0.6428833
341220508446555	-1.3806458	-1.9289398	0.6436615
341220513481956	-1.3111267	-1.8952179	0.6811371
341220518517356	-1.2519073	-1.7590485	0.7294922
341220523552756	-1.2025299	-1.5748901	0.7763519
341220528588157	-1.1476288	-1.400116	0.84747314
341220533623557	-1.1085663	-1.261673	0.9160156
341220538658958	-1.0849304	-1.1357422	0.9808502
341220543694358	-1.0681915	-1.0394897	1.0282288
341220548729758	-1.059021	-1.0011139	1.0591736
341220553765159	-1.0534973	-1.0225525	1.0762634
341220558800559	-1.0402527	-1.0969391	1.0821533
341220563835960	-1.022049	-1.1889038	1.0811768
341220568854132	-1.0045624	-1.2811432	1.0768585
341220573889532	-0.9955597	-1.3613434	1.0691986
341220578924933	-0.9985199	-1.4278564	1.0614777
341220583960333	-1.0108795	-1.4888611	1.0604401
341220588995733	-1.0271454	-1.5513153	1.0678558
341220594031134	-1.0368042	-1.5979156	1.0763245
341220599066534	-1.0253601	-1.6165619	1.077179
341220604101935	-0.97462463	-1.5961914	1.0632324
341220609137335	-0.8922119	-1.5313568	1.037384
341220614172735	-0.7969971	-1.4183197	1.0055847
341220619208136	-0.71383667	-1.269867	0.9698944
341220624243536	-0.6600342	-1.1374664	0.9351349
341220629278937	-0.6206665	-1.0419159	0.9085388
341220634314337	-0.58354187	-0.9775543	0.8982849
341220639349737	-0.547699	-0.92492676	0.89971924
341220644385138	-0.5140381	-0.8621216	0.90534973
341220649420538	-0.48861694	-0.7863617	0.91545105
341220654455939	-0.47279358	-0.70565796	0.9308777
341220659491339	-0.46827698	-0.62013245	0.94970703
341220664526739	-0.47853088	-0.5316467	0.9678345
341220669562140	-0.4986267	-0.44319153	0.98091125
341220674597540	-0.5314026	-0.3438568	0.9894409
341220679632940	-0.57759094	-0.24459839	0.992157
341220684668341	-0.62898254	-0.1566925	0.9900055
341220689703741	-0.6762085	-0.089279175	0.9850769
341220694739142	-0.70928955	-0.052642822	0.98046875
341220699774542	-0.72232056	-0.050964355	0.973938
341220704809942	-0.7123718	-0.08027649	0.96339417
341220709845343	-0.6778259	-0.13284302	0.9468994
341220714880743	-0.618042	-0.19796753	0.92099
341220719916144	-0.54055786	-0.26342773	0.88612366
341220724951544	-0.45040894	-0.31698608	0.8433838
341220729986944	-0.3597107	-0.3380127	0.8000641
341220735022345	-0.25454712	-0.31436157	0.74424744
341220740057745	-0.16133118	-0.24145508	0.684494
341220745093146	-0.08784485	-0.13790894	0.6183319
341220750128546	-0.040878296	-0.043395996	0.5551758
341220755163946	-0.015014648	0.0063476563	0.4887848
341220760199347	0.0010986328	3.0517578E-4	0.42131042
341220765234747	0.02355957	-0.056137085	0.3393402
341220770270148	0.049926758	-0.13917542	0.2611847
341220775305548	0.0790863	-0.24021912	0.18566895
341220780340948	0.106414795	-0.34884644	0.11705017
341220785376349	0.1352539	-0.44503784	0.057357788
341220790411749	0.16926575	-0.5228119	0.0049591064
341220795447149	0.22590637	-0.59521484	-0.055923462
341220800482550	0.30690002	-0.6517029	-0.11677551
341220805517950	0.41619873	-0.6949005	-0.18383789
341220810553351	0.53538513	-0.71939087	-0.26026917
341220815588751	0.64993286	-0.7207489	-0.3454132
341220820624151	0.756897	-0.69732666	-0.43476868
341220825659552	0.86668396	-0.64971924	-0.5357208
341220830694952	0.9624481	-0.6013794	-0.6313324
341220835730353	1.0516052	-0.56736755	-0.73095703
341220840765753	1.1479187	-0.5495758	-0.8370819
341220845801153	1.2557373	-0.5378113	-0.9476929
341220850836554	1.376831	-0.51101685	-1.063858
341220855871954	1.5234833	-0.45809937	-1.1928253
341220860907355	1.6767883	-0.381073	-1.3159637
341220865942755	1.838562	-0.2785492	-1.4388123
341220870978155	2.002243	-0.16355896	-1.5531158
341220876013556	2.1561127	-0.050979614	-1.6495667
341220881048956	2.2913666	0.058425903	-1.7285156
341220886084357	2.3832245	0.16523743	-1.7884521
341220891119757	2.4130554	0.26594543	-1.8300781
341220896155157	2.3910828	0.3652649	-1.8612823
341220901190558	2.3336182	0.436615	-1.8890839
341220906225958	2.2672272	0.44839478	-1.9197388
341220911261358	2.2012787	0.39483643	-1.9560852
341220916296759	2.143341	0.2945099	-1.9855652
341220921332159	2.0938568	0.18229675	-1.9953766
341220926367560	2.04599	0.07229614	-1.9933319
341220931402960	1.9891663	-0.032196045	-1.9889526
341220936438360	1.9194336	-0.1328888	-1.979248
341220941473761	1.8285675	-0.24305725	-1.9636841
341220946509161	1.727768	-0.33943176	-1.9469147
341220951544562	1.6307678	-0.41796875	-1.9370575
341220956579962	1.5400085	-0.48638916	-1.9460602
341220961615362	1.4584503	-0.543396	-1.9746704
341220966650763	1.3958435	-0.5929413	-2.007782
341220971686163	1.3360138	-0.647522	-2.0505524
341220976721564	1.2770233	-0.68592834	-2.1181488
341220981756964	1.2229156	-0.683548	-2.2299194
341220986792364	1.1923981	-0.6435089	-2.3750916
341220991827765	1.1903992	-0.58631897	-2.5202484
341220996863165	1.2006226	-0.5220337	-2.6245728
341221001898565	1.2163086	-0.43229675	-2.6863403
341221006933966	1.2233734	-0.31196594	-2.6873016
341221011969366	1.220459	-0.13246155	-2.6536713
341221017004767	1.2172089	0.078063965	-2.6028442
341221022040167	1.2160645	0.29048157	-2.5370483
341221027075567	1.2130432	0.46168518	-2.4665527
341221032110968	1.2093048	0.6177521	-2.3822174
341221037146368	1.2023315	0.74028015	-2.3129883
341221042181769	1.2041016	0.85847473	-2.2497864
341221047217169	1.2134094	0.983902	-2.1985931
341221052252569	1.2269592	1.1082001	-2.1662292
341221057287970	1.2361298	1.2081299	-2.143097
341221062323370	1.2458954	1.3105621	-2.1051483
341221067358771	1.2499084	1.4149323	-2.0534668
341221072394171	1.2468262	1.5434723	-1.9958496
341221077429571	1.2412872	1.6996918	-1.9440002
341221082464972	1.239151	1.8767548	-1.8995361
341221087500372	1.234909	2.0514984	-1.8617249
341221092535773	1.2161865	2.2044678	-1.8190765
341221097571173	1.1824951	2.3122406	-1.7720642
341221102606573	1.1397858	2.401291	-1.7368317
341221107641974	1.0958252	2.491806	-1.7168427
341221112677374	1.0539551	2.5985107	-1.692688
341221117712774	1.0064087	2.7024994	-1.6511993
341221122748175	0.955307	2.7947693	-1.5436707
341221127783575	0.902298	2.8380737	-1.3783722
341221132818976	0.8273468	2.807602	-1.2403107
341221137854376	0.73413086	2.7302856	-1.1388397
341221142889776	0.6391754	2.6543121	-1.0466766
341221147925177	0.5411072	2.5885925	-0.9433441
341221152960577	0.43310547	2.5241852	-0.824234
341221157995978	0.33044434	2.4548645	-0.70700073
341221163031378	0.23118591	2.3777618	-0.5964203
341221168066778	0.13113403	2.2963562	-0.493042
341221173102179	0.036605835	2.2149048	-0.3937683
341221178137579	-0.055282593	2.125595	-0.28175354
341221183172980	-0.1414032	2.0314484	-0.15374756
341221188208380	-0.22209167	1.941925	-0.02192688
341221193243780	-0.31106567	1.8488617	0.11149597
341221198279181	-0.41477966	1.7574768	0.24531555
341221203314581	-0.5325165	1.6769409	0.36610413
341221208349982	-0.68019104	1.5994568	0.48382568
341221213385382	-0.84417725	1.5368958	0.592453
341221218420782	-1.0164948	1.4931946	0.6920624
341221223456183	-1.194931	1.4606171	0.78915405
341221228491583	-1.3735962	1.4419708	0.8834381
341221233526983	-1.5398254	1.4388428	0.9726715
341221238562384	-1.7065582	1.457077	1.0686188
341221243597784	-1.8398438	1.4983063	1.1612396
341221248633185	-1.9309692	1.5595245	1.2489319
341221253668585	-1.9743347	1.6359558	1.318985
341221258703985	-1.9709015	1.7181396	1.362381
341221263739386	-1.9254913	1.7843628	1.3771973
341221268774786	-1.8350067	1.8363647	1.3800964
341221273810187	-1.734024	1.8444824	1.375061
341221278845587	-1.6203461	1.8155518	1.3571167
341221283880987	-1.4763947	1.7702332	1.3248138
341221288916388	-1.2802429	1.7268829	1.286499
341221293951788	-1.0321045	1.6985168	1.2257233
341221298987189	-0.6607971	1.7049408	1.0962677
341221304022589	-0.24630737	1.7274933	0.8971863
341221309057989	0.17953491	1.7070313	0.61686707
341221314093390	0.55122375	1.5856781	0.28079224
341221319128790	0.7969208	1.3811035	-0.05897522
341221324164190	0.90005493	1.1601257	-0.3622284
341221329199591	0.88920593	0.9473877	-0.658371
341221334234991	0.80955505	0.8022003	-0.8752289
341221339270392	0.70796204	0.7260132	-1.0328522
341221344305792	0.6078491	0.73002625	-1.1377258
341221349341192	0.52601624	0.80830383	-1.1884766
341221354376593	0.46788025	0.9282532	-1.1952057
341221359411993	0.4287567	1.0597382	-1.1675262
341221364447394	0.40493774	1.1208954	-1.1261139
341221369482794	0.3577881	1.0492706	-1.0549164
341221374518194	0.2591095	0.8082886	-0.9184265
341221379553595	0.12837219	0.4608612	-0.77059937
341221384588995	0.012786865	0.09284973	-0.6361542
341221389624396	-0.056289673	-0.2700348	-0.47462463
341221394659796	-0.075653076	-0.58377075	-0.31513977
341221399695196	-0.081710815	-0.8756714	-0.16827393
341221404730597	-0.105026245	-1.1657867	-0.01940918
341221409765997	-0.14813232	-1.4593353	0.1390686
341221414801398	-0.21168518	-1.7390594	0.3173523
341221419836798	-0.31689453	-1.9451752	0.51226807
341221424872198	-0.45950317	-2.0324402	0.68899536
341221429907599	-0.61276245	-2.0411224	0.8423462
341221434942999	-0.77638245	-2.0164795	0.964859
341221439978399	-0.96632385	-1.9470062	1.0389099
341221445013800	-1.167572	-1.7539673	1.0474701
341221450049200	-1.2108002	-1.3620605	0.9796753
341221455084601	-0.9208069	-0.792099	0.8677063
341221460120001	-0.41886902	-0.19772339	0.7342529
341221465155401	0.026733398	0.1634674	0.59558105
341221470190802	0.21810913	0.14227295	0.48249817
341221475226202	0.15270996	-0.17732239	0.3973999
341221480261603	-0.12475586	-0.61331177	0.35136414
341221485297003	-0.5030823	-1.0339966	0.33647156
341221490332403	-0.9082184	-1.4403839	0.35308838
341221495367804	-1.2869263	-1.8532104	0.39642334
341221500403204	-1.5739288	-2.2580414	0.4393921
341221505438605	-1.7974701	-2.6623993	0.47717285
341221510474005	-1.9245453	-2.9768066	0.5160217
341221515509405	-1.9895935	-3.164032	0.5625
341221520544806	-2.0108337	-3.2319336	0.62338257
341221525580206	-1.9966431	-3.2128143	0.7064209
341221530615607	-1.9479675	-3.1261597	0.80911255
341221535651007	-1.8713226	-2.9531403	0.9594574
341221540686407	-1.7927551	-2.6982727	1.1385345
341221545721808	-1.7205963	-2.3600922	1.3335266
341221550757208	-1.641449	-1.961853	1.5104675
341221555792608	-1.5684357	-1.5721741	1.6300964
341221560828009	-1.5050049	-1.3063202	1.675415
341221565863409	-1.4530945	-1.1240082	1.651825
341221570898810	-1.4246674	-1.051117	1.5723724
341221575934210	-1.4134827	-1.0366974	1.47258
341221580969610	-1.4131927	-1.0471802	1.3621063
341221586005011	-1.4212952	-1.0641327	1.2469025
341221591040411	-1.4333038	-1.0777283	1.1412354
341221596075812	-1.4425964	-1.1018219	1.0328674
341221601111212	-1.4516602	-1.1468964	0.94615173
341221606146612	-1.4633331	-1.2146454	0.8729706
341221611182013	-1.4785614	-1.3018951	0.80574036
341221616217413	-1.4929047	-1.4039764	0.75071716
341221621252814	-1.5026093	-1.5141754	0.7058716
341221626288214	-1.5021362	-1.6473083	0.6688385
341221631323614	-1.4892883	-1.7740021	0.6485596
341221636359015	-1.4611664	-1.8913727	0.6476288
341221641394415	-1.4201813	-1.9701538	0.6694336
341221646429815	-1.3759155	-1.9904022	0.71014404
341221651465216	-1.3370209	-1.9623413	0.7645111
341221656500616	-1.2998962	-1.8666382	0.8304596
341221661536017	-1.2627258	-1.7100525	0.90086365
341221666571417	-1.224884	-1.504242	0.9737091
341221671606817	-1.1908264	-1.278122	1.035492
341221676642218	-1.1615906	-1.0706787	1.0792389
341221681677618	-1.1318054	-0.89756775	1.1112518
341221686713019	-1.0993652	-0.7711334	1.135849
341221691748419	-1.0716095	-0.7121887	1.1543579
341221696783819	-1.0471802	-0.7152252	1.1717987
341221701819220	-1.0283508	-0.7667999	1.1885986
341221706854620	-1.0204468	-0.843277	1.204361
341221711890021	-1.0211792	-0.93569946	1.2194824
341221716925421	-1.030304	-1.0371399	1.2329559
341221721960821	-1.0440216	-1.1411896	1.2480011
341221726996222	-1.0561371	-1.243042	1.2636414
341221732031622	-1.0529938	-1.3255615	1.2761078
341221737067023	-1.0285339	-1.3735046	1.280426
341221742102423	-0.98324585	-1.3773651	1.2808228
341221747137823	-0.9268036	-1.3298798	1.2793121
341221752173224	-0.86846924	-1.2503815	1.2748108
341221757208624	-0.81025696	-1.1549377	1.2685394
341221762244024	-0.7563019	-1.056961	1.2563629
341221767279425	-0.70729065	-0.97395325	1.2390594
341221772314825	-0.6572876	-0.8915558	1.2194519
341221777350226	-0.614151	-0.82099915	1.1997681
341221782385626	-0.5854645	-0.7607727	1.1819916
341221787421026	-0.5731964	-0.7066345	1.1673584
341221792456427	-0.5784912	-0.6552124	1.1560516
341221797491827	-0.5981903	-0.60272217	1.1485138
341221802527228	-0.6369171	-0.5381775	1.1404877
341221807562628	-0.6903534	-0.47377014	1.1308136
341221812598028	-0.74884033	-0.410614	1.1169434
341221817633429	-0.8065491	-0.35585022	1.1027985
341221822668829	-0.84828186	-0.3290558	1.0854645
341221827704230	-0.86665344	-0.33392334	1.0652313
341221832739630	-0.8535309	-0.37930298	1.0440826
341221837775030	-0.8049469	-0.4571228	1.020813
341221842810431	-0.7192993	-0.54582214	0.98817444
341221847845831	-0.60588074	-0.624115	0.93870544
341221852881232	-0.478714	-0.66116333	0.87120056
341221857916632	-0.358078	-0.64915466	0.79649353
341221862952032	-0.22665405	-0.57432556	0.6981964
341221867987433	-0.12435913	-0.4695282	0.59884644
341221873022833	-0.034744263	-0.3658905	0.4982605
341221878058233	0.046188354	-0.28211975	0.40078735
341221883093634	0.122802734	-0.23022461	0.30726624
341221888129034	0.19319153	-0.20150757	0.21929932
341221893164435	0.2568512	-0.19032288	0.12109375
341221898199835	0.29690552	-0.19644165	0.031188965
341221903235235	0.31907654	-0.22299194	-0.05316162
341221908270636	0.33732605	-0.27323914	-0.1333313
341221913306036	0.36898804	-0.3388977	-0.20950317
341221918341437	0.4252472	-0.40467834	-0.2831726
341221923376837	0.5181732	-0.45521545	-0.36743164
341221928412237	0.63009644	-0.47201538	-0.4546814
341221933447638	0.7584686	-0.46070862	-0.5549774
341221938483038	0.8919983	-0.42514038	-0.6683197
341221943518439	1.0105743	-0.38313293	-0.7854309
341221948553839	1.1131897	-0.35098267	-0.90625
341221953589239	1.2097168	-0.33491516	-1.0336914
341221958624640	1.3010559	-0.32728577	-1.15448
341221963660040	1.4073181	-0.30970764	-1.2724762
341221968695440	1.5380096	-0.27046204	-1.3877411
341221973730841	1.6856537	-0.21235657	-1.4993286
341221978766241	1.8541412	-0.13148499	-1.6173096
341221983801642	2.031784	-0.026138306	-1.7342987
341221988837042	2.1997528	0.08808899	-1.8330841
341221993872442	2.348297	0.19439697	-1.9130249
341221998907843	2.4573822	0.27233887	-1.9720764
341222003943243	2.5184937	0.31278992	-2.0149384
341222008978644	2.5426636	0.32936096	-2.0472412
341222014014044	2.5301514	0.32174683	-2.0687408
341222019049444	2.497284	0.2802887	-2.0856934
341222024084845	2.4537506	0.20236206	-2.1036682
341222029120245	2.398178	0.11273193	-2.118927
341222034155646	2.3285217	0.033477783	-2.1362152
341222039191046	2.2346497	-0.03353882	-2.1615753
341222044226446	2.1297607	-0.0712738	-2.1863403
341222049261847	2.0188599	-0.098342896	-2.1977234
341222054297247	1.9034576	-0.13104248	-2.2055511
341222059332648	1.7870941	-0.18270874	-2.2150574
341222064368048	1.6767731	-0.2603302	-2.2258759
341222069403448	1.5510406	-0.3796692	-2.245453
341222074438849	1.4346161	-0.5040283	-2.2722015
341222079474249	1.3274689	-0.62805176	-2.299408
341222084509649	1.2302246	-0.72810364	-2.323471
341222089545050	1.1514587	-0.77827454	-2.3622742
341222094580450	1.1036682	-0.7705231	-2.4259338
341222099615851	1.0750122	-0.7031555	-2.5353851
341222104651251	1.0713959	-0.57369995	-2.6712189
341222109686651	1.0827789	-0.40124512	-2.8015442
341222114722052	1.1004486	-0.22166443	-2.8947144
341222119757452	1.1071625	-0.05281067	-2.94458
341222124792853	1.0966034	0.12200928	-2.962387
341222129828253	1.0762177	0.364151	-2.9492188
341222134863653	1.052887	0.5775757	-2.8999481
341222139899054	1.0280609	0.74887085	-2.820343
341222144934454	1.0058746	0.9111786	-2.7293854
341222149969855	0.9955139	1.0944977	-2.6390076
341222155005255	1.0072021	1.3128357	-2.561203
341222160040655	1.044281	1.5676422	-2.4942017
341222165076056	1.0879059	1.766922	-2.4391174
341222170111456	1.133728	1.9010162	-2.3748474
341222175146857	1.1769104	1.9792938	-2.2977753
341222180182257	1.2183838	2.0383759	-2.2176971
341222185217657	1.2573547	2.1116333	-2.1367188
341222190253058	1.2876129	2.229828	-2.0479279
341222195288458	1.302536	2.3806763	-1.970398
341222200323858	1.3099365	2.5664825	-1.9077301
341222205359259	1.3070831	2.7529144	-1.8511963
341222210394659	1.3087158	2.926712	-1.8059235
341222215430060	1.3123932	3.0868073	-1.760498
341222220465460	1.2656555	3.163086	-1.6738586
341222225500860	1.1686096	3.147293	-1.5769196
341222230536261	1.055481	3.1115417	-1.4910431
341222235571661	0.9537506	3.102127	-1.4088745
341222240607062	0.87138367	3.1144867	-1.321579
341222245642462	0.79222107	3.118637	-1.2122955
341222250677862	0.70558167	3.086853	-1.0891266
341222255713263	0.6070099	3.0154877	-0.9831543
341222260748663	0.49543762	2.9143372	-0.8977661
341222265784064	0.38565063	2.8072357	-0.81529236
341222270819464	0.29644775	2.7203827	-0.7335968
341222275854864	0.21650696	2.649414	-0.638855
341222280890265	0.1407013	2.5828705	-0.53437805
341222285925665	0.06518555	2.507248	-0.42530823
341222290961065	-0.01651001	2.4230804	-0.31037903
341222295996466	-0.10801697	2.322876	-0.19099426
341222301031866	-0.20487976	2.2126312	-0.0741272
341222306067267	-0.3249359	2.0826263	0.05871582
341222311102667	-0.46025085	1.9526825	0.1917572
341222316138067	-0.6080475	1.8297424	0.32514954
341222321173468	-0.76651	1.7249146	0.46646118
341222326208868	-0.9338379	1.6381073	0.6107025
341222331244269	-1.0877838	1.5718231	0.743927
341222336279669	-1.2558899	1.5083008	0.8900604
341222341315069	-1.4068298	1.4601135	1.0211945
341222346350470	-1.5436859	1.4376984	1.1303406
341222351385870	-1.6631165	1.4563599	1.2028503
341222356421271	-1.757431	1.5181732	1.231369
341222361456671	-1.8162689	1.6025085	1.2326965
341222366492071	-1.8492737	1.70578	1.2242279
341222371527472	-1.8412018	1.78508	1.2259827
341222376562872	-1.7975464	1.8109589	1.2423706
341222381598273	-1.7156525	1.7789917	1.2591705
341222386633673	-1.6035309	1.7021179	1.2665558
341222391669073	-1.4788055	1.6079865	1.2504578
341222396704474	-1.2994995	1.5049744	1.2071686
341222401739874	-1.072876	1.4356384	1.1536407
341222406775274	-0.7798157	1.4137268	1.0737915
341222411810675	-0.45150757	1.4302673	0.95384216
341222416846075	-0.13977051	1.4364929	0.77986145
341222421881476	0.10221863	1.3865356	0.5619049
341222426916876	0.25901794	1.2585144	0.28511047
341222431952276	0.31124878	1.128128	0.021636963
341222436987677	0.31440735	1.0284424	-0.21868896
341222442023077	0.30569458	0.93296814	-0.41355896
341222447058478	0.30064392	0.80908203	-0.5530243
341222452093878	0.3058777	0.656723	-0.65501404
341222457129278	0.31358337	0.47846985	-0.73908997
341222462164679	0.3084259	0.32566833	-0.7924957
341222467200079	0.29263306	0.2157898	-0.8147583
341222472235480	0.2701416	0.16548157	-0.80926514
341222477270880	0.2285614	0.1577301	-0.7782898
341222482306280	0.1441803	0.14535522	-0.7293701
341222487341681	0.006072998	0.064575195	-0.6730957
341222492377081	-0.14559937	-0.114715576	-0.62286377
341222497412482	-0.2866974	-0.38175964	-0.5734253
341222502447882	-0.3940277	-0.68536377	-0.5139923
341222507483282	-0.46080017	-0.978302	-0.42175293
341222512518683	-0.5042114	-1.2706757	-0.2869873
341222517554083	-0.5390167	-1.5651398	-0.14215088
341222522589483	-0.5976105	-1.859024	-0.009338379
341222527624884	-0.7205353	-2.1344757	0.12055969
341222532660284	-0.9083557	-2.3267212	0.25254822
341222537695685	-1.0976257	-2.4001465	0.38116455
341222542731085	-1.26651	-2.3779297	0.5131073
341222547766485	-1.4059296	-2.2653656	0.62797546
341222552801886	-1.5280457	-2.0683746	0.707901
341222557837286	-1.6017151	-1.7760315	0.746994
341222562872687	-1.4665222	-1.3532867	0.73669434
341222567908087	-0.9856415	-0.77993774	0.6645355
341222572943487	-0.20700073	-0.012420654	0.5166168
341222577978888	0.4953308	0.60879517	0.3621521
341222583014288	0.87283325	0.8167877	0.2688141
341222588049689	0.8816376	0.6471863	0.24546814
341222593085089	0.59754944	0.2893982	0.27389526
341222598120489	0.18862915	-0.0776062	0.32574463
341222603155890	-0.30651855	-0.49641418	0.39019775
341222608191290	-0.7434387	-0.9564667	0.4498291
341222613226690	-1.100769	-1.5089264	0.49967957
341222618262091	-1.3774261	-2.156021	0.53552246
341222623297491	-1.5804291	-2.8406982	0.56108093
341222628332892	-1.7262726	-3.400528	0.5941925
341222633368292	-1.886734	-3.769287	0.65704346
341222638403692	-2.0240784	-3.8348236	0.7441559
341222643439093	-2.1134644	-3.7342072	0.8351898
341222648474493	-2.1158295	-3.529831	0.916626
341222653509894	-2.0227203	-3.268921	0.996933
341222658545294	-1.8767395	-2.975647	1.0956116
341222663580694	-1.6816711	-2.5610046	1.2472839
341222668616095	-1.507843	-2.1365662	1.3860016
341222673651495	-1.3596954	-1.7140656	1.4813995
341222678686896	-1.2581024	-1.36409	1.505722
341222683722296	-1.1996765	-1.1253052	1.4782104
341222688757696	-1.1788788	-1.0008545	1.4216614
341222693793097	-1.1877899	-0.9431305	1.3346252
341222698828497	-1.2238312	-0.9169464	1.2386932
341222703863898	-1.2747192	-0.9002075	1.1353302
341222708899298	-1.3253021	-0.8951416	1.0374451
341222713934698	-1.362503	-0.90571594	0.96261597
341222718970099	-1.3827972	-0.94085693	0.91311646
341222724005499	-1.3980103	-1.0158997	0.88012695
341222729040899	-1.4196167	-1.1228485	0.8509674
341222734076300	-1.4550323	-1.2669525	0.8117218
341222739111700	-1.5045166	-1.4356842	0.7598877
341222744147101	-1.5543365	-1.6106262	0.7046051
341222749182501	-1.5886993	-1.7868652	0.6639862
341222754217901	-1.5961609	-1.9313507	0.6490936
341222759253302	-1.5743408	-2.0022125	0.65802
341222764288702	-1.5280151	-2.0019836	0.6880646
341222769324103	-1.4649506	-1.9331207	0.7310333
341222774359503	-1.3988495	-1.8136139	0.77978516
341222779394903	-1.3352051	-1.663559	0.8450012
341222784430304	-1.2839508	-1.4940033	0.92276
341222789465704	-1.2481995	-1.3213501	0.99658203
341222794501105	-1.221756	-1.1568756	1.065628
341222799536505	-1.2028656	-1.0228729	1.122757
341222804571905	-1.1929474	-0.9391022	1.1647339
341222809607306	-1.1869812	-0.90205383	1.2005005
341222814642706	-1.1806793	-0.9161835	1.2311554
341222819678107	-1.1697235	-0.9702759	1.25354
341222824713507	-1.1574249	-1.0446472	1.2716064
341222829748907	-1.1493225	-1.1201935	1.2914276
341222834784308	-1.1475983	-1.1857605	1.3124847
341222839819708	-1.1539917	-1.2480927	1.3424072
341222844855108	-1.1561432	-1.2992706	1.373703
341222849890509	-1.1457977	-1.3344421	1.4017334
341222854925909	-1.1212463	-1.3439331	1.4218903
341222859961310	-1.0750732	-1.3175812	1.434967
341222864996710	-1.0170898	-1.2562408	1.4418945
341222870032110	-0.9439087	-1.1554718	1.4469147
341222875067511	-0.8734436	-1.0523071	1.4493866
341222880102911	-0.8129883	-0.96136475	1.445694
341222885138312	-0.76187134	-0.890625	1.4262848
341222890173712	-0.71894836	-0.8476105	1.3953857
341222895209112	-0.6882324	-0.8304291	1.3593292
341222900244513	-0.6585846	-0.8245239	1.3163452
341222905279913	-0.6401367	-0.8145752	1.2771454
341222910315314	-0.63067627	-0.78790283	1.2369537
341222915350714	-0.6320801	-0.74282837	1.1991425
341222920386114	-0.63998413	-0.6885681	1.1666718
341222925421515	-0.65205383	-0.63612366	1.1363983
341222930456915	-0.6608887	-0.5727234	1.098526
341222935492315	-0.6621704	-0.5256195	1.0597992
341222940527716	-0.64637756	-0.49371338	1.0153656
341222945563116	-0.6099701	-0.47424316	0.96429443
341222950598517	-0.5514221	-0.4622345	0.9069977
341222955633917	-0.48181152	-0.4537201	0.84461975
341222960669317	-0.4033966	-0.43244934	0.77059937
341222965704718	-0.3426056	-0.3983612	0.6968384
341222970740118	-0.29289246	-0.34927368	0.62358093
341222975775519	-0.23919678	-0.287323	0.552063
341222980810919	-0.17407227	-0.21144104	0.48835754
341222985846319	-0.096832275	-0.11730957	0.42666626
341222990881720	-0.008071899	0.001876831	0.3625946
341222995917120	0.07017517	0.11312866	0.3085785
341223000952521	0.13591003	0.2036438	0.2593994
341223005987921	0.19190979	0.25109863	0.21359253
341223011023321	0.23728943	0.23908997	0.16828918
341223016058722	0.27400208	0.1672821	0.120269775
341223021094122	0.31567383	0.05517578	0.066207886
341223026129523	0.37348938	-0.05230713	0.010345459
341223031164923	0.4524231	-0.13858032	-0.053085327
341223036200323	0.55070496	-0.18415833	-0.122680664
341223041235724	0.66101074	-0.18508911	-0.19740295
341223046271124	0.78260803	-0.15545654	-0.2900238
341223051306524	0.90626526	-0.11717224	-0.4064331
341223056341925	1.0093079	-0.10614014	-0.53393555
341223061377325	1.0895844	-0.13861084	-0.6729889
341223066412726	1.1557312	-0.20410156	-0.81985474
341223071448126	1.2233887	-0.2819519	-0.9664154
341223076483526	1.3132782	-0.36595154	-1.125534
341223081518927	1.4279785	-0.42965698	-1.2847748
341223086554327	1.5644836	-0.45736694	-1.4293976
341223091589728	1.7211914	-0.44963074	-1.5622101
341223096625128	1.8925476	-0.40568542	-1.6793365
341223101660528	2.0633392	-0.33338928	-1.7688293
341223106695929	2.239624	-0.2490387	-1.838028
341223111731329	2.3701782	-0.1828003	-1.8796082
341223116766730	2.4455109	-0.150177	-1.9016571
341223121802130	2.4740143	-0.14779663	-1.9131927
341223126837530	2.4642334	-0.15995789	-1.9194183
341223131872931	2.429367	-0.17666626	-1.9245453
341223136908331	2.3759613	-0.20063782	-1.9256592
341223141943732	2.3097687	-0.22955322	-1.9218597
341223146979132	2.2306824	-0.27346802	-1.9165344
341223152014532	2.142273	-0.3201599	-1.9140625
341223157049933	2.0535583	-0.348938	-1.9139099
341223162085333	1.9716492	-0.36558533	-1.914856
341223167120733	1.8710632	-0.38420105	-1.9139099
341223172156134	1.7720032	-0.41680908	-1.9107361
341223177191534	1.6707764	-0.47157288	-1.9175873
341223182226935	1.5677948	-0.54119873	-1.9376221
341223187262335	1.4742584	-0.610199	-1.9684906
341223192297735	1.3977203	-0.6696167	-2.0057678
341223197333136	1.3248291	-0.725235	-2.0453491
341223202368536	1.2684174	-0.75582886	-2.0796967
341223207403937	1.2226563	-0.7559662	-2.1208954
341223212439337	1.1854706	-0.7070465	-2.1790771
341223217474737	1.1617279	-0.60917664	-2.2604828
341223222510138	1.1505737	-0.4718628	-2.355484
341223227545538	1.1486664	-0.27549744	-2.4779053
341223232580939	1.1537476	-0.08079529	-2.5865173
341223237616339	1.1595306	0.10475159	-2.66333
341223242651739	1.1569672	0.2881775	-2.6920624
341223247687140	1.1445465	0.47962952	-2.6848755
341223252722540	1.1246033	0.6721344	-2.6457672
341223257757940	1.1031494	0.85450745	-2.5749817
341223262793341	1.0846558	1.0028229	-2.4912262
341223267828741	1.0699158	1.1425629	-2.4046173
341223272864142	1.0623322	1.284729	-2.3218231
341223277899542	1.065094	1.4334564	-2.2521667
341223282934942	1.073349	1.5911865	-2.2030487
341223287970343	1.0817566	1.7466125	-2.1600647
341223293005743	1.0842743	1.8546143	-2.109726
341223298041144	1.084198	1.9128418	-2.0489502
341223303076544	1.0910797	1.9375458	-1.9890137
341223308111944	1.1108246	1.9635162	-1.9364471
341223313147345	1.1374664	2.0130615	-1.8832855
341223318182745	1.1563721	2.0878754	-1.826294
341223323218146	1.1616669	2.1641388	-1.7714233
341223328253546	1.1572723	2.2288818	-1.7189026
341223333288946	1.1483307	2.2878418	-1.6753845
341223338324347	1.130249	2.3415375	-1.6371002
