linearaccelerometer_timestamp	linearaccelerometer_x_data	linearaccelerometer_y_data	linearaccelerometer_z_data
341210765282493	-1.0085645	-1.8263302	0.6418871
341210769860129	-0.5744145	-2.0212688	0.6359479
341210774773460	-0.2984624	-2.2329826	0.7400993
341210779717307	0.16382194	-2.282981	0.68603927
341210784661155	0.50499153	-2.1843538	0.9996476
341210789605002	1.0697242	-2.176056	1.2423263
341210794945579	1.2965989	-2.3345528	1.4132965
341210799492698	1.1884286	-2.5469217	1.3728849
341210804436545	1.0427996	-2.7359924	0.92766196
341210809380393	1.2039618	-2.6771488	0.6403057
341210814324241	1.1243179	-2.5922375	0.7638355
341210819268088	1.3180419	-2.7042294	0.6755471
341210824578147	1.4425094	-2.695489	0.50763345
341210829155784	1.5534854	-2.6801786	0.54507697
341210834099631	1.7710569	-2.5282164	0.67771006
341210839012961	1.9560287	-2.2843933	0.81720066
341210843987327	2.2026627	-2.0436544	1.451151
341210848900657	2.3806481	-2.0267239	1.3134485
341210854241233	2.715696	-2.0125227	0.44882625
341210858788352	1.9272435	-2.0760932	0.20266578
341210863732200	1.961914	-2.2338085	-0.3102652
341210868676047	2.364992	-2.318519	-0.91282344
341210873619895	2.6356964	-2.2346582	-0.7463182
341210878563743	2.422687	-2.5519462	-0.13502908
341210883873801	2.2719302	-2.6408248	0.07467812
341210888451438	1.5365068	-3.1065774	0.20591277
341210893395286	0.7722042	-3.5372891	0.06149566
341210898339133	-0.2287463	-4.2441382	-0.07833445
341210903252463	-1.6515999	-5.270532	0.1089952
341210908257346	-1.9291967	-5.0527577	-0.22967058
341210917351585	-0.5319005	-3.692865	-1.1088657
341210927941184	0.1048125	-3.1446748	-0.69866735
341210932915549	-0.03201282	-3.12605	-0.7285263
341210937828879	-0.106518626	-3.373333	-0.6878921
341210943169456	0.005515337	-3.5902452	-0.5798888
341210947716575	0.12014997	-3.6217818	-0.9405377
341210952690940	0.62083435	-3.364111	-1.5929612
341210957634788	0.007855058	-3.5317879	-1.3889966
341210962548118	-0.5677211	-3.7081218	-1.4758129
341210967491965	-0.85455287	-3.730445	-1.5513278
341210972802024	-1.4182727	-3.689012	-1.9563476
341210977379661	-1.7099603	-3.4176278	-2.0398192
341210982323508	-1.7374609	-2.9071493	-2.1246388
341210987236838	-1.5146283	-2.11911	-1.7640786
341210992180686	-1.2934045	-1.198174	-1.5543449
341210997124534	-1.3894265	-0.25986147	-1.4982911
341211002465110	-1.7553535	0.6884408	-1.5827641
341211007012229	-2.160208	1.4579225	-2.1444585
341211011956077	-2.4642828	2.165513	-2.7818327
341211016899924	-2.4969409	2.865694	-3.3111088
341211021843772	-2.4731104	3.4353476	-4.2320113
341211026787620	-2.0358672	4.2652197	-4.7735424
341211032128196	-1.6281911	5.200668	-5.138567
341211036675315	-0.92336553	6.4286647	-5.300863
341211041619163	-0.42829394	8.02898	-5.8147297
341211046563010	-0.1484819	9.794458	-7.522111
341211051506858	0.007720828	11.674898	-9.851965
341211056450706	-0.15679038	12.629715	-11.589191
341211061760764	0.019970834	12.429792	-12.294742
341211066338401	0.26621157	12.238955	-11.434696
341211071282249	0.6097122	12.057104	-9.354945
341211076226096	0.78409743	11.707018	-6.8367834
341211081169944	1.2358677	9.536276	-4.6604633
341211086083274	1.0704918	7.0930066	-2.4073615
341211091423850	0.2054807	4.7776527	-0.6872628
341211096001487	-0.18245226	2.9344053	0.21429515
341211100945335	0.102122605	1.4295716	0.5726278
341211105858665	0.6025936	0.25209093	0.03793311
341211110802512	0.81330174	-0.509151	-1.58396
341211115746360	1.3946323	-0.85845757	-3.3692954
341211121086936	2.074821	-0.59026766	-4.5193205
341211125634055	2.5778494	0.09017229	-4.287038
341211130577903	2.4030328	0.9069605	-2.8208346
341211135521751	1.6621525	1.5826478	-1.152556
341211140465598	1.3290774	2.305513	0.19584489
341211145409446	1.6025698	3.2171073	0.99430203
341211150750022	2.2888012	3.824788	0.81688833
341211155297141	2.9944847	4.0351257	0.23618484
341211160240989	3.5456357	4.051757	-0.15465736
341211165184836	4.3500614	3.9490175	0.9310901
341211170128684	4.949551	3.8237753	2.22893
341211175072532	5.1226325	3.5822563	3.1170955
341211180382590	5.070304	3.364049	3.892387
341211184960227	5.247509	3.3988047	4.607292
341211189904075	5.5019956	3.7725182	5.841282
341211194847922	5.356919	4.4351187	6.645308
341211199791770	4.821977	5.0589952	5.3160105
341211204705100	3.611402	5.0957823	3.2276945
341211210106711	1.9681594	4.6221266	1.5656755
341211214623313	0.5777731	3.4614038	0.6384032
341211219536643	-0.73230726	1.8210554	0.19637895
341211224480491	-1.641113	0.13007069	-0.22425652
341211229424338	-0.5188723	-0.10799694	-0.46454668
341211234368186	0.42817894	-0.38412857	-0.49482393
341211239708762	0.66752386	-0.6681633	-0.20213771
341211244255881	0.65757495	-0.64505005	-0.032516003
341211249199729	0.32281902	-0.65358067	0.36495113
341211254143577	-0.19085181	-0.6663408	0.9962034
341211259087424	-0.65533257	-0.74665165	1.9302075
341211264031272	-0.9447904	-0.87736034	3.1517947
341211269371848	-1.0813279	-1.0710917	4.032587
341211273918967	-0.8919878	-1.0799294	4.785984
341211278862815	-0.58792907	-0.9705219	5.287734
341211283806663	-0.0522601	-0.9515352	5.1220875
341211288750510	0.22878423	-0.8964329	4.6920958
341211293694358	0.43445736	-0.8003826	4.4671354
341211299034934	0.43866974	-0.48297596	4.1864443
341211303582053	0.33469775	0.076063156	3.5127683
341211308525901	0.06766921	0.800622	2.57683
341211313469749	0.12748285	1.6475201	1.8872206
341211318413596	0.49042803	2.3676577	1.7481526
341211323357444	0.8953545	3.0281048	1.8765771
341211328667502	1.0634619	3.4472246	1.9177716
341211333245139	1.3057784	3.7042313	2.0432024
341211338188987	1.4388527	3.6810465	2.3829165
341211343132835	1.126802	3.3735561	2.5108716
341211348076682	0.6337402	2.862029	2.0735493
341211353020530	0.19225478	2.2141237	1.5034618
341211358330588	0.040902853	1.7398815	1.0706142
341211362908225	0.044970542	1.1738224	0.6364692
341211367852073	0.119942605	0.6152315	0.13921222
341211372795920	0.16692123	0.023963928	-0.08794382
341211377739768	0.18364292	-0.46519947	-0.021348238
341211382683616	0.35213077	-0.8601942	0.5256351
341211387993674	0.3849346	-1.3104315	1.1290737
341211392571311	0.18806219	-1.8229246	1.8516717
341211397515159	0.12289804	-2.2339077	2.3030846
341211402459006	-0.15640283	-2.6718626	2.4864929
341211407402854	-0.12906659	-2.8201008	2.5271413
341211412346702	-0.3103457	-3.0139399	2.2603889
341211417656760	-0.2645666	-2.9833431	2.005082
341211422234397	-0.23294687	-2.8918953	1.3761728
341211427178245	-0.31413633	-2.6206036	1.2894236
341211432122092	-0.24233091	-2.237276	1.3591677
341211437065940	-0.31190693	-1.8111429	1.3548026
341211442009788	-0.3139031	-1.3424578	1.0716004
341211447319846	-0.3324411	-0.94421387	0.7749699
341211451897483	-0.48222578	-0.6205387	0.41612488
341211456841331	-0.6779814	-0.35685158	0.17721659
341211461785178	-0.91359615	-0.2456789	0.028538704
341211466729026	-0.9620875	-0.20795631	3.72231E-4
341211471642356	-1.1531644	-0.30472183	-0.1274656
341211476982932	-1.1221304	-0.31159306	-0.21894825
341211481530051	-1.4767059	-0.45960522	-0.13695824
341211486504417	-1.4379859	-0.4890957	-0.2817254
341211491448264	-1.2211448	-0.4352541	-0.2762382
341211496392112	-1.2081966	-0.4333458	-0.40786314
341211501305442	-1.3142716	-0.37678432	-0.6448307
341211506646018	-1.5676852	-0.35190678	-0.9378655
341211511284690	-1.641252	-0.22511768	-0.9292319
341211516167502	-1.8482106	-0.09796715	-0.8615689
341211521080833	-2.267652	-0.08239269	-0.95586944
341211526024680	-2.6164513	0.008987427	-1.0993953
341211530968528	-2.9841914	0.13045311	-1.2202281
341211536309104	-3.5645542	0.17657852	-1.4001666
341211540856223	-4.078472	0.13411427	-1.4094895
341211545830588	-4.588876	0.12601376	-1.3438082
341211550774436	-4.7401786	0.2664919	-1.098319
341211555687766	-4.7994814	0.4364071	-0.84033895
341211560631614	-4.8812137	0.6854782	-0.7553723
341211565972190	-4.955599	0.9883299	-0.59787476
341211570549827	-5.009423	1.225255	-0.46219993
341211575463157	-4.947921	1.6034222	-0.06446111
341211580407004	-5.163668	1.9106216	0.16779876
341211585381370	-5.300168	2.3105707	0.2828486
341211590294700	-5.274523	2.658105	0.1993655
341211595635276	-5.3070974	2.9855433	0.07374978
341211600212913	-5.7810335	3.053114	-0.11992574
341211605126243	-5.937907	3.120655	-0.24956036
341211610100608	-6.024063	3.0786066	-0.37790656
341211615044456	-6.1957455	3.0598717	-0.5893519
341211619957786	-6.135253	3.1115522	-0.74108815
341211625298362	-5.732565	3.2410831	-0.7703761
341211629875999	-5.3516693	3.3510323	-0.8552331
341211634789329	-5.1037307	3.3769455	-0.73518944
341211639733176	-4.853114	3.3849077	-0.64058864
341211644677024	-4.578249	3.4246607	-0.651716
341211649620872	-4.2156677	3.5103111	-0.8720628
341211654961448	-3.8969166	3.6276636	-1.3313501
341211659508567	-3.63326	3.8284788	-1.7342423
341211664452415	-3.4114485	3.9611378	-2.0077147
341211669396262	-3.229427	4.009491	-1.9056728
341211674340110	-2.9218369	4.1018906	-1.5123534
341211679283958	-2.5725064	4.2286367	-1.1270636
341211684594016	-2.062827	4.3750525	-0.871577
341211689171653	-1.4324024	4.728962	-0.8578298
341211694115501	-0.978027	4.883443	-1.0059001
341211699059348	-0.6794237	4.998472	-1.0848264
341211704003196	-0.4403534	4.9273443	-0.76116765
341211708947043	-0.38561606	4.8129377	-0.15932882
341211714257102	-0.3440628	4.5455847	0.6663281
341211718834739	-0.3328266	4.1968145	1.173581
341211723778586	-0.5161252	3.8356066	1.036536
341211728722434	-0.6794038	3.716425	0.5894034
341211733635764	-0.9818096	3.7840357	0.20868635
341211738579612	-1.1760911	3.928811	-0.19928992
341211743920188	-1.230715	4.1021194	-0.44834793
341211748467307	-1.0927999	4.161066	-0.43111378
341211753411155	-0.9631561	4.0666428	-0.3241089
341211758355002	-0.79847074	3.7262182	-0.060429335
341211763298850	-0.6340891	3.3210897	0.13768715
341211768242698	-0.4627204	2.7925777	0.20450419
341211773552756	-0.18622363	2.2944336	-0.30047494
341211778130393	0.083504796	2.1124325	-0.982731
341211783074241	0.37599218	2.0855494	-1.3378217
341211788018088	0.68119574	2.2975712	-1.6132798
341211792961936	1.6136794	2.9490013	-1.7016809
341211797905784	2.7313263	3.583005	-1.7303993
341211803215842	3.7677336	4.1139603	-1.4770623
341211807793479	4.6701217	4.6144257	-0.7351583
341211812798362	5.2979903	4.988476	0.07691115
341211817681174	5.770558	5.279669	0.7624243
341211822625022	6.227247	5.552223	0.9016107
341211827538352	6.265988	5.6474094	1.0231628
341211832848411	6.293026	5.746423	1.3077728
341211837456565	5.8639016	5.644391	1.9868426
341211842369895	5.7542872	5.5918045	2.1176815
341211847313743	5.7645025	5.507594	1.3540509
341211852257590	5.4100523	5.3657103	0.20618236
341211857201438	4.5156913	4.907996	-0.8345369
341211862542014	4.1664753	4.686446	-1.1523203
341211867089133	3.517056	4.4793053	-0.7172111
341211872032981	2.6353195	4.0924807	-0.10799837
341211876976829	1.8150235	3.5024605	0.05931306
341211881920676	1.1033576	2.8668594	-0.024487853
341211886864524	0.31958437	2.2193708	0.4228437
341211892174583	-0.20762646	1.8011351	1.6507698
341211896752219	-0.54792243	1.1992159	1.9685553
341211901696067	-0.58370435	1.030489	2.2401943
341211906639915	-0.8528365	0.51652145	2.38844
341211911583762	-0.8199539	-0.27739906	1.3826307
341211916527610	-0.49006283	-0.84554577	0.7439848
341211921837668	-0.13436556	-1.203515	1.0935776
341211926415305	0.5286051	-1.5613499	1.7911417
341211931359153	0.81811476	-1.9973707	2.3199923
341211936303001	0.8279666	-2.295457	2.6216528
341211941246848	0.91501844	-2.3991814	2.486936
341211946190696	0.9815242	-2.3520699	2.821079
341211951500754	1.3394952	-2.4554367	2.980632
341211956078391	1.6554391	-2.7363052	2.9970987
341211961022239	1.8678064	-2.9981298	3.0945427
341211965966086	2.2859373	-3.1586275	3.176713
341211970909934	2.5365024	-3.3274603	3.0870438
341211975823264	2.6907887	-3.3604193	2.9297209
341211981163840	2.8970125	-3.3350077	2.8591483
341211985741477	3.164555	-3.2428627	2.6145241
341211990685325	3.2789881	-3.2741547	2.753207
341211995629172	3.2466466	-3.3817692	2.6221564
341212000573020	3.1845117	-3.4137945	2.594359
341212005486350	2.9644191	-3.5748558	2.7184775
341212010826926	3.0119288	-3.5529108	2.7068558
341212015404563	3.0543454	-3.5832539	2.6556392
341212020317893	3.1295216	-3.548522	2.384809
341212025292258	2.8206682	-3.8590117	2.37211
341212030236106	2.5771124	-4.0731535	2.1312428
341212035149436	2.2396367	-4.2792997	1.9165146
341212040490012	1.7876971	-4.4634686	1.6949663
341212045037131	1.5760164	-4.590003	1.4417732
341212049980979	1.4050748	-4.795759	1.2913704
341212054924827	0.9284055	-5.1064186	1.1884701
341212059868674	0.81593895	-5.322629	0.9712882
341212064812522	0.83855677	-5.459222	0.7371893
341212070122581	0.8542414	-5.6300993	0.6848414
341212074700217	0.81479764	-5.9165897	0.68634844
341212079613547	0.75063276	-6.1279736	0.4977038
341212084557395	0.7657645	-6.399742	0.65885496
341212089501243	0.65368724	-6.5750923	-0.2639053
341212094445090	0.36966562	-6.7256317	-0.8367584
341212099785667	0.26851702	-6.8106728	-0.944149
341212104332786	0.159935	-6.8466682	-0.71748734
341212109276633	0.06732631	-6.8131523	-0.615134
341212114281516	-0.041474104	-6.705943	-0.48070884
341212119164329	-0.15007019	-6.45945	-0.2337904
341212124108176	-0.17793202	-6.2124147	0.13424015
341212129418235	-0.4786644	-5.893094	0.4714787
341212133995872	-0.71231925	-5.4678993	0.83885884
341212138939719	-1.0620718	-4.929244	1.1427066
341212143883567	-1.5074905	-4.396885	1.0709193
341212148827415	-1.995626	-3.6470785	0.7661166
341212153740745	-2.4610367	-2.9241467	0.113972664
341212159081321	-2.9640365	-1.9939737	-0.56610274
341212163658958	-2.8876474	-1.0995846	-1.5181613
341212168572288	-2.4846892	-0.15398216	-2.6854784
341212173516135	-1.9504924	0.9826822	-3.5830207
341212178490501	-1.2977775	2.4429674	-4.062011
341212183434348	-1.0506065	4.3263693	-4.2478294
341212188744407	-0.76032007	7.3234463	-4.5631475
341212193322043	-0.66578805	10.714706	-5.513185
341212198265891	-0.99576414	10.83304	-8.1926155
341212203209739	-1.6486573	10.795247	-11.50489
341212208123069	-2.5565996	10.7638445	-13.093918
341212213066917	-2.3380253	10.736395	-11.912104
341212218407493	-1.5117295	10.710894	-8.915688
341212222954612	-0.9802378	10.683379	-4.926674
341212227898460	0.025793612	5.935854	-0.48503375
341212232842307	-0.40614665	3.899562	-0.09224439
341212237786155	-0.90947324	1.7605581	0.8478453
341212242730002	-1.3483237	0.08639526	0.6956308
341212248070579	-0.81687677	-1.5506039	0.68359137
341212252617698	-0.16679657	-3.392313	0.6379361
341212257561545	-0.41890967	-4.561447	-1.2403939
341212262505393	0.33093417	-4.590083	-4.1710033
341212267449241	1.0376912	-4.209547	-6.1850076
341212272393088	1.4020451	-3.4967928	-6.804406
341212277703147	1.7264578	-2.7553606	-5.1834736
341212282280784	1.0015119	-2.0966778	-2.800901
341212287224631	0.514294	-1.4715805	-0.8601651
341212292168479	0.648005	-0.8172264	0.21148181
341212297112327	0.47489655	-0.45525837	0.46288967
341212302056174	-0.16995692	-0.25825596	-0.43087292
341212307366233	0.607695	0.09099579	-1.605447
341212311943870	1.5305786	0.4925785	-1.4485989
341212316887717	2.252685	0.98568916	0.3354261
341212321831565	3.1438837	1.8437147	2.781711
341212326775413	4.0451746	2.8316326	4.8270426
341212331688743	5.174976	4.0035753	5.8565683
341212337029319	6.298818	4.882862	6.680561
341212341576438	7.1625805	5.9256096	7.0900936
341212346520286	7.959037	7.552809	8.156302
341212351464133	8.412248	9.686875	9.135268
341212356407981	8.653858	10.365416	8.534451
341212361351829	6.8088045	10.315433	5.643426
341212366692405	3.2262487	10.059431	1.5506356
341212371239524	1.2678983	7.6869717	-1.9300418
341212376183372	0.54917926	5.3967485	-3.4058642
341212381127219	0.8513765	3.7044039	-3.1668513
341212386071067	1.6574581	2.2868013	-2.2971256
341212391014915	2.2753854	1.0340967	-0.99775743
341212396324973	2.5153193	-0.15245914	0.08160877
341212400902610	2.771467	-1.242073	0.8808632
341212405846458	2.4825666	-2.2918978	1.0849929
341212410790305	2.1920419	-3.1800957	1.0949068
341212415795188	1.8557389	-3.712039	1.021457
341212420678001	1.4672337	-4.1488037	1.5398488
341212425988059	1.0627446	-4.58675	2.1209812
341212430565696	1.1716775	-4.934411	2.5896075
341212435509543	1.756481	-4.934471	3.5819616
341212440453391	2.187468	-4.9711237	4.7409143
341212445397239	2.5801642	-4.6688576	5.663939
341212450341086	2.812325	-4.080221	6.4020844
341212455651145	2.0300925	-3.41786	6.9722557
341212460228782	2.22776	-2.2244644	7.308219
341212465172629	2.26511	-0.88962173	6.94838
341212470116477	2.3085165	0.25760174	5.274324
341212475060325	2.6257887	1.3030233	4.709323
341212480004172	2.5919628	2.3155565	4.678192
341212485314231	2.2852266	2.9336958	4.509137
341212489891868	2.0182526	3.3625937	4.155141
341212494835715	1.4418956	3.4747648	3.4619403
341212499779563	0.79609835	3.2575245	2.9589686
341212504723411	0.31582513	2.932397	2.1512465
341212509667258	0.14731976	2.5802393	1.4993484
341212514977317	0.039906323	2.134119	0.9386914
341212519554954	-0.1782761	1.5030279	0.4809122
341212524498801	-0.54767185	0.8142252	0.41370577
341212529442649	-1.0128852	0.044596672	0.5763024
341212534386497	-1.3556218	-0.72250366	0.785732
341212539330344	-1.5246928	-1.3754425	1.0641739
341212544640403	-1.6228586	-2.3349094	0.89696133
341212549218040	-1.2587336	-2.9321756	1.0635011
341212554161887	-0.7369395	-3.2782335	1.3798143
341212559105735	-0.2753775	-3.4589586	2.1404927
341212564049583	0.16356674	-3.6718264	2.5801291
341212568962913	0.70794123	-3.634244	3.0587463
341212574303489	1.1235777	-3.5059423	2.8918908
341212578881126	1.5881042	-3.0402842	3.0644994
341212583794456	1.7801294	-2.5705147	2.7052262
341212588738303	1.6395057	-2.483611	1.7000757
341212593682151	1.9105682	-2.026022	0.5924908
341212598625999	1.8723464	-1.5809422	0.29199356
341212603966575	1.025574	-1.3664198	0.6659802
341212608513694	0.5170742	-1.0574894	1.2259532
341212613457542	0.26448953	-0.7840338	1.2120351
341212618401389	-0.13218296	-0.66736984	0.640113
341212623345237	-0.45609677	-0.61928654	0.2264669
341212628289085	-0.7024655	-0.4449253	-0.067800105
341212633629661	-0.8715052	-0.33867645	-0.08064771
341212638176780	-1.0052084	-0.16206837	-0.19291776
341212643120627	-1.244162	0.020010948	-0.20737278
341212648064475	-1.5801852	0.06443119	-0.20861608
341212653008323	-1.9033844	0.16139412	-0.07521129
341212657952170	-2.2609844	0.1919651	-0.037415206
341212663292747	-2.6599422	0.15702248	-0.19921118
341212667839866	-3.0752387	0.16580582	-0.38886672
341212672783713	-3.4146328	0.17064571	-0.38799763
341212677727561	-3.8227956	-0.0049648285	-0.5370441
341212682671409	-4.088129	-0.0994339	-0.5533805
341212687615256	-4.3415976	-0.24833107	-0.4826259
341212692955833	-4.592437	-0.25840378	-0.33610857
341212697502952	-4.7448783	-0.29860973	-0.19502401
341212702446799	-4.8285537	-0.31905174	-0.15870076
341212707390647	-4.8703933	-0.25883675	-0.20882142
341212712334495	-4.8015804	-0.09680843	-0.4213912
341212717339377	-4.789014	0.026815414	-0.60677314
341212722618918	-4.6727605	0.26927853	-0.69283855
341212727166038	-4.4155617	0.59759426	-0.5948335
341212732109885	-4.179589	0.90208626	-0.2504679
341212737053733	-4.1155357	1.1678276	-0.008460999
341212741997581	-3.9901874	1.4304867	0.19574618
341212746941428	-3.9105682	1.6140356	0.28195572
341212752251487	-4.0642233	1.6812601	0.13556433
341212756829124	-4.0636134	1.6399126	-0.109395266
341212761772971	-4.236906	1.4992495	-0.36873507
341212766716819	-4.0760503	1.434555	-0.5617132
341212771660667	-3.859989	1.3221083	-0.70432913
341212776604514	-3.6124744	1.18328	-0.71066844
341212781945090	-3.551156	1.0992146	-0.63372064
341212786492210	-3.5104642	0.98987865	-0.4930042
341212791436057	-3.4171462	0.9231224	-0.33333302
341212796379905	-3.3002906	0.96252346	-0.36351883
341212801323752	-3.152812	1.088872	-0.52888846
341212806267600	-3.0982442	1.2497787	-0.8985301
341212811608176	-3.0090566	1.4429703	-1.1370385
341212816185813	-2.9735708	1.6681395	-1.3126789
341212821099143	-2.943988	1.9159613	-1.497517
341212826042991	-2.9414291	2.1816263	-1.6846693
341212830986838	-2.956456	2.4247475	-1.7529066
341212835930686	-3.0247588	2.588418	-1.8496903
341212841271262	-2.9681878	2.663209	-1.6911062
341212845818381	-2.7870693	2.7187376	-1.37465
341212850762229	-2.6263537	2.7734232	-0.9265574
341212855706077	-2.4001994	2.805972	-0.5024117
341212860649924	-2.1794293	2.813902	-0.13949186
341212865593772	-2.0157018	2.8090248	-0.08889115
341212870934348	-1.8955417	2.7789345	-0.21120983
341212875481467	-1.904939	2.8440723	-0.38276535
341212880425315	-1.9331198	2.93851	-0.51789635
341212885369163	-1.8743865	3.058117	-0.74368757
341212890313010	-1.8594577	3.269392	-0.5893119
341212895256858	-1.7810844	3.4605265	-0.34947342
341212900597434	-1.6453595	3.5547018	-0.11099774
341212905144553	-1.6935979	3.526351	-0.027639985
341212910088401	-1.646892	3.3327427	0.06971988
341212915062766	-1.6697981	3.0870066	0.47450253
341212919976096	-1.5924366	2.642537	1.0273535
341212924919944	-1.5046556	2.2777262	1.6181973
341212930260520	-1.2260252	1.9919615	1.6255153
341212934838157	-0.923928	1.847312	0.703383
341212939751487	-0.39527106	1.8722372	-0.21522525
341212944725852	0.41382813	2.2193031	-0.6496235
341212949639182	1.3811775	2.897565	-0.7484443
341212954583030	2.7095065	3.7873755	-0.9342611
341212959923606	3.5521421	4.8049927	-0.3347181
341212964470725	4.07269	5.9456053	0.46327507
341212969414573	4.492852	6.9450016	1.007616
341212974358420	4.8577676	7.910589	1.2627964
341212979302268	5.0772047	8.543201	0.89896446
341212984246116	4.897439	8.553702	0.8257352
341212989556174	4.535838	8.468721	0.7527491
341212994133811	4.4251623	8.343483	0.6626712
341212999077659	4.4422536	8.082079	0.6810014
341213004021506	4.2489805	7.527299	0.68422174
341213008965354	3.8605008	6.786541	0.43967557
341213013909202	3.4034011	6.005106	0.17419851
341213019280295	3.295905	5.3812847	-0.09754765
341213023796897	2.988036	4.717187	-0.035544395
341213028740745	2.554985	4.1631136	0.14420605
341213033684592	2.4130173	3.9177036	0.24167967
341213038628440	1.5694213	3.4367332	0.43895388
341213043572288	0.5823269	3.0584383	0.73714876
341213048882346	-0.24874568	2.6348648	0.5937618
341213053459983	-0.9283514	2.2879038	0.5568979
341213058403831	-1.3180127	1.8247795	0.54711723
341213063347678	-1.3689448	1.4245758	0.38401675
341213068291526	-1.2172892	0.9632673	0.027623892
341213073235374	-0.86518633	0.42628193	0.14792693
341213078545432	-0.48822224	-0.2174902	0.21991158
341213083123069	-0.035452485	-0.76394844	0.7088077
341213088066917	0.30425835	-1.1825972	1.3614938
341213093010764	0.7184112	-1.4927855	1.8932574
341213097954612	0.8841872	-1.877656	2.3330867
341213102867942	0.9728615	-2.1234722	3.0587842
341213108208518	1.0466659	-2.220005	3.4253185
341213112786155	1.2240252	-2.3093863	3.2854004
341213117730002	1.3706665	-2.3500319	3.4770598
341213122673850	1.6406667	-2.57518	3.2245693
341213127617698	2.0080154	-2.7992678	3.21234
341213132531028	2.3180027	-2.934867	3.2033606
341213137871604	3.0888207	-3.1378431	4.121127
341213142418723	3.4726014	-3.2730856	3.417105
341213147362571	3.3113015	-3.5118666	3.3629098
341213152306418	3.42856	-3.4607677	3.3134854
341213157250266	3.977846	-3.3773832	3.0756576
341213162194114	4.359555	-3.4330816	3.0746067
341213167534690	4.141879	-3.7363396	3.5698104
341213172081809	3.8260636	-3.9673738	3.8727598
341213177025657	4.2153444	-4.5406904	3.6178694
341213181969504	3.7736614	-5.4655056	3.8105352
341213186913352	1.0580921	-5.2612247	2.8773346
341213191857200	1.0911543	-4.287264	1.2760184
341213197197776	2.1836689	-3.1096325	0.7456081
341213201744895	2.1494315	-3.300685	1.3139234
341213206688743	2.0474992	-3.6801863	1.7897868
341213211632590	1.9038761	-4.113757	1.9382946
341213216576438	1.7393613	-4.3897505	1.8181133
341213221520286	1.78602	-4.373247	1.472893
341213226860862	1.9600232	-4.568012	1.3549798
341213231407981	2.1807141	-4.7003975	1.2613792
341213236351829	2.296018	-4.916214	1.1482258
341213241295676	2.344725	-5.2182817	0.98379064
341213246239524	2.284322	-5.654091	0.66807175
341213251183372	2.1505003	-5.905279	0.25088692
341213256523948	2.0655282	-6.1611834	-0.25367045
341213261071067	1.9947226	-6.2500677	-0.68417907
341213266014915	1.8390052	-6.2735577	-0.7356515
341213270958762	1.7922547	-6.135395	-0.8124027
341213275902610	1.5453722	-5.9924927	-0.81450605
341213280846458	1.2341309	-5.7518644	-0.6847613
341213286156516	0.8016381	-5.6322937	-0.476398
341213290734153	0.39480186	-5.4033394	-0.15850568
341213295678001	0.0010602474	-4.969166	0.28882074
341213300621848	-0.39903986	-4.2739944	1.0134163
341213305565696	-0.9457706	-3.3718576	1.3943291
341213310509543	-1.793154	-2.4804974	1.4987538
341213315819602	-2.5643482	-1.528368	1.1939366
341213320458274	-3.256988	-0.48647594	0.7577498
341213325341086	-3.2885017	0.58286667	-0.4521804
341213330284934	-3.2253537	1.596179	-1.1366255
341213335228782	-2.9856758	2.8774538	-1.6380029
341213340172629	-2.5603523	4.331522	-2.5025687
341213345513206	-1.9597911	6.3583717	-2.8989656
341213350060325	-1.5372261	8.544652	-4.287345
341213355004172	-0.9470245	10.460945	-6.5336933
341213359948020	-0.90701246	10.614421	-9.622423
341213364891868	-1.0443292	10.595796	-11.92024
341213369835715	-0.36566514	10.580961	-12.125278
341213375145774	0.10279846	10.079246	-10.196061
341213379723411	0.25682038	8.04675	-7.797948
341213384667258	0.02978164	5.711459	-5.4558525
341213389611106	-0.06407392	3.772088	-2.711031
341213394554954	0.3532716	2.2830296	-0.51940656
341213399498801	0.674071	1.06357	0.75683975
341213404808860	0.57339823	0.064380646	1.2551382
341213409386497	0.21666813	-0.7522049	1.0370317
341213414330344	-0.068971515	-1.1569633	0.23671126
341213419274192	-0.29179978	-1.3372669	-1.147069
341213424218040	-0.49050045	-1.1374893	-2.6421835
341213429161887	-0.6719525	-0.76348877	-3.8038669
341213434471946	-0.78189874	-0.12800217	-4.1090283
341213439049583	-0.5408273	0.64781094	-3.3213027
341213443993430	-0.3849963	1.2889547	-2.0665514
341213448937278	-0.24986696	1.7699003	-1.1930244
341213453881126	-0.0045690536	2.120411	-0.6454406
341213458794456	-0.6950362	1.9755526	-0.6161344
341213464135032	-0.17822349	2.0821009	-0.9480643
341213468712668	0.5724852	2.0597286	-1.1751094
341213473656516	1.4382225	2.0513735	-0.68873024
341213478600364	1.9128442	1.8113823	0.6997163
341213483513694	1.9406282	1.5224609	2.1689382
341213488457542	2.322083	1.5526781	3.3708727
341213493798118	3.1091022	1.9215527	4.202634
341213498375754	4.1041546	2.4925795	4.6200986
341213503319602	5.2681737	3.113823	4.928046
341213508263450	6.4672904	3.8529596	5.367338
341213513207297	6.8594084	4.507015	5.8184223
341213518120627	6.9381504	5.042202	5.5944867
341213523461204	6.49552	5.1330843	4.2857795
341213528038840	5.398334	4.3315496	1.2119465
341213532952170	3.41656	2.8022785	-1.1184409
341213537896018	1.9606056	1.367733	-1.5793645
341213542839866	1.2043736	0.36034966	-0.85901785
341213547783713	1.551044	0.20489216	-0.07097983
341213553124290	1.8727286	0.29231358	0.9557786
341213557701926	1.397222	-0.20463753	1.5026255
341213562645774	1.4669745	-0.4994812	1.7810588
341213567589622	1.3028939	-0.79890823	1.8943307
341213572533469	1.1245086	-1.0529652	2.0062404
341213577446799	1.1958387	-0.993063	2.7938943
341213582787376	1.133508	-1.1059065	3.3139505
341213587365012	1.0040855	-1.3482924	4.09033
341213592308860	1.2772927	-1.3579483	5.162055
341213597252708	1.5895456	-1.33039	5.7640195
341213602196555	1.570749	-1.3433867	6.158921
341213607109885	1.8972657	-1.2557526	6.3727894
341213612450461	2.2528777	-0.62452126	6.172682
341213617028098	1.4786863	-1.2300444	5.6813455
341213622032981	1.5619974	-1.65382	5.21857
341213626915793	1.452676	-1.796957	4.893283
341213631859641	1.4400017	-1.4706516	4.2812815
341213636803489	1.4034199	-0.9370594	3.5710645
341213642113547	1.5950751	-0.2688179	2.7956045
341213646691184	1.6924518	0.45553684	2.0499442
341213651635032	1.6142733	0.98846436	1.4839271
341213656578879	1.3465487	1.3001127	1.2898952
341213661522727	1.1091647	1.462019	1.3470699
341213666466575	0.9025496	1.58844	1.4404413
341213671776633	0.521985	1.3746338	1.3561579
341213676354270	0.20677048	1.2103472	1.3594031
341213681298118	0.017089933	1.041399	1.3727913
341213686241965	-0.045149803	0.873209	1.0591089
341213691185813	-0.037716717	0.6392622	0.92067516
341213696129661	0.17442828	0.4751358	0.72920436
341213701439719	0.2178065	0.10705662	0.73421496
341213706017356	0.37582487	-0.27567196	0.85080737
341213710961204	0.32767493	-0.7621136	0.9858247
341213715905051	0.13312097	-1.4063311	1.263667
341213720848899	0.2860917	-1.9799213	1.1693479
341213725792747	0.3263282	-2.4402428	1.5075411
341213731133323	0.4168344	-2.7829027	1.7691088
341213735680442	0.61717415	-2.9768267	2.032698
341213740624290	0.8474496	-2.8943596	2.2099454
341213745568137	0.77102107	-2.728323	2.5074227
341213750511985	0.8171488	-2.6357126	1.7602855
341213755455833	0.6630724	-2.3669071	1.1346613
341213760796409	0.101420745	-2.2286654	1.0751665
341213765343528	-0.28705236	-1.9597044	1.2837013
341213770287376	-0.4326988	-1.5075865	0.9869236
341213775231223	-0.35898146	-1.0533171	0.612702
341213780175071	-0.6172837	-0.7442322	0.4392354
341213785118918	-0.88806796	-0.61813164	0.3687778
341213790428977	-1.0964284	-0.5389347	0.41682228
341213795006614	-1.1983728	-0.4837923	0.4348156
341213799950461	-1.1435945	-0.43030357	0.4176624
341213804894309	-1.3088663	-0.47863102	0.27422547
341213809838157	-1.4014883	-0.53832245	-0.11872661
341213814782004	-1.3241305	-0.55231476	-0.50438493
341213820092063	-1.2950397	-0.5890417	-0.6412403
341213824669700	-1.3439277	-0.65244484	-0.55041844
341213829613547	-1.5044923	-0.73615456	-0.48507124
341213834557395	-1.7433224	-0.8336315	-0.57032275
341213839501243	-2.0268376	-0.9092808	-0.7579542
341213844445090	-2.3453312	-1.0273724	-0.8454429
341213849755149	-2.833391	-0.9994879	-0.8657092
341213854332786	-3.3279138	-1.0727329	-0.88926125
341213859276633	-3.6510532	-1.0121317	-1.038238
341213864220481	-3.9888167	-1.0205975	-1.0352683
341213869164329	-4.2127895	-1.0742674	-0.8429023
341213874108176	-4.2972865	-1.1279011	-0.6492892
341213879418235	-4.42703	-1.1047792	-0.49123603
341213883995872	-4.4888244	-1.047368	-0.4204191
341213888939719	-4.4415274	-0.8610172	-0.44775045
341213893883567	-4.381675	-0.57734966	-0.3567524
341213898827415	-4.209507	-0.21779251	-0.2151922
341213903771262	-4.0819073	0.18431664	0.040300965
341213909081321	-4.087483	0.57738876	0.37441838
341213913658958	-4.0925426	0.9876709	0.55908895
341213918602805	-4.0140524	1.4125881	0.4117533
341213923607688	-3.9776714	1.794383	0.017987251
341213928490501	-3.9863148	2.132618	-0.29482007
341213933403831	-4.0765076	2.4133024	-0.6840068
341213938744407	-4.0891995	2.5397778	-0.9202496
341213943322043	-3.999574	2.5499964	-0.9887948
341213948235374	-3.8083277	2.4034767	-0.95187485
341213953179221	-3.2901855	2.220892	-0.8165637
341213958123069	-2.9918113	2.035346	-0.43500555
341213963066917	-2.786542	1.6779604	-0.13537312
341213968407493	-2.664081	1.4084892	0.04374695
341213972954612	-2.5550766	1.1850863	0.092075825
341213977898460	-2.43411	1.1184082	-0.13925576
341213982842307	-2.5067294	1.1913033	-0.57376826
341213987786155	-2.532826	1.4464598	-1.1284678
341213992730002	-2.5792673	1.7339983	-1.59935
341213998040061	-2.580611	2.0279713	-1.8200871
341214002617698	-2.6123602	2.2852774	-1.957563
341214007561545	-2.4682803	2.5776367	-1.7388333
341214012505393	-2.3615527	2.769374	-1.2718711
341214017449241	-2.1706867	3.0221195	-0.61574185
341214022393088	-1.9476721	3.3094454	-0.021880627
341214027703147	-1.8540242	3.5525436	0.1841749
341214032280784	-1.645242	3.9299383	0.50223696
341214037224631	-1.5025225	4.303006	0.64519167
341214042168479	-1.5319674	4.486476	0.8348764
341214047112327	-1.6068687	4.597047	0.79546833
341214052025657	-1.651041	4.558852	0.55086076
341214057366233	-1.7010403	4.5662994	0.6239152
341214061943870	-1.7636881	4.5740385	0.5322265
341214066857200	-1.8342047	4.6417837	0.5437815
341214071801047	-1.8659563	4.7439566	0.63170993
341214076744895	-1.7826691	4.7285004	0.6341811
341214081688743	-1.7100915	4.67412	0.7653462
341214087029319	-1.6034124	4.4847794	1.0191613
341214091576438	-1.605799	4.173957	1.5290189
341214096520286	-1.480803	3.6813555	1.6055211
341214101464133	-1.2362012	3.2156725	0.89877164
341214106407981	-0.7970109	2.8676386	0.03728342
341214111351829	-0.1953007	2.7611246	-0.5234258
341214116661887	0.33157516	2.7835188	-0.9126578
341214121239524	0.78861296	2.970892	-1.3264968
341214126183372	1.5570487	3.4322338	-1.4709163
341214131127219	2.5226	4.10402	-1.2438719
341214136071067	3.1357636	4.567604	-0.59235686
341214140984397	3.6581602	4.9420633	0.13687003
341214146324973	4.2192655	5.1774044	0.8936533
341214150872092	4.4640293	5.25743	1.5015393
341214155815940	4.368963	5.096386	1.7621697
341214160790305	4.388572	5.0131893	1.9842055
341214165703635	4.22581	4.765132	2.244276
341214170647483	3.8514538	4.283518	2.3994274
341214175988059	3.5739515	3.8045568	2.062315
341214180535178	3.6337779	3.4903965	1.3195411
341214185479026	3.5313628	3.190382	0.44964945
341214190422874	3.185262	2.8966722	-0.007739544
341214195366721	2.5687706	2.63768	-0.08932471
341214200310569	2.2227864	2.6771832	0.13524723
341214205651145	1.8131014	2.7640476	0.4032793
341214210198264	1.0839653	2.6977034	0.6619984
341214215142112	0.4621289	2.665082	0.7063291
341214220085960	-0.08724016	2.584444	0.9282203
341214225090842	-0.5090718	2.430107	1.1429387
341214229973655	-0.7876859	2.0302792	1.4951077
341214235283713	-1.0019225	1.6993237	1.8852217
341214239861350	-0.8635227	1.3408499	2.1856952
341214244805198	-0.4549334	1.1196394	2.6214023
341214249749045	-0.3495674	0.99315643	2.778761
341214254692893	0.03778398	0.8233862	3.1362402
341214259636741	0.2886287	0.4963131	3.10672
341214264946799	0.20432615	0.071912766	2.9055579
341214269524436	0.17790997	-0.15099907	2.728802
341214274468284	0.7332529	-0.42648792	2.8417416
341214279412131	1.0413574	-0.8430538	3.5208101
341214284355979	1.1047481	-1.0821552	3.5528147
341214289269309	1.2270883	-1.1420279	3.5042067
341214294609885	1.5722711	-1.2663994	3.565273
341214299157004	2.0037885	-1.5965605	3.3220277
341214304100852	2.0224278	-1.9130487	3.5562205
341214309044700	2.5499642	-2.1289663	3.9138498
341214313988547	2.7916055	-2.3586283	4.0549974
341214318932395	3.2396529	-2.582983	3.5477228
341214324272971	3.2207012	-2.6416664	3.3024695
341214328820090	3.1939552	-2.674137	3.291873
341214333763938	3.56342	-2.8558311	2.281158
341214338707786	4.070449	-2.7649965	1.9686356
341214343651633	4.1308365	-2.9444656	1.717278
341214348595481	3.836345	-3.3537378	2.0086718
341214353905540	3.2871394	-3.835413	2.6447015
341214358483176	2.585943	-4.758773	3.0126493
341214363427024	1.6781378	-5.537818	3.0254617
341214368370872	1.307023	-6.130315	3.1886752
341214373284202	0.9618683	-6.6369257	3.2261956
341214378228049	1.3006129	-6.23765	3.005591
341214383568626	1.853687	-5.4815035	2.6990485
341214388146262	2.0881152	-5.0393114	2.584042
341214393090110	2.1431787	-4.846945	2.5299082
341214398033958	2.3491638	-5.0077477	2.6797705
341214402977805	2.3373768	-5.3050976	2.4697447
341214407891135	2.1390367	-5.641509	2.2043285
341214413231711	1.9791062	-5.803232	1.7710872
341214417778831	1.8043377	-6.12084	1.4125957
341214422722678	0.7732644	-6.191185	1.3315902
341214427666526	1.3809114	-6.5065966	0.8130326
341214432610374	1.8205781	-6.239524	-0.04521227
341214437554221	0.92906284	-6.46974	0.23771906
341214442864280	0.43026948	-6.4568787	0.43132544
341214447441917	0.18260169	-6.267906	0.4378314
341214452385764	-0.074135065	-5.990556	0.49871778
341214457329612	-0.22543395	-5.481488	0.47924852
341214462273460	-0.35852075	-4.930381	0.49436378
341214467186790	-0.5762676	-4.2956905	0.37883615
341214472527366	-0.9394072	-3.652092	0.36817765
341214477105002	-1.3153938	-2.8571262	0.2242477
341214482018333	-1.6809897	-2.079691	0.019721985
341214486962180	-1.7930424	-1.2616358	-0.054676533
341214491906028	-1.8270223	-0.38076115	-0.45850253
341214496880393	-1.9923147	0.5370035	-1.1190057
341214502190452	-1.9007047	1.3946905	-1.6844246
341214506768088	-1.6155864	2.2901773	-1.9606299
341214511711936	-1.6994375	3.499136	-2.2998855
341214516655784	-1.5049475	4.859954	-2.800917
341214521569114	-0.8517507	6.7130327	-3.6752715
341214526573997	-0.44737887	8.123423	-4.6104393
341214531853538	-0.1868769	9.108215	-5.77988
341214536400657	-0.25934255	9.5602665	-6.4923368
341214541344504	-0.4078744	9.484649	-6.484203
341214546288352	-0.26670796	8.662971	-5.5751877
341214551232200	-0.69476485	7.0050764	-4.6264753
341214556176047	-1.1687241	5.2652225	-3.905254
341214561516624	-1.3826419	3.7454538	-3.0638218
341214566063743	-1.6975737	2.3920145	-2.3504112
341214571007590	-1.7595165	1.341013	-1.9527969
341214575951438	-1.6624126	0.74370766	-1.8789027
341214580895286	-1.3054847	0.66108894	-2.1049607
341214585839133	-0.9353785	0.97090244	-2.3127112
341214591149192	-0.47533363	1.5680971	-2.7875597
341214595726829	-0.07572687	2.2532787	-3.2251182
341214600670676	-0.115501285	2.9367847	-3.1137557
341214605614524	-0.6132706	3.4229317	-2.8121028
341214610558372	-0.59677213	3.9400263	-2.277889
341214615502219	-0.3217911	4.3644238	-1.6942449
341214620812278	-0.036292315	4.6843176	-1.1118743
341214625389915	0.24317086	5.126459	-0.7168765
341214630333762	0.808154	5.6400013	0.19314957
341214635277610	1.6420162	6.220289	1.730314
341214640221458	2.9732924	6.826969	3.033296
341214645134788	3.922264	6.930463	3.5236723
341214650475364	4.5800567	6.642702	4.063157
341214655053001	5.023387	6.045022	4.396847
341214659966331	5.5156717	5.0665865	4.4316034
341214664910178	6.074766	3.862669	4.626249
341214669854026	6.3683367	2.451991	4.8369226
341214674797874	6.6404634	1.3193512	5.7948656
341214680138450	4.8820186	0.23356628	6.3714685
341214684685569	3.6492352	-0.8033085	4.227596
341214689629417	3.614211	-1.4413633	-0.65385365
341214694573264	3.5570376	-1.4722185	-3.520388
341214699517112	2.970354	-1.6240206	-3.2686603
341214704460960	2.084807	-2.0831976	-1.9648361
341214709771018	1.309735	-2.4599085	-1.2331355
341214714348655	1.0956162	-2.6578474	-0.52166414
341214719292502	0.9208379	-2.8804798	0.24897003
341214724205833	0.4008299	-3.0881119	1.5055673
341214729149680	-0.45604193	-3.199727	2.7622364
341214734093528	-1.0047057	-2.7385645	5.320096
341214739434104	-1.0684562	-1.8340492	7.251857
341214743981223	-1.1342735	-1.1445026	8.131966
341214748925071	-0.99601215	-0.90131855	8.477329
341214753868918	-0.56642425	-0.61129093	9.033243
341214758812766	0.18712527	-0.43063068	9.220272
341214763756614	0.7584251	-0.36066437	8.589018
341214769066672	0.6811174	-0.35480595	7.3177996
341214773644309	0.7537992	-0.13840675	6.002933
341214778557639	1.0398498	0.24963665	4.670034
341214783532004	1.8239303	0.8626394	3.1294155
341214788445335	2.5216131	1.1989813	1.6837629
341214793389182	3.3682933	1.6388273	0.4933957
341214798729758	3.9038494	1.9858742	-0.058761597
341214803276877	3.9038472	2.2122087	0.0176934
341214808220725	2.9826326	2.1625385	0.31586623
341214813164573	1.8581996	1.4790096	-0.47829425
341214818108420	0.903088	0.60427094	0.18395686
341214823052268	0.2863282	0.025662422	0.8828447
341214828453879	-0.062150866	-0.32696724	0.8239957
341214832939963	-0.031281054	-0.38463306	0.3876077
341214837883811	-0.014954314	-0.46873188	0.0075763464
341214842827659	0.09048225	-0.58075905	-0.23929667
341214847771506	0.13321233	-0.89902115	-0.26552498
341214852715354	0.10638968	-1.3448153	-0.2069658
341214858025413	0.026668124	-1.7306089	0.11021066
341214862603049	0.05220657	-2.0906782	0.8168924
341214867546897	0.13734058	-2.431157	1.6116345
341214872490745	0.30699542	-2.7824583	2.2620182
341214877404075	0.40596485	-3.0827131	2.7690222
341214882347922	0.44520044	-3.315404	3.0822575
341214887688499	0.5094745	-3.4475365	3.2309737
341214892235618	0.50296664	-3.5309343	3.1636353
341214897179465	0.52085066	-3.3594513	2.7338755
341214902123313	0.26466984	-3.185213	2.304731
341214907067161	-0.17899233	-2.8869772	1.7259244
341214912011008	-0.5026938	-2.5195684	1.275567
341214917351585	-0.9220168	-2.1233883	0.8302512
341214921898704	-1.2953821	-1.7391233	0.33433306
341214926842551	-1.6945777	-1.433074	0.06984788
341214931786399	-2.2102227	-1.248023	-0.10392857
341214936730247	-2.221776	-1.0316553	-0.02528311
341214941674094	-2.222191	-0.8410473	0.027643882
341214946984153	-2.085076	-0.68767834	-0.06733186
341214951561790	-1.9786651	-0.62965775	-0.28606874
341214956505637	-1.7943418	-0.6063528	-0.494742
341214961449485	-1.4684937	-0.6870432	-0.42320454
341214966393333	-1.3245263	-0.5958433	-0.100108415
341214971337180	-1.2717259	-0.61592484	0.06115657
341214976647239	-1.3522992	-0.6277275	0.12995571
341214981224876	-1.6639814	-0.6308508	0.2652486
341214986168723	-1.9868448	-0.6211376	0.059375376
341214991112571	-2.4775739	-0.6896572	-0.33025447
341214996056418	-3.0355833	-0.7698431	-0.6470214
341215001000266	-3.517759	-0.8879118	-0.8345014
341215006310325	-3.8498669	-1.0027266	-0.9398463
341215010887961	-4.102938	-1.1425543	-0.9902007
341215015862327	-4.261423	-1.164957	-0.8972085
341215020806174	-4.2067504	-1.189724	-0.92867005
341215025750022	-4.186801	-1.0551052	-0.7642643
341215030693870	-4.023158	-0.8040886	-0.5735886
341215036003928	-3.8455148	-0.40282345	-0.28911602
341215040581565	-3.6285305	0.0750103	-0.1963864
341215045525413	-3.4732285	0.5411072	-0.015731037
341215050469260	-3.2925909	1.0042763	0.15329814
341215055413108	-3.1055286	1.2838154	0.28909373
341215060356956	-3.0165722	1.4131804	0.2922392
341215065667014	-3.0118713	1.4193554	0.4046991
341215070244651	-2.9805403	1.2313118	0.39200032
341215075188499	-3.0640562	0.96298885	0.27220482
341215080132346	-3.0979743	0.7492399	0.27361798
341215085076194	-3.0040026	0.7207041	0.29432267
341215090020042	-2.9271796	0.93887043	0.40833873
341215095330100	-2.9238245	1.2374048	0.5865164
341215099907737	-2.9663928	1.4648781	0.8399896
341215104851585	-3.0579302	1.6060753	1.0793244
341215109795432	-3.2750666	1.589323	1.155167
341215114739280	-3.3847637	1.5717478	0.9653896
341215119652610	-3.5987444	1.6104374	0.6263932
341215124993186	-3.8372595	1.677043	0.29085428
341215129631858	-3.9100857	1.9233541	-0.024885535
341215134514670	-3.8621922	2.2995539	-0.2978956
341215139458518	-3.797818	2.6532679	-0.36253178
341215144402366	-3.714199	2.989215	-0.26930445
341215149346213	-3.661036	3.3025875	-0.22021109
341215154686790	-3.5356178	3.5622501	-0.06806022
341215159233909	-3.201183	3.7949562	0.2547968
341215164177756	-2.6322227	4.045066	0.6179945
341215169121604	-2.1615214	4.231765	0.70678353
341215174065452	-1.9426045	4.4215374	0.27231377
341215179009299	-1.8463578	4.4955235	0.106710255
341215184319358	-1.7537949	4.662547	-0.14461434
341215188896995	-1.744339	4.8250656	-0.3221994
341215193840842	-1.7909638	4.9143353	-0.3895628
341215198784690	-1.8324472	4.8505583	-0.13011175
341215203728538	-1.9020934	4.631689	0.1932151
341215208672385	-1.8857963	4.5267754	0.5599727
341215213982444	-1.890678	4.297241	0.7620431
341215218560081	-1.9694518	4.1058397	0.9045572
341215223503928	-1.9434232	3.8571215	1.1355696
341215228447776	-1.7377108	3.688099	1.1979177
341215233391624	-1.4032165	3.5918818	1.0127941
341215238304954	-0.8983977	3.5615835	0.6079657
341215243645530	-0.14949608	3.6775427	0.14028421
341215248223167	0.9365742	3.736804	-0.45366699
341215253167014	1.4874073	3.880618	-0.40818423
341215258110862	2.1985087	4.2757416	-0.14494127
341215263024192	3.0543783	4.8409863	-0.022372186
341215267968040	3.9343178	5.5760803	0.21488225
341215273308616	4.5387554	6.148199	0.49776244
341215277855735	4.686801	6.4707546	0.87234354
341215282799583	4.6756263	6.566286	1.0819025
341215287743430	4.276848	6.360914	1.1560045
341215292687278	4.1394324	6.1686993	1.2748206
341215297631126	3.9721255	5.8420744	1.4805148
341215302971702	3.697072	5.4460955	1.6740457
341215307518821	3.5631905	4.91401	1.609433
341215312462668	3.1957629	4.302973	1.6037331
341215317406516	2.8936474	3.811945	1.4184996
341215322350364	2.8089154	3.4288921	1.2041557
341215327294211	2.6492934	3.1466284	0.93761766
341215332634788	2.3080747	2.9947853	0.89877856
341215337181907	1.7131329	3.0178556	1.2305981
341215342125754	0.7546738	2.7818317	1.080785
341215347069602	-0.15218198	2.6217957	0.94547653
341215352013450	-0.7279048	2.2955503	0.62138915
341215356957297	-0.9912734	2.181426	0.9270332
341215362297874	-0.93642056	1.8579559	0.9306812
341215366844993	-1.3545219	1.304863	1.335638
341215371788840	-1.5025498	0.86117744	1.4503326
341215376732688	-1.3599795	0.35073566	1.3381484
341215381676536	-0.9333432	-0.15315723	1.4982567
341215386620383	-0.6584885	-0.6199961	2.207998
341215391960960	-0.2511865	-0.81194687	2.9643884
341215396508079	0.47805393	-1.1914377	3.2402935
341215401451926	0.6925554	-1.6549702	3.2943475
341215406395774	0.6828718	-1.9172754	3.037596
341215411339622	0.65154696	-2.0310535	3.39959
341215416283469	0.8053658	-2.1346436	3.5207298
341215421624045	1.6227148	-2.4082794	3.4228766
341215426171165	2.672757	-2.7252588	3.7754445
341215431176047	2.8389673	-3.1687737	4.040154
341215436058860	3.1254802	-3.621808	4.0500016
341215441002708	3.4004076	-3.7076302	3.7577732
341215445946555	3.4745717	-3.6985588	3.4693136
341215451287131	3.6365807	-3.6467724	2.7046208
341215455834251	3.4038818	-3.668623	2.2567272
341215460778098	3.4260957	-3.2779036	2.3381164
341215465721946	3.4221191	-3.0822353	2.394762
341215470665793	3.325832	-2.9887447	2.6784694
341215475609641	2.9284272	-3.0685453	2.6638322
341215480950217	2.4784248	-3.3572874	2.3110173
341215485497336	1.9418311	-3.7587938	1.9973307
341215490441184	1.6922128	-4.015169	1.8992338
341215495385032	1.3029547	-4.361766	2.2043397
341215500328879	1.3186994	-4.3539734	2.2321715
341215505272727	1.61302	-4.1062374	2.359046
341215510582786	2.0138774	-3.9125051	2.5166473
341215515160422	2.3441138	-3.7725143	2.473746
341215520104270	2.5701957	-3.8167877	2.6688402
341215525048118	2.650634	-3.9150772	2.4809518
341215529991965	2.8445075	-4.124544	2.3311627
341215534935813	2.90658	-4.39303	2.311671
341215540245872	3.0602891	-4.644704	2.1309545
341215544823508	3.13164	-4.929473	1.8892028
341215549767356	3.2869363	-5.228922	1.7469635
341215554711204	3.2291613	-5.4977427	1.4576108
341215559655051	3.0584657	-5.833555	1.1350667
341215564568381	2.8607697	-5.960561	0.82889915
341215569908958	2.6026607	-6.0663567	0.6471169
341215574456077	2.2618167	-6.0392065	0.4561808
341215579399924	2.124248	-5.9107323	0.404639
341215584343772	2.2533789	-5.643553	0.3435893
341215589287620	1.909688	-5.484809	0.55124545
341215594231467	1.4483666	-5.131896	0.77814436
341215599541526	0.9900415	-4.710847	0.8123193
341215604119163	0.6188456	-4.1908407	0.7806978
341215609063010	0.015390992	-3.660986	0.57784486
341215614006858	-0.36891925	-3.0367994	0.08759546
341215618950706	-0.7454212	-2.3607254	-0.1993258
341215623894553	-1.056538	-1.7394295	-0.5560522
341215629204612	-1.17782	-1.0824766	-0.61066556
341215633782249	-1.1385447	-0.13591671	-0.90205526
341215638726096	-1.3035696	0.7949953	-1.2540312
341215643669944	-1.2990706	2.1559343	-1.4984016
341215648613792	-1.312813	3.652217	-1.806668
341215653527122	-1.4961462	5.284501	-2.29019
341215658867698	-1.2287667	7.4582605	-3.1459706
341215663445335	-1.5675143	9.321412	-4.221402
341215668389182	-2.579872	10.41228	-5.625664
341215673333030	-3.6676068	10.401041	-6.9133134
341215678246360	-4.4541817	10.39571	-7.9130282
341215683190208	-4.175329	10.395313	-7.7959166
341215688530784	-3.3098001	9.651387	-7.388891
341215693077903	-3.2169433	7.7420845	-6.689487
341215698021751	-2.835424	5.906068	-5.6138725
341215702965598	-2.123565	3.912447	-4.490149
341215707909446	-1.9177613	2.0579824	-3.8448474
341215712853293	-1.4703028	0.72022724	-3.4349248
341215718193870	-0.91460407	-0.09108162	-3.5194387
341215722740989	-0.41414273	-0.23013783	-4.1121697
341215727684836	-0.10543084	0.37611103	-4.708791
341215732689719	-0.044374943	1.2973537	-4.3277016
341215737572532	-0.7074759	2.1520424	-2.8812082
341215742516379	-1.3221709	2.7740536	-1.3118284
341215747826438	-1.079219	3.4138079	-0.3129506
341215752404075	-0.36163175	4.073186	0.25204158
341215757347922	0.49289322	4.811675	0.54337335
341215762291770	1.4545722	5.3591576	0.6309612
341215767235618	2.2971263	5.856271	1.5394559
341215772148948	3.0825453	6.371725	2.8549676
341215777489524	3.6796727	6.89025	3.8025217
341215782067161	3.795118	6.8850727	4.035392
341215787011008	5.8763757	6.6281805	4.842494
341215791954856	7.2857437	6.1030865	5.5983515
341215796868186	8.187786	4.7942905	5.176076
341215801812034	8.177023	2.843255	4.537644
341215807122092	6.61871	0.55162907	4.0261536
341215811699729	5.6223984	-1.1021118	4.894202
341215816643577	5.01176	-1.6831512	7.4539504
341215821587424	3.872413	-1.6668453	10.20796
341215826531272	3.3082147	-1.7329693	6.4293613
341215831475120	3.861098	-1.522748	-0.15929008
341215836785178	4.4404016	-1.2815228	-4.949276
341215841362815	3.7639563	-1.9036112	-6.206112
341215846306663	1.7928952	-2.5827446	-4.955532
341215851250510	1.2105548	-2.6317568	-2.959079
341215856194358	1.0888782	-2.6770353	-1.1957603
341215861138206	0.9632921	-2.836358	0.2006514
341215866448264	0.92457604	-2.7801924	1.8197865
341215871025901	0.72273076	-2.6211567	3.5230744
341215875969749	0.6893424	-2.1691742	4.9987226
341215880913596	0.47910845	-1.9825201	7.08321
341215885857444	0.5108627	-1.8691311	7.583808
341215890770774	0.9237516	-1.5708275	7.855649
341215896111350	1.3510796	-1.3748312	7.4609146
341215900688987	1.6610504	-1.0616369	6.8057556
341215905632835	2.1917448	-0.5043392	6.109564
341215910576682	2.7426238	0.21582031	5.3219533
341215915520530	3.5880868	1.1865921	4.5760565
341215920433860	3.9603167	1.8776455	3.6551855
341215925774436	4.2876315	2.3209724	2.8445113
341215930352073	3.5557656	2.656742	2.351988
341215935295920	2.6264768	2.5219746	2.1656747
341215940239768	1.6372269	2.3581524	2.667306
341215945183616	0.7120653	2.2672796	3.0422459
341215950096946	-0.24881169	2.2419434	3.2332547
341215955437522	-0.7478262	1.7364922	2.5500317
341215960015159	-1.4779456	1.143424	2.2107952
341215964959006	-1.97925	0.5127764	1.6070774
341215969872336	-2.4305248	-0.06916618	0.97857094
341215974816184	-2.8590212	-0.61211395	0.6335316
341215979760032	-3.0088701	-1.0424137	0.46228206
341215985100608	-2.8237922	-1.501112	0.5753805
341215989647727	-2.5334897	-1.8555708	0.52992815
341215994591575	-1.9149426	-2.2407923	0.5408098
341215999565940	-1.5094159	-2.7226343	1.1080694
341216004479270	-1.3569676	-3.191392	1.7600902
341216009423118	-0.9305641	-3.449768	2.4182882
341216014763694	-0.64930016	-3.6742067	2.7197402
341216019310813	-0.48107445	-3.8969212	2.5451841
341216024254661	-0.24019	-3.9644938	2.140146
341216029198508	0.19819999	-3.895832	1.6743261
341216034203391	0.41449165	-3.6483774	1.3197775
341216039086204	0.65546274	-3.2959814	0.9874304
341216044396262	0.65968174	-2.8792887	0.82692754
341216048973899	0.5562088	-2.3767643	0.7020732
341216053917747	0.2870921	-1.9455423	0.58329105
341216058861594	-0.09308109	-1.5545635	0.2757351
341216063805442	-0.33660358	-1.2418194	0.08192098
341216068749290	-0.54093325	-0.9145012	-0.07418059
341216074059348	-0.82236886	-0.79109764	-0.26767623
341216078636985	-0.8960706	-0.705719	-0.023552507
341216083580833	-1.0781152	-0.7169647	0.08992952
341216088524680	-1.0927918	-0.7702799	0.15497354
341216093468528	-1.1662278	-0.8608341	0.0050401688
341216098412376	-1.3602297	-1.0051851	-0.22445369
341216103722434	-1.349558	-1.1146717	-0.4132752
341216108300071	-1.2848823	-1.1149874	-0.37152487
341216113243918	-1.510107	-1.2992802	-0.38957
341216118187766	-1.6765286	-1.3636656	-0.48517597
341216123131614	-1.8266029	-1.4724054	-0.7171303
341216128044944	-1.9071743	-1.4853373	-0.92768645
341216133385520	-2.141274	-1.5275373	-1.024855
341216137963157	-2.2841902	-1.5140696	-1.0856411
341216142876487	-2.4260538	-1.470953	-1.1270301
341216147820335	-2.590282	-1.3681936	-1.3013115
341216152764182	-2.695123	-1.25601	-1.4844158
341216157708030	-2.8020911	-1.0489388	-1.7074534
341216163048606	-2.9540532	-0.71284866	-1.6587808
341216167595725	-3.102028	-0.34139252	-1.4106553
341216172539573	-3.1824408	0.10165024	-0.94729704
341216177483420	-3.2140832	0.6008768	-0.3319534
341216182427268	-3.422751	1.0562925	0.13314915
341216187371116	-3.5917325	1.5415621	0.5337928
341216192711692	-3.9265914	1.9860916	0.8569797
341216197258811	-4.169825	2.4064074	1.2615674
341216202202659	-4.348203	2.8001614	1.4228241
341216207146506	-4.6988707	3.0143938	1.1025825
341216212090354	-4.869804	3.1586666	0.677004
341216217034202	-4.8969927	3.2236023	0.16469753
341216222344260	-4.82524	3.1337566	-0.029071093
341216226921897	-4.8422556	2.785656	0.079054475
341216231865745	-4.7124147	2.3733702	0.22084785
341216236779075	-4.560421	1.9985771	0.12297511
341216241722922	-4.405533	1.7681246	-0.19898903
341216246666770	-4.283538	1.6508904	-0.43284702
341216251976829	-4.223579	1.5945215	-0.76128614
341216256554465	-3.9398077	1.6442251	-1.7138265
341216261498313	-3.8971899	1.7524366	-1.6979262
341216266442161	-3.8793259	1.966876	-1.7671238
341216271386008	-3.6986814	2.2304878	-1.3059595
341216276329856	-3.4268885	2.3197403	-0.80689234
341216281639915	-3.1086712	2.2724895	-0.08638251
341216286248069	-2.7852535	2.2251196	0.3796972
341216291191917	-2.3026927	2.2835932	0.5650432
341216296135764	-1.8010099	2.4004354	-0.05768329
341216301079612	-1.3721304	2.7372246	-0.7917769
341216306023460	-1.0222712	3.246131	-1.0817671
341216311333518	-0.839231	3.6790018	-1.071961
341216315911155	-0.7001587	3.9500647	-0.4311365
341216320855002	-0.5910908	4.0619745	-0.0088121295
341216325798850	-0.46879768	4.0204973	-0.001795888
341216330742698	-0.31630397	3.9971685	-0.22314459
341216335747581	-0.1732068	4.027795	-0.42949137
341216341027122	-0.20769775	3.8934183	-0.34207094
341216345574241	-0.24297822	3.8494778	-0.042438596
341216350518088	-0.38042188	3.7265663	0.57195354
341216355461936	-0.5501065	3.5976992	1.1279966
341216360405784	-0.59598017	3.6986485	1.1759255
341216365349631	-0.21480978	3.8844585	0.2449333
341216370690208	-0.08263528	4.190444	-0.31241947
341216375237327	0.31010675	4.6370125	-0.20211202
341216380181174	1.1066403	5.3056755	-0.05891031
341216385125022	2.0155752	6.0015726	0.27740687
341216390068870	2.6589038	6.574707	0.6466184
341216395012717	3.1155858	6.9561167	1.1790295
341216400353293	3.4418023	7.1224823	1.4753509
341216404900413	3.880514	7.2939816	1.381775
341216409844260	4.2072344	7.2955065	1.4367907
341216414788108	4.503933	7.12201	1.3280983
341216419731956	4.8302813	6.9732523	1.2292136
341216424675803	5.084441	6.7230806	0.81673324
341216430016379	4.9126477	6.210656	0.35000098
341216434594016	4.540614	5.659994	-0.08863199
341216439507346	4.1419697	5.287158	-0.38223302
341216444481711	3.6191664	5.089303	-0.38545954
341216449425559	3.1069791	4.937834	-0.16239297
341216454369407	2.5365276	4.8139896	0.1387496
341216459679465	1.9241785	4.6551056	0.4748826
341216464257102	1.0711515	4.465356	0.83167183
341216469200950	0.020387173	4.046736	0.8190774
341216474144797	-0.73376846	3.29875	0.44082415
341216479088645	-1.1954813	2.6686678	0.3010857
341216484032493	-1.43084	2.082243	0.61707616
341216489342551	-1.2280204	1.3700075	1.1079178
341216493920188	-1.1189864	0.55097866	1.6792722
341216498864036	-0.8928573	-0.092487335	2.0364835
341216503807883	-0.31912303	-0.8127575	2.1141317
341216508751731	0.15690947	-1.3460073	2.7973008
341216513695579	0.6210871	-1.7471809	3.3938735
341216519005637	1.2106228	-2.0207987	4.007164
341216523583274	1.553016	-2.3460093	4.1737146
341216528527122	1.7145162	-2.638505	3.9360363
341216533470969	1.6948605	-2.7226381	3.8953078
341216538414817	1.8798268	-2.6249943	4.01939
341216543358665	2.2931428	-2.5836754	4.0768423
341216548668723	2.9673755	-2.7286663	3.9383225
341216553246360	3.8172712	-2.9287786	4.3258986
341216558190208	4.3747025	-3.0915136	3.9001682
341216563134055	4.6126533	-3.2344284	4.1028185
341216568077903	4.391199	-3.2389631	3.7008862
341216573021751	4.566286	-3.0533714	3.267542
341216578331809	4.6853538	-3.2338686	2.894095
341216582909446	4.6003866	-3.2907286	2.5631452
341216587853293	4.821086	-3.105731	2.2971768
341216592797141	4.772084	-3.2745962	2.3862731
341216597740989	4.5704975	-3.4619055	2.55856
341216602684836	4.0356607	-4.014827	3.0828776
341216607994895	3.401479	-4.523883	3.0086794
341216612572532	2.630556	-5.0795403	3.143953
341216617516379	1.7131083	-5.639323	3.0936737
341216622460227	1.3988216	-5.694623	3.0320857
341216627404075	1.441509	-5.6719	2.8331413
341216632317405	1.5010023	-5.697484	2.781732
341216637719016	1.6091244	-5.6886578	2.4949784
341216642235618	1.8941672	-5.6713724	2.2395153
341216647179465	2.2096958	-5.779789	2.0866199
341216652123313	2.2947948	-5.977126	1.774487
341216657067161	2.2596998	-6.273035	1.4641414
341216662011008	2.2522116	-6.6297207	1.2284427
341216667321067	2.4757564	-6.8766975	0.95851326
341216671898704	2.1250508	-7.2981405	0.93576765
341216676842551	1.8722377	-7.553484	0.7868781
341216681786399	1.470767	-7.6992464	0.7229419
341216686730247	1.3102787	-7.5832663	0.50640106
341216691674094	1.2737651	-7.2317114	0.3185277
341216696984153	1.1537566	-6.801443	0.13140821
341216701561790	1.1637113	-6.191944	-0.002855301
341216706505637	1.1757638	-5.631998	0.19869566
341216711449485	0.663324	-5.0636234	0.6291475
341216716393333	-0.05653763	-4.462388	0.81587744
341216721306663	-0.75254655	-3.639494	0.80112886
341216726647239	-1.4762572	-2.791294	0.6711137
341216731224876	-2.2403145	-1.860734	0.4656415
341216736168723	-2.7192783	-0.92203236	0.05316925
341216741112571	-3.14121	0.26195812	-0.50561
341216746056418	-2.7494016	1.4443502	-0.61499095
341216751000266	-2.582446	2.6497478	-0.839818
341216756310325	-2.4894543	4.2926626	-1.1031737
341216760887961	-2.1318014	6.704237	-1.3198454
341216765831809	-1.6248897	9.435723	-2.6778586
341216770775657	-1.1277878	10.547331	-4.218017
341216775719504	-0.8073863	10.5281925	-7.1169963
341216780663352	-1.2779717	10.518026	-10.676599
341216785973411	-1.70933	10.516288	-12.339047
341216790551047	-1.8394104	10.517587	-11.6036215
341216795494895	-1.7274008	9.733457	-10.303852
341216800438743	-1.4345719	6.7790813	-8.645706
341216805382590	-1.1959515	4.3024015	-6.772689
341216810326438	-0.87070715	1.7623215	-4.824325
341216815636497	-0.40744895	-0.42207432	-2.851636
341216820214133	-0.34660584	-1.9275084	-1.4676273
341216825157981	-7.609725E-4	-3.0848408	-0.697057
341216830101829	0.066806614	-3.951582	-0.2739222
341216835045676	0.15447897	-4.3634005	-0.49295402
341216839989524	0.5852119	-4.1657457	-2.031681
341216845299583	0.8644414	-3.3350363	-3.8154693
341216849877219	0.84605455	-2.088605	-4.317889
341216854821067	0.70229864	-0.8645344	-3.1241922
341216859764915	-0.70705885	-0.25650787	-1.1606462
341216864708762	-0.7098955	0.4942875	0.69587636
341216869622092	0.08187175	1.27631	1.975899
341216874962668	0.9973161	1.979866	2.7290628
341216879540305	2.0245361	2.4154549	2.76023
341216884484153	2.9678402	2.464552	2.0920763
341216889428001	3.691896	2.380272	1.8757124
341216894341331	4.3270297	2.2950583	2.745632
341216899285178	4.831702	2.3052263	4.0461564
341216904625754	5.5364304	2.5513086	5.1678343
341216909172874	6.2364807	2.9488068	5.461601
341216914147239	6.5853434	3.500906	5.479244
341216919060569	6.684924	4.4095936	6.0912275
341216924004417	7.375346	6.3654003	5.819663
341216928948264	6.952793	7.1161766	3.1350536
341216934288840	7.372921	7.334059	1.2838681
341216938927512	4.9462237	6.91385	1.2079439
341216943779807	1.4904878	5.8925533	0.81154823
341216948754172	-0.74122924	4.8069897	0.69044304
341216953667502	-1.6994934	4.0142384	0.8844955
341216958611350	-1.6816489	3.3834286	1.1028082
341216963951926	-0.8186024	2.924282	1.5349259
341216968529563	-0.3694963	2.2923822	2.2950592
341216973473411	-0.34857774	1.6001968	3.2572005
341216978417258	-0.06685722	0.76088715	4.1911674
341216983361106	0.09277868	-0.62389755	5.287033
341216988274436	-0.70123005	-1.1211901	5.254345
341216993615012	-1.0852716	-1.5369244	5.007178
341216998192649	-0.7452161	-2.0096254	4.8613577
341217003136497	0.0889923	-2.4276352	5.2957106
341217008049827	1.2435346	-2.6444645	6.4291205
341217012993674	2.2255404	-2.7932062	7.2174563
341217017937522	2.4415112	-3.055871	7.455638
341217023278098	2.321013	-3.4212694	7.4733505
341217027855735	2.1390128	-3.4674273	6.9796433
341217032769065	2.50135	-3.023323	6.2904353
341217037743430	2.709772	-2.2117739	5.210603
341217042687278	3.0971563	-1.5583172	3.1311626
341217047600608	3.2284849	-1.0321856	2.031632
341217052941184	3.337263	-0.4611826	1.5889398
341217057518821	3.259905	0.092907906	0.92598355
341217062432151	2.6749122	0.47761822	0.3486712
341217067406516	2.1103191	0.8028736	0.08887434
341217072350364	1.5312366	0.81190014	0.2623291
341217077263694	0.99385077	0.66426563	0.3855455
341217082604270	0.4728748	0.44977665	0.35847735
341217087181907	0.21455231	0.11832428	-0.11948609
341217092095237	0.3042663	-0.28420067	-0.5542077
341217097039085	0.19350964	-0.6858702	-0.42128396
341217101982932	0.2864555	-1.0961828	-0.49164212
341217106926780	0.29225203	-1.6886921	-0.09481174
341217112267356	0.3225063	-2.1498022	0.49006194
341217116814475	0.35487166	-2.6540976	1.3005146
341217121758323	0.3570779	-2.8819551	2.1448927
341217126702170	0.21374667	-3.277731	2.3445005
341217131646018	0.072099485	-3.5059347	2.11021
341217136589866	-0.03968989	-3.6974964	2.1017199
341217141930442	-0.39841032	-3.781314	2.3736396
341217146477561	-0.5263374	-3.5239687	2.0748405
341217151421409	-0.50015426	-3.1546526	1.8644996
341217156365256	-0.5232673	-2.7042398	1.4804523
341217161309104	-0.8181118	-2.263194	1.2741858
341217166252952	-1.0814054	-1.9195004	1.0544833
341217171563010	-1.4570957	-1.5920706	0.8289289
341217176140647	-1.6634111	-1.2599134	0.5039756
341217181084495	-2.0936391	-1.0224361	0.26775694
341217186028342	-2.0229013	-0.7774105	0.10979601
341217190972190	-1.872622	-0.60089016	0.28929004
341217195916038	-1.7663164	-0.4594984	0.38305897
341217201226096	-1.8151975	-0.42407417	0.42843348
341217205803733	-1.8739252	-0.32236958	0.41628715
341217210747581	-1.9279537	-0.25297928	0.29792127
341217215691428	-2.1936634	-0.25441647	0.24669519
341217220635276	-2.399715	-0.23632145	0.17516172
341217225579124	-2.7290406	-0.27488327	0.22408769
341217230889182	-3.1572714	-0.3290186	0.28140736
341217235466819	-3.5675516	-0.5244808	0.20199493
341217240471702	-3.7838736	-0.6474552	0.04921758
341217245354514	-4.070326	-0.92021275	-0.079027414
341217250298362	-4.3051376	-1.0974045	-0.098814964
341217255211692	-4.5085235	-1.2435455	-0.0580312
341217260552268	-4.4477496	-1.2246351	-0.2686931
341217265129905	-4.4554935	-1.1073399	-0.3569333
341217270073752	-4.343717	-0.8729677	-0.6331498
341217275017600	-4.2397428	-0.48189068	-0.85109353
341217279961448	-4.112808	-0.07927799	-1.0968919
341217284874778	-3.917728	0.35861588	-1.4037766
341217290215354	-3.6967406	0.7590246	-1.5438895
341217294762473	-3.4516501	1.2216921	-1.1641659
341217299706321	-3.2448034	1.4969311	-0.8761825
341217304650168	-3.1109042	1.6363306	-0.64243317
341217309594016	-3.1497576	1.8348637	-0.32121348
341217314537864	-3.1092658	2.02102	-0.09697169
341217319878440	-3.0996566	2.1979103	0.17431897
341217324425559	-3.0503511	2.2347717	0.3413074
341217329369407	-3.007967	2.2909632	0.484165
341217334313254	-2.938397	2.2325716	0.41820037
341217339257102	-2.9197035	2.2285404	0.34699607
341217344200950	-2.953749	2.105216	0.14613807
341217349511008	-2.9827387	1.9939756	0.040651917
341217354088645	-3.1145701	1.8598537	-0.06483269
341217359032493	-3.2051392	1.7565947	-0.16678274
341217363976340	-3.1787841	1.693018	-0.44668746
341217368920188	-3.2994697	1.7426777	-0.60660493
341217373864036	-3.3053794	1.8839836	-0.8629662
341217379174094	-3.2829666	2.1240978	-1.0704936
341217383751731	-3.3153822	2.2889614	-0.99324393
341217388695579	-3.2429402	2.4931326	-0.7207631
341217393639426	-3.0650194	2.7079096	-0.2656014
341217398583274	-2.8624723	2.8880157	0.2609889
341217403527122	-2.5090592	2.954893	0.5199451
341217408837180	-2.274938	3.0580091	0.6447453
341217413414817	-1.8933449	3.1841412	0.71558374
341217418358665	-1.5992036	3.241684	0.69572055
341217423302512	-1.488195	3.2549505	0.61891156
341217428246360	-1.2460349	3.4285164	0.3234216
341217433190208	-1.0487013	3.721879	-0.21920466
341217438500266	-0.88106525	4.1292973	-0.43413228
341217443077903	-1.0064474	4.406312	-0.62585527
341217448021751	-0.9890901	4.5597486	-0.31804532
341217452965598	-1.0298578	4.598078	0.1336112
341217457909446	-1.1048819	4.3789845	0.5589987
341217462853293	-1.0763456	4.0481024	1.2348604
341217468193870	-1.1263115	3.4549227	0.75429904
341217472740989	-1.1432341	2.9131603	-0.11562146
341217477684836	-0.8311267	2.4884024	-0.1659165
341217482659202	-0.35928464	2.3272781	-0.2627282
341217487572532	0.079247236	2.3943777	-0.49475235
341217492516379	0.6636652	2.8202	-0.7988905
341217497856956	1.4140344	3.6302795	-0.5609882
341217502434592	2.3015356	4.6279936	-0.11130065
341217507347922	3.0158544	5.607394	0.7613592
341217512291770	3.7115078	6.359413	1.8239093
341217517235618	4.02477	7.079026	2.9574134
341217522148948	3.9891546	7.3903513	3.1305563
341217527489524	3.7611616	7.4155006	2.988281
341217532067161	3.381839	7.1769495	2.474465
341217537011008	2.9913554	6.816449	1.9665208
341217542015891	3.0563467	6.4644413	1.3748832
341217546898704	3.0094552	6.0657377	0.73708427
341217551812034	2.9664955	5.530201	0.20827734
341217557152610	2.6132104	4.865962	-0.11572647
341217561730247	2.4329898	4.3060837	-0.1266315
341217566674094	2.4440088	3.912243	-0.14765239
341217571617942	2.57209	3.6028519	-0.13715982
341217576561790	2.8153968	3.5444355	0.036374092
341217581505637	2.635481	3.6014338	0.49463713
341217586846213	2.1275444	3.535286	0.87998366
341217591423850	1.1518219	3.2048721	0.8316591
341217596367698	0.27945882	2.980897	0.5961541
341217601311545	-0.46333742	2.6340246	0.43766618
341217606255393	-0.79657304	2.4020672	0.8030677
341217611168723	-1.1619521	1.8374367	1.2419181
341217616509299	-1.0190276	1.0571928	1.0857248
341217621086936	-0.5061263	0.40319633	1.4091182
341217626030784	0.23027837	-0.34859943	1.858259
341217630974631	0.6733248	-1.0555639	2.3967009
341217635918479	1.220522	-1.5633268	2.8250828
341217640831809	2.0661259	-1.9580336	3.5501926
341217646172385	2.601201	-2.329031	3.659766
341217650750022	2.9363003	-2.875578	3.6115458
341217655663352	2.9910696	-3.1208296	3.535174
341217660637717	3.0459125	-3.1791801	3.4338887
341217665581565	3.4559588	-3.370409	3.4247274
341217670494895	4.7300406	-3.478095	4.0539865
341217675835471	4.3020487	-3.9000187	4.1365757
341217680413108	3.8014178	-4.060728	4.6046147
341217685356956	4.040463	-4.0772524	4.04165
341217690300803	4.294368	-4.095874	3.3301966
341217695244651	5.4333935	-3.9196663	3.75536
341217700157981	5.957107	-3.97478	4.5581617
341217705468040	5.6635447	-4.2591887	4.566614
341217710045676	7.928602	-5.645177	3.9176238
341217714989524	3.4941099	-5.697016	4.1618433
341217719933372	0.3620007	-4.0850506	3.1515584
341217724877219	1.6934061	-3.4805279	2.1237206
341217729821067	2.3562841	-2.977666	1.4090302
341217735161643	2.1165926	-3.4794264	2.2569494
341217739708762	1.9121873	-3.9674292	2.736008
341217744652610	1.4514413	-4.557336	2.8734722
341217749596458	1.2384076	-4.661831	2.3794484
341217754540305	1.3789089	-4.6074314	1.9682865
341217759484153	1.2663126	-4.717992	1.7082176
341217764824729	1.4286525	-4.7403736	1.5551248
341217769371848	1.7086315	-4.7616205	1.2882161
341217774315696	1.8811228	-5.028392	0.74130774
341217779290061	1.9497612	-5.291997	0.24282265
341217784203391	1.9636872	-5.631399	-0.075973034
341217789147239	1.9840913	-5.985141	-0.30836916
341217794487815	2.037631	-6.197589	-0.5757489
341217799034934	1.9857552	-6.332242	-0.5945287
341217803978782	1.9027493	-6.3572025	-0.47833014
341217808922629	1.7957172	-6.3207626	-0.4408555
341217813866477	1.7213862	-6.1252127	-0.4126091
341217818810325	1.6363976	-5.9344435	-0.2052455
341217824150901	1.4059317	-5.7608232	-0.18105698
341217828698020	1.174068	-5.412715	0.12442398
341217833641868	0.8550432	-4.919385	0.33583307
341217838585715	0.66685545	-4.231329	0.6464579
341217843621116	0.27292585	-3.4866438	0.64718366
341217848473411	-0.32995117	-2.7409801	0.7335293
341217853813987	-0.9877901	-1.9123106	0.5379877
341217858361106	-1.5571754	-1.1844282	0.54930305
341217863304954	-2.2262325	-0.30229664	0.3894422
341217868248801	-2.6674976	0.68372154	0.18680692
341217873192649	-3.0759225	2.002267	0.18296623
341217878136497	-2.9998357	3.710641	0.2583661
341217883477073	-2.8095508	5.7760906	0.3904686
341217888024192	-2.2759695	8.354271	-0.31037784
341217892968040	-1.9797072	10.483679	-1.897726
341217897942405	-2.0124545	10.465085	-4.9456043
341217902855735	-2.7814505	10.45751	-8.868795
341217907799583	-3.8474975	10.459907	-11.6818075
341217913140159	-3.890588	10.471166	-12.3574295
341217917717795	-3.4673786	10.481924	-11.60547
341217922631126	-2.3194854	8.355121	-9.889667
341217927574973	-1.2813388	5.9427223	-8.021528
341217932518821	-0.80253357	3.7008638	-5.953685
341217937462668	-0.3266906	1.721839	-3.9952018
341217942803245	0.10988408	-0.19777966	-2.6967053
341217947350364	0.84137774	-1.4776525	-1.6877377
341217952294211	1.9382324	-2.086813	-1.6919672
341217957238059	3.1656847	-2.3089914	-2.1076517
341217962181907	4.2322965	-2.6175785	-2.3537326
341217967125754	3.8096817	-1.64818	-1.8159161
341217972466331	2.131587	-0.20163536	-7.266998E-4
341217977013450	1.7493279	1.0294218	1.4614041
341217981957297	1.9949412	1.8866835	2.472891
341217986901145	2.4248278	2.3383923	2.6672657
341217991844993	2.7329874	2.2644844	1.8574569
341217996788840	3.25325	1.9627619	0.5278735
341218002129417	3.8049746	1.4298754	-0.5011492
341218006676536	4.4681087	0.9810877	-0.32052422
341218011620383	4.9198194	0.67532825	0.56859684
341218016564231	5.0880837	0.5696907	1.3409505
341218021508079	4.9217615	0.58651257	1.9106481
341218026451926	4.831258	0.9052992	2.7512734
341218031792502	4.770243	1.5204754	3.6354415
341218036370139	4.7810235	2.3594332	4.590221
341218041283469	4.536316	3.3470364	5.3057933
341218046227317	3.6621675	4.21935	5.4925466
341218051171165	2.5318813	4.711116	5.6686068
341218056115012	1.1028717	4.689724	5.4107695
341218061455588	0.01912713	4.1807537	4.7215376
341218066002708	-0.21650195	3.480277	4.2836046
341218070946555	-0.08824396	2.7114553	3.7941685
341218075890403	0.28032577	2.1565037	3.50356
341218080834251	0.7328363	1.902318	3.252647
341218085778098	1.3106	1.6819649	2.7673414
341218091118674	1.6567575	1.3660622	2.731971
341218095665793	1.896111	0.9250164	2.4814487
341218100609641	1.8930252	0.410367	2.6473522
341218105553489	1.6118958	-0.08864689	3.234727
341218110497336	1.9487786	0.6284485	2.842209
341218115441184	1.9395368	0.15890026	2.9444587
341218120751243	1.8369648	-1.3976116	4.423612
341218125328879	1.2760121	-2.6026907	4.929742
341218130272727	0.8547383	-3.290183	4.738568
341218135216575	0.94796145	-3.5794916	4.645015
341218140160422	1.1036457	-3.4469185	4.772605
341218145165305	1.4467449	-3.0379572	4.099451
341218150414329	1.6316025	-2.3820782	3.4872859
341218154991965	1.7484336	-1.5256681	2.9233313
341218159935813	1.751334	-0.64475536	2.560869
341218164879661	1.5581453	0.18829823	2.4913473
341218169823508	1.2163246	0.7523861	2.4874368
341218174767356	0.88644606	1.1809978	2.4917083
341218180077415	0.5610447	1.534997	2.6842136
341218184655051	0.16358382	1.7349052	2.8895862
341218189598899	-0.12686765	1.8867464	2.829587
341218194542747	-0.35301986	1.7944536	2.7792282
341218199486594	-0.60073936	1.434516	2.495976
341218204399924	-0.80362666	0.9998646	2.1636446
341218209740501	-0.7345332	0.52277946	1.9223502
341218214318137	-0.71291006	0.034433365	1.8593634
341218219261985	-0.6649537	-0.5604105	1.766353
341218224205833	-0.57211995	-1.1823187	1.4853746
341218229149680	-0.43943337	-1.7075853	1.3975612
341218234063010	-0.46200612	-2.2836533	1.6320723
341218239403586	-0.49308735	-2.9086657	1.4188672
341218243950706	-0.4039616	-3.3075676	1.4386348
341218248894553	-0.3103658	-3.529748	1.8538946
341218253838401	-0.121900685	-3.9220448	1.1984868
341218258782249	0.12807418	-4.0563393	1.1092672
341218263726096	0.15881106	-4.149308	1.3764074
341218269066672	0.10940589	-4.0822735	1.5594501
341218273613792	0.31676447	-3.8169613	1.4554932
341218278557639	0.29863608	-3.446765	1.1094649
341218283501487	0.017065167	-3.2379818	0.7045084
341218288445335	-0.24664968	-2.9883623	0.41835952
341218293389182	-0.2476348	-2.6551752	0.40723515
341218298699241	-0.33282524	-2.342949	0.54545206
341218303276877	-0.49626106	-2.0141459	0.61616164
341218308220725	-0.565362	-1.7300568	0.67941874
341218313164573	-0.65952444	-1.319624	0.7104677
341218318108420	-0.6504727	-1.0445004	0.6426695
341218323052268	-0.5788369	-0.75947094	0.5473885
341218328362327	-0.63006383	-0.48069763	0.39518872
341218332939963	-0.8268281	-0.33093834	0.2131328
341218337883811	-1.1358516	-0.13029289	0.055887163
341218342827659	-1.406621	-0.038684845	-0.13458598
341218347771506	-1.8383514	0.01761055	-0.44089842
341218352715354	-2.237681	-0.01142025	-0.7959295
341218358025413	-2.580499	-0.21304321	-0.9474512
341218362603049	-2.8142319	-0.3704977	-1.0318316
341218367546897	-3.0244112	-0.51275253	-0.9797572
341218372490745	-3.1207204	-0.67857647	-0.9728214
341218377434592	-3.1603134	-0.67775345	-0.98083866
341218382378440	-3.1789484	-0.68877983	-0.96656907
341218387688499	-3.2163792	-0.4945364	-0.830148
341218392266135	-3.084833	-0.17348099	-0.743868
341218397209983	-3.007923	0.19080639	-0.688933
341218402153831	-2.9150858	0.5476427	-0.3978678
341218407097678	-3.0034928	0.8470812	-0.29431278
341218412041526	-3.0873995	1.0939131	-0.021325767
341218417351585	-3.2389522	1.1890821	0.12429857
341218421929221	-3.4726276	1.2802534	0.09723252
341218426873069	-3.593472	1.3981981	0.08456743
341218431816917	-3.6774065	1.5325994	0.046501696
341218436760764	-3.6676743	1.6691055	-0.020718277
341218441674094	-3.7401938	1.8123035	0.059984207
341218447075706	-3.9034839	1.9512014	0.0017926097
341218451592307	-4.009412	2.066411	-0.16289592
341218456536155	-4.029233	2.2244835	-0.2958268
341218461480002	-3.966663	2.312768	-0.48636138
341218466423850	-4.0137053	2.2908363	-0.38799572
341218471367698	-4.0246468	2.1801367	-0.23701036
341218476677756	-4.10087	2.0215244	-0.1572913
341218481255393	-4.0775633	1.7544584	-0.18738067
341218486199241	-4.150109	1.5988579	-0.31247997
341218491143088	-4.1886005	1.4710884	-0.5304458
341218496086936	-4.293172	1.459136	-0.6272551
341218501000266	-4.314151	1.4440279	-0.7861255
341218506340842	-4.3262215	1.558979	-0.7585206
341218510918479	-4.266045	1.6849918	-0.6386345
341218515862327	-4.173063	1.7934809	-0.36619085
341218520806174	-3.913678	2.0699167	0.036141098
341218525750022	-3.6733432	2.3285904	0.23093665
341218530663352	-3.2734065	2.733467	0.54704356
341218536003928	-2.8601253	3.043682	0.9780241
341218540581565	-2.4640255	3.3650064	1.2512954
341218545494895	-2.1438096	3.38945	1.3293357
341218550438743	-1.740356	3.5051994	1.1727424
341218555382590	-1.2440524	3.6195383	0.7574817
341218560326438	-0.80929995	3.9394207	0.33296722
341218565667014	-0.42765915	4.3662643	0.08638835
341218570214133	-0.21567202	4.8149424	0.084649324
341218575157981	-0.13353336	5.0970135	0.21146461
341218580101829	-0.05137956	5.3256254	0.8000497
341218585045676	-0.19266021	5.256198	1.4013155
341218589989524	-0.28174913	4.9988203	2.0231407
341218595299583	-0.43249357	4.572157	1.6005019
341218599877219	-0.4218421	4.115732	0.79340166
341218604821067	-0.011776209	3.8907175	0.2165959
341218609764915	0.4139328	3.7604704	-0.4508249
341218614708762	0.9041871	3.8535051	-0.6946422
341218619652610	1.5652481	4.283762	-0.7305879
341218624962668	2.2511857	4.84134	-0.59906334
341218629540305	2.917872	5.507861	-0.09716296
341218634484153	3.5383945	6.018339	0.72501475
341218639428001	3.866344	6.254236	1.6061436
341218644371848	3.9499083	6.234722	2.3642967
341218649285178	3.7911224	6.002681	2.7196987
341218654625754	3.6743	5.851183	2.9520044
341218659203391	3.4690564	5.5622196	2.9957552
341218664147239	3.3415828	5.2750273	2.646203
341218669091086	3.5132525	5.0508404	1.873349
341218674034934	3.430765	4.5708485	1.0675404
341218678948264	3.164276	4.189419	0.24490273
341218684288840	2.7338305	3.769436	-0.3226441
341218688866477	2.520456	3.6888514	-0.52405965
341218693810325	2.4449553	3.8117294	-0.5434028
341218698723655	2.0289285	3.8685293	-0.21609771
341218703698020	1.2022548	3.7505121	0.24756145
341218708611350	0.4433151	3.6624937	0.6004851
341218713951926	-0.04836911	3.466199	0.6576954
341218718499045	-0.6941806	3.1910458	0.71994054
341218723442893	-1.0741061	2.7914267	0.84650695
341218728386741	-1.2794594	2.3302526	1.2295495
341218733330588	-1.267024	1.850275	1.5386555
341218738274436	-1.1933383	1.3703613	1.9194798
341218743615012	-0.7098719	0.6596689	2.1095922
341218748253684	-0.3975922	-0.017043114	2.284189
341218753105979	0.1608305	-0.5429621	2.477615
341218758049827	0.63825667	-0.9808779	2.9531088
341218762993674	1.3203878	-1.3315849	3.3957882
341218767937522	1.5558028	-1.8115482	3.6562495
341218773247581	1.7988901	-2.2467203	3.4662163
341218777825217	1.9987676	-2.538309	3.490193
341218782769065	2.0769584	-2.7120752	3.563118
341218787712913	2.856921	-2.7259693	3.8196437
341218792656760	3.2754083	-3.0153732	4.27101
341218797570090	3.276268	-3.4753895	4.0559964
341218802880149	3.0075665	-3.6055822	4.64184
341218807457786	3.2769396	-3.7698345	4.275876
341218812401633	3.896857	-3.8006926	4.664632
341218817345481	5.184609	-3.748848	5.2537155
341218822258811	5.3859253	-3.9137897	5.3816533
341218827202659	4.888716	-4.275201	4.934307
341218832543235	7.021385	-5.597842	3.5622635
341218837120872	2.5878396	-4.9705105	4.1777806
341218842064719	0.98782825	-3.7333374	3.4739888
341218847039085	2.6316864	-3.5861359	1.7880669
341218851982932	2.3758647	-3.4350882	1.5027463
341218856926780	3.012719	-3.315649	1.3638077
341218862236838	2.474488	-4.1410513	1.8076622
341218866814475	1.9730396	-4.948163	2.3362274
341218871758323	1.8619087	-5.2014	2.422727
341218876702170	2.1754658	-4.9009895	2.142545
341218881646018	2.2589824	-4.7941294	2.1361442
341218886589866	2.3462608	-4.745019	2.1368008
341218891899924	2.690221	-4.6577873	2.1684968
341218896477561	2.9562564	-4.674659	2.2139332
341218901421409	3.0078151	-4.836632	1.947784
341218906365256	3.0229259	-5.127387	1.7366714
341218911309104	3.0941072	-5.3710384	1.5303302
341218916252952	3.0927687	-5.5582914	1.2904325
341218921563010	2.994305	-5.651884	0.9960213
341218926140647	2.6710045	-5.8136044	0.5676203
341218931084495	2.2864099	-5.9200716	0.17208815
341218936028342	2.0482516	-5.835121	0.0108857155
341218940972190	1.9228182	-5.6923885	-0.031066895
341218945916038	1.7887042	-5.3422623	0.026543379
341218951226096	1.4652698	-5.0201035	0.2499764
341218955803733	0.91339445	-4.7180967	0.5547757
341218960747581	0.39871156	-4.2433186	0.8407934
341218965691428	-0.11649108	-3.621006	1.0246127
341218970635276	-0.7225405	-2.8979597	0.93926144
341218975548606	-1.2808228	-2.1397457	0.4991188
341218980889182	-1.5353274	-1.315978	-0.37989688
341218985466819	-1.3031077	-0.48362446	-1.2104278
341218990410667	-1.219735	0.45823383	-1.88328
341218995354514	-1.2579072	1.3247261	-2.6181276
341219000298362	-1.4993658	2.5347166	-3.2503104
341219005211692	-1.5312259	3.9576235	-3.6763544
341219010552268	-1.2897681	5.4915285	-4.2980747
341219015129905	-1.126924	7.0146637	-4.9299965
341219020043235	-0.9407633	8.551224	-6.005638
341219025017600	-0.7435334	9.839284	-7.0093966
341219029961448	-0.81385434	10.439168	-7.76941
341219034874778	-0.90836763	10.4262295	-7.5096397
341219040215354	-1.0562968	10.418401	-6.440959
341219044762473	-1.1766248	9.108677	-5.1330004
341219049767356	-1.4621139	7.4470034	-3.863097
341219054650168	-2.1269732	5.793707	-2.9410307
341219059594016	-2.5514817	4.2673006	-1.9345882
341219064537864	-3.0738287	2.812129	-1.259449
341219069878440	-3.0582266	1.5023975	-0.91904044
341219074425559	-2.8018832	0.43392277	-0.2392819
341219079369407	-2.2503653	-0.502018	-0.17731905
341219084313254	-1.3658612	-1.7748861	-1.9336395
341219089257102	-2.2255454	-0.7432575	-3.587651
341219094200950	-1.7011802	0.3089943	-4.081563
341219099511008	-1.3238816	1.003129	-2.9488618
341219104088645	-1.192857	1.3925571	-1.3291965
341219109032493	-1.0576174	1.514844	-0.2567277
341219113976340	-1.486174	1.4280186	0.45528293
341219118920188	-1.5643598	1.4301462	0.5194521
341219123864036	-0.37675238	1.7589054	0.51280427
341219129174094	0.963815	2.210868	0.6846845
341219133751731	2.3987236	2.6798468	1.0624986
341219138695579	3.4910617	3.1774788	1.8464887
341219143639426	4.7866826	3.6966763	3.057962
341219148583274	5.6687136	3.8783522	4.097
341219153527122	6.7143793	3.9684277	5.001006
341219158837180	7.6603603	4.037447	5.579876
341219163384299	8.133836	4.0879	6.7607937
341219168328147	8.56451	4.3718424	8.595278
341219173271995	8.357481	4.3261633	7.5218253
341219178215842	7.68369	3.781639	3.5086079
341219183159690	5.21037	2.4532986	-1.1046705
341219188500266	3.554858	1.3916731	-4.117091
341219193077903	2.3882556	0.5180998	-4.748433
341219198021751	1.6269807	-0.057030678	-3.390056
341219202965598	1.29792	-0.5687027	-1.6668613
341219207909446	1.2147875	-0.916831	-0.24824691
341219212822776	1.3056455	-1.2852478	0.73619866
341219218163352	1.1839347	-1.7201052	1.5809557
341219222740989	1.1927698	-1.7069893	2.65563
341219227684836	0.96639884	-1.6678448	3.2466798
341219232628684	0.39866537	-1.8231878	4.3470335
341219237572532	0.06892353	-1.9508305	5.7703934
341219242485862	0.073203266	-2.045535	7.111882
341219247826438	0.5259121	-1.945611	8.049565
341219252373557	1.0849423	-1.7982321	8.428599
341219257317405	1.5537548	-1.2839432	8.573486
341219262261252	2.0275214	-0.81383324	8.073621
341219267205100	2.0622432	-1.1742535	7.4793806
341219272148948	2.7692266	-1.3678341	7.066054
341219277459006	2.9492028	-1.348567	6.2984104
341219282036643	2.9729106	-1.1150732	5.0208044
341219286980491	2.9605267	-0.7286682	3.2911458
341219291924338	2.765373	-0.21233845	1.7792841
341219296868186	2.5323682	0.34291363	0.7100824
341219301812034	2.206333	0.7058716	0.2790507
341219307152610	1.8751696	1.0871639	0.38606393
341219311699729	1.3682295	1.1058989	0.63003564
341219316643577	0.81293225	1.0192871	0.8156892
341219321587424	0.28853282	0.94236183	0.9329181
341219326531272	0.046054065	0.92988205	1.0015937
341219331475120	-0.2366907	0.867712	1.2005854
341219336815696	-0.080002755	0.8551569	0.9162977
341219341362815	-0.0909023	0.39017105	0.34088862
341219346306663	-0.061830834	-0.10069084	0.08690792
341219351342063	-0.031762943	-0.6215458	0.10847914
341219356194358	-0.064010605	-1.1743011	0.52593654
341219361138206	-0.1864094	-1.897171	1.0402236
341219366478782	-0.053896204	-2.52392	1.5403348
341219371025901	0.15014037	-2.9819489	2.56561
341219375969749	0.17671956	-3.334525	3.5167236
341219380913596	0.15592417	-3.6597795	3.8084617
341219385857444	0.31074956	-3.824624	3.5587764
341219390801292	0.42881978	-3.6866608	3.3008468
341219396141868	0.33824185	-3.5816536	2.413361
341219400688987	0.124752045	-3.25488	2.0606487
341219405632835	0.023961127	-2.7782698	1.0055809
341219410576682	-0.1557854	-2.1518898	0.5557796
341219415520530	-0.5562929	-1.6825933	0.5956756
341219420464377	-0.8222611	-1.2774467	0.68964905
341219425804954	-1.071704	-0.86247826	0.5605865
341219430352073	-1.1492481	-0.61656284	0.41594237
341219435295920	-1.5809687	-0.5627527	0.043021798
341219440270286	-1.6114674	-0.39429855	-0.30413878
341219445183616	-1.6852021	-0.437109	-0.42522654
341219450127463	-1.3707504	-0.3651228	-0.5118531
341219455468040	-1.0674927	-0.40151882	-0.32724842
341219460045676	-1.0345786	-0.4691248	0.16347778
341219464959006	-1.1389675	-0.64518356	0.3134131
341219469933372	-1.4506426	-0.77782726	0.3833874
341219474846702	-1.7965937	-0.86974335	0.039681554
341219479790549	-2.1611624	-0.90425587	-0.40912688
341219485131126	-2.4628234	-0.8594713	-0.7471238
341219489678245	-2.735087	-0.86806107	-1.0571882
341219494622092	-3.0244784	-1.0137901	-1.3058465
341219499565940	-3.2454066	-1.1235723	-1.2868983
341219504509788	-3.4550433	-1.1760921	-1.1693788
341219509453635	-3.5466516	-1.2380018	-1.0911314
341219514794211	-3.567605	-1.104145	-1.1392667
341219519371848	-3.5779524	-0.985837	-1.04321
341219524285178	-3.498591	-0.7456951	-0.9480912
341219529259543	-3.3913174	-0.4151392	-0.85345215
341219534172874	-3.300252	0.015083313	-0.6452745
341219539116721	-3.2619376	0.44758224	-0.3506894
341219544457297	-3.3226018	0.86173534	-0.10031158
341219549034934	-3.2089467	1.3836136	0.23926002
341219553948264	-3.2478724	1.7750988	0.22334123
341219558922629	-3.48591	2.1164885	0.039816797
341219563835960	-3.6503534	2.3765278	-0.15746635
341219568779807	-3.9321618	2.4697866	-0.25635028
341219574120383	-4.5077887	2.3138742	-0.31212533
341219578698020	-4.37824	2.246501	-0.4275961
341219583611350	-4.105241	2.1341476	-0.44943535
341219588555198	-3.802479	2.01412	-0.40932345
341219593499045	-3.6543388	1.7696905	0.039661527
341219598442893	-3.6408901	1.4912243	0.64926755
341219603783469	-3.6902256	1.1458988	1.1122653
341219608330588	-3.7294161	0.9013958	1.2063276
341219613274436	-3.7935221	0.7232237	0.97044694
341219618218284	-3.8382447	0.58494663	0.34216607
341219623162131	-3.780671	0.7029772	-0.32441986
341219628105979	-3.9087086	0.9106569	-0.6708274
341219633416038	-3.8926249	1.2246494	-1.0961745
341219637993674	-3.989184	1.5161905	-1.4155326
341219642937522	-3.9840176	1.8663235	-1.749996
341219647881370	-3.940833	2.3177414	-1.4039878
341219652886252	-3.74096	2.6444206	-0.84355986
341219657769065	-3.4246905	2.827361	-0.013569713
341219663079124	-2.927165	3.1420155	0.36889142
341219667656760	-2.3844397	3.3200178	0.4932834
341219672600608	-1.9276443	3.4628677	0.32966727
341219677544456	-1.5923994	3.5732813	0.06871188
341219682488303	-1.2858757	3.6490746	-0.3615334
341219687432151	-1.091383	3.9567175	-0.545339
341219692742210	-0.9802748	4.1814795	-0.7221409
341219697319846	-0.8979194	4.6038876	-0.6995784
341219702263694	-0.9340137	4.8244324	-0.4451145
341219707207542	-0.87463844	4.896558	-0.10690725
341219712151389	-0.8576319	4.7658854	0.40360922
341219717064719	-0.95921016	4.3996353	0.82941926
341219722405295	-1.0023017	3.8779678	1.211307
341219726982932	-1.0525745	3.3377275	1.6700389
341219731926780	-0.93646026	2.771471	1.4710907
341219736870627	-0.790792	2.3637505	0.90341896
341219741783958	-0.25537825	2.1647253	0.25341123
341219746727805	0.2846061	2.169526	-0.39371526
341219752068381	0.8727875	2.372899	-0.66324556
341219756615501	1.5836939	2.8760471	-0.67231274
341219761559348	2.2967012	3.6080885	-0.34112173
341219766503196	2.9646459	4.3457117	-0.057412088
341219771447043	3.6330023	5.0603	0.8016351
341219776390891	4.052529	5.7089863	1.6074371
341219781700950	4.5183578	6.123206	2.0864704
341219786278586	4.63962	6.1477947	2.0450745
341219791222434	4.4375625	5.938325	1.8184742
341219796166282	4.2453823	5.6825285	1.6983633
341219801110129	4.276431	5.5633993	1.5604469
341219806023460	4.391552	5.5140686	1.4566076
341219811364036	4.3628426	5.185746	0.99172854
341219815941672	4.054238	4.712187	0.60695124
341219820855002	3.6326413	4.1430635	0.036620975
341219825798850	3.3815556	3.90127	-0.08308053
341219830742698	2.9597476	3.679738	0.06902075
341219835686545	2.6883411	3.4524136	0.13172615
341219841027122	2.1635082	3.3062916	0.32578278
341219845574241	1.4353659	3.24994	0.7180246
341219850518088	0.62690055	3.0661163	0.68492687
341219855461936	-0.098199785	2.7993565	0.6622157
341219860405784	-0.7789594	2.3120642	0.42924058
341219865349631	-1.2553593	1.8707495	0.6756542
341219870659690	-1.2818336	1.2918348	0.84538317
341219875237327	-1.2285082	0.85886574	1.2420852
341219880181174	-0.931924	0.35897923	1.4266973
341219885125022	-0.43432617	-0.13172626	1.707619
341219890068870	0.0043143034	-0.76803684	1.6570365
341219895012717	0.3554212	-1.2551174	2.0625722
341219900322776	0.6744149	-1.4693146	2.7544289
341219904900413	1.1406403	-1.521369	3.2350833
341219909844260	1.4888737	-1.8241367	3.3589358
341219914788108	1.62919	-2.161149	3.0630417
341219919731956	1.6739507	-2.3897667	2.7803211
341219924645286	1.7868619	-2.4916325	3.0967064
341219929985862	1.9554157	-2.3778238	3.7296927
341219934563499	2.2051675	-2.3202057	3.743461
341219939507346	2.5183709	-2.2927246	3.9785597
341219944451194	2.6760535	-2.4386005	3.754232
341219949364524	2.8967133	-2.4299488	3.8952744
341219954369407	3.2714596	-2.4065132	4.05801
341219959648948	3.3540728	-2.4692907	3.9193897
341219964196067	3.6322079	-2.4483395	3.664658
341219969139915	4.1708508	-2.3775291	3.6784346
341219974083762	4.4825077	-2.445633	2.8287363
341219979027610	4.451893	-2.9378586	2.9938889
341219983971458	4.6079903	-3.8252716	4.0434504
341219989281516	6.0802717	-5.083308	3.2343686
341219993859153	2.6218495	-4.7101974	3.0606823
341219998803001	1.519094	-3.989417	1.9407694
341220003746848	1.915235	-3.9095726	1.4973164
341220008690696	1.7856357	-3.7860746	1.5514088
341220013634543	2.6926904	-3.711793	1.2069492
341220018975120	2.3576632	-4.2913036	1.5045781
341220023522239	1.9249094	-5.2282686	1.9788308
341220028466086	1.9640183	-5.8196497	1.9119244
341220033409934	2.2751634	-6.0197687	1.6602836
341220038353782	2.4270806	-6.114563	1.2338371
341220043297629	2.6745157	-6.1233006	0.68240786
341220048607688	2.817504	-6.0824337	0.3986621
341220053185325	2.5785942	-6.1044226	0.20320368
341220058129172	2.2726731	-6.1081905	0.056765556
341220063073020	1.9004841	-6.1096153	-0.27660036
341220068016868	1.8377292	-5.954108	-0.70166254
341220072930198	1.4287853	-5.926815	-0.37923145
341220078240256	1.3377342	-5.6760607	-0.29080153
341220082817893	1.1223876	-5.4313545	0.19933462
341220087761741	0.8038173	-5.114811	0.7674959
341220092675071	0.38658047	-4.717798	1.2976265
341220097618918	0.06234169	-4.1140366	1.7336679
341220102562766	-0.17631245	-3.468978	2.0139627
341220107903342	-0.23542094	-2.62144	2.1443267
341220112480979	-0.30574512	-1.873663	1.7992857
341220117424827	-0.48818088	-0.942873	1.2807751
341220122368674	-0.8098173	-0.09158039	0.7380552
341220127343040	-0.9136318	0.9157629	0.07638383
341220132256370	-0.9356495	2.1321354	-0.5955956
341220137596946	-0.9514332	3.2546873	-1.6368473
341220142174583	-1.0370383	4.3840714	-2.5373583
341220147087913	-1.2096704	5.4876842	-3.8111987
341220152062278	-1.4729246	6.348833	-5.357136
341220156975608	-1.7374288	6.8780727	-6.7081223
341220161919456	-2.2657156	7.301074	-6.96972
341220167260032	-2.7298975	7.469475	-6.4333744
341220171807151	-2.919624	7.401946	-5.6423388
341220176750999	-2.7143703	6.887659	-4.765645
341220181694846	-2.4424627	6.0203905	-3.7710114
341220186638694	-2.253097	4.8838196	-3.1689775
341220191582542	-2.2189837	3.6898508	-2.561604
341220196892600	-2.2022133	2.5982351	-2.0643673
341220201470237	-2.3702283	1.5635252	-1.660913
341220206414085	-2.268735	0.7131758	-1.2788837
341220211357932	-1.9372959	0.031241417	-1.2895811
341220216301780	-1.3611155	-0.47356987	-1.703088
341220221245627	-0.84320974	-0.43823338	-2.57224
341220226555686	-0.41817832	-0.14120102	-3.7793384
341220231133323	0.14230645	0.48504257	-4.5382347
341220236077170	0.34781992	0.85466766	-4.3945007
341220241021018	0.6589112	1.2377138	-3.0179086
341220245964866	1.1293586	1.6533079	-1.2898631
341220250908713	1.3812046	1.8833828	-0.036404848
341220256279807	1.5768584	2.4901552	0.43378305
341220260796409	1.7397015	3.233554	0.31880283
341220265740256	2.244935	3.683136	-0.24339366
341220270684104	3.014156	3.4536037	-1.192311
341220275597434	3.9552345	2.9275837	-1.6473942
341220280541282	4.8680525	2.4748068	-1.0807252
341220285881858	5.7088184	2.2070055	0.25322342
341220290428977	6.2394776	2.0792665	2.0784166
341220295372825	6.767061	2.236063	3.5941546
341220300316672	7.6238317	2.7490692	4.3799086
341220305260520	8.270636	3.5246944	5.2566304
341220310173850	8.406488	4.3316965	5.4655747
341220315514426	7.758148	5.0367594	5.047752
341220320092063	6.1428623	5.1987505	4.2937336
341220325035911	4.1896276	4.8479576	3.8833492
341220329979758	2.467092	4.328162	3.3110936
341220334923606	1.2789234	3.6292534	2.632296
341220339867454	0.79913306	3.0569458	1.9415078
341220345177512	0.8181749	2.6784573	1.710001
341220349755149	1.3153267	2.4068356	1.6535003
341220354698997	1.5139065	1.8955889	1.804925
341220359642844	1.3375226	0.9755497	1.7957902
341220364586692	1.1046215	0.05326271	1.9716103
341220369530540	0.8359721	-0.65991783	2.5592468
341220374840598	0.6293845	-1.3105164	3.2581067
341220379418235	0.40483046	-1.8750267	4.412245
341220384362083	0.40922666	-2.3027267	5.3947954
341220389305930	0.5632	-2.5843792	5.900037
341220394249778	0.90740716	-2.7550287	6.2665358
341220399163108	1.1904174	-2.8233624	6.7145686
341220404503684	1.5435995	-2.9337463	6.866147
341220409081321	0.6652479	-3.3003225	7.1211324
341220414025168	1.080012	-2.9700632	6.796625
341220418969016	1.5167185	-2.3625422	5.992158
341220423912864	1.8523101	-1.7086983	4.8922176
341220428826194	2.4676204	-0.91111565	3.7010355
341220434166770	2.7136602	-0.10472584	2.88092
341220438744407	2.546475	0.5285702	2.3308625
341220443688254	2.4457235	1.0661173	1.8262904
341220448632102	2.0323615	1.3971624	1.58131
341220453545432	1.5577527	1.1866398	0.93364286
341220458489280	1.3281538	1.038827	0.52907777
341220463829856	1.1589574	0.76742935	0.35037315
341220468407493	1.325064	0.86225605	0.62980545
341220473320823	1.0422157	0.3791895	0.24827611
341220478264670	0.96689403	-0.06704712	0.29752886
341220483208518	1.0457823	-0.44550228	0.40734535
341220488152366	0.9995646	-0.7752266	0.7855364
341220493492942	1.1371288	-1.2421598	0.7298857
341220498040061	1.4244353	-1.5832157	1.0056967
341220502983909	1.1343567	-2.441842	1.2600303
341220507927756	0.93024945	-3.1821728	1.8943388
341220512871604	1.0078604	-3.48345	2.7949862
341220517815452	1.0232003	-3.85505	2.8968046
341220523125510	0.99488676	-4.199607	2.6809638
341220527703147	0.94719833	-4.2053385	2.4318428
341220532646995	0.69580716	-4.110837	2.331189
341220537590842	0.51481235	-3.7068853	2.1137161
341220542534690	0.24295714	-3.1769152	1.5602437
341220547478538	-0.28996253	-2.6874876	1.1201546
341220552788596	-0.8014372	-2.1504822	1.000883
341220557427268	-1.2276721	-1.6494389	1.0222944
341220562310081	-1.6184123	-1.1769724	1.0398867
341220567253928	-2.0000968	-0.71170425	0.7918916
341220572180548	-2.081918	-0.3939352	0.46936557
341220577093878	-2.3939366	-0.13317013	-0.020455778
341220582434454	-2.377463	0.002111435	-0.3705758
341220587012091	-2.3888052	0.058626175	-0.75153303
341220591955939	-2.221872	0.10404301	-0.992841
341220596869269	-1.9581356	0.25213814	-0.34427303
341220601813116	-1.9284167	0.24840164	0.23778093
341220606756964	-2.059943	0.15224934	0.47009957
341220612097540	-2.4512107	-0.073898315	-0.03591448
341220616644659	-2.822207	-0.24139309	-0.73109484
341220621588507	-3.2283127	-0.42248917	-1.3080187
341220626532355	-3.6818585	-0.70799446	-1.5015731
341220631476202	-4.076248	-1.021656	-1.3984149
341220636420050	-4.3220415	-1.2183685	-1.2176602
341220641760626	-4.433262	-1.3119669	-1.0846775
341220646307745	-4.6391797	-1.4349136	-0.90668815
341220651251593	-4.7156034	-1.488059	-0.67246306
341220656195440	-4.594987	-1.4838428	-0.47842282
341220661139288	-4.3751903	-1.2891302	-0.14437264
341220666083136	-4.0824604	-1.0182018	0.12197161
341220671393194	-3.7844467	-0.6990156	0.1307627
341220675970831	-3.5485976	-0.3620081	0.045731664
341220680914679	-3.3757746	-0.048067093	0.023221433
341220685858526	-3.2169385	0.2588663	-0.073450446
341220690802374	-3.1599464	0.46131897	-0.16795051
341220695715704	-3.1688185	0.5070076	-0.24749386
341220701056280	-3.1361094	0.5658655	-0.41871512
341220705633917	-2.96525	0.6730881	-0.4440112
341220710577765	-2.8593614	0.8381157	-0.58658695
341220715491095	-2.819188	1.0763998	-0.7687371
341220720434942	-2.842441	1.3592281	-0.88753283
341220725378790	-2.7762122	1.662508	-0.5714003
341220730719366	-2.701909	1.9083738	-0.061998844
341220735266485	-2.5454302	1.9495535	0.42963672
341220740210333	-2.4819875	1.9523888	0.5837823
341220745154181	-2.3985448	1.8496599	0.31518638
341220750098028	-2.3330317	1.8317823	-0.12715864
341220755041876	-2.266572	1.8940096	-0.3777622
341220760382452	-2.2770247	2.0080843	-0.5440868
341220764929571	-2.4213812	2.1419992	-0.7400013
341220769873419	-2.5567427	2.249035	-1.1098332
341220774817267	-2.6960921	2.3312788	-1.2892553
341220779761114	-2.8801165	2.4268293	-1.478043
341220784704962	-2.9688232	2.4858189	-1.4883982
341220790015021	-3.0199542	2.5677338	-1.1698661
341220794592657	-2.9542427	2.572836	-0.69407976
341220799536505	-2.8056211	2.6839209	-0.22866333
341220804480353	-2.4714923	2.677291	0.014962554
341220809424200	-2.1347098	2.7359943	0.118783
341220814368048	-1.8065739	2.838482	0.46817362
341220819678107	-1.5924627	2.9223614	0.7300885
341220824255743	-1.4833176	3.006031	0.5766549
341220829199591	-1.3444076	3.1044674	0.067109466
341220834143439	-1.1865728	3.41574	0.02803725
341220839087286	-1.1761104	3.6947966	-0.1307702
341220844000616	-1.1773051	4.0416327	-0.10466862
341220849341192	-1.1620351	4.2244024	-0.018046737
341220853888312	-1.2030009	4.377449	0.22254193
341220858923712	-1.2160845	4.4521837	0.5117401
341220863776007	-1.1822902	4.329648	0.92785347
341220868719855	-1.210171	4.0047894	1.3707951
341220873663702	-1.1656821	3.5379534	1.5514855
341220879004278	-0.9387506	3.019041	1.2074199
341220883551398	-0.53811073	2.7276182	0.5006267
341220888495245	0.052137375	2.6391506	-0.14999565
341220893439093	0.8242816	2.9164248	-0.74396366
341220898382940	1.8369241	3.4782486	-1.16719
341220903326788	2.8446417	4.1887093	-1.17653
341220908636847	3.8092403	4.9593515	-0.9360374
341220913214483	4.075998	5.6027975	0.14401156
341220918158331	4.436494	6.1827507	0.99296564
341220923102179	4.8592772	6.61156	1.72488
341220928046026	5.0085077	6.727727	1.9000704
341220932959357	4.79112	6.6456347	1.7226574
341220938299933	4.684711	6.380291	1.6858956
341220942877569	4.387593	6.0536966	1.6452829
341220947790899	4.3825607	5.757598	1.3589195
341220952734747	4.216512	5.2750845	0.98780406
341220957678595	3.868345	4.794077	0.45324385
341220962622442	3.3986294	4.0839567	0.08622086
341220967963019	3.0181673	3.559803	-0.40472674
341220972510138	2.964128	3.358595	-0.49751925
341220977453985	2.8811517	3.335703	-0.22925544
341220982397833	2.3774023	3.1310396	0.19247139
341220987341681	1.5689749	2.9520302	0.41644943
341220992285528	0.64915633	2.6588602	0.43479133
341220997595587	-0.11202115	2.3250341	0.38352776
341221002173224	-0.52017057	1.8670511	0.5625297
341221007117071	-0.7944423	1.6347942	1.2881144
341221012060919	-0.7262336	1.4262075	1.4523926
341221017004767	-0.74321556	0.8653507	1.7124991
341221021918097	-0.5474522	0.33738804	1.8068304
341221027258673	-0.11730981	-0.21424961	1.8244846
341221031836310	0.16565895	-0.8383312	2.2262902
341221036780157	0.28435826	-1.337018	2.728311
341221041724005	0.6118152	-1.6083899	3.0121114
341221046667853	1.1599512	-1.8761463	3.1973
341221051581183	1.4458959	-2.1570349	3.3434393
341221056921759	1.4499767	-2.385457	3.495043
341221061468878	1.5467284	-2.5713463	3.606035
341221066412726	1.8432481	-2.6364822	3.7908623
341221071356573	2.3628082	-2.8246117	3.9224043
341221076300421	2.6006384	-3.0168962	4.32413
341221081244269	3.0299897	-3.168169	4.6394777
341221086584845	3.2246308	-3.3985958	3.9316397
341221091131964	3.2291744	-3.7137594	3.546469
341221096075812	3.779473	-3.7564735	3.2027528
341221101019659	4.825849	-3.8993273	3.3182974
341221105963507	4.7613983	-4.2491913	3.701775
341221110876837	5.030692	-5.041356	3.0924463
341221116217413	4.7342944	-6.423711	3.1849763
341221120795050	0.967571	-5.384302	3.178429
341221125738898	2.5082853	-4.090749	2.0027387
341221130682745	2.433442	-3.9594746	1.330622
341221135626593	2.385735	-3.959692	1.4851613
341221140539923	2.003765	-4.5192776	1.5316377
341221145880499	1.8629758	-4.912364	1.5117548
341221150458136	1.5794945	-5.23368	1.5910869
341221155401983	1.9640751	-5.033331	1.7335286
341221160406866	2.2391784	-4.805747	1.8708844
341221165259161	2.3089666	-4.6560802	1.8086648
341221170203009	2.3585541	-4.709464	2.0271344
341221175543585	2.2649882	-4.894082	2.3493543
341221180121222	2.2516723	-5.199088	2.4449625
341221185034552	2.2685757	-5.4402876	2.380427
341221189978399	2.2816167	-5.7226124	2.1187005
341221194922247	2.1103525	-5.9438925	1.6952639
341221199866095	2.1378179	-6.05927	1.2167292
341221205206671	1.9510031	-6.179694	0.8369694
341221209753790	1.5911729	-6.22532	0.4963565
341221214697638	1.4243388	-6.103178	0.20977163
341221219641485	1.0692632	-6.0663757	-0.058287144
341221224585333	0.92311406	-5.755786	-0.24624252
341221229529181	0.621747	-5.642318	-0.3613329
341221234839239	0.4334731	-5.4003534	-0.29530287
341221239416876	0.09268975	-5.063217	-0.012891293
341221244360724	-0.18822575	-4.5114202	0.040024042
341221249304571	-0.4161998	-3.8432798	0.15934587
341221254248419	-0.5483091	-2.9080267	0.166188
341221259192267	-0.80494547	-2.0304976	-0.06338835
341221264532843	-1.348846	-1.1133795	-0.70887876
341221269079962	-1.9046887	-0.18048286	-1.6540947
341221274023810	-2.0084295	0.66253185	-2.2723382
341221278967657	-2.244217	1.5693474	-2.7533064
341221283911505	-2.6774786	2.7969751	-3.1866462
341221288855353	-2.3232489	4.5667	-3.356605
341221294165411	-2.222333	6.9006042	-3.677482
341221298743048	-1.6702279	9.41946	-4.2465014
341221303686896	-1.6626401	10.445037	-5.469015
341221308630743	-1.8781126	10.427292	-7.5493345
341221313574591	-2.5285869	10.417681	-9.146283
341221318518439	-2.8187945	10.414966	-9.451223
341221323828497	-2.9133995	10.418098	-8.387683
341221328406134	-2.9117665	8.767213	-6.923689
341221333349982	-2.838743	6.558696	-5.1894884
341221338293829	-2.567411	4.4713984	-3.8516452
341221343237677	-2.719795	2.5332413	-2.375059
341221348181524	-2.253017	0.81050205	-1.5651817
341221353491583	-1.7129624	-0.60076237	-1.166004
341221358069220	-0.34004617	-2.001255	-0.90113497
341221363013067	1.4556892	-3.4493332	-1.5269125
341221367926398	-0.5386058	-2.0290298	-3.156144
341221372870245	0.20176446	-0.38348866	-3.6092904
341221377814093	1.0943573	0.8698616	-2.8031442
341221383154669	0.53562224	1.5483637	-1.1636522
341221387701788	0.5615045	1.9466887	-0.33243752
341221392645636	1.4068676	2.6447992	0.2863946
341221397589483	1.641518	3.179183	0.64033866
341221402563849	2.036717	3.6548538	1.2103646
341221407507696	2.4752927	3.9573994	2.1048515
341221412817755	3.008308	4.1956215	2.8195035
341221417395392	4.1790996	4.5603256	3.3244588
341221422339239	5.1974936	4.823615	3.9997911
341221427283087	6.4529696	4.911767	4.187269
341221432226935	7.343217	4.439907	3.8209972
341221437140265	8.32107	3.8940134	4.1761036
341221442480841	9.103443	3.8710337	5.331107
341221447027960	8.881845	3.8157349	7.22106
341221451971808	7.716014	3.796298	7.843103
341221456915655	6.3115993	3.4373446	4.0945263
341221461951056	4.6023474	2.6668072	-0.2094202
341221466803351	2.8887465	1.9035606	-2.466124
341221472143927	1.4861937	1.2053204	-2.4711173
341221476721564	0.77703464	0.6767521	-0.825413
341221481665411	0.6328628	0.7610874	0.17364883
341221486609259	0.37055075	0.56384945	0.9416313
341221491522589	0.43531227	0.77662563	1.1421099
341221496466437	0.8228344	0.086722374	2.2545176
341221501807013	0.7342429	-0.98006725	4.2240553
341221506384649	0.39456236	-1.6307583	5.4447784
341221511297980	0.32911134	-2.2650852	6.7628756
341221516241827	0.37977803	-2.732749	7.5882735
341221521185675	0.53673697	-2.9688911	7.7989416
341221526129523	0.7881156	-3.1183853	7.730788
341221531470099	0.972517	-3.266489	7.2682447
341221536017218	0.8649155	-3.3825998	6.5988245
341221540961065	1.3492072	-3.174038	6.173794
341221545904913	1.79348	-2.724743	5.8829303
341221550848761	2.5541418	-2.0753984	4.9942865
341221555792608	3.4615614	-1.2093678	4.1101933
341221561133185	3.9554229	-0.5657778	3.4091678
341221565680304	4.016301	0.06538105	2.8726463
341221570624151	3.4852035	0.40810204	2.5900984
341221575567999	3.0483172	0.71392536	2.3187692
341221580511847	2.5473533	0.9874821	2.0768304
341221585455694	1.8712063	1.0551071	1.9968536
341221590765753	1.3207831	1.0538559	1.8353326
341221595343390	0.75427455	0.96752644	1.5818566
341221600287237	0.4651308	0.76004314	1.249403
341221605231085	0.17524734	0.56077766	0.93357
341221610174933	-0.030160964	0.2769289	0.6674334
341221615118780	-0.3131986	-0.067676544	0.41277087
341221620428839	-0.46719489	-0.44505405	0.05006957
341221625006476	-0.5792191	-0.7939453	0.059767365
341221629950323	-0.61086524	-1.4038153	-0.11182803
341221634894171	-0.5539249	-1.8981066	0.3238166
341221639807501	-0.5687047	-2.488511	0.90354234
341221644751349	-0.16927081	-3.0632544	1.0634725
341221650091925	0.34570783	-3.4396114	1.4698384
341221654639044	0.5859118	-3.7880993	2.4637768
341221659582892	0.59349984	-4.0597706	2.8423429
341221664526739	0.82988316	-3.9382095	3.065723
341221669470587	0.91440725	-3.7686148	2.9177365
341221674414435	0.7481032	-3.5486603	2.4556522
341221679724493	0.27133474	-3.2855492	2.0464158
341221684302130	-0.11807647	-2.9698095	1.6972271
341221689245978	-0.58595276	-2.6039152	1.2581494
341221694189825	-1.1374874	-2.2164726	0.92093
341221699133673	-1.5157545	-1.8265371	0.5712381
341221704047003	-2.0320547	-1.5577621	0.31382325
341221709387579	-2.1186843	-1.1362772	0.06300686
341221713965216	-2.2921963	-0.8079767	-0.25116956
341221718909064	-2.3566966	-0.59569645	-0.6823478
341221723852911	-2.1796718	-0.4163189	-0.82295394
341221728796759	-1.90178	-0.26502514	-0.64232576
341221733710089	-1.6985593	-0.27497005	-0.40387943
341221739050665	-1.6872317	-0.39542007	-0.50063384
341221743597784	-1.6872611	-0.52350616	-0.63554883
341221748572149	-1.8070295	-0.59329605	-1.0396881
341221753515997	-2.0068727	-0.6579075	-1.3974745
341221758429327	-2.2080374	-0.71977806	-1.62356
341221763434210	-2.4474883	-0.8714647	-1.6644306
341221768713751	-2.793695	-0.9865465	-1.5309528
341221773260870	-3.0293941	-1.0218534	-1.4224226
341221778204718	-3.2686062	-1.2012444	-1.2571889
341221783148565	-3.4612923	-1.3160553	-1.2951975
341221788092413	-3.5743632	-1.2807341	-0.87600005
341221793036261	-3.669887	-1.2095184	-0.5739077
341221798346319	-3.5596485	-0.909008	-0.32708102
341221802923956	-3.4144745	-0.4460001	-0.057295144
341221807867804	-3.4132495	-0.0036735535	-0.003738463
341221812811651	-3.4017072	0.54798126	0.023034751
341221817755499	-3.4035447	1.0043802	-0.09587389
341221822699347	-3.4567802	1.3893795	-0.18382359
341221828009405	-3.7244315	1.6564169	-0.34946018
341221832587042	-3.8977194	1.9522638	-0.39510667
341221837530890	-3.8956027	2.2939568	-0.27021635
341221842474737	-3.7619328	2.5826998	-0.17487633
341221847418585	-3.6579938	2.8205938	0.023239255
341221852331915	-3.5040998	2.9502163	0.36056244
341221857672491	-3.3556416	2.910634	0.6525184
341221862219610	-3.2894905	2.832446	0.73497736
341221867163458	-3.2740405	2.6609154	0.6904161
341221872107306	-3.429384	2.4381933	0.69688857
341221877051153	-3.5723147	2.1810112	0.6967902
341221881995001	-3.6626954	2.046358	0.64251554
341221887335577	-3.735299	1.9130363	0.2663746
341221891882696	-3.6707778	1.9589777	-0.13895345
341221896826544	-3.655206	2.1344357	-0.75910044
341221901770392	-3.6166422	2.3632517	-1.1627878
341221906714239	-3.5007865	2.7501116	-1.2009797
341221911658087	-3.4125931	2.964407	-0.81683755
341221916998663	-3.2469041	3.2009153	-0.3411075
341221921545782	-3.037036	3.4059486	0.06497252
341221926489630	-2.6802902	3.590088	0.55086523
341221931433478	-2.1629913	3.8891764	1.0533808
341221936377325	-1.6557612	4.0390625	1.1806545
341221941321173	-1.3932569	4.05892	0.8190064
341221946661749	-1.1579643	4.200083	0.53601676
341221951208868	-1.004095	4.41329	0.21593034
341221956152716	-0.86737216	4.7454653	0.061771512
341221961096564	-0.8343657	4.905299	0.090303004
341221966040411	-0.836069	4.933585	0.29953432
341221970984259	-0.6204853	4.837796	0.5713326
341221976294317	-0.5534533	4.5862255	0.7770937
341221980871954	-0.56999123	4.182864	1.1104164
341221985815802	-0.6560327	3.6674309	1.4953942
341221990759649	-0.63239276	3.189167	1.0812641
341221995703497	-0.3337729	2.972002	0.11087248
341222000647345	0.13381946	2.9566326	-0.48460615
341222005957403	0.70989823	3.0807047	-0.77713305
341222010535040	1.334245	3.3745823	-1.0331779
341222015478888	2.2346563	3.905221	-1.0208594
341222020422735	2.9635916	4.5564137	-0.84315956
341222025336065	3.5445712	5.22808	-0.12822562
341222030279913	4.2667766	5.927225	0.5345934
341222035589972	4.8684626	6.468623	1.4611864
341222040167608	4.8469276	6.551588	2.0548444
341222045111456	4.70859	6.4272203	2.453861
341222050055304	4.7235556	6.299732	2.3955197
341222054968634	4.555384	6.0547905	2.2432814
341222059912482	4.4220986	5.8185196	1.8580128
341222065314093	4.3595443	5.5705643	1.4037924
341222069800177	4.130903	5.114605	0.9675908
341222074744024	3.767472	4.6826305	0.4523101
341222079687872	3.347416	4.3709097	0.22907043
341222084631720	3.0537238	4.224495	0.25979507
341222089575567	2.648478	4.2361546	0.16205406
341222094885626	2.2341518	4.293268	0.41640198
341222099463263	1.6535381	4.3610573	0.71553254
341222104407110	0.46714997	4.0210714	0.83403707
341222109350958	-0.45388067	3.6437626	0.7959125
341222114294806	-1.082674	3.1129427	0.52138686
341222119208136	-1.3844045	2.8873959	0.92113495
341222124548712	-1.6076484	2.3799791	1.525579
341222129126349	-1.7045747	1.5373096	1.413528
341222134039679	-1.5584785	0.7069826	1.2015879
341222138983526	-1.1606255	-0.28236008	1.4927242
341222143927374	-0.74121594	-0.92477226	2.024349
341222148871222	-0.27220917	-1.3421726	3.2316267
341222154181280	0.4939673	-1.8098803	3.804653
341222158758917	0.9894893	-2.3321028	3.903526
341222163702765	1.1452057	-2.8113031	3.9048705
341222168646612	1.2519066	-2.9462519	3.696992
341222173590460	1.3217607	-3.1631289	4.0092697
341222178534308	1.7851908	-3.4145308	4.210326
341222183844366	2.0190785	-3.794465	4.505989
341222188422003	2.6455808	-4.018755	4.516037
341222193365851	3.675725	-4.174752	5.4103966
341222198309698	4.1863317	-4.228162	5.15125
341222203253546	4.620228	-4.276572	4.2251253
341222208166876	7.0243306	-5.3189545	6.8658667
341222213507452	4.9065247	-4.907731	3.690199
341222218085089	3.9172802	-3.7579641	2.1762955
341222223028937	4.150957	-3.211213	1.840488
341222227972784	4.255066	-3.3998795	2.6369731
341222232916632	4.1237736	-3.6053658	2.8849294
341222237860480	3.8047657	-3.7324562	2.7927003
341222243170538	3.114075	-3.792698	2.4986699
341222247748175	3.0329502	-3.9727497	2.060914
341222252692023	3.3282344	-3.8917503	1.5208158
341222257635870	3.1362777	-4.068636	1.537055
341222262579718	2.794556	-4.203583	1.974823
341222267523565	2.9243891	-4.3441877	2.7407641
341222272833624	2.6455476	-4.3700895	2.809708
341222277411261	2.5350788	-4.4512644	2.7262368
341222282355108	2.5737846	-4.58187	2.577855
341222287298956	2.6805565	-4.822468	2.4750705
341222292242804	2.7317638	-5.2182693	2.0965495
341222297156134	2.8135326	-5.5981464	1.7106085
341222302496710	2.8410592	-6.102849	1.3876657
341222307074347	2.7592587	-6.5675583	0.9414673
341222311987677	2.4745505	-7.0270786	0.61810017
341222316931524	2.056641	-7.3291836	0.38490486
341222321905890	1.8332655	-7.376912	0.18666458
341222326819220	1.4504333	-7.2820225	0.023406506
341222332129278	1.2374499	-7.082962	-0.075920105
341222336706915	1.0565765	-6.862465	-0.12649632
341222341650763	0.850235	-6.3971767	0.03667593
341222346594610	0.6688142	-5.7982187	0.2688465
341222351538458	0.81940997	-5.1172304	0.58982134
341222356482306	0.094632745	-4.484043	0.72249556
341222361822882	-0.71872425	-3.8658018	0.7705331
341222366431036	-1.6580292	-3.0245667	0.58299685
341222371313849	-2.2622728	-2.1054373	0.38667202
341222376257696	-2.5993483	-1.1271286	0.016544342
341222381201544	-2.437191	-0.014780998	-0.57047415
341222386145392	-2.2080135	0.99196815	-1.3111651
341222391485968	-1.7985355	2.1784105	-1.8475027
341222396063605	-1.3140306	3.584426	-2.0088875
341222401007452	-0.8920826	5.718116	-2.6616645
341222405951300	-0.7214329	8.247012	-4.392789
341222410895148	-0.21418583	10.626569	-6.4825273
341222415808478	0.074781656	10.602468	-8.6416235
341222421149054	0.20742744	10.584543	-10.561967
341222425726690	0.26443392	10.57218	-10.453844
341222430670538	0.28389728	10.56327	-8.597859
341222435614386	-0.030474007	10.095533	-6.6290407
341222440558233	-0.32805264	7.3749285	-4.9507713
341222445471564	-0.38972467	4.905492	-3.4157221
341222450812140	-0.66811424	2.7256298	-2.2478826
341222455389776	-1.0289359	0.84972095	-1.481319
341222460333624	-1.317389	-0.7730751	-0.9074807
341222465277472	-1.267761	-1.8991537	-0.56109524
341222470221319	-0.9658376	-2.3915243	-0.62755513
341222475134649	-0.80668586	-2.0325632	-2.145416
341222480475226	-0.3112682	-1.1226931	-3.564993
341222485052862	0.03915119	-0.07905483	-4.2748904
341222489996710	0.098134995	0.8325777	-3.9221258
341222494940558	-0.08643484	1.5022163	-2.723744
341222499884405	-0.21777987	1.8685656	-1.4225879
341222504828253	-1.8077646	1.5522289	-0.2863009
341222510138312	-0.9544704	1.9639292	0.58030415
341222514715948	-0.2982961	2.3795109	0.97306895
341222519659796	0.37084997	2.7664814	1.0126798
341222524603644	1.2002791	3.1797838	1.5137703
341222529547491	2.1609566	3.8156013	2.7560568
341222534460821	3.3506784	4.432498	4.3323545
341222539801398	4.67177	4.8380594	5.330516
341222544379034	5.8023515	4.839119	5.7642345
341222549322882	6.9466844	4.5693007	6.103204
341222554236212	7.6323233	4.031678	6.90852
341222559180060	7.9767056	3.8477297	9.29107
341222564123907	8.132789	4.003564	10.706362
341222569433966	7.482005	4.0532837	8.338305
341222574042120	5.5502415	3.232932	2.477342
341222578985968	3.8823142	2.2611065	-2.4874368
341222583929815	2.6940408	1.4841509	-4.869261
341222588873663	1.5527675	0.5655956	-4.095341
341222593786993	1.0520091	-0.19547558	-2.0825088
341222599127569	1.1038444	-0.5384741	-0.62291384
341222603705206	1.2825378	-0.7651663	0.24076319
341222608649054	1.5332669	-0.9351988	0.6191437
341222613592901	1.539466	-1.0352364	1.1694984
341222618536749	1.048625	-1.4394512	2.217804
341222623480597	0.32374024	-1.8083763	3.9873924
341222628790655	-0.26385868	-2.2119293	6.287489
341222633368292	-0.100082636	-2.4791794	7.376869
341222638312140	0.70887816	-2.538144	8.071
341222643255987	1.702692	-2.5432224	8.692039
341222648199835	2.3351302	-2.638464	8.732814
341222653113165	2.1830952	-2.9578943	8.394451
341222658453741	1.9325756	-2.9823952	7.692876
341222663031378	2.1378963	-2.653266	6.9872446
341222668036261	2.5711331	-1.9324083	5.9520307
341222672888556	2.9586077	-0.9387932	4.923754
341222677832403	2.923387	-0.2350645	3.7206411
341222682776251	2.7632456	0.44329548	2.9100382
341222688116827	2.474428	1.0828743	2.3746686
341222692663946	2.0949893	1.6066208	2.021982
341222697607794	1.8216014	1.9819841	1.992591
341222702551642	1.3480835	2.1841097	1.8593413
341222707495489	0.7748591	2.217863	1.7501659
341222712439337	0.16351008	2.0453787	1.5319843
341222717749396	-0.3685301	1.7135992	1.0364972
341222722327032	-0.30736804	1.5772114	0.41054153
341222727270880	-0.02409631	1.23629	-0.16587138
341222732214728	0.36030185	0.8535805	-0.6382357
341222737158575	0.6513438	0.42195797	-0.6151228
341222742102423	0.6951895	-0.41514015	-0.61129427
341222747412482	0.61620677	-1.2583838	0.026091158
341222751990118	0.56909394	-2.051157	0.7558639
341222756933966	0.556228	-2.7382355	1.5284746
341222761877814	0.7610701	-3.3000507	2.106359
341222766821661	0.9444072	-3.6487694	2.6004028
341222771765509	0.9652769	-3.965351	2.7120562
341222777075567	0.96122587	-4.2359037	2.5677886
341222781653204	0.9823158	-4.2790146	2.5536568
341222786597052	0.91783863	-4.1957197	2.525635
341222791540899	0.6733725	-3.8931904	2.2454388
341222796484747	0.42064735	-3.4762983	1.769946
341222801428595	0.020045057	-2.9523	1.2202221
341222806738653	-0.44367164	-2.4378052	0.8675043
341222811316290	-0.86946994	-1.9066391	0.56693923
341222816260138	-1.0724251	-1.3445358	0.48898804
341222821203985	-1.4001389	-0.9797592	0.3168346
341222826147833	-1.5598176	-0.63613605	0.119733945
341222831061163	-1.701118	-0.38497543	-0.07114829
341222836401739	-1.9157547	-0.30183983	-0.38927266
341222840979376	-1.7389584	-0.2662468	-0.39906618
341222845923224	-1.5548301	-0.3603363	-0.2673291
341222850836554	-1.4197663	-0.52723885	-0.19874787
341222855780401	-1.3675183	-0.77157307	-6.92606E-4
341222860724249	-1.5468764	-1.043417	-0.0074507
341222866064825	-1.8583436	-1.3587685	0.023310125
341222870611944	-2.2150288	-1.6103811	-0.20454758
341222875555792	-2.4296532	-1.7202425	-0.37508023
341222880530157	-2.782073	-1.7985601	-0.5307598
341222885443487	-3.16328	-1.8052101	-0.74036974
341222890387335	-3.5002885	-1.7924881	-0.9334626
341222895727911	-3.766933	-1.7097435	-1.0434445
341222900275030	-3.8779254	-1.5858784	-1.235282
341222905218878	-3.980366	-1.4730673	-1.3397437
341222910162726	-3.911983	-1.2057352	-1.4266264
341222915106573	-3.9083054	-0.93146896	-1.5868876
341222920050421	-3.722115	-0.51949024	-1.6307743
341222925390997	-3.4748135	0.13085079	-1.5702922
341222929938116	-3.3477507	0.6978321	-1.4138397
341222934881964	-3.297068	1.338829	-0.98441124
341222939825812	-3.2943177	1.8934269	-0.33437514
341222944769659	-3.5127833	2.3853369	0.27777135
341222949713507	-3.8140512	2.8215647	0.77468395
341222955023565	-4.3863792	3.0196972	0.7256521
341222959601202	-4.8297634	3.0964146	0.37377226
341222964545050	-5.243698	2.9874754	0.15489316
341222969549933	-5.585007	2.737649	0.29031217
341222974432745	-5.733659	2.5370102	0.5560465
341222979376593	-5.6840463	2.3263187	0.91126657
341222984686651	-5.540083	2.1319942	1.1753613
341222989264288	-5.4681234	1.8291664	1.1547978
341222994208136	-5.2945247	1.5640717	0.90617156
341222999151983	-5.139506	1.4315205	0.45104587
341223004095831	-4.8797803	1.2911882	-0.29622352
341223009009161	-4.4635	1.2834196	-1.4517903
341223014349737	-4.179421	1.4342852	-1.6638246
341223018927374	-3.945346	1.5343742	-1.5798851
341223023840704	-3.4462063	1.9117689	-1.3949001
341223028784552	-3.0954802	2.1927633	-0.723714
341223033728399	-2.6713874	2.5128384	0.039066434
341223038672247	-2.0998223	2.7458172	0.7155014
341223044012823	-1.398705	2.9982662	1.2444553
341223048559942	-0.65769005	3.3593664	1.2541099
341223053503790	-0.08004749	3.5421324	0.72038865
341223058447638	0.44812	3.8421412	0.19680208
341223063391485	0.9320061	4.1737576	-0.15560901
341223068335333	1.2863759	4.5204077	-0.71069247
341223073675909	1.5223663	4.9999905	-1.0827497
341223078223028	1.6625161	5.29228	-1.0292246
341223083166876	1.7020931	5.5369854	-0.7533962
341223088110724	1.5822451	5.6000595	-0.40965965
341223093054571	1.4620438	5.365573	0.2498661
341223097998419	1.1222035	4.77011	1.1515582
341223103308478	0.9034264	4.0917053	1.1378052
341223107886114	0.8377845	3.5719757	0.19642368
341223112829962	1.021282	3.248392	-0.7819054
341223117773810	1.3225342	3.3361702	-1.2651993
341223122717657	1.7645569	3.723257	-1.6912068
341223127661505	2.2755532	4.3451405	-1.693315
341223132971564	2.7267284	5.0990677	-1.2694862
341223137549200	3.1544123	5.7071667	-0.71113265
341223142493048	3.6599724	6.2212515	-0.01688373
341223147436896	3.7727356	6.5178404	1.1200356
341223152380743	3.8499112	6.6160326	2.0970464
341223157294073	3.841141	6.565793	2.487907
341223162634649	3.7148805	6.386902	2.623304
341223167181769	3.4312048	6.120281	2.4701548
341223172125616	3.4148295	5.8960896	1.9680583
341223177069464	3.3585687	5.570897	1.5258526
341223182013312	3.2227397	5.132821	1.1219138
341223186957159	2.9034796	4.653264	0.66118205
341223192297735	2.706784	4.2332363	0.23758185
341223196844855	2.463088	3.9171143	0.051825047
341223201788702	2.2444048	3.7626705	-0.0963279
341223206732550	2.0874324	3.6475258	-0.028535604
341223211676398	1.8828665	3.519453	0.12706625
341223216620245	1.4291441	3.3976889	0.49465227
341223221930304	0.8616064	3.2887974	0.93369424
341223226507940	0.104905725	2.974493	1.0599914
341223231451788	-0.56500316	2.5312977	1.159797
341223236395636	-1.1792113	2.0483303	1.3699641
341223241339483	-1.3544974	1.7347574	1.6000786
341223246283331	-1.4525892	1.202548	1.7429545
341223251593390	-1.1290447	0.60387516	1.7172303
341223256171026	-0.7950225	-0.13322544	1.9309206
341223261114874	-0.27089834	-0.77564526	2.0709677
341223266058722	0.3294536	-1.4165697	2.6348088
341223271063605	0.8525257	-1.8559952	3.3019474
341223275915899	1.6463189	-2.1980171	3.6540143
341223281256476	2.0280187	-2.6303444	3.8287232
341223285803595	2.2007658	-3.0103455	3.7549663
341223290747442	2.3416636	-3.1625814	3.5939462
341223295691290	2.625035	-3.2427626	3.4395661
