linearaccelerometer_timestamp	linearaccelerometer_x_data	linearaccelerometer_y_data	linearaccelerometer_z_data
908137869535915	-0.33669376	-0.035900593	-0.019512177
908137877836696	-0.37764633	-0.048576355	-0.055156708
908137886137478	-0.44471782	-0.07916546	-0.04632187
908137894438259	-0.45213747	-0.09041858	-0.013842583
908137902739040	-0.475043	-0.08241868	-0.027812958
908137911039821	-0.48252606	-0.07683945	-0.10945797
908137919340603	-0.47514755	-0.07846403	-0.106928825
908137927641384	-0.43153954	-0.06194043	-0.33251
908137935942165	-0.36169773	-0.1049242	-0.35017872
908137944242946	-0.5567251	-0.037361145	-0.051449776
908137952543728	-0.5528723	-0.042296886	0.1571579
908137960844509	-0.35463166	-0.084644556	0.2562542
908137969145290	-0.21369159	-0.06182456	0.3757429
908137977446071	-0.32500076	-0.045003176	0.38747787
908137985746853	-0.29124707	-0.052432537	0.30947876
908137994047634	-0.30691123	-0.058443546	0.23645782
908138002348415	-0.3634929	-0.05295682	0.17234898
908138010649196	-0.3590997	-0.054841757	0.17067337
908138018949978	-0.31528026	-0.046368837	0.10273266
908138027250759	-0.15354198	-0.07991099	0.10273361
908138035551540	-0.3502134	-0.1005013	0.1921339
908138043852321	-0.385105	-0.13063788	0.17491627
908138052153103	-0.4456823	-0.17992139	0.12072277
908138060453884	-0.442029	-0.1868763	0.12167835
908138068754665	-0.6246343	-0.1740644	0.04022026
908138077055446	-0.51306015	-0.19024062	-0.07224941
908138085356228	-0.4894318	-0.25286937	-0.2761526
908138093657009	-0.49211287	-0.25926352	-0.35529518
908138101957790	-0.49298066	-0.2760985	-0.3443222
908138110258571	-0.42254305	-0.13609815	-0.034703255
908138118559353	-0.2673481	-0.10289788	0.29226398
908138126860134	-0.024257898	-0.04985428	0.6633568
908138135160915	0.30049992	-0.018509865	0.95742035
908138143461696	0.30685043	0.09477401	0.83646584
908138151762478	0.27103907	0.07385445	0.83344555
908138160063259	0.061181664	0.18188524	0.30018044
908138168364040	-0.3048159	0.24159718	-0.72442055
908138176664821	-0.36726558	0.18806362	-0.9744711
908138184965603	-0.42141366	0.18362427	-1.2407751
908138193266384	-0.565748	0.115281105	-1.3126106
908138201567165	-0.5824779	0.09175706	-1.2848635
908138209867946	-0.63839257	-0.026465893	-1.0744753
908138218168728	-0.4479916	-0.13423681	-0.59569645
908138226469509	0.63848543	0.010151148	0.9088907
908138234770290	0.9596596	0.20494437	1.390131
908138243071071	0.9443526	0.22728491	1.3636189
908138251371853	1.1604993	0.32383347	1.6163893
908138259672634	1.148903	0.35815215	1.6370573
908138267973415	0.81542015	0.37202835	1.3734293
908138276274196	-0.12179732	0.37166834	0.369092
908138284574978	-0.15364742	0.40501833	0.14420223
908138292875759	-0.1424675	0.38619208	0.14597988
908138301176540	-0.25631106	0.3666079	-0.07059288
908138309477321	-0.19278145	0.29378414	-0.43226337
908138317778103	-0.19245315	0.2716794	-0.4223547
908138326078884	-0.019447923	0.25286102	-0.66642094
908138334379665	0.026849627	0.20346999	-0.66256046
908138342680446	0.018945932	0.18689275	-0.6511936
908138350981228	0.047680974	0.12903047	-0.5988693
908138359282009	0.016729832	0.069877625	-0.5496483
908138367582790	-0.059708953	0.009124279	-0.49323082
908138375883571	-0.1203326	-0.050040722	-0.3583603
908138384184353	-0.16964114	-0.05832839	-0.02766037
908138392485134	-0.23417306	-0.063987255	0.20281792
908138400785915	-0.29526865	-0.09736991	0.3475504
908138409086696	-0.36779118	-0.120052576	0.39061546
908138417387478	-0.35967386	-0.12645459	0.3367138
908138425688259	-0.15326047	-0.13794923	0.22944832
908138433989040	0.042758465	-0.0928309	0.17799664
908138442289821	0.017660499	-0.031857252	0.32269573
908138450590603	-0.07177794	-0.0056111813	0.26077366
908138458891384	-0.20958567	-0.010241032	-0.085998535
908138467192165	-0.28981352	-0.03777504	-0.5427761
908138475492946	-0.29443693	-0.057841778	-0.53100395
908138483793728	-0.12886012	-0.04886794	-0.53012085
908138492094509	-0.14828598	-0.08824849	0.029356003
908138500395290	-0.17868567	-0.14368105	0.3401928
908138508696071	-0.1998061	-0.17560482	0.41649628
908138516996853	-0.17957234	-0.19083166	0.3781252
908138525297634	-0.09889555	-0.21417022	0.33934498
908138533598415	-0.12773812	-0.097323656	0.1947012
908138541899196	0.04373312	-0.058264256	0.05249405
908138550199978	0.16565394	-0.030149937	0.019631386
908138558500759	0.20900047	-0.0372231	-0.0730257
908138566801540	0.14920413	-0.073676825	-0.24954224
908138575102321	-0.027967095	-0.09114337	-0.33444977
908138583403103	-0.15362036	-0.10471892	-0.17895412
908138591703884	-0.039837956	-0.19412613	-0.22742939
908138600004665	-0.050872922	-0.19066572	-0.646595
908138608305446	-0.0495131	-0.14822221	-0.81254387
908138616606228	0.021059752	-0.10882115	-0.50979614
908138624907009	0.037446618	-0.052355528	-0.13487244
908138633207790	0.002208352	-0.037709236	0.11098194
908138641508571	0.001026392	-0.012233019	0.16755676
908138649809353	0.1680777	0.11958623	0.29200268
908138658110134	0.16477835	0.24633813	0.4640913
908138666410915	-0.13478422	0.24472857	0.62316513
908138674711696	-0.115740776	0.23685694	0.61845016
908138683012478	-0.3376248	0.0741961	1.4350729
908138691313259	-0.39307868	0.19949603	1.3312445
908138699614040	-0.26898086	0.1968453	0.72506523
908138707914821	-0.09124875	0.048593283	-0.21245766
908138716215603	-0.09723568	0.02048397	-0.19994831
908138724516384	-0.14700079	0.29622197	-1.9969244
908138732817165	0.21087492	0.3995881	-1.6823101
908138741117946	0.5530273	0.3623662	-0.6080427
908138749418728	0.49936545	0.29257894	0.5419693
908138757719509	0.15442121	0.14982891	1.2195711
908138766020290	0.14127612	0.15464044	1.2119112
908138774321071	-0.6685171	-0.092071295	0.76027584
908138782621853	-0.7634373	-0.023439884	0.5442982
908138790922634	-0.6078068	-0.06575942	0.08572292
908138799223415	-0.5055605	-0.061558723	-0.24837685
908138807524196	-0.368302	-0.024947166	-0.46183014
908138815824978	-0.36667597	-0.03917098	-0.4534483
908138824125759	0.795503	0.21315217	-2.6475677
908138832426540	0.78711176	0.29015636	-1.0169191
908138840727321	0.5921768	0.13710809	-0.24417591
908138849028103	0.24039221	-5.800724E-4	0.097275734
908138857328884	0.24092722	0.023237705	0.087171555
908138865629665	0.039095163	-0.07659817	0.17862797
908138873930446	0.047966123	-0.013658285	0.4588375
908138882231228	-0.028367162	0.031259537	1.367485
908138890532009	-0.0068935156	0.09163499	1.5935888
908138898832790	0.13610935	0.11906505	1.292057
908138907133571	0.4242779	0.14894652	0.6343994
908138915434353	0.4368807	0.14560604	0.6295099
908138923735134	0.5320605	0.14322686	-1.3738518
908138932035915	0.17585826	0.06147647	-2.0196152
908138940336696	0.0027897358	-0.0052747726	-1.8311644
908138948637478	-0.10120535	-0.08483744	-0.69866467
908138956938259	-0.10551739	-0.09419632	-0.6904259
908138965239040	-0.254349	-0.15067124	0.5217266
908138973539821	-0.46332777	-0.19932961	0.97333527
908138981840603	-0.5808445	-0.35632706	-0.14873505
908138990141384	-0.4162017	-0.3150847	-0.37664795
908138998442165	-0.3946731	-0.30790186	-0.37964058
908139006742946	-0.18202388	-0.2503643	-0.32406235
908139015043728	0.13482118	-0.116348505	0.107914925
908139023344509	0.15658641	-0.10468602	0.10005379
908139031645290	0.09044397	-0.04116416	0.045143127
908139039946071	0.14220655	-0.004756689	-0.13459015
908139048246853	0.16675961	0.012946367	-0.14375114
908139056547634	0.26114476	0.08440709	-0.22909546
908139064848415	0.23947501	0.11988044	-0.2413063
908139073149196	0.2591827	0.1387074	-0.24970531
908139081449978	-0.081890225	0.03148341	0.26452065
908139089750759	-0.19432807	0.008827686	0.7316084
908139098051540	-0.2413826	-0.016346455	0.91467667
908139106352321	-0.21449125	0.0057878494	0.8995657
908139114653103	-0.16707683	-0.04303217	0.8298836
908139122953884	-0.07174337	-0.089714766	0.65680313
908139131254665	-0.13232851	-0.02875781	0.5663271
908139139555446	-0.0928812	-0.043293238	0.36293507
908139147856228	-0.01611811	-0.06364441	0.22324848
908139156157009	0.10905969	-0.023014784	0.23333645
908139164457790	0.26495713	0.009711742	0.31918144
908139172758571	0.3855167	-0.04154229	0.34776688
908139181059353	0.21848303	0.14105892	-0.029467583
908139189360134	0.24242318	0.14317012	-0.032384872
908139197660915	0.13700211	0.25882816	-0.26467133
908139205961696	0.058704495	0.20241332	-0.4445076
908139214262478	-0.048968554	0.059678316	-0.53958607
908139222563259	-0.21815985	-0.06928158	-0.5168762
908139230864040	-0.40441483	-0.10303736	-0.35603714
908139239164821	-0.42253697	-0.10744619	-0.16553879
908139247465603	-0.45314407	-0.15045714	0.015942574
908139255766384	-0.46218437	-0.19082594	0.14993858
908139264067165	-0.4176669	-0.24374843	0.18304443
908139272367946	-0.32719058	-0.30037236	0.106562614
908139280668728	-0.25984716	-0.28219843	-0.003706932
908139288969509	-0.15005845	-0.23728204	-0.1284256
908139297270290	-0.09770435	-0.16899776	-0.31997585
908139305571071	-0.08681524	-0.13388586	-0.4472828
908139313871853	-0.09160137	-0.14140439	-0.48386478
908139322172634	-0.089555144	-0.16800618	-0.44659424
908139330473415	-0.065932274	-0.17189717	-0.34819984
908139338774196	0.026011467	-0.22027302	-0.25305843
908139347074978	0.08778578	-0.24877238	-0.07078552
908139355375759	0.040733397	-0.27515697	0.18998623
908139363676540	-0.104623556	-0.31073236	0.39031887
908139371977321	-0.29825097	-0.36246228	0.41394997
908139380278103	-0.5336387	-0.4361403	0.31267738
908139388578884	-0.42312253	-0.46452475	0.28621197
908139396879665	-0.24637651	-0.40087533	0.3550501
908139405180446	-0.19591093	-0.33535123	0.44003487
908139413481228	-0.12570381	-0.29533648	0.47973728
908139421782009	0.08261064	-0.2057209	0.2690401
908139430082790	0.09588462	-0.20477748	0.26718044
908139438383571	0.053814024	-0.16358066	0.015021324
908139446684353	-0.055876464	-0.14481163	-0.22423363
908139454985134	-0.16740373	-0.1257503	-0.3454094
908139463285915	-0.23962429	-0.11436534	-0.2868061
908139471586696	-0.22509912	-0.11626148	-0.28219986
908139479887478	-0.26732436	-0.12601233	0.49487495
908139488188259	-0.24374154	-0.13604355	1.1158514
908139496489040	-0.21247703	-0.17742562	1.583828
908139504789821	-0.3582063	-0.20604372	1.7230272
908139513090603	-0.5611657	-0.18041658	1.6031084
908139521391384	-0.5319989	-0.1920023	1.5998497
908139529692165	-0.5462119	-0.077485085	1.1992044
908139537992946	-0.51196724	-0.07478094	0.95559406
908139546293728	-0.5075855	-0.011852741	0.7195053
908139554594509	-0.55640084	0.07249284	0.47524357
908139562895290	-0.60612994	0.13129258	0.34723282
908139571196071	-0.5936031	0.13872361	0.4415989
908139579496853	-0.5370063	0.11448884	0.6741648
908139587797634	-0.7738564	0.044059753	0.46146107
908139596098415	-1.0532767	-0.10030246	0.1762104
908139604399196	-1.2618592	-0.28708053	-0.004541397
908139612699978	-1.4575876	-0.41363883	-0.079413414
908139621000759	-1.7011247	-0.3936	-0.07277775
908139629301540	-1.822607	-0.28652287	0.15215111
908139637602321	-1.5797548	-0.13377595	0.43473148
908139645903103	-1.1511714	0.051718235	0.51624775
908139654203884	-0.602327	0.08991885	0.53519917
908139662504665	-0.18394566	0.0019836426	0.47557354
908139670805446	-0.06953311	-0.05158353	0.51306057
908139679106228	0.91659474	-0.21003509	-0.20105839
908139687407009	2.4242158	0.054114103	0.16119099
908139695707790	2.6881337	0.48968387	-0.03974533
908139704008571	2.5153913	0.79549575	-0.8421984
908139712309353	2.5626707	0.7110524	-0.790534
908139720610134	2.487537	0.79671	-1.8526583
908139728910915	2.9030004	0.49458218	-3.4008007
908139737211696	2.9597867	0.21261215	-3.577795
908139745512478	2.6479888	0.12295246	-3.3441029
908139753813259	2.6834493	0.06818342	-3.2934618
908139762114040	2.156051	0.08312178	-2.6218758
908139770414821	-0.5289204	-0.37205744	2.1558018
908139778715603	-0.29758978	-0.69778585	1.9175625
908139787016384	0.019521475	-0.7996979	-0.25759697
908139795317165	0.18998218	-0.54055214	-0.5231676
908139803617946	0.26078868	-0.5480218	-0.49588966
908139811918728	1.6472974	0.3621602	0.6522875
908139820219509	1.7028434	0.33220768	0.6841669
908139828520290	3.0927665	0.48541832	-0.61293125
908139836821071	2.7215767	0.42162752	-1.1297808
908139845121853	-1.8125942	0.23697662	0.669178
908139853422634	-1.7060595	0.19795322	0.72372246
908139861723415	-2.8684852	0.5973506	0.5921984
908139870024196	-0.9958346	0.94392824	-0.8477626
908139878324978	-0.07509351	0.4438696	-1.0133224
908139886625759	1.0306098	0.48373938	-1.3811469
908139894926540	1.9724443	0.6111541	-2.3790503
908139903227321	3.1313422	0.3517208	-2.9454188
908139911528103	3.6728463	0.23695707	-2.9422054
908139919828884	3.1588442	0.52084064	-2.54767
908139928129665	1.9887397	1.0171237	-2.134934
908139936430446	1.3196826	1.4791598	-1.8793874
908139944731228	1.3917303	1.4378557	-1.8112345
908139953032009	1.3970418	2.025247	-1.7649808
908139961332790	1.8995397	2.776784	-1.3192916
908139969633571	2.7491415	3.2524009	-0.5784826
908139977934353	4.3511453	0.6512275	-1.2885203
908139986235134	4.3497906	0.5054655	-1.161026
908139994535915	6.4285307	-0.031972885	-6.073506
908140002836696	7.664068	-0.15363455	-6.7953334
908140011137478	5.2831244	0.74124336	-5.0540643
908140019438259	0.7171645	1.9785509	-2.9002934
908140027739040	-2.3532705	2.247323	-1.6819863
908140036039821	-2.17428	1.2275014	-1.471468
908140044340603	-0.3412447	0.20294523	-1.2801714
908140052641384	2.093614	-0.70262957	-1.1426215
908140060942165	4.000609	-1.4920788	-0.7210827
908140069242946	4.6866946	-2.048285	-0.14656258
908140077543728	4.1223516	-2.2406301	0.23666239
908140085844509	2.5976806	-2.1003585	0.7277584
908140094145290	1.2247381	-1.7111049	1.6869783
908140102446071	0.97361994	-1.457787	2.4185376
908140110746853	1.489131	-1.3217702	1.7218075
908140119047634	2.2059007	-1.4774961	0.32504082
908140127348415	2.554753	-2.5804768	-1.9472861
908140135649196	2.4760633	-2.7373486	-1.8132057
908140143949978	1.3876112	-2.8233376	-2.4633036
908140152250759	0.42172503	-2.7802234	-1.3197403
908140160551540	-0.5195615	-2.9618645	0.12604856
908140168852321	-1.4443159	-3.3287382	1.129767
908140177153103	-1.9078443	-3.1469312	2.0369158
908140185453884	-1.9627755	-3.1860194	2.0557823
908140193754665	-1.3048987	-2.690053	1.1244998
908140202055446	-0.5740411	-2.765246	0.2671504
908140210356228	-0.6277683	-2.8114543	0.30530167
908140218657009	-2.0876367	-4.013754	-0.24555826
908140226957790	-2.1209078	-4.0599003	-0.18898392
908140235258571	-4.6012664	-4.6981807	1.027442
908140243559353	-5.872923	-3.7133284	2.2502017
908140251860134	-6.6069193	-2.138309	3.705205
908140260160915	-6.2740145	-0.6292734	4.1189327
908140268461696	-5.037593	0.22707272	3.3104148
908140276762478	-5.0979347	0.13871098	3.385933
908140285063259	-2.6255398	-0.100497246	0.40462208
908140293364040	-1.762773	-0.1601491	-1.0251088
908140301664821	-1.4499292	-0.05450821	-1.2583098
908140309965603	-1.5754962	0.12956905	-0.7407861
908140318266384	-1.8125675	0.23256779	-0.16024446
908140326567165	-1.9372094	0.16328907	-0.025774956
908140334867946	-2.408639	0.26536655	-0.65466833
908140343168728	-2.4420877	0.40074348	-0.5589175
908140351469509	-2.1497207	0.648839	-0.50883627
908140359770290	-1.7459549	0.8363676	-0.29318762
908140368071071	-1.7832819	0.8147907	-0.27139997
908140376371853	-1.397122	0.9785032	-0.12973022
908140384672634	-0.23866701	1.1341915	-0.6593685
908140392973415	0.2760074	1.0740862	-0.1346612
908140401274196	0.8040302	1.2604408	-0.38754988
908140409574978	0.7126483	1.2320166	-0.36671686
908140417875759	1.2062516	1.4691219	-0.87252235
908140426176540	1.5815886	1.65382	-1.3194356
908140434477321	2.1037197	1.5939274	-2.1917439
908140442778103	1.9004356	1.4214945	-1.9070747
908140451078884	1.3085153	1.5469894	-1.6259038
908140459379665	0.6362419	1.7309256	-1.3164477
908140467680446	0.56482524	1.701498	-1.2697301
908140475981228	-0.2861086	1.6444101	-0.7840376
908140484282009	-0.5883014	1.5820789	-1.0508771
908140492582790	-0.73352784	1.1436167	-1.0740056
908140500883571	-0.74209225	0.60412025	-0.57518387
908140509184353	-0.80418515	0.5914831	-0.55573535
908140517485134	-0.6450348	0.16112614	-0.4773953
908140525785915	-0.17361864	0.033286095	-1.0963502
908140534086696	-0.115941614	0.6753912	-0.36905932
908140542387478	0.18059693	1.2528763	-0.029268265
908140550688259	0.2936805	1.3836956	-0.27361822
908140558989040	0.21270286	1.3764133	-0.26295066
908140567289821	0.2775732	1.2739391	-0.34045458
908140575590603	0.33824182	1.093874	-0.07068062
908140583891384	0.63854885	0.886611	-0.0130057335
908140592192165	0.68612504	0.9027357	-0.08204889
908140600492946	0.08314401	0.9508209	0.08677173
908140608793728	0.039574414	0.93611145	0.123331785
908140617094509	-0.72347105	0.85788727	0.27154255
908140625395290	-1.2131647	0.61820316	0.2534206
908140633696071	-1.2771633	0.36076164	0.1796937
908140641996853	-0.5328748	0.16292286	0.087161064
908140650297634	-0.5574256	0.14005947	0.15520048
908140658598415	-0.87409884	0.71345806	0.81989765
908140666899196	-1.2652185	1.4982214	1.6802168
908140675199978	-1.2950921	2.2289257	2.3821535
908140683500759	0.48807263	2.0306845	1.8363593
908140691801540	0.4160952	1.9937038	1.9592576
908140700102321	1.257117	0.82473564	0.31011176
908140708403103	1.9408967	0.050196648	-1.221339
908140716703884	1.7250886	0.10934448	-1.5128379
908140725004665	0.5664446	0.8137293	-0.6270995
908140733305446	-0.68349755	1.4081202	0.24566138
908140741606228	-1.5442529	1.3314838	0.7432122
908140749907009	-2.1278355	0.81557465	0.5757685
908140758207790	-1.7687126	-0.23926067	0.86875105
908140766508571	-0.5499851	-0.75669575	1.07846
908140774809353	0.80776405	-0.32579136	0.60594857
908140783110134	1.3610413	0.34331322	-0.7563461
908140791410915	2.4025548	-0.19733715	-2.9845362
908140799711696	2.44388	-0.016336441	-4.106263
908140808012478	2.5532002	-0.2073412	-3.5583339
908140816313259	2.4746876	-0.509696	-2.1530213
908140824614040	2.0451057	-0.80841064	-0.55421793
908140832914821	1.5792469	-1.3941422	0.9096246
908140841215603	1.0771806	-1.6969118	0.61543113
908140849516384	2.0416317	-1.8603106	1.1709087
908140857817165	2.1813664	-1.9669762	1.370954
908140866117946	1.780441	-2.045868	0.77062726
908140874418728	0.9439625	-1.7690535	-0.3045331
908140882719509	-2.38115	2.4691505	0.48892736
908140891020290	-2.216023	2.449316	0.5691158
908140899321071	-2.1773467	4.5365295	1.4951347
908140907621853	-1.6928915	4.957609	2.142886
908140915922634	-0.49361053	4.4591894	2.0757544
908140924223415	0.8326345	3.3279743	1.3122833
908140932524196	0.6071143	1.0589342	0.6526346
908140940824978	-0.19646694	-0.41397762	1.6369894
908140949125759	-0.8631859	-1.8240995	2.2879386
908140957426540	-1.3629	-3.0809584	1.7893615
908140965727321	-1.3640754	-3.0716066	1.8301734
908140974028103	-1.8306421	-4.078164	0.8018063
908140982328884	-1.8048375	-4.0616875	0.9044547
908140990629665	-0.9485276	-2.0625343	-1.1922555
908140998930446	-0.08078183	-0.646369	-2.3777575
908141007231228	0.24188998	0.5329895	-2.584848
908141015532009	0.12288958	1.3147249	-2.3721666
908141023832790	-0.05238983	1.5796633	-2.4202461
908141032133571	0.23468636	1.3082237	-2.8381398
908141040434353	-0.19598792	0.10338497	-2.8007565
908141048735134	-0.6090051	-1.2323952	-3.6550562
908141057035915	-0.4909814	-2.1850052	-4.00017
908141065336696	0.00800319	-2.543332	-3.3848052
908141073637478	0.5852286	-2.2220697	-2.1529846
908141081938259	1.0213498	-1.3016834	-1.2511475
908141090239040	-0.12764287	-0.70780087	0.31468534
908141098539821	-0.10619092	0.16495705	2.182371
908141106840603	-0.6286745	0.7345514	3.206594
908141115141384	-0.5645126	0.70120335	3.0772042
908141123442165	-1.4473301	0.9971552	3.3178382
908141131742946	-2.1044207	1.4170752	2.9882047
908141140043728	1.871481	1.5661345	2.3721893
908141148344509	2.360247	1.5058975	3.481745
908141156645290	1.53405	1.4920063	2.9892068
908141164946071	1.5275748	1.4905062	2.991896
908141173246853	0.7488102	1.1055651	1.6309881
908141181547634	0.46411866	0.33807087	0.6360209
908141189848415	-0.41763046	-0.5275173	-0.42324662
908141198149196	0.0033614635	-0.7533741	-0.45412564
908141206449978	0.030798644	-1.0469418	-0.3070085
908141214750759	-0.10853666	-1.4309177	-0.4419546
908141223051540	-0.096880466	-1.4237509	-0.42696214
908141231352321	0.4959126	-2.4384298	-1.546488
908141239653103	0.9155606	-2.387638	-0.64470196
908141247953884	1.0616956	-1.4474277	0.54339767
908141256254665	0.26843226	-0.14489079	1.3844833
908141264555446	-1.0772669	1.3592234	2.157316
908141272856228	-0.9934873	1.349659	2.0978048
908141281157009	-2.3160858	3.322113	3.0810316
908141289457790	-0.34071577	4.744089	0.7522323
908141297758571	0.5537795	2.5549717	-0.040756702
908141306059353	1.1883996	0.66023636	1.7031972
908141314360134	1.2420676	0.6688385	1.7137687
908141322660915	1.089171	-0.45780468	2.2679367
908141330961696	0.00510633	-0.3610611	-0.11865497
908141339262478	0.057018638	1.9491491	1.0403308
908141347563259	0.3065958	1.5256357	1.4383178
908141355864040	0.40226185	0.611866	1.1695728
908141364164821	0.44036806	0.59921074	1.0781921
908141372465603	0.2865137	-0.2615633	0.5098442
908141380766384	-0.065125585	-0.8036337	0.0045496225
908141389067165	-0.7331096	-1.9660902	0.40330935
908141397367946	-2.0375705	-0.4957676	0.72203875
908141405668728	-2.0056522	-0.49363327	0.69987965
908141413969509	-2.2732434	0.59036255	0.9215152
908141422270290	-1.7482388	0.8177376	0.9811368
908141430571071	-1.6845266	0.82722855	0.98384213
908141438871853	1.6124932	1.1193237	-0.11607778
908141447172634	1.648092	1.1293449	-0.08349705
908141455473415	2.7459702	0.828846	-0.17781079
908141463774196	2.1478498	0.74490833	0.093726635
908141472074978	0.6713183	0.8457699	0.64704216
908141480375759	-0.4442184	0.88795376	1.3094624
908141488676540	-0.74262166	0.78926086	1.6335349
908141496977321	-0.9702252	0.5448675	1.6941597
908141505278103	-1.0992072	0.25971127	1.4006298
908141513578884	-1.5582983	0.22812939	0.7579707
908141521879665	-1.8286949	0.60259914	0.1902113
908141530180446	-1.3159071	1.2063074	0.08030403
908141538481228	-0.6743505	1.2580776	0.020361185
908141546782009	0.08660495	0.9700737	-0.22493887
908141555082790	0.86753404	0.8499851	0.07045126
908141563383571	1.1011212	0.779397	0.4864782
908141571684353	0.8858919	0.91662025	0.70146525
908141579985134	0.6157986	1.3071938	0.6644745
908141588285915	0.2607894	1.1855679	0.9857563
908141596586696	0.43591964	0.7551365	0.67608917
908141604887478	0.24621052	0.49335098	-0.06398618
908141613188259	0.16577625	0.37252045	-0.3457331
908141621489040	0.4799556	0.07358837	-0.1904487
908141629789821	1.0938302	-0.7057562	0.09245032
908141638090603	1.3227473	-2.025014	0.92841834
908141646391384	1.8959372	-3.8323727	2.7308338
908141654692165	2.2207894	-5.1823483	2.159332
908141662992946	2.2132425	-5.7311983	1.0559249
908141671293728	1.9553115	-5.627877	0.38412136
908141679594509	1.6572455	-5.3408766	0.11564998
908141687895290	1.5350661	-5.15888	-0.09723002
908141696196071	1.792702	-4.9804773	-0.20321292
908141704496853	2.1098785	-4.3619394	-0.16977893
908141712797634	2.1853006	-3.1568508	0.30134508
908141721098415	2.2119007	-3.1507235	0.3257448
908141729399196	1.197029	0.36952496	1.61761
908141737699978	-0.28541514	1.6606302	1.6850244
908141746000759	-2.2698772	3.1520195	1.3530333
908141754301540	-3.9706635	4.0409594	0.60137284
908141762602321	-4.8675447	4.1125116	-0.11947054
908141770903103	-5.032976	3.5615206	-0.6534774
908141779203884	-4.649286	1.8276997	-1.5210631
908141787504665	-4.5528193	1.8628101	-1.2678187
908141795805446	-3.1224678	0.65595245	-0.96370745
908141804106228	-2.0148811	-0.15730667	-0.44408393
908141812407009	-1.4972941	-0.50242424	0.076342225
908141820707790	-1.3585863	-0.5002146	0.51489854
908141829008571	-1.1698833	-0.35671425	0.9002898
908141837309353	-0.7234616	-0.13107395	1.265085
908141845610134	-0.018553078	0.017185211	1.5806453
908141853910915	0.72234976	-0.014820099	1.8745253
908141862211696	1.3819184	-0.1849842	2.0892408
908141870512478	1.3435965	-0.19914913	2.03303
908141878813259	1.8038144	-0.45008373	2.122851
908141887114040	1.9877398	-0.9428501	1.8866953
908141895414821	1.6507592	-1.1659908	1.5159544
908141903715603	1.6255198	-1.1710176	1.4831727
908141912016384	0.71941745	-1.3494606	0.6989305
908141920317165	0.31183314	-1.1717949	0.28634357
908141928617946	0.3161295	-1.1693621	0.2838316
908141936918728	-0.19182271	-0.5185585	-0.516268
908141945219509	-0.26263028	-0.04923916	-0.61150074
908141953520290	-0.25156873	-0.05011463	-0.6194968
908141961821071	-0.5354413	0.88960457	-0.4726646
908141970121853	-0.8838659	1.0927734	1.5032147
908141978422634	-0.8785503	1.0782251	1.4298537
908141986723415	-1.4591082	-0.031928062	5.806276
908141995024196	-0.5476595	-0.13743114	3.8870568
908142003324978	0.28936327	0.10969925	1.4752198
908142011625759	0.2763645	0.09248924	1.3477207
908142019926540	1.0314658	0.26996613	-0.7211578
908142028227321	1.7419156	0.34975624	-2.608204
908142036528103	2.1134872	0.6310148	1.372755
908142044828884	2.1126647	0.39692116	3.976089
908142053129665	2.093523	0.38650227	3.8171062
908142061430446	0.93675816	0.006934166	0.5728524
908142069731228	0.92235905	0.003602028	0.48711824
908142078032009	0.28274763	-0.11858368	-1.7661067
908142086332790	0.8534437	-1.1733131	-2.3300037
908142094633571	0.8465435	-1.1691132	-2.262312
908142102934353	1.1608664	-2.6985617	-0.4310783
908142111235134	1.0217288	-0.7742958	0.48294166
908142119535915	1.0104535	-0.77212906	0.5040838
908142127836696	0.9460404	0.7643461	0.33927733
908142136137478	0.81204647	0.79296494	0.8087569
908142144438259	0.7954119	0.7907877	0.81205046
908142152739040	1.0338907	0.20873547	0.77235794
908142161039821	0.55046517	0.1246233	1.0219558
908142169340603	-0.033042938	0.2711258	1.2409786
908142177641384	-0.61289084	0.5692644	1.2848632
908142185942165	-1.5986404	1.090148	1.2878721
908142194242946	-2.2373056	0.7586193	1.31472
908142202543728	-1.6957078	-0.32222557	1.3728437
908142210844509	-0.99723095	-1.7219143	1.6691483
908142219145290	-0.39870948	-2.4002247	1.3092391
908142227446071	0.17967552	-2.3335361	0.4370355
908142235746853	0.86989826	-2.3106565	0.15078586
908142244047634	0.64155	-1.4951267	0.38179302
908142252348415	0.49206883	-0.8954935	0.48861474
908142260649196	0.4643965	-0.025755882	0.50912154
908142268949978	0.121391356	1.0472479	0.57921493
908142277250759	-0.5117209	2.0528288	0.57580024
908142285551540	-0.9010934	2.593419	0.21670085
908142293852321	-0.5561107	1.9638329	-0.08841914
908142302153103	-0.44079438	0.76318645	-0.18939877
908142310453884	-0.11360642	7.324219E-4	-0.4864586
908142318754665	0.3524384	-0.43975067	-0.4935215
908142327055446	0.73289424	-0.620204	-0.095924914
908142335356228	0.7018032	-0.61710453	-0.06351727
908142343657009	1.1288991	-0.5053148	0.8330839
908142351957790	1.0916842	-0.24756527	0.9533325
908142360258571	1.0646088	-0.11066818	1.0812235
908142368559353	1.0409529	5.950928E-4	1.0374782
908142376860134	0.8059577	0.16036129	0.811566
908142385160915	0.124608204	0.338089	0.6544054
908142393461696	-0.017444596	0.915905	0.5370374
908142401762478	-0.31592363	1.1425085	0.79157573
908142410063259	-0.5560197	1.2872524	1.027451
908142418364040	-0.9484087	1.5118074	1.0834346
908142426664821	-1.4598849	1.7279911	1.0657916
908142434965603	-1.7171382	1.5872545	1.2756333
908142443266384	-1.7561901	0.73570156	1.457614
908142451567165	-1.3210868	-0.51793957	1.6189904
908142459867946	-0.99894845	-1.5899429	1.7603406
908142468168728	-0.48083687	-2.2172241	1.698693
908142476469509	0.22086468	-2.2492437	1.4210511
908142484770290	0.5380236	-1.6646852	1.1550872
908142493071071	0.669392	-0.9336014	0.8221489
908142501371853	0.44821933	-0.23669147	0.8515527
908142509672634	0.8651445	-0.11775398	0.8171027
908142517973415	1.4280862	-0.36429977	0.36512637
908142526274196	1.6352419	-0.7123318	-0.3902228
908142534574978	1.6455357	-0.70196724	-0.33156955
908142542875759	1.1384335	-1.130579	-0.5572765
908142551176540	0.857118	-1.1500092	-0.10718453
908142559477321	0.9573754	-1.0941029	0.34971213
908142567778103	0.97872925	-1.0914278	0.34589827
908142576078884	1.0883833	-0.90579224	0.6574608
908142584379665	0.5917491	-0.10309124	1.4334877
908142592680446	0.41529825	0.1971426	1.9529599
908142600981228	-0.025447875	0.23638344	1.9508923
908142609282009	-0.28967154	0.16604424	1.3020477
908142617582790	-0.14737982	-0.07536888	0.25813437
908142625883571	-0.17072695	-0.07985878	0.22967076
908142634184353	0.37795463	-0.61560154	-0.8852949
908142642485134	1.9840276	-1.6331701	-3.184456
908142650785915	2.0600297	-1.4114361	-1.2121745
908142659086696	2.0301728	-1.4133263	-1.2426835
908142667387478	1.1093613	-0.1855526	1.4658935
908142675688259	0.6711713	0.25144863	1.666955
908142683989040	0.671537	0.23777294	1.5333712
908142692289821	0.26034084	0.5251751	1.8983432
908142700590603	0.0011857152	0.42925072	2.087973
908142708891384	0.008076221	0.41988373	1.9198637
908142717192165	-1.1176512	0.10567284	3.6667092
908142725492946	-2.0350978	0.15142345	4.0862336
908142733793728	-2.0098991	0.15179348	3.9220564
908142742094509	-3.9966066	0.31518173	3.2714212
908142750395290	-4.306986	0.18993282	2.326324
908142758696071	-4.096832	-0.034775734	1.4160894
908142766996853	-3.3436704	-0.23652363	0.6761565
908142775297634	-3.3137333	-0.2353487	0.68351126
908142783598415	-2.2070749	-0.32920742	0.23832443
908142791899196	-0.4606386	-0.22222233	-0.019431919
908142800199978	0.10470483	-0.1890707	-0.15005563
908142808500759	0.082612306	-0.1909914	-0.091536015
908142816801540	1.0207195	-0.32243824	-0.4578564
908142825102321	0.99625677	-0.3232422	-0.40466705
908142833403103	1.2734857	-0.420125	-0.55532724
908142841703884	1.2107362	-0.58940125	-0.7605861
908142850004665	1.1955466	-0.5884304	-0.7162982
908142858305446	1.0800135	-0.64043045	-0.64606285
908142866606228	0.9825362	-0.7057009	-0.37647516
908142874907009	0.97522676	-0.70363426	-0.33253974
908142883207790	0.95267725	-0.72231865	-0.17189753
908142891508571	0.5496961	-0.45814037	-0.072892964
908142899809353	0.53916454	-0.4556551	-0.018162787
908142908110134	0.30568594	-0.10937977	-0.11345035
908142916410915	0.13746455	0.21413136	-0.30131465
908142924711696	0.09403354	0.3860607	-0.493078
908142933012478	0.12350348	0.22767258	-0.8229453
908142941313259	0.106711924	0.23103523	-0.7572196
908142949614040	0.03510581	0.089860916	-0.8773737
908142957914821	-0.1398774	0.019350052	-0.9522243
908142966215603	-0.3501113	-0.0034313202	-0.9346463
908142974516384	-0.6031653	-0.015886307	-0.76623976
908142982817165	-0.8757943	-0.042520523	-0.4771093
908142991117946	-1.0269842	-0.06771183	-0.23441648
908142999418728	-1.0709621	-0.17168522	-0.079300284
908143007719509	-1.2468799	-0.2712803	0.086238086
908143016020290	-1.426133	-0.3274107	0.30142617
908143024321071	-1.4940404	-0.34571362	0.53520375
908143032621853	-1.4104191	-0.3772421	0.74884325
908143040922634	-1.2271247	-0.50050163	0.9695257
908143049223415	-1.0536577	-0.50496674	1.1016674
908143057524196	-0.8642062	-0.4414463	1.2399862
908143065824978	-0.6807161	-0.32122135	1.3364799
908143074125759	-0.4918139	-0.1500616	1.3886564
908143082426540	0.0051810145	0.27528	1.3188276
908143090727321	0.009963587	0.27378178	1.3027511
908143099028103	0.58483684	0.058918953	0.82295454
908143107328884	0.9784057	-0.13337708	0.30936533
908143115629665	1.1361184	-0.22841835	-0.28589243
908143123930446	0.9472699	-0.22909641	-0.90940434
908143132231228	0.40104496	-0.1426506	-1.3971004
908143140532009	-0.07033205	0.06522083	-1.4863282
908143148832790	-0.3107623	0.18269634	-1.1741726
908143157133571	-0.41208297	0.111058235	-0.73776364
908143165434353	-0.43919367	0.026685715	-0.32138848
908143173735134	-0.44819593	0.0015268326	0.01303041
908143182035915	-0.49491757	0.0043058395	0.23550522
908143190336696	-0.6706357	-0.063783646	0.27000976
908143198637478	-0.6571496	0.04019642	0.40036643
908143206938259	-0.46812394	0.09397125	0.5003563
908143215239040	-0.1671087	0.13255024	0.5747671
908143223539821	0.08337121	0.13865566	0.6234132
908143231840603	0.17911935	0.084840775	0.6133182
908143240141384	0.28740454	0.00319767	0.44342023
908143248442165	0.5925934	-0.0026302338	0.2826779
908143256749563	0.78928757	0.09589577	-0.6749902
908143265050345	1.297836	0.05027294	-0.73632294
908143273351126	1.049276	-0.031889915	-0.058811903
908143281651907	-0.64124703	-0.009114265	0.6093634
908143289952688	-1.1622741	-0.21216774	1.9527423
908143298253470	-0.3123485	-0.7160492	0.4419992
908143306554251	0.36821947	-0.52603436	-1.0477078
908143314855032	0.6248791	-0.055613518	-1.7120771
908143323155813	0.49930602	0.36026478	-1.6693666
908143331456595	0.48581925	0.36158562	-1.6413562
908143339757376	0.19252163	0.5309973	-0.20213974
908143348058157	0.18985847	0.31035614	0.12493062
908143356358938	-0.23303552	0.31630325	0.18692589
908143364659720	-0.5774801	0.1772337	0.05187279
908143372960501	-0.43822008	-0.16487122	-0.11031574
908143381261282	0.1809838	-0.489707	-0.13502932
908143389562063	0.5874024	-0.5830374	-0.07126641
908143397862845	1.1007391	-0.7760258	-0.21100575
908143406163626	1.4278315	-0.7709894	-0.057042897
908143414464407	1.4092057	-0.7703495	-0.06423378
908143422765188	0.69013846	-0.2246046	0.5168164
908143431065970	0.378372	0.045030594	0.81899947
908143439366751	0.43460798	0.48013496	1.3154175
908143447667532	1.1530609	0.3287506	1.4845027
908143455968313	1.5838587	-0.13350773	0.9999533
908143464269095	1.5237325	-0.56233215	0.24798506
908143472569876	0.98873824	-0.79973125	-0.34706688
908143480870657	0.10916911	-0.8367777	-0.4650007
908143489171438	-0.7666414	-0.83863926	-0.32754624
908143497472220	-1.2856998	-0.8192463	-0.19726771
908143505773001	-1.4229345	-0.76645565	-0.13627404
908143514073782	-1.216853	-0.7084532	-0.14954472
908143522374563	-0.7550204	-0.60836124	-0.22148234
908143530675345	-0.73848647	-0.6067095	-0.21693051
908143538976126	0.28121397	-0.08238125	-0.42684096
908143547276907	0.3121719	0.21946621	-0.33877397
908143555577688	0.34361866	0.35129642	-0.17548114
908143563878470	0.35207474	0.3501892	-0.17937326
908143572179251	0.2903328	0.17008305	0.4061333
908143580480032	0.29991877	0.16893005	0.39622116
908143588780813	-0.089549184	-0.12631893	1.1450752
908143597081595	-0.2016981	-0.1407156	1.4577973
908143605382376	-0.19347258	-0.14186478	1.4379871
908143613683157	-0.13345596	-5.712509E-4	1.6249294
908143621983938	0.2973675	0.4645748	1.6924069
908143630284720	0.30027187	0.46191502	1.6679282
908143638585501	0.79189855	0.75115013	1.2768257
908143646886282	0.9438064	0.6594362	0.7526196
908143655187063	0.939893	0.65682983	0.73502153
908143663487845	0.8633692	0.25570965	-0.46982735
908143671788626	0.8589534	0.25456142	-0.47696435
908143680089407	0.7534969	-0.2187624	-0.924937
908143688390188	0.6169756	-0.7696953	-1.0463684
908143696690970	0.25355923	-0.9261141	-0.5860199
908143704991751	0.35625705	-1.1545315	0.2903201
908143713292532	0.53588647	-1.5718975	0.89572567
908143721593313	1.3060701	-2.1010141	1.3874179
908143729894095	2.0708864	-1.9991465	1.5286863
908143738194876	1.5305611	-0.4977131	0.8589666
908143746495657	0.93081856	0.73989105	0.14453298
908143754796438	1.1396868	1.1959591	-0.39711875
908143763097220	1.579731	1.219039	-0.71848243
908143771398001	2.0322797	0.9887943	-0.80805284
908143779698782	2.3531475	0.6693983	-0.61310667
908143787999563	2.5515208	0.04263687	0.56578183
908143796300345	2.5431542	0.040862083	0.52997494
908143804601126	2.2404032	-0.27397823	0.9057728
908143812901907	1.6842655	-0.5308132	1.0539516
908143821202688	1.1957704	-0.6900673	1.0379617
908143829503470	0.89786744	-0.71858025	0.8740611
908143837804251	0.4640233	-0.4393263	0.0970574
908143846105032	0.45122126	-0.439003	0.078982875
908143854405813	0.163196	-0.23929691	-0.30858958
908143862706595	-0.10443342	-0.050164223	-0.51848865
908143871007376	-0.32748014	0.09011078	-0.5209188
908143879308157	-0.53631693	0.18472672	-0.366363
908143887608938	-0.8010417	0.26676655	-0.13904743
908143895909720	-1.1421394	0.35355282	-0.024473913
908143904210501	-1.4314227	0.37529564	0.017019257
908143912511282	-1.6492193	0.20264816	-0.057666488
908143920812063	-1.8082354	-0.050878525	-0.21150507
908143929112845	-1.9122777	-0.2575302	-0.37701148
908143937413626	-1.9441622	-0.37755013	-0.48910752
908143945714407	-1.8384023	-0.44053364	-0.5133081
908143954015188	-1.4711763	-0.48864555	-0.42141435
908143962315970	-0.95185673	-0.53886414	-0.20509823
908143970616751	-0.4866444	-0.5734968	0.07000675
908143978917532	-0.19158478	-0.5923357	0.3330943
908143987218313	0.13895546	-0.6454735	0.6950433
908143995519095	0.12335017	-0.64356804	0.66683865
908144003819876	0.23034534	-0.62099934	0.7723482
908144012120657	0.2539131	-0.5502367	0.8276707
908144020421438	0.25676876	-0.45769405	0.8223926
908144028722220	0.22754726	-0.35857773	0.7523074
908144037023001	0.056078613	-0.24772549	0.61270064
908144045323782	-0.13703224	-0.111611366	0.46673214
908144053624563	-0.24437419	0.021914482	0.43302655
908144061925345	-0.45047712	0.17851067	0.21076134
908144070226126	-0.59637713	0.24317074	-0.31061557
908144078526907	-0.5619517	0.12503338	-1.0506456
908144086827688	-0.5672856	0.12589645	-1.0686951
908144095128470	-0.31459224	-0.28118515	-2.066864
908144103429251	-0.20364678	-0.36403465	-1.948527
908144111730032	-0.1819117	-0.32393932	-1.6060393
908144120030813	-0.18093637	-0.23359013	-1.167211
908144128331595	-0.1472182	-0.16061306	-0.733107
908144136632376	-0.12196332	-0.092718124	-0.38037872
908144144933157	-0.13866436	-0.07304382	-0.07232991
908144153233938	-0.28012905	-0.03395462	0.15175498
908144161534720	-0.40100515	-0.06521988	0.34351796
908144169835501	-0.4110378	-0.06290913	0.31315637
908144178136282	-0.69864947	-0.22164631	0.7058407
908144186437063	-0.82419693	-0.2987919	0.87212604
908144194737845	-0.87369686	-0.33781338	0.94850165
908144203038626	-0.88809115	-0.31584644	0.9612063
908144211339407	-0.8265183	-0.2872858	0.9004835
908144219640188	-0.70722675	-0.2776928	0.7577795
908144227940970	-0.69846326	-0.27536964	0.73066235
908144236241751	-0.5538143	-0.2854929	0.53018975
908144244542532	-0.13379177	-0.34906197	0.081326306
908144252843313	0.09348148	-0.3501444	-0.13338906
908144261144095	0.27312484	-0.3718872	-0.3254841
908144269444876	0.27573636	-0.36952782	-0.34348
908144277745657	0.48230538	-0.47143364	-0.56985253
908144286046438	0.47915867	-0.46816444	-0.5916937
908144294347220	0.50961304	-0.5221462	-0.55861527
908144302648001	0.37222844	-0.4349308	-0.37154728
908144310948782	0.36553857	-0.42970943	-0.40948653
908144319249563	0.30971262	-0.32746983	-0.1931616
908144327550345	0.72838855	-0.29768562	0.19492686
908144335851126	0.713591	-0.28987122	0.1396122
908144344151907	0.83984053	-0.0011405945	0.32465458
908144352452688	0.6774521	0.2545395	0.39037132
908144360753470	0.65354186	0.26357841	0.32912397
908144369054251	0.4648006	0.4719267	0.5327885
908144377355032	0.103226006	0.72322273	1.2955463
908144385655813	0.06248659	0.7859516	1.6095954
908144393956595	0.001565814	0.7772131	1.6893013
908144402257376	0.027042449	0.67199326	1.7726085
908144410558157	0.026714742	0.68050385	1.7142153
908144418858938	0.023252428	0.407897	1.5953712
908144427159720	0.025932193	0.4139862	1.5550431
908144435460501	0.013140202	0.31662273	1.3028302
908144443761282	0.051491976	0.18507195	0.9365442
908144452062063	0.18100733	0.02225113	0.58011055
908144460362845	0.27365327	-0.12330723	0.27361155
908144468663626	0.32659954	-0.24851608	0.028023481
908144476964407	0.3981005	-0.3477173	-0.17882335
908144485265188	0.5170227	-0.42370987	-0.37779772
908144493565970	0.5837456	-0.50098133	-0.58104587
908144501866751	0.4699443	-0.5266161	-0.816038
908144510167532	0.28165072	-0.514904	-1.0247943
908144518468313	0.075381875	-0.49478626	-1.1452463
908144526769095	-0.06643379	-0.5375223	-1.1532212
908144535069876	-0.07564086	-0.72993183	-0.8611864
908144543370657	-0.13611448	-0.7600298	-0.5863826
908144551671438	-0.14540374	-0.7562294	-0.5945822
908144559972220	-0.29855132	-0.75930405	-0.31870604
908144568273001	-0.50960314	-0.7860861	-0.057297707
908144576573782	-0.70035565	-0.78884315	0.15705001
908144584874563	-0.8064065	-0.72136784	0.31485987
908144593175345	-0.90135634	-0.46480656	0.61084783
908144601476126	-0.90522385	-0.45654202	0.5737814
908144609776907	-0.9098069	-0.27335453	0.7073544
908144618077688	-0.87067735	-0.12461662	0.8375608
908144626378470	-0.8006178	-0.018554688	0.9648738
908144634679251	-0.6794223	0.044921875	1.0918908
908144642980032	-0.47303873	0.032097816	1.1865534
908144651280813	-0.21546382	-0.011671066	1.1749582
908144659581595	0.030880928	9.975433E-4	1.0089898
908144667882376	0.22907001	0.054177284	0.7266991
908144676183157	0.3846581	0.122686386	0.37729883
908144684483938	0.49991006	0.18300343	0.0039713383
908144692784720	0.36373824	0.19902611	-0.66068435
908144701085501	0.35597354	0.19851494	-0.65680623
908144709386282	0.12805337	0.13064861	-0.84401584
908144717687063	-0.12776572	0.0588789	-0.95431995
908144725987845	-0.39149845	0.011180878	-0.98104906
908144734288626	-0.6497079	-0.0068864822	-0.9132352
908144742589407	-0.8715848	-0.008257866	-0.65725684
908144750890188	-0.8733367	-0.0044546127	-0.6717336
908144759190970	-0.9743711	0.026280403	-0.49899435
908144767491751	-1.0995419	0.049918175	-0.25990105
908144775792532	-1.2310439	0.077747345	-4.053116E-6
908144784093313	-1.3478904	0.13038826	0.21902013
908144792394095	-1.3453631	0.18021965	0.42230606
908144800694876	-1.3441126	0.26173782	0.50199556
908144808995657	-1.2749753	0.4092598	0.5191822
908144817296438	-1.1849453	0.5780792	0.46718216
908144825597220	-1.1012568	0.7717247	0.31228232
908144833898001	-1.0467324	1.0295181	0.029633522
908144842198782	-1.1090496	1.3518457	-0.29337597
908144850499563	-1.2928495	1.6874189	-0.62400246
908144858800345	-1.5007298	2.0364723	-0.894171
908144867101126	-1.6491897	2.258604	-1.0959041
908144875401907	-1.6534492	2.2557592	-1.2085319
908144883702688	-1.522677	2.041851	-1.2271495
908144892003470	-1.4881905	1.6935196	-1.1929188
908144900304251	-1.563175	1.3747883	-1.0534308
908144908605032	-1.6668464	1.0936213	-0.9377425
908144916905813	-1.7297859	0.8975744	-0.8233297
908144925206595	-1.7420763	0.78203964	-0.7053125
908144933507376	-1.7366128	0.7024746	-0.584008
908144941808157	-1.6702144	0.6907654	-0.3518672
908144950108938	-1.7057333	0.83246803	-0.087905884
908144958409720	-1.659517	0.90842915	0.18248558
908144966710501	-1.3447632	0.88537884	0.4770558
908144975011282	-0.76079464	0.7107239	0.76886964
908144983312063	-0.12495944	0.34156132	0.9872601
908144991612845	0.10827632	-0.18725872	0.9942391
908144999913626	0.4585625	-0.8994875	1.3756008
908145008214407	1.0674087	-1.6224575	1.7156107
908145016515188	1.5084758	-2.0684614	1.3176665
908145024815970	1.517393	-2.0858498	1.4126196
908145033116751	1.3146132	-2.1921139	-1.392351
908145041417532	1.0443362	-1.8628693	-3.098319
908145049718313	1.0041233	-1.3190317	-4.6084266
908145058019095	1.0982226	-0.5633478	-5.429773
908145066319876	1.1174848	-0.5888901	-5.2038145
908145074620657	1.3886863	0.1388092	-5.2217073
908145082921438	2.7200065	1.0138006	-3.402072
908145091222220	3.4074936	1.2907362	-2.0398839
908145099523001	3.3139894	1.7679005	-0.6063173
908145107823782	2.3819098	2.3016415	0.5904107
908145116124563	2.3628042	2.2954502	0.63945127
908145124425345	0.028918687	2.593089	1.9343004
908145132726126	0.082765035	2.0199356	2.338091
908145141026907	0.8511049	1.1816893	2.5562367
908145149327688	0.97422713	0.83244896	2.8896415
908145157628470	0.4880247	0.46732235	3.058691
908145165929251	0.069614395	0.0074853897	3.0468097
908145174230032	0.085518986	-0.56802845	2.9097214
908145182530813	0.38720366	-1.2533541	2.7282217
908145190831595	0.50218934	-1.2456722	2.7637296
908145199132376	0.7133024	-1.7548304	2.6139994
908145207433157	1.1383972	-2.7644405	1.3550918
908145215733938	1.2430543	-2.7493057	1.4418762
908145224034720	1.6648914	-3.2667942	0.08950542
908145232335501	2.0527	-3.6972485	-1.7807806
908145240636282	2.0899591	-3.9513264	-3.5114162
908145248937063	0.97410965	-3.933693	-3.3485878
908145257237845	1.0289742	-3.91043	-3.2242298
908145265538626	0.6991066	-3.7754211	-2.3371031
908145273839407	0.46435106	-3.581296	-1.3839275
908145282140188	0.28626907	-3.3515701	-0.51843315
908145290440970	-0.11792004	-2.8021898	0.73512053
908145298741751	-0.4202125	-2.4079742	1.0206583
908145307042532	-0.4264667	-2.4039316	1.0190996
908145315343313	-0.63079655	-2.0383167	1.0730319
908145323644095	-0.7634556	-1.7596426	0.969883
908145331944876	-0.8661058	-1.5774069	0.81113374
908145340245657	-0.94523025	-1.4234467	0.7063344
908145348546438	-1.014281	-0.9946737	0.6450419
908145356847220	-1.0936358	-0.4319744	0.7691885
908145365148001	-1.2064569	0.33177757	1.0539083
908145373448782	-1.5785575	1.2195272	1.1280383
908145381749563	-2.4994464	2.1052027	0.47140855
908145390050345	-4.194839	2.8552055	-1.4432508
908145398351126	-7.3530245	2.5042257	-7.6863317
908145406651907	-7.2666936	2.5180655	-7.5960145
908145414952688	-7.150773	1.4147854	-6.945881
908145423253470	-6.41157	0.35044765	-4.8954206
908145431554251	-5.4286585	-0.2554407	-3.0041876
908145439855032	-3.219925	-0.50673485	-0.86609364
908145448155813	-2.2188663	-0.5705557	-0.17092061
908145456456595	-2.2104473	-0.5651283	-0.14952171
908145464757376	-1.4183162	-0.57147026	0.4518311
908145473058157	-0.6890919	-0.5127897	0.94191086
908145481358938	0.066854	-0.39388847	1.268698
908145489659720	1.6341983	0.16246128	1.3774177
908145497960501	2.2841284	0.7928934	1.3004855
908145506261282	2.2169602	0.766593	1.1980046
908145514562063	2.6156523	1.921319	1.1476877
908145522862845	3.0497062	3.711873	1.4714954
908145531163626	3.9502609	6.0487843	2.4194295
908145539464407	5.767244	8.52343	3.8068907
908145547765188	8.848519	8.438548	1.5823723
908145556065970	10.512867	5.353361	-2.5262566
908145564366751	9.541493	2.0936604	-4.3436203
908145572667532	7.1122575	-0.30024052	-3.6990907
908145580968313	4.83939	-1.6757622	-1.8948594
908145589269095	3.6164968	-2.3862457	-0.3485448
908145597569876	3.3309672	-2.776394	0.6542002
908145605870657	3.020294	-2.8761253	1.1515085
908145614171438	2.56575	-2.7495975	1.3529239
908145622472220	2.0071094	-2.5031414	1.411215
908145630773001	1.490428	-2.2733126	1.4023805
908145639073782	1.2281799	-2.2067595	1.3058943
908145647374563	1.1600021	-2.2147932	1.2353221
908145655675345	1.1167208	-2.0576286	1.3623345
908145663976126	1.1492541	-1.7479191	1.5662867
908145672276907	1.2130127	-1.3112469	1.7228599
908145680577688	1.3086585	-0.8186531	1.7756722
908145688878470	1.5917633	-0.40762424	1.7969697
908145697179251	1.93892	-0.076743126	1.9123056
908145705480032	2.1211848	0.23386955	1.9951899
908145713780813	1.7750978	0.63563824	2.1645083
908145722081595	1.0028923	0.92535496	2.3533123
908145730382376	0.07192123	0.8714657	2.458321
908145738683157	-0.8459087	0.47916222	2.473147
908145746983938	-1.5803216	-0.12174797	2.2453504
908145755284720	-2.0998182	-0.68233013	1.8243823
908145763585501	-2.482918	-1.044487	1.3178415
908145771886282	-2.7876253	-1.1955051	0.84626496
908145780187063	-2.7426503	-1.189825	0.79287636
908145788487845	-3.2407537	-1.2221785	0.12935197
908145796788626	-3.1730824	-1.2267027	-0.170946
908145805089407	-2.8746538	-1.3486528	-0.6384795
908145813390188	-2.4645002	-1.5062809	-1.2009457
908145821690970	-2.469567	-1.4956999	-1.2457237
908145829991751	-2.3224487	-1.4928217	-2.3748527
908145838292532	-2.6239982	-1.2490988	-2.7250972
908145846593313	-2.848251	-0.97584724	-2.6623673
908145854894095	-2.7528977	-0.7833462	-2.2368708
908145863194876	-2.5126905	-0.6311054	-1.6318128
908145871495657	-2.2810144	-0.46353817	-0.9888283
908145879796438	-2.1272826	-0.24695683	-0.391217
908145888097220	-1.9742736	-0.017784119	0.15052235
908145896398001	-1.5405669	-0.016436577	0.5930779
908145904698782	-1.0007167	-0.06802845	0.978039
908145912999563	-0.39279526	-0.14195728	1.2737634
908145921300345	0.24456704	-0.20610237	1.4712853
908145929601126	0.24836361	-0.18084049	1.3670745
908145937901907	1.182695	-0.2689352	1.4707725
908145946202688	1.35038	-0.28984165	1.2785504
908145954503470	1.2365353	-0.23381233	0.99133515
908145962804251	0.8990605	-0.05838108	0.7041936
908145971105032	0.87247103	-0.044639587	0.66248775
908145979405813	0.4408512	0.22634125	0.4080479
908145987706595	0.0858987	0.53772545	0.15242839
908145996007376	0.1299169	0.98702145	-0.17717052
908146004308157	0.12920982	0.9810991	-0.16379738
908146012608938	0.24224687	1.0506439	-0.20299888
908146020909720	0.30114573	1.053031	-0.18816519
908146029210501	0.25055146	0.97275734	-0.16329527
908146037511282	0.2739731	0.9593859	-0.12963629
908146045812063	-0.189435	0.5935097	-0.2795987
908146054112845	-0.4890681	0.39804173	-0.20090461
908146062413626	-0.75772184	0.29598522	-0.08786559
908146070714407	-1.0448017	0.29004288	0.039583206
908146079015188	-1.3430152	0.40440178	0.17010951
908146087315970	-1.307937	0.39774323	0.18532252
908146095616751	-1.6695409	0.93358135	0.36388898
908146103917532	-1.4414762	1.1964989	0.38093424
908146112218313	-1.201843	1.4751472	0.33923793
908146120519095	-0.89029557	1.609868	0.28083515
908146128819876	-0.5797395	1.6161833	0.17813373
908146137120657	-0.45517963	1.5953445	-0.0065226555
908146145421438	-0.6995594	1.5082283	-0.17208004
908146153722220	-1.0659218	1.3440685	-0.37708068
908146162023001	-1.6120596	1.2046785	-0.5306721
908146170323782	-2.0606577	0.93032265	-0.66125965
908146178624563	-2.3518238	0.5293617	-0.7318673
908146186925345	-2.3065946	0.5195341	-0.70001197
908146195226126	-2.5228958	-0.4475832	-0.36210203
908146203526907	-2.1975543	-1.0181293	-0.07507253
908146211827688	-1.9425004	-1.4725475	0.17103958
908146220128470	-1.6809562	-1.7812452	0.33802915
908146228429251	-1.39044	-1.8797379	0.42312574
908146236730032	-1.3190308	-1.8900881	0.49049306
908146245030813	-0.92798316	-1.2202692	0.4933673
908146253331595	-0.58966297	-0.512702	0.7670852
908146261632376	-0.05031985	0.22193527	1.1523991
908146269933157	0.7498808	0.8772669	1.6650612
908146278233938	1.7619245	1.4793768	2.1500819
908146286534720	2.8568263	2.0894203	2.382392
908146294835501	3.8426328	2.503398	2.1402776
908146303136282	4.4958076	2.6262207	1.8451815
908146311437063	4.9689317	2.7475395	1.835041
908146319737845	4.9023986	2.7294369	1.9252083
908146328038626	5.704094	2.495101	0.79266554
908146336339407	5.559785	2.3104792	-0.1621291
908146344640188	4.562451	1.9595728	-1.5926678
908146352940970	2.83039	1.453064	-2.2892718
908146361241751	1.370991	0.8157301	-2.7622418
908146369542532	0.37561947	0.09019756	-2.8822343
908146377843313	0.48640472	0.09018421	-2.6979847
908146386144095	-0.025682569	-0.61161137	-2.3591056
908146394444876	-0.4632662	-1.4809513	-0.7401604
908146402745657	-0.6253839	-1.5712299	0.3748958
908146411046438	-0.5775144	-1.632163	1.2870222
908146419347220	-0.366315	-1.7428007	1.9414496
908146427648001	0.12635303	-1.9675598	2.2168765
908146435948782	0.23547065	-1.9445	2.2845201
908146444249563	2.0110106	-2.6816492	1.0835164
908146452550345	2.3853583	-2.9768877	0.34225738
908146460851126	2.5798335	-3.2160206	-0.20082885
908146469151907	2.6227684	-3.1958704	-0.1445961
908146477452688	2.3139842	-3.2891197	-0.30875945
908146485753470	2.3420024	-3.2723265	-0.26919127
908146494054251	1.9087734	-3.547865	0.560321
908146502355032	1.9507117	-3.7832584	0.5339298
908146510655813	1.9470904	-3.7730398	0.55027294
908146518956595	1.8241582	-3.7907162	0.5454768
908146527257376	1.1029884	-3.4196348	0.50014555
908146535558157	1.0726571	-3.4160109	0.5062431
908146543858938	0.61272967	-2.8846416	0.4202584
908146552159720	0.48284733	-2.4353218	0.49898672
908146560460501	0.43707538	-2.437292	0.49440324
908146568761282	0.6178423	-0.91833115	0.5997031
908146577062063	0.7156346	0.25994587	0.58268476
908146585362845	0.6527879	0.25026512	0.5717726
908146593663626	-0.33430493	3.6886168	-0.4241283
908146601964407	-0.37328887	3.6761951	-0.42415893
908146610265188	-2.8267174	5.4299955	-3.800933
908146618565970	-4.989505	5.876359	-6.1266613
908146626866751	-5.69312	4.711301	-6.2784314
908146635167532	-5.140444	2.6362228	-4.8404746
908146643468313	-5.201103	0.5777302	-2.9867609
908146651769095	-4.7263837	0.36645126	-2.0392275
908146660069876	-4.660838	0.37964344	-2.0025926
908146668370657	-3.673038	0.16356468	-1.0042624
908146676671438	-2.4605775	-0.09751701	-0.056214333
908146684972220	-1.2543267	-0.40158176	0.7251085
908146693273001	0.67154133	-1.0091896	1.4128151
908146701573782	0.6557759	-1.0158463	1.3717856
908146709874563	0.9907557	-0.97841835	1.2521204
908146718175345	1.0375628	-0.64822197	1.1890718
908146726476126	0.97524226	-0.2313652	1.2712305
908146734776907	0.9241538	0.18219185	1.4411995
908146743077688	0.89016056	0.16179657	1.305335
908146751378470	0.6821989	1.7019577	1.4473548
908146759679251	0.7921556	3.2616358	1.4397535
908146767980032	1.7694292	5.1854277	2.4832835
908146776280813	3.7243266	6.768776	3.810356
908146784581595	6.0040483	6.9699306	4.0583844
908146792882376	5.822993	6.938284	3.949341
908146801183157	6.013207	1.9548225	0.031853616
908146809483938	4.9533725	-0.013702393	-0.99403965
908146817784720	4.236451	-1.3998909	-1.3272704
908146826085501	3.7176294	-2.38871	-1.30442
908146834386282	3.2332652	-3.0572538	-1.132797
908146842687063	2.7225976	-3.3539047	-0.81875575
908146850987845	1.9103855	-3.1007519	-0.6171387
908146859288626	1.1994585	-2.7540035	-0.31795204
908146867589407	0.8321127	-2.508502	-0.05866486
908146875890188	0.7981206	-2.3571587	0.15306786
908146884190970	0.93737036	-2.187621	0.34327185
908146892491751	1.0259333	-1.8429203	0.5422812
908146900792532	1.2463319	-1.3603315	0.8830513
908146909093313	1.6607018	-0.86137104	1.2812201
908146917394095	2.0559196	-0.31787872	1.7144427
908146925694876	2.3595877	0.21621704	2.1418805
908146933995657	2.4844837	0.6491327	2.5242784
908146942296438	2.4145226	0.66017723	2.401496
908146950597220	1.2839096	0.9224634	3.0150344
908146958898001	0.3506828	0.6618948	2.866733
908146967198782	-0.34490496	0.12308979	2.5725682
908146975499563	-0.8063957	-0.5147648	2.199015
908146983800345	-1.0984904	-1.0479689	1.7622085
908146992101126	-1.0808961	-1.0353985	1.6771762
908147000401907	-1.2872988	-1.425767	0.7753866
908147008702688	-1.4312114	-1.3904581	0.35515082
908147017003470	-1.5199805	-1.3387146	0.016275048
908147025304251	-1.6684527	-1.2779818	-0.25648808
908147033605032	-2.0053525	-1.1994314	-0.50189435
908147041905813	-2.4897265	-1.1204948	-0.7729049
908147050206595	-3.0092657	-1.1257763	-1.0494169
908147058507376	-2.9860566	-1.2774134	-1.4004506
908147066808157	-2.516871	-1.3438625	-1.6097991
908147075108938	-2.5134199	-1.3370104	-1.628689
908147083409720	-1.769849	-0.9959345	-1.2510911
908147091710501	-1.7742934	-0.9851675	-1.2927958
908147100011282	-1.4041885	-0.8096695	-0.42220676
908147108312063	-1.3827417	-0.65951824	-0.14467919
908147116612845	-1.355991	-0.49540615	-0.0031241179
908147124913626	-1.2377479	-0.33602905	0.071594715
908147133214407	-0.9920236	-0.18647194	0.14735198
908147141515188	-0.99532986	-0.16460705	0.05651331
908147149815970	-0.0994153	0.02276516	0.3046677
908147158116751	0.3133276	0.16959476	0.28197932
908147166417532	0.57878774	0.36688423	0.2245264
908147174718313	0.539618	0.3901434	0.14761972
908147183019095	0.72745216	0.7574949	0.17269373
908147191319876	0.48664272	0.96430016	0.23634171
908147199620657	0.18302494	1.2047005	0.29010367
908147207921438	-0.059442163	1.3232718	0.32094598
908147216222220	-0.06304175	1.3283234	0.29583883
908147224523001	-0.18786436	1.2901964	0.22924018
908147232823782	-0.34180295	1.0658684	-0.09765959
908147241124563	-0.6165506	0.95208836	-0.21204853
908147249425345	-1.0505579	0.90324306	-0.2754619
908147257726126	-1.4635313	0.8831301	-0.22481775
908147266026907	-1.4334643	0.8718357	-0.20076632
908147274327688	-1.7527993	0.9102411	-0.12329817
908147282628470	-2.0016031	1.2679462	0.08377075
908147290929251	-1.8170495	1.5160389	0.328784
908147299230032	-1.4753437	1.7756548	0.5162587
908147307530813	-1.1403589	1.9787683	0.47307515
908147315831595	-1.1146665	1.9635267	0.50654864
908147324132376	-0.8666962	2.0567312	0.10880113
908147332433157	-1.034187	1.9624691	-0.14888668
908147340733938	-1.4614271	1.8094215	-0.3022051
908147349034720	-1.7727326	1.5137815	-0.44453478
908147357335501	-1.957205	1.2170668	-0.57188773
908147365636282	-1.8924457	0.8215313	-0.533375
908147373937063	-1.8634213	0.8032961	-0.46756196
908147382237845	-1.5999918	0.26549053	-0.2539928
908147390538626	-0.8375207	-0.90956116	0.16346574
908147398839407	-0.46287587	-1.557437	0.22712266
908147407140188	-0.48621202	-1.7199335	0.24845445
908147415440970	-0.4424988	-1.7329473	0.32567322
908147423741751	-0.45009702	-1.6427298	0.3708428
908147432042532	-0.35075527	-1.4412594	0.4550966
908147440343313	-0.028433383	-0.8408041	0.8785709
908147448644095	0.63061583	-0.6509161	1.1810855
908147456944876	0.6874712	-0.6642952	1.2788846
908147465245657	1.1708875	-0.11441326	1.4765347
908147473546438	1.492162	0.64923954	1.5860673
908147481847220	1.7721987	1.4750423	1.6173462
908147490148001	3.072525	2.803959	1.5927573
908147498448782	3.0590134	2.7882376	1.692433
908147506749563	4.4461207	3.0427532	2.2273576
908147515050345	5.646157	3.1040602	1.5295229
908147523351126	5.94957	3.2217884	-0.59924906
908147531651907	4.902396	3.2799501	-3.7489135
908147539952688	2.6836636	2.9290962	-6.7468085
908147548253470	1.2639838	1.7680893	-5.9427395
908147556554251	0.246949	0.59027386	-3.5150137
908147564855032	-0.4194003	-0.34942627	-1.8269159
908147573155813	-0.7622092	-1.1146812	-0.71828634
908147581456595	-0.9360157	-1.6523447	0.16974843
908147589757376	-1.1051004	-1.8863792	1.1538255
908147598058157	-0.8840523	-2.0200958	2.240188
908147606358938	-0.1734873	-2.1980915	2.841164
908147614659720	0.78192663	-2.4211063	3.2908936
908147622960501	1.7828931	-2.6714325	3.377211
908147631261282	2.6364775	-2.9393969	2.877715
908147639562063	3.2043228	-3.234003	1.7733386
908147647862845	3.371695	-3.600237	0.47682726
908147656163626	3.1454306	-3.9763565	-0.4965484
908147664464407	2.8410583	-4.289809	-0.94837344
908147672765188	2.4935079	-4.483529	-0.8937119
908147681065970	2.1253157	-4.5410595	-0.4980935
908147689366751	2.129862	-4.527405	-0.47863162
908147697667532	1.5455964	-4.304702	0.30223036
908147705968313	1.4584144	-4.266054	0.5352453
908147714269095	1.405334	-4.094537	0.7045896
908147722569876	1.3284963	-3.7829065	0.7603265
908147730870657	1.2367132	-3.333335	0.73445153
908147739171438	1.1761594	-2.7428102	0.7328526
908147747472220	1.0957109	-2.0897589	0.8079891
908147755773001	1.1581283	-1.1447678	1.0434539
908147764073782	1.3198762	0.23055744	1.3980335
908147772374563	1.482274	2.1283474	1.8370745
908147780675345	1.0877426	4.608164	1.7498124
908147788976126	-0.8189016	7.424548	-0.14528322
908147797276907	-5.5102334	9.1302	-6.365686
908147805577688	-7.3164363	7.508588	-8.025555
908147813878470	-7.1645412	4.518771	-7.1388216
908147822179251	-6.68033	1.8702669	-5.5840244
908147830480032	-6.524887	1.8976126	-5.506559
908147838780813	-6.5104923	-0.5601063	-2.9787874
908147847081595	-5.7748804	-1.2031908	-1.6661462
908147855382376	-4.4649935	-1.8028908	-0.24268782
908147863683157	-2.9881463	-2.3507423	1.0759553
908147871983938	-1.6334126	-2.7140875	2.097739
908147880284720	-0.6034943	-2.7777357	2.7617362
908147888585501	0.0072569847	-2.5083466	3.1497083
908147896886282	0.39214194	-1.8875694	3.198962
908147905187063	0.51606834	-1.1107197	3.180252
908147913487845	0.5264833	-0.24116135	2.9922938
908147921788626	0.4773438	0.8594475	2.6705985
908147930089407	0.3965162	0.828701	2.5421147
908147938390188	0.7329962	4.2830105	2.2531905
908147946690970	2.0357952	6.908169	3.1868227
908147954991751	5.0903554	9.858271	4.900163
908147963292532	8.844905	11.338863	3.9430704
908147971593313	8.611758	11.29078	3.8327663
908147979894095	11.077473	9.567379	-0.09269777
908147988194876	8.524342	0.36651897	-7.064786
908147996495657	5.5123224	-2.266096	-6.1784124
908148004796438	3.514485	-3.7506905	-3.9285102
908148013097220	2.486558	-4.659403	-1.6762784
908148021398001	2.470417	-4.6399803	-1.5663793
908148029698782	2.0732288	-5.3622637	1.2209362
908148037999563	2.0570245	-5.3492537	1.2345961
908148046300345	1.03008	-4.3447924	1.5625145
908148054601126	0.65696394	-3.5587673	1.3662664
908148062901907	0.49659485	-2.8497267	1.2864127
908148071202688	0.47210097	-2.848197	1.2289026
908148079503470	0.82340515	-1.3008642	1.5018169
908148087804251	1.472942	-0.40925026	1.6479836
908148096105032	2.5361571	0.48769474	1.8296776
908148104405813	3.8074381	1.1740532	2.0391986
908148112706595	4.6235013	1.7862043	2.3464499
908148121007376	4.5848765	2.1413984	2.7217908
908148129308157	4.475075	2.1422482	2.602477
908148137608938	3.5700243	2.0014992	2.9364233
908148145909720	0.7205182	0.44203854	3.1915166
908148154210501	-0.40104973	-0.429842	2.978358
908148162511282	-0.38579375	-0.42602253	2.8412366
908148170812063	-1.2760096	-1.0775089	2.547183
908148179112845	-1.9023314	-1.4465551	2.2319844
908148187413626	-2.2451162	-1.6104393	1.9193633
908148195714407	-2.575221	-1.5905943	1.415586
908148204015188	-2.5634615	-1.5304337	1.1743224
908148212315970	-2.5321264	-1.5217485	1.099288
908148220616751	-2.5755916	-1.4658632	0.7640523
908148228917532	-2.8262863	-1.338357	-0.008053303
908148237218313	-2.8135319	-1.3294077	-0.061786294
908148245519095	-3.1322794	-1.2158222	-0.39835274
908148253819876	-3.258761	-1.2035093	-0.58651626
908148262120657	-3.5776777	-1.1625404	-0.77208126
908148270421438	-3.7311356	-1.1948814	-1.1311636
908148278722220	-3.422658	-1.2226601	-1.5186011
908148287023001	-2.6544652	-1.118165	-1.727986
908148295323782	-1.8573872	-0.76264095	-1.6217177
908148303624563	-1.6705309	-0.31896877	-1.2942566
908148311925345	-1.585778	-0.044046402	-1.0368108
908148320226126	-1.5008495	0.013238907	-0.8532001
908148328526907	-1.3593287	-0.10111427	-0.6928358
908148336827688	-1.1373472	-0.3103199	-0.5278863
908148345128470	-0.84014195	-0.5523195	-0.41420054
908148353429251	-0.6056826	-0.6345539	-0.3995824
908148361730032	-0.5776396	-0.5550175	-0.42122388
908148370030813	-0.5745081	-0.39758873	-0.4358425
908148378331595	-0.5040366	-0.23814201	-0.47269893
908148386632376	-0.3453099	-0.12583256	-0.54499936
908148394933157	-0.12795389	-0.044553757	-0.56935906
908148403233938	0.07101381	0.19009781	-0.50203013
908148411534720	0.29451877	0.5305548	-0.42828083
908148419835501	0.5263277	0.89394283	-0.31595325
908148428136282	0.78860235	1.2131147	-0.13921738
908148436437063	1.1714904	1.5852318	0.38966346
908148444737845	1.1593192	1.5868311	0.3741386
908148453038626	1.1643375	1.6557217	0.6628871
908148461339407	0.9631312	1.6419907	0.95152736
908148469640188	0.6167319	1.5637493	1.225527
908148477940970	0.14068621	1.4564352	1.370539
908148486241751	-0.4304129	1.3639383	1.2851894
908148494542532	-0.9101948	1.359911	0.96147156
908148502843313	-1.0890069	1.4390621	0.48424435
908148511144095	-1.2236478	1.6325397	-0.037508488
908148519444876	-1.2860626	1.8382463	-0.5436697
908148527745657	-1.3154149	1.9742823	-0.93886137
908148536046438	-1.3927383	1.9929037	-1.1445415
908148544347220	-1.561431	1.8810921	-1.1547391
908148552648001	-1.8857524	1.7434635	-1.0459201
908148560948782	-2.0625906	1.4552078	-0.8388896
908148569249563	-2.035975	1.0101337	-0.5707214
908148577550345	-1.8914291	0.4776411	-0.26716304
908148585851126	-1.7870431	-0.0395689	0.02518797
908148594151907	-1.802714	-0.48808956	0.16842508
908148602452688	-1.758661	-0.86071396	0.38040614
908148610753470	-1.5798789	-1.1395769	0.5278461
908148619054251	-1.3060493	-1.285574	0.69764066
908148627355032	-0.94192296	-1.3502197	0.87021613
908148635655813	-0.53151304	-1.3723221	0.96990025
908148643956595	-0.36975503	-1.1129627	0.9468807
908148652257376	-0.5341924	-0.5251789	0.8684552
908148660558157	-0.6087324	0.16561508	0.8094243
908148668858938	-0.56455004	0.14274979	0.93186855
908148677159720	-0.16771577	1.5701704	1.0606585
908148685460501	-0.14395124	1.5474396	1.1892449
908148693761282	1.6382507	2.6710672	1.2389705
908148702062063	2.793706	2.8869114	1.4131383
908148710362845	4.3727903	3.07382	1.3303142
908148718663626	5.9390235	3.0663328	0.54595184
908148726964407	5.859394	3.051962	0.6691993
908148735265188	6.2006316	2.8800764	-0.9909925
908148743565970	1.468199	1.9439621	-5.242102
908148751866751	0.032652408	0.7673187	-4.714758
908148760167532	-0.6662836	-0.13597965	-3.0584629
908148768468313	-0.83302754	-0.77601814	-1.3408073
908148776769095	-0.68892556	-0.7747612	-1.2185198
908148785069876	-0.5705495	-1.5744019	0.7710868
908148793370657	0.020109445	-1.9115734	1.5608389
908148801671438	0.8801774	-2.3033667	2.0381966
908148809972220	1.5472728	-2.6408348	2.290117
908148818273001	1.936785	-2.8930826	2.1700747
908148826573782	2.0228024	-2.8767128	2.2320223
908148834874563	2.1345518	-3.0148382	1.7919149
908148843175345	1.8129607	-3.1113453	0.61011016
908148851476126	1.864387	-3.2662716	-0.10630506
908148859776907	2.02436	-3.403616	-0.6332306
908148868077688	2.0700073	-3.3872032	-0.5875598
908148876378470	2.131103	-3.4868307	-0.7582812
908148884679251	2.014701	-3.5487242	-0.5479508
908148892980032	1.5046062	-3.6201706	0.26829183
908148901280813	1.3939724	-3.7320385	0.4980755
908148909581595	1.2915839	-3.8518505	0.670037
908148917882376	1.2786036	-3.8465261	0.65395176
908148926183157	1.1825114	-3.889618	0.7863257
908148934483938	0.91658145	-3.3779287	0.94363517
908148942784720	0.68380594	-2.7753916	0.9644925
908148951085501	0.5701705	-1.9611788	0.9775054
908148959386282	0.64926845	-0.8826513	1.0682597
908148967687063	0.5907336	-0.8874998	1.0459152
908148975987845	0.8611568	0.56830215	1.3249273
908148984288626	0.592924	5.137143	0.98219115
908148992589407	-2.3022704	7.4405355	-2.402773
908149000890188	-2.310941	7.4263945	-2.3725092
908149009190970	-6.9333334	5.549755	-8.715861
908149017491751	-6.846875	5.552121	-8.611911
908149025792532	-6.221497	2.6519384	-7.2145176
908149034093313	-5.6900463	0.49492645	-5.437296
908149042394095	-5.70363	-0.6512718	-3.858618
908149050694876	-5.615168	-1.1970873	-2.4417763
908149058995657	-5.1587973	-1.4433823	-1.1835507
908149067296438	-4.349279	-1.6087952	-0.023331761
908149075597220	-3.4546962	-1.6424093	1.0754043
908149083898001	-2.6963875	-1.497035	2.034484
908149092198782	-2.1520333	-1.1985512	2.7064626
908149100499563	-1.3246659	0.34889317	3.3609586
908149108800345	-1.3468038	0.3353119	3.298459
908149117101126	-1.1178787	1.8780107	3.3200998
908149125401907	-1.0007135	4.0344973	3.2366562
908149133702688	-0.6142806	6.640585	3.507048
908149142003470	4.0443106	10.962438	8.323627
908149150304251	3.929217	10.913948	8.174894
908149158605032	8.230828	9.221595	7.0465674
908149166905813	10.029162	5.4677057	2.855535
908149175206595	9.722022	1.5681334	-1.7391105
908149183507376	8.601203	-1.4456644	-5.4560447
908149191808157	7.6648173	-3.557911	-8.321164
908149200108938	6.0580516	-4.5365343	-5.827056
908149208409720	4.987897	-5.0882463	-3.397675
908149216710501	4.3856134	-5.3227835	-1.5044065
908149225011282	4.1336036	-5.3058033	-0.03810668
908149233312063	3.8803108	-5.0719757	1.0703974
908149241612845	3.1353574	-4.6281586	1.7070358
908149249913626	2.395757	-4.1219807	2.062285
908149258214407	2.2508597	-3.6185598	2.1888552
908149266515188	2.526474	-2.9585457	2.2691016
908149274815970	2.9947774	-2.1087132	2.3446178
908149283116751	3.4085805	-1.1166658	2.3865492
908149291417532	3.2176661	0.7846279	2.372378
908149299718313	3.186376	0.7849102	2.264059
908149308019095	2.2792017	1.5448742	2.2157278
908149316319876	0.9635685	2.026267	2.1201181
908149324620657	-0.44734907	2.1186914	1.9812133
908149332921438	-1.5705714	1.7538509	1.8465402
908149341222220	-2.1747346	0.98971367	1.7894353
908149349523001	-2.3688002	0.17299747	1.9488559
908149357823782	-2.282614	-0.48418236	2.0123777
908149366124563	-2.067022	-1.0901976	1.858656
908149374425345	-1.9285526	-1.530055	1.5191692
908149382726126	-1.9888967	-1.7104855	1.1163479
908149391026907	-1.9842992	-1.6955385	1.0148009
908149399327688	-2.5050664	-1.5867767	0.6617477
908149407628470	-2.8353856	-1.6151228	0.6775197
908149415929251	-3.2742267	-1.6356058	0.72769845
908149424230032	-3.2408886	-1.6202841	0.6381575
908149432530813	-4.5131927	-1.4899998	0.6417389
908149440831595	-4.462236	-1.4749479	0.55810094
908149449132376	-5.077452	-0.998744	-0.3532318
908149457433157	-3.8312638	-0.93036175	-0.62638426
908149465733938	-2.7008753	-0.7982731	-0.8623936
908149474034720	-2.0609887	-0.5079069	-1.0268683
908149482335501	-2.074792	-0.4936409	-1.0830919
908149490636282	-1.6166035	0.20783138	-0.79538774
908149498937063	-1.2008619	0.2810278	-0.51239324
908149507237845	-0.6581696	0.18866825	-0.21938396
908149515538626	-0.07801974	0.022471428	0.008122683
908149523839407	0.41709185	-0.1437149	0.13948274
908149532140188	0.37287283	-0.124197006	0.07514095
908149540440970	1.0231781	-0.2821436	0.22466779
908149548741751	1.1102684	-0.28129578	0.1663022
908149557042532	1.0643492	-0.17934418	0.10731387
908149565343313	0.8283467	0.031126022	0.058335543
908149573644095	0.7999567	0.041633606	0.02944231
908149581944876	0.42064315	0.31921005	-0.009082794
908149590245657	7.084608E-4	0.6276207	-0.08239293
908149598546438	-0.30041534	1.2091274	-0.4111321
908149606847220	-0.1351015	1.3899326	-0.53300905
908149615148001	-0.11749822	1.5103817	-0.578897
908149623448782	-0.105362296	1.4985752	-0.550967
908149631749563	-0.3439659	1.5126791	-0.50116324
908149640050345	-1.3062856	1.2301416	-0.35356784
908149648351126	-1.6348004	1.1185646	-0.30902505
908149656651907	-1.7828823	1.0682764	-0.27895093
908149664952688	-1.8516152	1.0578222	-0.30206656
908149673253470	-1.8244357	1.0484056	-0.28064227
908149681554251	-1.8735777	1.1264992	-0.34729862
908149689855032	-2.014979	1.5306282	-0.40801954
908149698155813	-1.995156	1.5226669	-0.39262438
908149706456595	-2.176908	1.865632	-0.4092791
908149714757376	-2.3392067	1.9743242	-0.39245892
908149723058157	-2.3195412	1.9663544	-0.3798418
908149731358938	-2.496992	2.0616817	-0.3508911
908149739659720	-2.5988622	1.8648643	-0.26960588
908149747960501	-2.1370976	1.4764547	-0.21638465
908149756261282	-2.1168416	1.4679165	-0.19683194
908149764562063	-1.6953709	0.9816456	-0.097890854
908149772862845	-1.4576442	0.36598206	-0.0071418285
908149781163626	-1.2917957	-0.3391199	0.031264305
908149789464407	-1.0390285	-1.0368109	0.011497498
908149797765188	-0.8341991	-1.5780487	0.06111884
908149806065970	-0.6458234	-1.8788252	0.11955571
908149814366751	-0.52537334	-1.8911867	0.22687006
908149822667532	-0.41797054	-1.6854086	0.38021636
908149830968313	-0.2076745	-1.3283253	0.5506599
908149839269095	0.18801618	-0.8754959	0.7160411
908149847569876	0.7083797	-0.23041534	0.9349786
908149855870657	1.140538	0.44642448	1.0930831
908149864171438	1.7005018	1.1261196	1.1736062
908149872472220	2.490895	1.6222801	1.094376
908149880773001	3.449187	1.9515257	0.97952163
908149889073782	5.8732257	2.6606426	2.5974092
908149897374563	5.8132524	2.6489544	2.648562
908149905675345	6.3025975	3.114151	3.799714
908149913976126	5.6804223	3.1800213	3.2043462
908149922276907	4.3138375	2.8203268	1.4397347
908149930577688	2.6025338	2.2040272	-1.1213372
908149938878470	0.8847035	1.5505857	-4.1821637
908149947179251	-0.5360632	0.8811455	-6.8742185
908149955480032	-0.46970308	0.098041534	-5.984625
908149963780813	0.08632064	-0.5960722	-4.234785
908149972081595	0.82136387	-1.057991	-2.5252
908149980382376	1.4395008	-1.2979517	-1.1126335
908149988683157	1.7278106	-1.420188	0.099233866
908149996983938	1.7261983	-1.5127134	1.0989711
908150005284720	1.5621318	-1.59307	1.8887887
908150013585501	1.3354058	-1.7344131	2.403973
908150021886282	1.1799049	-1.991024	2.7193332
908150030187063	1.1046017	-2.329154	2.760158
908150038487845	1.1906313	-2.3177414	2.7703676
908150046788626	1.0722815	-2.9826202	1.810085
908150055089407	1.243211	-3.3546562	1.1071334
908150063390188	1.4059048	-3.610159	0.43070316
908150071690970	1.6081998	-3.7151337	0.025119543
908150079991751	1.7797246	-3.7330036	-0.031075716
908150088292532	1.8006245	-3.7611198	0.15864205
908150096593313	1.6929095	-3.796896	0.31681478
908150104894095	1.5142297	-3.8788137	0.47517312
908150113194876	1.3144295	-3.8739767	0.70590603
908150121495657	1.0481151	-3.6980581	0.9309422
908150129796438	1.0209124	-3.6897755	0.948176
908150138097220	0.7006821	-2.9556007	1.0799664
908150146398001	0.75248736	-2.4344893	0.99576855
908150154698782	0.8733287	-1.7625971	1.022084
908150162999563	0.9955821	-0.81762886	1.086208
908150171300345	1.015138	0.43638802	1.2459965
908150179601126	0.96954226	0.43251514	1.2411879
908150187901907	-0.8502374	3.9740038	-0.84122324
908150196202688	-4.470445	5.9059715	-8.196349
908150204503470	-6.5340915	5.7912884	-9.758001
908150212804251	-6.3308225	4.1254377	-7.7993073
908150221105032	-5.631747	2.2262936	-5.093232
908150229405813	-5.573154	0.9972706	-3.1388881
908150237706595	-5.494425	1.00669	-3.1012697
908150246007376	-6.583463	0.24793053	-0.85062957
908150254308157	-5.914791	-0.32407475	0.31872225
908150262608938	-4.816958	-0.9224777	1.294608
908150270909720	-3.6558495	-1.395093	1.9188278
908150279210501	-2.7026267	-1.6036987	2.2006464
908150287511282	-2.6979156	-1.6064472	2.161657
908150295812063	-1.5647522	-0.9543867	1.9991466
908150304112845	-0.96421397	-0.18504715	1.7489711
908150312413626	-0.23832512	0.91568947	1.4948114
908150320714407	0.61063087	2.302925	1.2962774
908150329015188	0.53399545	2.2759047	1.1873174
908150337315970	1.5918117	3.9775448	1.375672
908150345616751	6.105468	9.122035	4.7120895
908150353917532	9.040487	8.943337	2.0973191
908150362218313	8.841622	8.906947	1.9699118
908150370519095	9.531109	2.3302164	-5.1908655
908150378819876	7.624412	-0.5240879	-5.4145947
908150387120657	7.467767	-0.5178671	-5.3562174
908150395421438	4.450303	-3.1150913	-1.6718061
908150403722220	4.3767786	-3.1026554	-1.6237986
908150412023001	4.0323834	-3.60507	-0.58709735
908150420323782	4.2017765	-3.939188	0.8956846
908150428624563	4.129755	-3.9305573	0.8494714
908150436925345	4.140028	-3.8336697	1.3285506
908150445226126	3.139733	-3.1544542	2.0518026
908150453526907	3.073319	-3.1471405	1.9715669
908150461827688	2.505369	-1.9951591	2.5322285
908150470128470	2.4472575	-1.9888468	2.4504008
908150478429251	2.551432	-1.425703	2.4637766
908150486730032	2.8393598	-0.9107609	2.4043667
908150495030813	3.8357947	0.099253654	2.2550576
908150503331595	3.9698057	0.7513313	2.3565903
908150511632376	3.4830754	1.1081753	2.5392208
908150519933157	3.4161425	1.1149464	2.4653811
908150528233938	2.4073281	1.1420412	2.6166608
908150536534720	1.0097095	0.88710403	2.633226
908150544835501	-0.60766244	0.41299915	2.4306567
908150553136282	-1.993814	-0.08668995	2.064389
908150561437063	-2.9017363	-0.61566734	1.644135
908150569737845	-3.3443	-1.1705608	1.342659
908150578038626	-3.5754986	-1.6056614	1.1153424
908150586339407	-3.7232893	-1.8130093	0.861855
908150594640188	-3.6710584	-1.8057661	0.7716236
908150602940970	-3.800732	-1.5868139	0.15173483
908150611241751	-4.1459217	-1.3756857	0.014939785
908150619542532	-4.74307	-1.0616283	-0.18446422
908150627843313	-5.3271294	-0.8360815	-0.48639023
908150636144095	-5.5563703	-0.8102732	-0.89872444
908150644444876	-5.134328	-0.89578724	-1.4287604
908150652745657	-3.3511577	-1.0271225	-1.6327162
908150661046438	-2.5896392	-0.8820543	-1.7570057
908150669347220	-2.4488652	-0.52411556	-1.7541758
908150677648001	-2.499556	-0.117129326	-1.6144137
908150685948782	-2.3487618	0.1639986	-1.3247776
908150694249563	-1.7542202	0.19868469	-0.87327147
908150702550345	-1.0185602	0.0522213	-0.4328735
908150710851126	-0.3242914	-0.11685848	-0.09868908
908150719151907	0.23075968	-0.28666878	0.09008098
908150727452688	0.45175886	-0.36219501	0.15367937
908150735753470	0.292032	-0.28785133	0.14367962
908150744054251	-0.035752892	-0.09929752	0.1275127
908150752355032	-0.17690206	0.15459728	0.12710309
908150760655813	-0.22143447	0.39623547	0.11699629
908150768956595	0.0028886795	0.67251396	0.2684028
908150777257376	0.34036708	0.9585266	0.4775672
908150785558157	0.72389567	1.198103	0.5999496
908150793858938	0.72696364	1.1998053	0.58391404
908150802159720	1.7484244	1.2926893	0.33925748
908150810460501	1.6253186	1.2501984	0.033552885
908150818761282	0.9426447	1.206131	-0.17038989
908150827062063	0.038898468	1.1543713	-0.21268773
908150835362845	-0.72290313	1.1176357	-0.13295317
908150843663626	-1.1797423	1.1584282	-0.0572834
908150851964407	-1.4004825	1.2791433	0.03186226
908150860265188	-1.3747803	1.4246435	0.080565214
908150868565970	-1.2595533	1.6259041	0.08536768
908150876866751	-1.1786627	1.8898373	0.07353115
908150885167532	-1.1617358	1.8770657	0.09795785
908150893468313	-1.2561231	2.2925282	-0.004363537
908150901769095	-1.317965	2.124277	-0.08533788
908150910069876	-1.4910657	1.8112192	-0.21312141
908150918370657	-1.7450464	1.3981848	-0.28418183
908150926671438	-1.9349499	0.9079056	-0.286309
908150934972220	-1.970695	0.37957668	-0.2622018
908150943273001	-1.9484134	-0.11798954	-0.25616503
908150951573782	-1.9132061	-0.6049433	-0.25647545
908150959874563	-1.9974501	-0.9866867	-0.31210804
908150968175345	-2.0695047	-1.2523737	-0.341933
908150976476126	-1.9463608	-1.3992672	-0.2752118
908150984776907	-1.5970595	-1.3891058	-0.09918499
908150993077688	-1.2844791	-1.1334524	0.11102331
908151001378470	-1.1305124	-0.7007408	0.20080233
908151009679251	-0.8841551	-0.3378172	0.36378145
908151017980032	-0.39471617	0.07261944	0.64913714
908151026280813	-0.34414572	0.053834915	0.74597466
908151034581595	0.32822433	0.5404043	1.125687
908151042882376	1.732572	1.6374893	1.5526478
908151051183157	2.6402712	2.2787437	2.1770241
908151059483938	3.73914	3.1670218	2.7783575
908151067784720	3.7021108	3.1529121	2.8386369
908151076085501	5.26987	4.1782713	2.4696426
908151084386282	5.21265	4.1631517	2.5374172
908151092687063	3.6307704	3.4886446	-0.95222676
908151100987845	2.851978	2.5006857	-3.8149593
908151109288626	1.8604819	1.2555599	-6.127039
908151117589407	1.9095908	1.2401361	-5.924647
908151125890188	1.6174659	-1.0359402	-4.4052525
908151134190970	1.9446914	-1.6251974	-2.1816735
908151142491751	2.0592618	-1.9551964	-0.6970794
908151150792532	2.0044289	-2.1305542	0.5723333
908151159093313	2.0890622	-2.1233559	0.6707027
908151167394095	1.9099768	-2.2917595	1.5653225
908151175694876	1.3327556	-2.60507	2.6323862
908151183995657	1.4255563	-2.594225	2.6843047
908151192296438	0.342442	-2.5457516	2.43195
908151200597220	0.17765406	-2.4963179	1.6206361
908151208898001	0.27001506	-2.482028	1.6747693
908151217198782	0.50570524	-2.657115	-0.012548745
908151225499563	0.8464117	-2.783699	-0.6207061
908151233800345	0.9040957	-2.7673244	-0.5548286
908151242101126	1.7970295	-3.1872091	-0.8800994
908151250401907	1.8992727	-3.3409615	-0.2290383
908151258702688	1.8850089	-3.5164003	0.44059718
908151267003470	1.8878264	-3.5055637	0.46551788
908151275304251	1.5010101	-3.9121265	1.3460078
908151283605032	1.4896934	-3.9038353	1.3508704
908151291905813	1.2937554	-3.974514	1.487554
908151300206595	1.1075871	-3.8309975	1.3924533
908151308507376	0.90191567	-3.4904757	1.2168957
908151316808157	0.78093755	-3.0799828	0.9825394
908151325108938	0.6782382	-2.5055637	0.81716835
908151333409720	0.59712774	-1.7106276	0.7442473
908151341710501	0.951727	0.7623873	0.90152407
908151350011282	0.8958602	0.75650597	0.8913226
908151358312063	0.8172929	2.961072	1.2416868
908151366612845	-0.8196386	5.5313387	-1.923332
908151374913626	-3.533174	7.191226	-6.0816827
908151383214407	-5.6656733	7.021596	-8.246605
908151391515188	-5.6422906	2.4042034	-4.915471
908151399815970	-5.544344	2.411212	-4.8551817
908151408116751	-6.1307983	0.88849354	-3.6152937
908151416417532	-6.6710806	-0.02596283	-2.5473018
908151424718313	-6.860173	-0.4781313	-1.5483329
908151433019095	-6.4871554	-0.7113161	-0.61646664
908151441319876	-5.497034	-0.94758415	0.20863307
908151449620657	-4.350318	-1.0509024	0.98561084
908151457921438	-3.2301877	-1.0824661	1.6023115
908151466222220	-2.3353736	-0.88987255	2.1065426
908151474523001	-1.5322354	-0.39461517	2.4292808
908151482823782	-0.7794845	0.41938782	2.564301
908151491124563	-0.10094035	1.4776049	2.577999
908151499425345	0.6652744	2.6643753	2.5208063
908151507726126	1.8906889	4.0979786	2.456919
908151516026907	3.7902832	6.0109854	3.092235
908151524327688	6.8196917	7.5524225	3.5869038
908151532628470	10.188038	7.512047	2.5581653
908151540929251	11.51198	1.3975935	-4.698142
908151549230032	11.271912	1.3880577	-4.7530155
908151557530813	8.711879	-1.3574429	-5.057904
908151565831595	6.415273	-2.9054604	-3.5268092
908151574132376	4.8200164	-3.6924343	-1.7476442
908151582433157	3.9206228	-4.1020937	-0.45616817
908151590733938	3.52442	-4.3270845	0.2965293
908151599034720	3.078654	-4.192254	0.8778666
908151607335501	2.4670248	-3.7644253	1.1679442
908151615636282	2.0033028	-3.2971945	1.2883759
908151623937063	1.7417555	-2.735365	1.3862187
908151632237845	1.668977	-2.0668926	1.562137
908151640538626	1.6275239	-2.0629578	1.4712638
908151648839407	1.8139837	-0.71197987	2.0121627
908151657140188	2.0814886	-0.10329819	2.2524722
908151665440970	2.365272	0.49770927	2.5262396
908151673741751	2.6900337	0.93100834	2.780355
908151682042532	2.920292	1.1008387	2.9487576
908151690343313	2.7795525	1.0443916	3.0017247
908151698644095	1.9988775	1.0257683	3.0792537
908151706944876	1.1675947	0.6079483	2.9471018
908151715245657	0.28834784	0.07911873	2.6314616
908151723546438	-0.37019527	-0.48989487	2.2094464
908151731847220	-0.77159667	-1.0497255	1.7603014
908151740148001	-1.1070706	-1.5418558	1.3377136
908151748448782	-1.3579999	-1.9071779	0.8456446
908151756749563	-1.7051837	-2.0023222	0.4094138
908151765050345	-2.1664839	-1.9131479	0.09180987
908151773351126	-2.6379004	-1.7561483	-0.13119209
908151781651907	-3.0816724	-1.5599775	-0.29539645
908151789952688	-3.0450916	-1.5516138	-0.35662258
908151798253470	-3.7702994	-1.172822	-0.38482845
908151806554251	-4.2260504	-0.9908676	-0.4886886
908151814855032	-4.593053	-1.0638275	-0.669212
908151823155813	-4.543284	-1.0510464	-0.7523881
908151831456595	-3.839317	-1.4565334	-1.025455
908151839757376	-3.8044465	-1.4380722	-1.1166251
908151848058157	-2.154227	-0.62903214	-1.4493293
908151856358938	-1.7032344	-0.28111744	-1.487325
908151864659720	-1.2448728	-0.05899906	-1.4133875
908151872960501	-1.2865666	-0.033281326	-1.5032322
908151881261282	-0.3431216	0.22825146	-0.96038604
908151889562063	5.815029E-4	0.36455536	-0.79418397
908151897862845	0.32250774	0.43942642	-0.672467
908151906163626	0.54170454	0.4633665	-0.5353348
908151914464407	0.4845612	0.49189663	-0.613652
908151922765188	0.7254672	0.597456	-0.17613745
908151931065970	0.6851181	0.62174606	-0.24282336
908151939366751	0.38823915	1.0371037	0.37507296
908151947667532	0.30249488	1.2537899	0.6362977
908151955968313	0.24434805	1.5249319	0.7931409
908151964269095	0.07755172	1.6988859	0.7985451
908151972569876	-0.12285626	1.6684103	0.8092823
908151980870657	-0.3256085	1.4495783	0.84541273
908151989171438	-0.30795014	1.4423428	0.84920645
908151997472220	-0.97789776	1.0263405	0.54089
908152005773001	-1.4212575	0.95304775	0.45504737
908152014073782	-1.8442519	1.0047321	0.2874112
908152022374563	-1.8050925	0.98503304	0.32783413
908152030675345	-2.4077811	1.4076128	-0.10802007
908152038976126	-2.3620005	1.385272	-0.06028676
908152047276907	-2.4325361	1.7408943	-0.2389586
908152055577688	-2.3013065	2.5101757	-0.55675197
908152063878470	-2.2699544	2.4881678	-0.50711894
908152072179251	-2.141154	2.5928173	-0.6249845
908152080480032	-2.0417826	2.503272	-0.70076704
908152088780813	-1.921052	2.278205	-0.64789915
908152097081595	-1.5172248	1.6351767	0.04353237
908152105382376	-1.5116377	1.6222258	0.07873154
908152113683157	-1.3490043	1.1436386	0.51693845
908152121983938	-1.4024961	0.5948677	0.6893101
908152130284720	-1.3561705	-0.100520134	0.6332722
908152138585501	-1.0275114	-0.9003668	0.5234177
908152146886282	-0.6356524	-1.5540695	0.5807071
908152155187063	-0.34542948	-1.9125977	0.7489474
908152163487845	-0.21937954	-1.8989325	0.89071155
908152171788626	-0.28038675	-1.6034966	1.0832299
908152180089407	-0.27856317	-1.2086735	1.2472191
908152188390188	-0.070052475	-0.7925997	1.2791139
908152196690970	0.11842787	-0.21076202	1.1754663
908152204991751	0.48796993	0.42943478	0.98162127
908152213292532	0.9758543	1.1173553	0.71536756
908152221593313	1.6797607	1.7503653	0.48641038
908152229894095	2.635889	2.266223	0.33561015
908152238194876	3.8432207	2.6801872	0.38569582
908152246495657	7.5029182	3.8815956	2.5846791
908152254796438	7.4414024	3.8663015	2.6704738
908152263097220	7.3078566	4.195752	2.6858118
908152271398001	5.287574	3.8442812	1.2004561
908152279698782	2.6345866	2.8967152	-0.96309745
908152287999563	0.4655421	1.6371975	-2.9472828
908152296300345	-1.2884209	-0.41992474	-4.0817595
908152304601126	-1.1197629	-0.4260931	-3.8809097
908152312901907	-0.79406244	-1.1255598	-2.684947
908152321202688	-0.13865137	-1.5895128	-1.07404
908152329503470	0.589569	-1.93015	0.48949873
908152337804251	1.2706459	-2.2506886	1.7326645
908152346105032	1.9238633	-2.5035982	2.5794973
908152354405813	2.3976207	-2.810853	2.752407
908152362706595	2.6216555	-3.0821886	2.2899587
908152371007376	2.8003864	-3.3053885	1.4066482
908152379308157	2.945047	-3.4187555	0.4259647
908152387608938	2.9681354	-3.3856745	-0.31399715
908152395909720	2.8175418	-3.2970839	-0.62002087
908152404210501	2.619102	-3.3603878	-0.71333945
908152412511282	2.437037	-3.4125776	-0.58645225
908152420812063	2.328464	-3.4715118	-0.29156625
908152429112845	2.2097058	-3.4977064	0.060380816
908152437413626	1.988671	-3.469861	0.38893497
908152445714407	1.6937842	-3.4519186	0.75371873
908152454015188	1.499047	-3.5426722	1.0150536
908152462315970	1.2438127	-3.5417013	1.1296362
908152470616751	0.9792142	-3.4472017	1.1063561
908152478917532	0.76705587	-3.2731867	0.98401725
908152487218313	0.734208	-3.2727776	0.9680692
908152495519095	0.97054076	-2.66681	0.83209944
908152503819876	1.0692261	-2.0658846	0.94184995
908152512120657	0.99599236	-1.1771622	0.89814854
908152520421438	0.55875385	0.055190086	0.7736789
908152528722220	-0.3025139	1.5971909	0.34261882
908152537023001	-1.6273167	3.3501673	-0.9496527
908152545323782	-3.6111083	5.1618967	-4.1109447
908152553624563	-5.176717	5.825094	-5.8375287
908152561925345	-5.530773	5.22565	-5.5546694
908152570226126	-5.530495	4.0572147	-4.4419
908152578526907	-5.448225	4.060136	-4.4141746
908152586827688	-6.645064	2.1624517	-2.3212636
908152595128470	-6.864116	1.2315016	-1.4439436
908152603429251	-6.046169	0.113723755	-0.49399924
908152611730032	-4.5313416	-0.7166424	0.14435256
908152620030813	-2.994627	-1.2471333	0.40569472
908152628331595	-2.957765	-1.2409229	0.39457583
908152636632376	-1.037676	-1.3910398	0.5935006
908152644933157	-0.5023997	-1.1234465	0.9691051
908152653233938	0.018146276	-0.6810169	1.3610935
908152661534720	0.19098079	0.26250458	1.6202863
908152669835501	0.13662803	0.23969746	1.5121989
908152678136282	0.14503634	3.933877	2.3384626
908152686437063	0.89076173	6.5049953	3.442493
908152694737845	3.4756467	9.511427	5.6819763
908152703038626	8.210477	10.106928	5.631398
908152711339407	11.232817	7.671936	1.7660542
908152719640188	11.655294	4.226885	-2.58477
908152727940970	11.366285	4.2089224	-2.587295
908152736241751	7.9514103	-1.9261713	-5.3271165
908152744542532	6.577509	-3.8250093	-4.196493
908152752843313	5.7547693	-4.9752445	-2.6149151
908152761144095	4.996076	-5.6429825	-1.1844089
908152769444876	4.8988996	-5.624523	-1.165072
908152777745657	4.0253763	-5.773391	0.112282336
908152786046438	2.325597	-4.8992014	1.7599831
908152794347220	1.9479605	-4.2077074	2.0964627
908152802648001	1.807689	-3.189907	2.3398511
908152810948782	1.7839855	-3.185443	2.240168
908152819249563	1.8800364	-1.9872217	2.1995218
908152827550345	2.0900686	-0.81617355	1.9756205
908152835851126	2.295896	0.16769981	1.8793508
908152844151907	2.663495	1.2159538	2.5178418
908152852452688	2.6887188	1.4655313	3.0005884
908152860753470	2.6238654	1.4715834	2.8909276
908152869054251	2.319975	1.4231348	3.2672117
908152877355032	1.7705301	1.188488	3.5238929
908152885655813	0.9898262	0.7449188	3.5926955
908152893956595	0.044240713	0.058140755	3.4251118
908152902257376	-0.65005267	-0.599226	3.0818787
908152910558157	-1.175744	-1.1244192	2.6192398
908152918858938	-1.5693966	-1.5160875	2.1621065
908152927159720	-1.8814188	-1.7745657	1.7352116
908152935460501	-2.1628819	-1.8950424	1.3318276
908152943761282	-2.4637609	-1.8764982	0.9223236
908152952062063	-3.5030026	-1.4706516	0.12617135
908152960362845	-3.4607744	-1.4646244	0.07868385
908152968663626	-4.249211	-1.1439323	-0.24131572
908152976964407	-5.2462707	-0.94437027	-0.8188274
908152985265188	-6.1929483	-0.9839163	-1.616889
908152993565970	-6.5653725	-1.3427973	-2.718772
908153001866751	-4.8266797	-1.1261005	-2.7312136
908153010167532	-4.7769523	-1.1202726	-2.764502
908153018468313	-3.4007125	-0.7932472	-2.7092242
908153026769095	-2.5430322	-0.35675144	-2.5560057
908153035069876	-1.966965	0.07212925	-2.2891736
908153043370657	-1.3883972	0.33740997	-1.9194376
908153051671438	-0.20979899	0.3137989	-0.81565547
908153059972220	-0.25224745	0.33883286	-0.90936947
908153068273001	0.18666297	0.20321178	-0.45857882
908153076573782	0.63693416	0.04795742	-0.09842086
908153084874563	1.0235701	-0.022371292	0.21192741
908153093175345	1.2162385	0.12217522	0.5712943
908153101476126	1.3632365	0.31197834	0.8469169
908153109776907	1.2727587	0.60641	1.1767619
908153118077688	1.433982	0.96967983	1.579212
908153126378470	1.7069166	1.2613297	1.9525459
908153134679251	1.8995968	1.4249077	2.236093
908153142980032	1.8658032	1.4841661	2.3664958
908153151280813	1.5175616	1.3935356	2.0129976
908153159581595	0.7993442	1.2828217	1.3675189
908153167882376	-0.06685412	1.1733618	0.6729498
908153176183157	-0.7634398	1.0926914	0.06111741
908153184483938	-1.1529711	1.0894346	-0.42187333
908153192784720	-1.3716072	1.2176828	-0.8051927
908153201085501	-1.6359258	1.5413351	-0.9894116
908153209386282	-1.7063116	1.951561	-0.9670274
908153217687063	-1.7248735	2.3890886	-0.8515003
908153225987845	-1.7244842	2.7170086	-0.7016771
908153234288626	-1.802569	2.818657	-0.5497849
908153242589407	-2.0881867	2.6785107	-0.39840198
908153250890188	-2.6311138	2.3435307	-0.20995975
908153259179930	-3.0968306	1.7107487	-0.057501316
908153267480711	-3.5330307	0.93377876	0.008186817
908153275781492	-3.7734184	0.1284399	0.0040442944
908153284082273	-3.6981993	0.111079216	0.04821539
908153292383055	-3.1563225	-1.2691383	-0.075173855
908153300683836	-2.0852964	-1.9169941	-0.11649799
908153308984617	-1.2724849	-2.449153	-0.19725704
908153317285398	-0.90836304	-2.5411634	-0.10770249
908153325586180	-0.9193444	-2.1467571	0.21456051
908153333886961	-0.87912965	-2.168603	0.3222561
908153342187742	-1.3514129	-0.5221615	0.95714736
908153350488523	-1.4373665	0.3580904	1.2380321
908153358789305	-1.2089196	1.3483286	1.4405328
908153367090086	-0.71743464	2.5071926	1.6644166
908153375390867	0.16127087	3.6839142	1.8745649
908153383691648	1.5974675	4.635891	2.1000495
908153391992430	3.591934	5.1674805	2.3938618
908153400293211	5.4914126	5.2246532	2.144671
908153408593992	6.764482	5.280858	1.5372376
908153416894773	7.1995206	4.8362017	0.46704763
908153425195555	6.9977517	3.7661133	-1.3297604
908153433496336	6.1486216	2.2857199	-3.3977056
908153441797117	4.3964214	0.87112045	-4.393686
908153450097898	2.8484528	-0.5085783	-3.1442873
908153458398680	1.914187	-1.4464874	-1.6782985
908153466699461	1.3041172	-2.1217813	-0.35034904
908153475000242	1.0073351	-2.6267643	0.7274653
908153483301023	1.1688582	-2.6205988	0.8644737
908153491601805	0.94164485	-3.1612825	2.6258442
908153499902586	0.8654912	-3.209509	3.2686532
908153508203367	0.65255004	-3.1138363	3.1694043
908153516504148	0.74000937	-3.0590267	2.5242367
908153524804930	0.85166967	-3.0355482	2.6394649
908153533105711	1.2487519	-3.0484552	1.6659925
908153541406492	2.2765384	-3.1929617	-0.7182025
908153549707273	2.598925	-3.3213453	-1.3443928
908153558008055	2.5537622	-3.5151443	-1.3739328
908153566308836	2.5976954	-3.4904814	-1.2844683
908153574609617	2.3006377	-3.689063	-0.8810116
908153582910398	1.9704463	-3.8903427	-0.28978896
908153591211180	1.7303672	-4.115699	0.24589634
908153599511961	1.5177536	-4.379073	0.62459755
908153607812742	1.1867887	-4.685979	0.9447043
908153616113523	1.1826266	-4.6755943	0.9478538
908153624414305	0.9707999	-4.635643	0.9949441
908153632715086	0.80137026	-4.4638157	1.0522444
908153641015867	0.7728827	-4.196537	1.1273261
908153649316648	0.95802546	-3.9076233	1.211665
908153657617430	1.2076719	-3.4607773	1.3152026
908153665918211	1.5397989	-2.6257753	1.618981
908153674218992	1.653328	-1.1225185	2.1650338
908153682519773	1.427663	1.204526	2.8565323
908153690820555	0.3809408	4.358898	2.1805725
908153699121336	-2.5864265	8.086376	-3.246881
908153707422117	-7.1799326	9.10876	-8.502363
908153715722898	-7.0731792	9.105985	-8.437015
908153724023680	-7.077325	6.574295	-6.258171
908153732324461	-7.2320437	3.9483786	-4.34142
908153740625242	-7.4656687	1.8891773	-3.0940409
908153748926023	-6.1742964	-1.1094074	-1.3294564
908153757226805	-4.6113834	-2.0882568	-0.47168887
908153765527586	-4.5277343	-2.0618134	-0.42777586
908153773828367	-2.9248118	-2.7679348	0.29204226
908153782129148	-1.5902025	-3.1240835	0.89285755
908153790429930	-0.7223332	-3.0580912	1.3919443
908153798730711	-0.3571633	-2.5430202	1.7179509
908153807031492	-0.4618771	-1.636796	1.9652998
908153815332273	-0.4514197	-0.6817932	2.0780234
908153823633055	-0.45820296	0.34929466	2.10951
908153831933836	-0.52975833	1.5054588	2.1555557
908153840234617	-0.49676943	2.9854126	2.4631777
908153848535398	0.21125972	5.2970924	3.595844
908153856836180	6.286389	10.882404	6.9624605
908153865136961	6.071657	10.822949	6.7921247
908153873437742	8.8958645	9.655715	3.6969488
908153881738523	10.374557	6.4817486	-0.60635775
908153890039305	10.20321	2.940113	-4.19138
908153898340086	9.129136	-0.1580286	-6.2997227
908153906640867	7.7709374	-2.4594707	-5.5683327
908153914941648	6.908163	-4.0852375	-3.4760463
908153923242430	6.4326415	-5.0925713	-1.3549204
908153931543211	6.0870733	-5.605879	0.35249764
908153939843992	4.2266273	-5.3485374	2.4227
908153948144773	4.147891	-5.336649	2.3373733
908153956445555	2.9502184	-4.833578	2.5541923
908153964746336	2.1253095	-4.0703754	2.6645353
908153973047117	1.6393311	-3.0413237	2.6338673
908153981347898	1.5127658	-1.8766422	2.4997058
908153989648680	2.2868881	0.2583208	2.1751688
908153997949461	2.258713	0.26018047	2.110775
908154006250242	2.8651881	0.9385166	1.8894241
908154014551023	3.514714	1.4753551	1.9287292
908154022851805	3.672975	1.6569071	2.1897407
908154031152586	3.1797485	1.5556917	2.554882
908154039453367	3.0987594	1.5649099	2.4755974
908154047754148	0.5179125	0.7260618	2.8944213
908154056054930	-0.6881052	-0.0067739487	2.654466
908154064355711	-1.4672542	-0.70018387	2.2414331
908154072656492	-2.0739884	-1.2353973	1.85249
908154080957273	-2.657943	-1.6140928	1.5510166
908154089258055	-3.2754068	-1.8580685	1.2702191
908154097558836	-3.936334	-1.8301849	0.82769835
908154105859617	-4.8161736	-1.4945269	0.41505075
908154114160398	-5.552717	-1.2264566	-0.11358523
908154122461180	-6.199752	-1.0360079	-0.7003684
908154130761961	-6.703139	-0.9360237	-1.2966115
908154139062742	-6.6318226	-0.9299145	-1.3563279
908154147363523	-6.5808907	-0.9089346	-2.254479
908154155664305	-4.6945815	-0.98521614	-2.2676158
908154163965086	-3.1945014	-0.94275	-2.1616268
908154172265867	-3.2102036	-0.9257755	-2.2304425
908154180566648	-1.2298651	-0.6493454	-1.5929228
908154188867430	-1.286346	-0.62653446	-1.6717237
908154197168211	0.21067297	-0.35754967	-0.5869918
908154205468992	0.49994105	-0.3833027	-0.22961688
908154213769773	0.44739127	-0.35782242	-0.3134048
908154222070555	0.45198536	-0.3702469	0.032314062
908154230371336	0.11153293	-0.35113907	0.33764887
908154238672117	-0.39585996	-0.27199936	0.5914955
908154246972898	-0.8157896	0.19203186	0.8798971
908154255273680	-0.80345726	0.20294571	0.8310456
908154263574461	-0.67701554	0.48438644	0.7861755
908154271875242	0.087308526	1.0879679	0.73658013
908154280176023	0.09241736	1.0886183	0.7223599
908154288476805	0.5104971	1.1941042	0.5749228
908154296777586	0.8042346	1.0687952	0.2661538
908154305078367	0.8008827	1.063199	0.27840972
908154313379148	0.7818154	0.9148741	0.24756885
908154321679930	0.3409685	0.84209156	0.30313635
908154329980711	-0.20463824	0.87357616	0.41186428
908154338281492	-0.59598243	0.9755516	0.58179927
908154346582273	-0.56524765	0.9671879	0.59211135
908154354883055	-0.8696206	1.2503061	1.0429184
908154363183836	-1.0137044	1.5403347	1.1424859
908154371484617	-1.1536428	1.8854055	1.120645
908154379785398	-1.2456379	2.1590872	1.009414
908154388086180	-1.232928	2.2634306	0.817662
908154396386961	-1.1192358	2.1629667	0.55132794
908154404687742	-1.135994	1.9358263	0.27160406
908154412988523	-1.469033	1.7545214	0.089328766
908154421289305	-1.8736036	1.553999	-0.07741165
908154429590086	-2.1619384	1.2802534	-0.16281414
908154437890867	-2.2384715	0.90680885	-0.13298702
908154446191648	-2.1050568	0.4408598	-0.0019338131
908154454492430	-1.8608339	-0.0637455	0.15785623
908154462793211	-1.2768886	-0.8437605	0.29653966
908154471093992	-0.82640445	-1.4394808	0.44608068
908154479394773	-0.59367615	-1.6666651	0.6275196
908154487695555	-0.5496977	-1.6789799	0.6946578
908154495996336	-0.47644317	-1.5325823	0.952878
908154504297117	-0.45103547	-0.60418797	1.402391
908154512597898	-0.16828927	-0.13809013	1.3723764
908154520898680	0.018846244	0.4624853	1.1863682
908154529199461	0.18590358	1.1898298	1.0405958
908154537500242	0.54721457	1.9305439	1.0394936
908154545801023	0.56101954	1.9114857	1.1566706
908154554101805	2.4989383	2.8745298	1.2598512
908154562402586	4.24567	2.9969769	1.3081472
908154570703367	6.291029	3.2769928	2.619501
908154579004148	7.6076164	3.6018887	3.6753736
908154587304930	7.3874836	3.7088118	3.3376834
908154595605711	5.4188557	3.3156576	1.3863528
908154603906492	2.451612	2.1715088	-1.4349447
908154612207273	0.694553	0.8223772	-3.0529852
908154620508055	-0.16389269	-0.44328022	-3.7299862
908154628808836	-0.30594695	-1.4188652	-3.5248044
908154637109617	0.0058319494	-2.0574217	-2.6482515
908154645410398	0.14405517	-2.0429726	-2.434413
908154653711180	0.8348273	-2.590125	-0.11172372
908154662011961	0.9661877	-2.7123337	1.0960785
908154670312742	1.0030084	-2.7705574	1.9011325
908154678613523	1.015394	-2.7335596	2.2621374
908154686914305	1.0880145	-2.6474724	2.193627
908154695215086	1.1660416	-2.6249027	2.273818
908154703515867	1.7937622	-2.7220182	1.035632
908154711816648	2.3905578	-2.8101168	0.5108131
908154720117430	2.3841314	-2.8131266	0.4353881
908154728418211	2.4175036	-2.7949934	0.4865111
908154736718992	2.2473104	-3.0510702	0.79484403
908154745019773	2.2646399	-3.035593	0.8321594
908154753320555	1.7402929	-3.3791533	1.1832731
908154761621336	1.4149891	-3.560318	1.2697387
908154769922117	1.2220666	-3.806076	1.1914937
908154778222898	1.2154174	-3.7949715	1.2075454
908154786523680	1.134955	-4.192684	0.75678563
908154794824461	1.0154344	-4.0702305	0.62101305
908154803125242	0.85206807	-3.7113113	0.6427951
908154811426023	0.8262455	-3.2374277	0.7347766
908154819726805	0.79282284	-3.239028	0.7039492
908154828027586	0.89709276	-1.5774927	0.7254987
908154836328367	0.8578701	-1.5870247	0.6694964
908154844629148	0.80344254	-0.26124668	0.61319757
908154852929930	-0.112944424	3.776744	-0.48565817
908154861230711	-2.6155152	6.1135874	-3.8929062
908154869531492	-2.5955696	6.0930634	-3.9421768
908154877832273	-5.3199434	6.495734	-5.465356
908154886133055	-4.954332	4.97964	-4.3874626
908154894433836	-4.846365	4.9792414	-4.371465
908154902734617	-5.916522	2.6385965	-2.0245285
908154911035398	-6.0957327	1.4455366	-1.1120968
908154919336180	-5.4225774	0.1880827	-0.11480689
908154927636961	-5.3398247	0.20170403	-0.08711672
908154935937742	-3.1267915	-1.7441835	1.515323
908154944238523	-3.0961611	-1.7329597	1.5365086
908154952539305	-1.4355665	-2.168929	2.0157485
908154960840086	-0.9204167	-1.85923	2.1274223
908154969140867	-0.9480597	-1.864975	2.090839
908154977441648	-0.5203637	-1.3454514	2.1633928
908154985742430	-0.34211814	-0.4543848	2.2174878
908154994043211	-0.49222744	0.9132662	2.2429004
908155002343992	-0.19148159	4.941641	2.7770476
908155010644773	-0.2937274	4.906104	2.6550255
908155018945555	1.7608181	7.950239	5.3066597
908155027246336	8.726255	9.528588	4.751483
908155035547117	8.492596	9.487198	4.6256046
908155043847898	10.279936	6.205452	0.080400705
908155052148680	8.677734	-0.8130722	-6.5880985
908155060449461	8.4809265	-0.80458736	-6.5075884
908155068750242	6.8459587	-2.7070723	-6.1447134
908155077051023	5.457064	-3.7983046	-4.5609875
908155085351805	4.526717	-4.342103	-2.5459907
908155093652586	4.131178	-4.552452	-0.6989428
908155101953367	3.8988786	-4.199445	1.6488752
908155110254148	3.8409357	-4.193734	1.5762892
908155118554930	2.9745889	-3.7783594	2.3049085
908155126855711	2.2730258	-3.3093052	2.933423
908155135156492	1.7672999	-2.723401	3.4019523
908155143457273	1.4720067	-1.9924927	3.6229017
908155151758055	1.623107	-1.1969776	3.5668962
908155160058836	2.1395864	-0.8038769	3.3798587
908155168359617	2.9869733	-0.558691	3.035642
908155176660398	3.8480167	-0.080080986	2.7304652
908155184961180	4.285535	0.54829216	2.5194979
908155193261961	4.1620955	1.1855354	2.430819
908155201562742	4.0655203	1.1972246	2.3556037
908155209863523	2.5053208	1.5320253	2.514467
908155218164305	1.0473647	1.0477171	2.2966106
908155226465086	-0.43531513	0.46367455	2.0075662
908155234765867	-1.6654613	-0.12457466	1.7511021
908155243066648	-2.4828355	-0.66893387	1.5433781
908155251367430	-2.4229658	-0.6698065	1.4476664
908155259668211	-3.337255	-1.7082901	1.1654491
908155267968992	-3.7600188	-2.0226383	0.991016
908155276269773	-4.389153	-2.0600414	0.66176146
908155284570555	-5.1964493	-1.8795204	0.17568827
908155292871336	-6.055605	-1.6132946	-0.41318548
908155301172117	-6.8374367	-1.3422842	-1.064475
908155309472898	-7.1941023	-1.1444836	-1.7249852
908155317773680	-7.0618834	-0.8330288	-2.360795
908155326074461	-6.0936174	-0.5690689	-2.7694921
908155334375242	-4.6177793	-0.42892075	-2.9026535
908155342676023	-3.2377665	-0.366786	-2.743505
908155350976805	-2.3427825	-0.22169209	-2.1707764
908155359277586	-1.5146511	-0.03961754	-1.4622746
908155367578367	-0.49545997	0.07778835	-0.80041075
908155375879148	0.5211675	0.061080933	-0.3131137
908155384179930	1.3232908	-0.021058083	0.035894156
908155392480711	1.7816056	-0.09392738	0.32471132
908155400781492	1.8536783	-0.17539692	0.57513
908155409082273	1.3914105	-0.16080093	0.88940454
908155417383055	0.9617511	-0.0948534	1.3139789
908155425683836	0.9556081	0.0665617	1.7385769
908155433984617	1.213233	0.23054028	1.9271195
908155442285398	1.4235324	0.30905437	1.7704508
908155450586180	1.4415579	0.3124771	1.7427251
908155458886961	1.1908312	0.30723476	1.2043886
908155467187742	0.9071063	0.20660782	0.9385431
908155475488523	0.5207654	0.09326172	0.58391666
908155483789305	0.5443859	0.08069897	0.6133714
908155492090086	-0.31573784	0.106443405	-0.048266172
908155500390867	-0.6788864	0.2840433	-0.13820219
908155508691648	-0.906008	0.6587372	0.0072197914
908155516992430	-0.91805947	1.026247	0.3011186
908155525293211	-0.85889935	1.4682102	0.60411906
908155533593992	-0.844157	1.4570456	0.6274121
908155541894773	-0.8317622	2.7872372	0.9351897
908155550195555	-0.880983	3.3912535	0.9360075
908155558496336	-0.78751266	3.5983772	1.0087731
908155566797117	-0.94898844	3.5192251	1.0920434
908155575097898	-0.9507065	3.5089836	1.1027255
908155583398680	-1.9598254	2.7506104	1.1730888
908155591699461	-2.2946544	2.0273533	1.2143288
908155600000242	-2.404553	1.190774	1.2076027
908155608301023	-2.6022823	0.55357933	1.1582322
908155616601805	-2.6625888	-0.020285606	1.0238049
908155624902586	-2.6204686	-0.03435135	1.0643492
908155633203367	-2.5241632	-0.5531788	0.9622059
908155641504148	-1.3808751	-1.7953081	0.79534745
908155649804930	-1.2361102	-1.8875322	0.70912814
908155658105711	-1.0778564	-1.7713261	0.87835395
908155666406492	-0.92398715	-1.5341196	1.0961821
908155674707273	-0.8592761	-1.5562391	1.2042391
908155683008055	-0.66645545	-1.0537424	1.9491177
908155691308836	-0.18971756	0.5419636	2.9006166
908155699609617	-0.34340075	1.2513933	2.207663
908155707910398	-0.4159826	2.1996708	1.4807109
908155716211180	-0.38255316	2.1733942	1.6493206
908155724511961	0.27557352	2.8477983	0.69159204
908155732812742	1.6069535	3.1674328	-1.0028043
908155741113523	3.3321338	3.3446922	-3.6252942
908155749414305	6.2601433	3.5688925	-9.075222
908155757715086	5.0966487	2.6852474	-5.8936806
908155766015867	5.1022305	2.683403	-5.68161
908155774316648	3.3198924	1.5951242	-2.7733188
908155782617430	1.6328517	-0.08034992	1.0159605
908155790918211	1.7228804	-0.07491875	1.1163323
908155799218992	1.6902149	-1.3554707	3.3153346
908155807519773	1.6025378	-1.7769623	3.9684455
908155815820555	1.4507263	-2.0306025	4.30381
908155824121336	1.3581097	-2.1337042	4.3464932
908155832422117	1.4590411	-2.119402	4.399148
908155840722898	1.4257495	-2.1168232	4.01299
908155849023680	1.4311697	-2.0953732	3.060307
908155857324461	2.0237617	-2.5759792	0.33822358
908155865625242	2.1034126	-2.5544987	0.41276956
908155873926023	2.3711038	-3.0004807	-0.58573985
908155882226805	2.4807537	-3.4437141	-1.1088042
908155890527586	2.4682531	-3.7938814	-1.0977992
908155898828367	2.3389328	-4.007821	-0.65829027
908155907129148	2.0105038	-4.07141	0.023901343
908155915429930	1.7024577	-4.153248	0.59344757
908155923730711	1.4798262	-4.1671534	0.8983474
908155932031492	1.3454792	-4.121173	1.0313935
908155940332273	1.1536528	-4.023985	1.0992849
908155948633055	0.74217844	-3.7950735	1.2057298
908155956933836	0.717657	-3.7916555	1.1910002
908155965234617	0.6913322	-3.6295233	1.1178244
908155973535398	0.74380636	-3.304428	1.0311031
908155981836180	0.8343773	-2.7998495	0.9534906
908155990136961	0.9263336	-2.0561485	0.8945869
908155998437742	1.0053468	-0.98642826	0.86862135
908156006738523	1.1318161	0.586977	0.9572362
908156015039305	0.9573901	2.7214766	0.9522948
908156023340086	-0.30617493	5.457653	-1.0186915
908156031640867	-2.9848526	7.7803097	-4.5960164
908156039941648	-5.641721	8.4356	-7.3336253
908156048242430	-6.217387	6.689867	-6.579255
908156056543211	-5.5615106	4.0733814	-4.643084
908156064843992	-5.9058	2.4713125	-3.2275677
908156073144773	-6.224519	1.2510147	-2.0350904
908156081445555	-6.1866846	0.23516846	-0.9606283
908156089746336	-5.6533585	-0.6226864	0.1017189
908156098047117	-4.6506705	-1.2755642	1.1712697
908156106347898	-3.5265875	-1.8045149	1.8931956
908156114648680	-2.4008641	-2.1639729	2.2274485
908156122949461	-1.5291413	-2.1759748	2.3422382
908156131250242	-0.8940325	-1.7825422	2.286899
908156139551023	-0.43911088	-1.0062733	2.150638
908156147851805	-0.13309765	0.091854095	2.0268202
908156156152586	-0.1672132	1.7231207	1.8240228
908156164453367	-0.07156706	3.7697296	1.8538414
908156172754148	0.71218526	6.2133884	2.4252617
908156181054930	2.8257883	8.766391	3.553633
908156189355711	2.6547623	8.720579	3.421505
908156197656492	10.417528	8.834103	2.2493558
908156205957273	11.393788	4.4869156	-0.98604876
908156214258055	9.756853	0.7325392	-2.953054
908156222558836	7.834346	-1.9014845	-3.2807612
908156230859617	6.2778935	-3.5654802	-2.7047849
908156239160398	6.1480985	-3.5473022	-2.6268966
908156247461180	4.378778	-5.043332	-0.62697184
908156255761961	3.9841306	-5.15121	0.27021343
908156264062742	3.7409787	-4.8347406	0.9648274
908156272363523	3.0520194	-4.1247272	1.2858329
908156280664305	2.4934156	-3.416462	1.4627105
908156288965086	2.441429	-3.409731	1.3979537
908156297265867	2.2435014	-2.2649975	1.749424
908156305566648	2.0941646	-1.3797503	1.8967371
908156313867430	2.3559146	-0.6193018	1.9413905
908156322168211	2.8745594	-0.07520676	1.977725
908156330468992	2.7867746	-0.06718922	1.909791
908156338769773	3.9437618	0.4947729	2.0566177
908156347070555	4.0039415	0.84762955	2.1489828
908156355371336	3.9816308	1.0272131	2.3212287
908156363672117	3.610671	1.244875	2.7293615
908156371972898	2.702828	0.99942684	3.0516183
908156380273680	1.5266242	0.53874016	3.1854825
908156388574461	1.4863604	0.54806995	3.0622506
908156396875242	-0.84147775	-0.50772953	2.7351427
908156405176023	-1.7123677	-0.83926296	2.3907738
908156413476805	-2.4631252	-0.92136574	1.8857499
908156421777586	-3.1195512	-0.8248186	1.316364
908156430078367	-3.0379264	-0.82782745	1.2136483
908156438379148	-3.6261368	-0.61381435	0.73193854
908156446679930	-5.120662	-0.012228012	0.08492255
908156454980711	-5.9326525	0.16510296	-0.37249243
908156463281492	-6.6891813	0.04053402	-0.89679
908156471582273	-7.0528293	-0.40119267	-1.388036
908156479883055	-6.9666314	-0.40066528	-1.4465635
908156488183836	-6.753502	-1.5123281	-2.2801492
908156496484617	-6.6943765	-1.5050688	-2.3343005
908156504785398	-3.9400115	-1.7341499	-1.9953761
908156513086180	-2.9926224	-1.364213	-1.6768254
908156521386961	-2.9949617	-1.3485737	-1.7419887
908156529687742	-2.246281	-0.9525547	-1.4623556
908156537988523	-0.9151666	-0.43382454	-0.7512251
908156546289305	-0.9511304	-0.41378975	-0.825217
908156554590086	-0.1829468	-0.29717636	0.023143768
908156562890867	0.11524582	-0.3094101	0.26579726
908156571191648	0.5005094	-0.3095827	0.41891456
908156579492430	0.8795502	-0.25301075	0.5322964
908156587793211	0.8487476	-0.23416805	0.47051406
908156596093992	1.0735568	-0.08651829	0.572191
908156604394773	1.0338644	0.17783546	0.6460626
908156612695555	1.6580917	0.46808147	0.7159884
908156620996336	1.6195977	0.47918987	0.68797016
908156629297117	1.7444966	0.6000252	0.5644021
908156637597898	1.504339	0.8085966	0.45288086
908156645898680	0.9363692	1.0444508	0.41440606
908156654199461	-0.40925038	1.2069159	0.57623196
908156662500242	-0.41706598	1.2035675	0.58343935
908156670801023	-0.88054776	1.1541042	0.71034503
908156679101805	-1.1590458	1.0586357	0.8199234
908156687402586	-1.2665977	0.99445915	0.9032695
908156695703367	-1.2631725	1.0049248	0.9828541
908156704004148	-1.268477	1.0705233	1.0978634
908156712304930	-1.2186766	1.1471605	1.1312675
908156720605711	-1.2328714	1.283349	1.019872
908156728906492	-1.369625	1.4731493	0.7704661
908156737207273	-1.5742333	1.635951	0.46947503
908156745508055	-1.8103701	1.7181473	0.19177699
908156753808836	-2.1344874	1.7375488	-0.04951954
908156762109617	-2.4346042	1.618845	-0.217489
908156770410398	-2.6555562	1.3795776	-0.13554835
908156778711180	-2.6500645	1.0179777	0.045367718
908156787011961	-2.3802495	0.63874626	0.29971647
908156795312742	-1.9108268	0.29281998	0.593575
908156803613523	-1.4145639	-0.11102867	0.82370925
908156811914305	-1.2343638	-0.51522255	1.0209477
908156820215086	-1.0330021	-0.90526867	1.2144607
908156828515867	-0.8289592	-1.0997238	1.3673891
908156836816648	-0.6259208	-0.9960699	1.4476653
908156845117430	-0.4415418	-0.63312244	1.4807327
908156853418211	-0.31926978	-0.16019249	1.5558
908156861718992	-0.18995774	0.503252	1.4480323
908156870019773	0.021641552	1.1712503	1.2264327
908156878320555	0.38099754	1.8109093	1.1261367
908156886621336	0.99065685	2.339572	1.1453779
908156894922117	3.0249605	2.8539076	0.90902495
908156903222898	3.0137007	2.8339891	1.0454317
908156911523680	4.241699	2.9149075	1.3568571
908156919824461	5.69279	3.1739454	2.1871955
908156928125242	6.567769	3.3244095	2.3570235
908156936426023	6.0558114	3.1502037	1.0155386
908156944726805	6.0146527	3.1413088	1.1167828
908156953027586	1.3331296	1.4325066	-3.9231026
908156961328367	-0.049189806	0.36851692	-4.2895412
908156969629148	-0.6822184	-0.36230373	-3.585589
908156977929930	-0.8129101	-0.7164335	-2.1813478
908156986230711	-0.644011	-0.8124304	-0.56855685
908156994531492	-0.49577445	-0.8068867	-0.43302965
908157002832273	0.16168928	-0.95595074	2.2321932
908157011133055	0.94261074	-1.2765093	3.1462495
908157019433836	1.7211044	-1.5409756	3.5433633
908157027734617	2.229424	-1.7180653	3.362228
908157036035398	2.5172982	-1.8858328	2.6114893
908157044336180	2.733175	-2.155223	1.5078053
908157052636961	2.7881942	-2.5701265	0.49602664
908157060937742	2.8649123	-2.9958458	-0.21943855
908157069238523	2.8308325	-3.3406563	-0.48851466
908157077539305	2.7514536	-3.6299553	-0.4249357
908157085840086	2.6641293	-3.8617983	-0.13175833
908157094140867	2.5427175	-4.044509	0.28323233
908157102441648	2.2340217	-4.238097	0.7061088
908157110742430	2.0293825	-4.3354244	0.87644386
908157119043211	1.8001271	-4.391288	1.0212913
908157127343992	1.5751698	-4.395525	1.1039671
908157135644773	1.3643203	-4.361519	1.0975311
908157143945555	1.3389008	-4.357009	1.078741
908157152246336	0.9368172	-4.168332	0.9272251
908157160547117	1.0017924	-3.949317	0.8429692
908157168847898	1.1434609	-3.5349464	0.84480095
908157177148680	1.2459562	-2.7937212	0.82067597
908157185449461	1.1953254	-2.7993526	0.7597972
908157193750242	1.1967475	-1.5911283	0.73874617
908157202051023	1.0011541	2.2325735	1.2848302
908157210351805	0.18564355	5.0108156	0.657475
908157218652586	-2.4957144	7.768532	-2.5497174
908157226953367	-5.5610294	8.994166	-5.749824
908157235254148	-5.4889293	8.976417	-5.7571936
908157243554930	-7.238387	5.054885	-6.209045
908157251855711	-7.256632	2.560955	-4.6325574
908157260156492	-7.4250517	1.068655	-3.1110356
908157268457273	-7.2792473	-0.07017422	-1.8268924
908157276758055	-7.144711	-0.049523354	-1.7795291
908157285058836	-6.0132527	-1.8961439	0.52697897
908157293359617	-5.919568	-1.8760118	0.55468667
908157301660398	-3.5523057	-3.1104193	2.399878
908157309961180	-2.5083306	-2.9315891	2.717318
908157318261961	-1.6822783	-2.418644	2.9178452
908157326562742	-1.6965058	-2.4235477	2.8594096
908157334863523	-1.0741087	-1.6426725	2.8634546
908157343164305	-0.6561729	-0.668519	2.7081137
908157351465086	-0.2480768	1.7711391	2.2721605
908157359765867	0.20004249	3.3738632	2.0005577
908157368066648	0.89770496	5.431037	2.0129087
908157376367430	0.77298355	5.3979387	1.9197958
908157384668211	2.199482	7.990406	2.657633
908157392968992	4.519851	10.413037	3.6491358
908157401269773	7.256336	11.146203	3.481319
908157409570555	9.367068	3.4615602	-3.00986
908157417871336	9.149473	3.4496317	-3.0220547
908157426172117	8.113937	0.20321846	-4.340026
908157434472898	6.926673	-1.9605122	-4.016497
908157442773680	6.046156	-3.4316711	-2.8366344
908157451074461	5.460986	-5.168542	-0.21441889
908157459375242	5.372365	-5.1513014	-0.18070793
908157467676023	5.1949944	-5.3981037	0.54246336
908157475976805	4.862629	-5.2262516	0.80825245
908157484277586	3.8162327	-4.596794	0.8626173
908157492578367	2.5899162	-3.830287	0.9620726
908157500879148	2.116137	-3.2926283	1.2350581
908157509179930	1.9790063	-2.7449083	1.4889364
908157517480711	1.974747	-1.9230766	1.72381
908157525781492	1.9874067	-1.0331125	1.8572087
908157534082273	2.296031	-0.314991	1.9110229
908157542383055	2.8626046	0.2053194	1.9338499
908157550683836	3.3223693	0.66308594	2.005542
908157558984617	3.4253883	0.90249443	2.258946
908157567285398	3.4453154	1.1054554	2.5348961
908157575586180	3.0980678	1.1772728	2.6995208
908157583886961	2.325306	1.0637045	2.8731158
908157592187742	1.1063684	0.7037773	3.061741
908157600488523	-1.7316723	-0.25438786	3.2669396
908157608789305	-1.7305158	-0.24277782	3.1019292
908157617090086	-2.915564	-0.7945576	3.4788494
908157625390867	-3.6818523	-0.98041725	3.070983
908157633691648	-4.280224	-0.7771702	2.2694058
908157641992430	-4.940767	-0.3131342	1.4322541
908157650293211	-6.6510334	0.67693806	0.10592902
908157658593992	-6.581211	0.6787281	0.023139954
908157666894773	-7.3732033	0.9741535	-0.56939685
908157675195555	-7.6033688	0.86213493	-1.169692
908157683496336	-6.807284	0.4968691	-1.7159745
908157691797117	-5.143166	0.095238686	-2.2220633
908157700097898	-5.1335506	0.104249954	-2.2645774
908157708398680	-1.881157	-0.073161125	-3.2297354
908157716699461	-1.0307128	0.20309544	-3.323616
908157725000242	-0.66080403	0.4551344	-3.129705
908157733301023	-0.6806834	0.4809723	-2.6601563
908157741601805	-0.9934906	0.21391487	-2.0215397
908157749902586	-0.99143076	0.22349072	-2.0632591
908157758203367	-1.8120977	-0.68970776	-0.9285326
908157766504148	-1.8201917	-1.0908928	-0.5639441
908157774804930	-1.5583969	-1.3081627	-0.21621394
908157783105711	-1.2002457	-1.2947922	0.11006284
908157791406492	-0.88241637	-1.0526705	0.36863446
908157799707273	-0.6338848	-0.6144457	0.5127306
908157808008055	-0.49256182	-0.15153599	0.64021945
908157816308836	-0.41114187	0.27904892	0.8014724
908157824609617	-0.33048177	0.6365185	0.86433935
908157832910398	-0.23115039	0.8181524	0.81492734
908157841211180	-0.22349036	0.8114567	0.82887626
908157849511961	-0.13199687	0.82369995	0.72142935
908157857812742	-0.109742284	0.734272	0.471565
908157866113523	-0.2248447	0.7006502	0.38321114
908157874414305	-0.35970628	0.68239784	0.3516848
908157882715086	-0.33272493	0.6657591	0.40137672
908157891015867	-0.50243056	0.64195156	0.44421458
908157899316648	-0.659412	0.60691833	0.5483123
908157907617430	-0.76392186	0.59849644	0.82505643
908157915918211	-0.9095347	0.8445387	0.7696701
908157924218992	-1.1043385	1.2478399	0.59207165
908157932519773	-1.2971575	1.7052965	0.32281983
908157940820555	-1.2613752	1.6903391	0.3631128
908157949121336	-1.6216923	2.4161959	-0.3644035
908157957422117	-1.8881359	2.542142	-0.567958
908157965722898	-2.0323584	2.5180054	-0.62465453
908157974023680	-2.0840325	2.259966	-0.52019083
908157982324461	-2.11253	1.7545929	-0.27225125
908157990625242	-2.0836835	1.746728	-0.25886214
908157998926023	-1.8536146	0.1463213	0.645133
908158007226805	-1.4247105	-0.6171093	1.0823976
908158015527586	-0.8979383	-1.2667713	1.2829641
908158023828367	-0.34467	-1.7295666	1.3435498
908158032129148	-0.29957217	-1.7294626	1.3451861
908158040429930	0.11713314	-1.9106474	1.3592806
908158048730711	0.262692	-1.7642403	1.3639632
908158057031492	-0.112840325	-0.6829634	1.2368414
908158065332273	-0.13587433	-0.032915115	1.0884774
908158073633055	-0.025396854	0.60160065	0.96761394
908158081933836	0.0401617	0.58662605	1.0490512
908158090234617	0.25478345	1.2480602	0.9790633
908158098535398	0.6163935	1.9154911	0.92145157
908158106836180	2.133319	2.6564884	0.62163866
908158115136961	3.3577468	2.4862347	0.4697739
908158123437742	4.681877	2.0730896	0.30270445
908158131738523	4.6282973	2.062667	0.37727976
908158140039305	5.967903	1.5613747	0.55530447
908158148340086	7.11999	1.152111	1.396038
908158156640867	6.754935	0.6556492	1.187216
908158164941648	6.65902	0.65553474	1.2274661
908158173242430	4.757983	0.54596806	-0.923337
908158181543211	3.0675745	0.3405819	-2.8433263
908158189843992	1.8625638	0.19482803	-4.025871
908158198144773	0.9883564	0.24246025	-4.3963575
908158206445555	0.14804608	0.41129303	-4.1860466
908158214746336	-0.31728485	0.7107763	-2.6138601
908158223047117	-0.3453188	0.8056774	-0.6343287
908158231347898	-0.3535066	0.7057476	1.1398144
908158239648680	-0.27341247	0.30176735	2.4265869
908158247949461	-0.14521407	-0.347723	3.1698372
908158256250242	-0.29171106	-0.9280262	3.4809117
908158264551023	0.30878353	-1.562357	2.7621202
908158272851805	1.2185099	-2.052227	1.6502609
908158281152586	1.8989054	-2.5140734	0.68414325
908158289453367	2.289218	-2.9817524	0.0224908
908158297754148	2.4274006	-3.383113	-0.31079352
908158306054930	2.200552	-3.690981	-0.25659835
908158314355711	2.261404	-3.6700773	-0.20153713
908158322656492	2.2316535	-3.784647	0.12074828
908158330957273	2.1360707	-3.7962542	0.46958828
908158339258055	1.9335628	-3.734995	0.74911964
908158347558836	1.6984808	-3.6944132	0.9195484
908158355859617	1.5728624	-3.9540663	1.0278621
908158364160398	1.5719675	-3.9436283	1.0389696
908158372461180	1.321419	-3.9283895	0.83368504
908158380761961	1.0213301	-3.722458	0.5607183
908158389062742	0.8689412	-3.4376726	0.31114984
908158397363523	0.9226874	-3.1391134	0.1451025
908158405664305	0.9909333	-2.677206	0.11490452
908158413965086	0.99186105	-1.8996487	0.17672265
908158422265867	0.7836665	-0.7847996	0.13044453
908158430566648	0.27239704	0.6282177	-0.24524343
908158438867430	-0.7859175	2.2850857	-1.2844298
908158447168211	-2.6263266	3.989853	-3.1968951
908158455468992	-2.5704463	3.9878845	-3.1843233
908158463769773	-6.435632	5.06923	-5.802497
908158472070555	-6.570183	3.7869558	-4.9735756
908158480371336	-6.384494	2.3768148	-3.7558205
908158488672117	-6.2662125	1.3087273	-2.4753294
908158496972898	-6.304225	0.7012825	-1.2615212
908158505273680	-6.37896	0.36768913	-0.057012796
908158513574461	-6.2109222	0.09029198	1.006153
908158521875242	-5.646392	0.008807182	1.7622355
908158530176023	-4.7832766	0.03303051	2.06253
908158538476805	-3.8343644	0.20491314	2.1370146
908158546777586	-2.9382625	0.6546297	2.328824
908158555078367	-1.9222537	1.5243979	2.73973
