gyroscope_timestamp	gyroscope_x_data	gyroscope_y_data	gyroscope_z_data
908137863768093	0.040985107	0.6945648	-0.03161621
908137866789333	0.040985107	0.015304565	-0.03161621
908137871824734	0.04586792	0.015304565	-0.023086548
908137876860134	0.048324585	0.022628784	-0.016983032
908137881926052	0.048324585	0.021408081	-0.014541626
908137887175075	0.04586792	0.015304565	-0.01574707
908137891966335	0.04220581	0.007980347	-0.019424438
908137895323269	0.037322998	-5.79834E-4	-0.024291992
908137902037136	0.03488159	-0.0066833496	-0.026733398
908137907103054	0.03366089	-0.011581421	-0.02796936
908137912199489	0.03488159	-0.012802124	-0.02796936
908137917173855	0.03488159	-0.012802124	-0.02796936
908137922880642	0.03366089	-0.011581421	-0.029174805
908137927244655	0.02998352	-0.007904053	-0.02796936
908137932310573	0.025100708	-0.0066833496	-0.026733398
908137937559597	0.01777649	-0.0066833496	-0.026733398
908137942381374	0.008010864	-0.009140015	-0.026733398
908137945707790	0.008010864	-0.007904053	-0.026733398
908137952543728	-0.02619934	-0.007904053	-0.029174805
908137957518093	-0.046966553	-5.79834E-4	-0.029174805
908137962522976	-0.060394287	-5.79834E-4	-0.026733398
908137967588894	-0.064071655	-0.0030212402	-0.020629883
908137973326198	-0.05429077	-0.0030212402	-0.013305664
908137977598659	-0.03843689	-0.0018005371	-0.0096588135
908137982695095	-0.020095825	-0.0018005371	-0.013305664
908137988127224	-0.0029907227	-0.0054626465	-0.019424438
908137992735378	-0.0029907227	-0.009140015	-0.019424438
908137996061794	0.012893677	-0.009140015	-0.025527954
908138002836696	0.026321411	-0.012802124	-0.026733398
908138007811062	0.036102295	-0.016464233	-0.026733398
908138012876980	0.04586792	-0.021347046	-0.026733398
908138017912380	0.053207397	-0.029907227	-0.025527954
908138023680202	0.06175232	-0.03967285	-0.021850586
908138027952663	0.0703125	-0.045776367	-0.014541626
908138033018581	0.07885742	-0.048217773	-0.004776001
908138038450710	0.0874176	-0.04701233	0.0050201416
908138043089382	0.09352112	-0.04333496	0.0135650635
908138046446316	0.10206604	-0.037231445	0.017227173
908138053160183	0.11428833	-0.029907227	0.020904541
908138058165066	0.1326294	-0.022567749	0.029434204
908138063230984	0.15704346	-0.014022827	0.041671753
908138068266384	0.18148804	-0.0054626465	0.053878784
908138073942653	0.20469666	0.0018615723	0.06732178
908138078306667	0.22790527	0.0030822754	0.08074951
908138083342067	0.24990845	-0.0066833496	0.097854614
908138088621609	0.26823425	-0.025009155	0.11740112
908138093443386	0.28044128	-0.05067444	0.13208008
908138096769802	0.28044128	-0.081222534	0.13208008
908138103514187	0.27799988	-0.081222534	0.14794922
908138108519069	0.26823425	-0.14840698	0.1552887
908138113584987	0.25601196	-0.18385315	0.16261292
908138118559353	0.24012756	-0.2180481	0.1711731
908138124418728	0.22669983	-0.2510376	0.17970276
908138128660671	0.21813965	-0.2864685	0.1870575
908138133726589	0.21813965	-0.32188416	0.1870575
908138139006130	0.22302246	-0.32188416	0.19070435
908138143736355	0.24256897	-0.35365295	0.19070435
908138147093288	0.27799988	-0.37442017	0.18338013
908138153807155	0.3317566	-0.38053894	0.16629028
908138158873073	0.39649963	-0.37565613	0.14060974
908138163908474	0.4637146	-0.36221313	0.11129761
908138168943874	0.51379395	-0.34632874	0.08808899
908138174314968	0.53578186	-0.33288574	0.078308105
908138178984157	0.52601624	-0.32556152	0.08442688
908138184050075	0.48812866	-0.31944275	0.10031128
908138189421169	0.42826843	-0.31211853	0.122283936
908138194120876	0.3549652	-0.29501343	0.14672852
908138197447292	0.27311707	-0.266922	0.1711731
908138204191677	0.18637085	-0.2351532	0.19438171
908138209196560	0.09474182	-0.2021637	0.22003174
908138214231960	0.0018920898	-0.16796875	0.24691772
908138219267360	-0.08850098	-0.12763977	0.27378845
908138224699489	-0.16912842	-0.07632446	0.29945374
908138229368679	-0.23510742	-0.01890564	0.32022095
908138234373562	-0.28396606	0.038513184	0.32876587
908138239653103	-0.30841064	0.08735657	0.32022095
908138244474880	-0.30841064	0.12400818	0.29211426
908138247862331	-0.30841064	0.14845276	0.29211426
908138254515163	-0.22288513	0.14845276	0.18461609
908138259550564	-0.1483612	0.17288208	0.122283936
908138264585964	-0.0652771	0.17288208	0.061203003
908138269651882	0.01777649	0.16311646	0.0025787354
908138274870388	0.09474182	0.14479065	-0.05117798
908138279722683	0.09474182	0.12036133	-0.05117798
908138284758083	0.16072083	0.12036133	-0.09515381
908138289976589	0.20957947	0.08979797	-0.11836243
908138294798366	0.24134827	0.05807495	-0.11958313
908138298216335	0.25601196	0.028747559	-0.101257324
908138304869167	0.25845337	0.0043029785	-0.07316589
908138309904567	0.25357056	-0.016464233	-0.041412354
908138314939968	0.24746704	-0.03479004	-0.008422852
908138320005886	0.24134827	-0.05189514	0.022109985
908138325407497	0.23278809	-0.06410217	0.04899597
908138330046169	0.22302246	-0.07144165	0.06854248
908138335081569	0.21081543	-0.07510376	0.08074951
908138340300075	0.19737244	-0.07632446	0.086868286
908138345152370	0.18025208	-0.077545166	0.08930969
908138348509304	0.16192627	-0.07510376	0.090530396
908138355253689	0.14239502	-0.06777954	0.090530396
908138360289089	0.12283325	-0.054336548	0.08564758
908138365324489	0.10450745	-0.03845215	0.074645996
908138370359890	0.083740234	-0.022567749	0.0599823
908138375792019	0.06541443	-0.014022827	0.045318604
908138380400173	0.048324585	-0.010345459	0.03189087
908138385466091	0.03366089	-0.010345459	0.022109985
908138390867702	0.022659302	-0.010345459	0.017227173
908138395536892	0.01777649	-0.007904053	0.01234436
908138398893825	0.01777649	-0.009140015	0.01234436
908138405607692	0.032440186	-0.009140015	0.0013427734
908138410612575	0.05076599	-0.023788452	-0.0010986328
908138415678493	0.076416016	-0.033569336	0.0013427734
908138421446316	0.10694885	-0.040893555	0.006225586
908138427427761	0.13871765	-0.04701233	0.011108398
908138430754177	0.13871765	-0.054336548	0.011108398
908138435789577	0.1668396	-0.054336548	0.0135650635
908138441069118	0.19125366	-0.065338135	0.01234436
908138445890896	0.20837402	-0.07878113	0.008666992
908138449247829	0.21936035	-0.08854675	0.006225586
908138456053249	0.23034668	-0.09098816	0.006225586
908138460966579	0.24746704	-0.08610535	0.007461548
908138466093532	0.2669983	-0.08242798	0.008666992
908138471067898	0.27677917	-0.08366394	0.01234436
908138476683132	0.27189636	-0.09220886	0.022109985
908138481138698	0.24867249	-0.10319519	0.03677368
908138486143581	0.21202087	-0.11419678	0.053878784
908138491392605	0.169281	-0.121520996	0.06854248
908138496244900	0.12895203	-0.121520996	0.07952881
908138499571316	0.09718323	-0.11907959	0.08320618
908138506285183	0.08253479	-0.11419678	0.08198547
908138511320583	0.08253479	-0.108078	0.078308105
908138516355984	0.095962524	-0.101989746	0.0770874
908138521421901	0.116744995	-0.100753784	0.08074951
908138526792995	0.1375122	-0.10687256	0.090530396
908138531492702	0.15948486	-0.11663818	0.10031128
908138536528103	0.17904663	-0.12763977	0.106414795
908138541899196	0.19369507	-0.13864136	0.10519409
908138546568386	0.20103455	-0.14964294	0.102752686
908138549925319	0.20103455	-0.16305542	0.102752686
908138556669704	0.20593262	-0.16305542	0.10031128
908138561705105	0.20593262	-0.19238281	0.097854614
908138566771023	0.20593262	-0.2058258	0.090530396
908138571775905	0.20469666	-0.2058258	0.090530396
908138577635280	0.19857788	-0.21315002	0.06976318
908138581846706	0.19857788	-0.2168274	0.06976318
908138586912624	0.19248962	-0.2168274	0.057540894
908138592314235	0.18269348	-0.21560669	0.04899597
908138597013942	0.17416382	-0.20706177	0.042877197
908138600309841	0.17536926	-0.1899414	0.039215088
908138607054226	0.18392944	-0.16429138	0.03555298
908138612059109	0.19004822	-0.13619995	0.03189087
908138617125026	0.18269348	-0.11543274	0.029434204
908138622129909	0.15827942	-0.09587097	0.029434204
908138627745144	0.12651062	-0.068984985	0.02822876
908138632231228	0.100860596	-0.022567749	0.025787354
908138637205593	0.08618164	0.04219055	0.020904541
908138642485134	0.080078125	0.10813904	0.014785767
908138647276394	0.07763672	0.16067505	0.009902954
908138650633327	0.07397461	0.1960907	0.006225586
908138657347194	0.072753906	0.22053528	0.0050201416
908138662413112	0.07397461	0.23886108	0.0050201416
908138667448513	0.07885742	0.24862671	0.0013427734
908138672483913	0.08618164	0.2437439	-0.007217407
908138677763454	0.09718323	0.22053528	-0.013305664
908138682554714	0.116744995	0.18388367	-0.010864258
908138687559597	0.14604187	0.13868713	0.006225586
908138692808620	0.19004822	0.09225464	0.033111572
908138697660915	0.24623108	0.04951477	0.0599823
908138701017849	0.24623108	0.0055236816	0.0599823
908138707701198	0.3842926	0.0055236816	0.0929718
908138712767116	0.3842926	-0.100753784	0.0929718
908138717833034	0.4429474	-0.100753784	0.09907532
908138722868435	0.47958374	-0.15940857	0.09907532
908138728727810	0.44903564	-0.20950317	0.086868286
908138732908718	0.44903564	-0.26202393	0.086868286
908138737913601	0.3708496	-0.26202393	0.08564758
908138743315212	0.25723267	-0.266922	0.0917511
908138748014919	0.13139343	-0.2571411	0.09541321
908138751646511	0.020217896	-0.22782898	0.090530396
908138758085720	-0.059188843	-0.17893982	0.07342529
908138763090603	-0.0970459	-0.11907959	0.045318604
908138768126003	-0.09338379	-0.061660767	0.01600647
908138773191921	-0.05429077	-0.011581421	-0.0059814453
908138778563015	0.0067749023	0.027511597	-0.013305664
908138783232204	0.072753906	0.055618286	-0.002319336
908138788298122	0.13139343	0.07272339	0.022109985
908138793547146	0.17660522	0.08003235	0.055099487
908138798368923	0.20837402	0.08003235	0.08930969
908138801725857	0.22669983	0.07392883	0.11984253
908138808409206	0.23034668	0.0617218	0.14550781
908138813475124	0.21569824	0.044631958	0.16505432
908138818510525	0.18637085	0.022628784	0.17849731
908138823545925	0.1509552	0.0030822754	0.1870575
908138828825466	0.103302	-0.010345459	0.18826294
908138833647243	0.026321411	-0.023788452	0.17237854
908138838652126	-0.08728027	-0.03967285	0.13452148
908138843901150	-0.21434021	-0.04333496	0.07952881
908138848692409	-0.31573486	-0.007904053	0.018447876
908138852110378	-0.31573486	0.06295776	0.018447876
908138858763210	-0.37071228	0.06295776	-0.03529358
908138863829128	-0.38781738	0.14112854	-0.076828
908138868864528	-0.38537598	0.19120789	-0.10371399
908138873930446	-0.37683105	0.20831299	-0.11103821
908138879271023	-0.36094666	0.20587158	-0.10371399
908138883940212	-0.34017944	0.20343018	-0.08538818
908138888975612	-0.31085205	0.20709229	-0.06706238
908138894255153	-0.26808167	0.21321106	-0.052383423
908138899076931	-0.20089722	0.22053528	-0.04017639
908138902708523	-0.10926819	0.22297668	-0.029174805
908138909147732	6.713867E-4	0.21076965	-0.016983032
908138914213650	0.111846924	0.17778015	-0.004776001
908138919188015	0.20837402	0.12156677	0.0050201416
908138924223415	0.28533936	0.055618286	0.01234436
908138929625026	0.33787537	-5.79834E-4	0.011108398
908138934294216	0.35620117	-0.042114258	-0.0010986328
908138939360134	0.33787537	-0.07022095	-0.020629883
908138944700710	0.27922058	-0.08854675	-0.03895569
908138949430935	0.18881226	-0.09465027	-0.048736572
908138953062526	0.07763672	-0.084869385	-0.046295166
908138959501735	-0.03475952	-0.054336548	-0.037734985
908138964506618	-0.12515259	-0.0030212402	-0.025527954
908138969572536	-0.17401123	0.07028198	-0.016983032
908138974607937	-0.17645264	0.15089417	-0.008422852
908138979856960	-0.1471405	0.21931458	0.0013427734
908138988249294	-0.10316467	0.26086426	0.01600647
908138994749538	-0.04940796	0.27919006	0.050216675
908138999754421	-0.04940796	0.28407288	0.06364441
908139003355495	-0.053085327	0.28407288	0.06364441
908139009947292	-0.07507324	0.2962799	0.07220459
908139014860622	-0.11048889	0.3146057	0.07342529
908139019926540	-0.15202332	0.33172607	0.06854248
908139024931423	-0.18989563	0.34513855	0.058761597
908139030241482	-0.21554565	0.3524933	0.046554565
908139035032741	-0.22898865	0.3524933	0.029434204
908139040068142	-0.23387146	0.3475952	0.0135650635
908139045286648	-0.23510742	0.33537292	1.373291E-4
908139050138942	-0.23631287	0.31948853	-0.007217407
908139053740017	-0.23754883	0.30239868	-0.008422852
908139060209743	-0.24243164	0.28527832	-0.008422852
908139065245144	-0.25219727	0.27062988	-0.014541626
908139070280544	-0.26564026	0.2620697	-0.026733398
908139075346462	-0.2803192	0.2620697	-0.042617798
908139080717556	-0.29129028	0.2669525	-0.058502197
908139085386745	-0.29864502	0.27427673	-0.07070923
908139090391628	-0.30717468	0.2828369	-0.078048706
908139095793239	-0.31329346	0.2938385	-0.08294678
908139100492946	-0.31085205	0.3072815	-0.081710815
908139104673855	-0.29252625	0.32437134	-0.07316589
908139110563747	-0.25708008	0.3439331	-0.0597229
908139115629665	-0.2118988	0.3634796	-0.045059204
908139120634548	-0.16668701	0.3757019	-0.03161621
908139125669948	-0.127594	0.3781433	-0.016983032
908139131071560	-0.10072327	0.37202454	-0.004776001
908139135740749	-0.0811615	0.36470032	0.0037841797
908139140776150	-0.067718506	0.3622589	0.011108398
908139146086208	-0.059188843	0.3634796	0.01966858
908139150846950	-0.059188843	0.36592102	0.01966858
908139154509060	-0.055511475	0.36592102	0.03189087
908139160917751	-0.05795288	0.3634796	0.041671753
908139165953151	-0.06283569	0.35614014	0.046554565
908139170988552	-0.064071655	0.3475952	0.045318604
908139176023952	-0.05795288	0.3390503	0.041671753
908139181272976	-0.044525146	0.33416748	0.03189087
908139186094753	-0.028640747	0.3304901	0.0135650635
908139191130153	-0.01399231	0.3256073	-0.014541626
908139197020046	-0.0029907227	0.3121643	-0.052383423
908139201170437	0.0067749023	0.28771973	-0.090270996
908139205198757	0.016555786	0.25839233	-0.12080383
908139211271755	0.018997192	0.23397827	-0.13912964
908139216307155	0.012893677	0.21685791	-0.14891052
908139221342556	-0.0042266846	0.20220947	-0.15623474
908139226377956	-0.024993896	0.18266296	-0.16355896
908139231626980	-0.046966553	0.15577698	-0.17089844
908139236418239	-0.0652771	0.13012695	-0.17211914
908139241484157	-0.07627869	0.11302185	-0.16601563
908139246702663	-0.079956055	0.106918335	-0.15257263
908139251524441	-0.07627869	0.10568237	-0.13546753
908139255552761	-0.064071655	0.10203552	-0.11592102
908139261625759	-0.046966553	0.09591675	-0.097595215
908139266691677	-0.027435303	0.08859253	-0.081710815
908139271696560	-0.007873535	0.08126831	-0.06462097
908139276731960	0.011657715	0.075149536	-0.046295166
908139282164089	0.03366089	0.067840576	-0.026733398
908139286772243	0.053207397	0.060516357	-0.010864258
908139291807644	0.053207397	0.054397583	-0.010864258
908139297209255	0.06541443	0.054397583	0.01234436
908139301908962	0.0690918	0.043395996	0.01234436
908139306089870	0.067855835	0.043395996	0.01966858
908139311949245	0.06175232	0.03729248	0.023345947
908139316984646	0.049545288	0.029953003	0.024551392
908139322050564	0.028778076	0.02507019	0.025787354
908139327085964	0.003112793	0.021408081	0.026992798
908139332518093	-0.023757935	0.021408081	0.029434204
908139337126247	-0.051849365	0.022628784	0.029434204
908139342192165	-0.079956055	0.026306152	0.026992798
908139347532741	-0.108047485	0.027511597	0.024551392
908139352232448	-0.13491821	0.023864746	0.022109985
908139356382839	-0.15080261	0.017745972	0.018447876
908139362333767	-0.15568542	0.015304565	0.0135650635
908139367338650	-0.14958191	0.022628784	0.007461548
908139372374050	-0.13369751	0.04219055	0.0037841797
908139377409450	-0.114151	0.06539917	0.0050201416
908139382658474	-0.092163086	0.08859253	0.01234436
908139387541286	-0.07261658	0.10813904	0.024551392
908139392515651	-0.05429077	0.12646484	0.041671753
908139397825710	-0.03843689	0.14601135	0.06364441
908139402586452	-0.02619934	0.16799927	0.08808899
908139406828396	-0.020095825	0.18876648	0.1088562
908139412657253	-0.015213013	0.20465088	0.122283936
908139417692653	-0.010314941	0.21565247	0.13084412
908139422758571	-5.493164E-4	0.22175598	0.13696289
908139428678982	0.01411438	0.22541809	0.1418457
908139433165066	0.031219482	0.22419739	0.14428711
908139437895290	0.031219482	0.21809387	0.14428711
908139442900173	0.048324585	0.21809387	0.1418457
908139448149196	0.06175232	0.20709229	0.13208008
908139452940456	0.0690918	0.19242859	0.12107849
908139457243435	0.0690918	0.18144226	0.1088562
908139463041775	0.06175232	0.17532349	0.09663391
908139468046657	0.048324585	0.17655945	0.08808899
908139473082058	0.028778076	0.17900085	0.08442688
908139478117458	0.008010864	0.18266296	0.08564758
908139483519069	-0.010314941	0.18876648	0.0929718
908139488188259	-0.021316528	0.19854736	0.102752686
908139493223659	-0.023757935	0.21076965	0.11251831
908139498533718	-0.011550903	0.22909546	0.12107849
908139503324978	0.016555786	0.2571869	0.13208008
908139507811062	0.064193726	0.30116272	0.14794922
908139513395778	0.12527466	0.3622589	0.1711731
908139518400661	0.19369507	0.43800354	0.2029419
908139523466579	0.25967407	0.52352905	0.24324036
908139528501980	0.3146515	0.6188202	0.29333496
908139533751003	0.35740662	0.7263336	0.34709167
908139538603298	0.38917542	0.84117126	0.4020691
908139543608181	0.41238403	0.9621124	0.4546051
908139548979275	0.42582703	1.0818634	0.50346375
908139553678982	0.43070984	1.1979218	0.54745483
908139557920925	0.43070984	1.3029938	0.54745483
908139563749782	0.41726685	1.3029938	0.61831665
908139568785183	0.40750122	1.4642487	0.64764404
908139573790066	0.39894104	1.5228882	0.6720581
908139578886501	0.39894104	1.5754242	0.6965027
908139584105007	0.39405823	1.5754242	0.71850586
908139588957302	0.39405823	1.6218567	0.71850586
908139593962185	0.40385437	1.6548309	0.7417145
908139601286403	0.45759583	1.6719513	0.7942505
908139604002468	0.45759583	1.6804962	0.7942505
908139608488552	0.49546814	1.6804962	0.82722473
908139614103786	0.52845764	1.6927185	0.87242126
908139619139187	0.54678345	1.7195892	0.93351746
908139624144069	0.54678345	1.7586975	1.0080566
908139629240505	0.53334045	1.8087769	1.0935669
908139634581081	0.51135254	1.8686371	1.1852112
908139639250271	0.4820404	1.9382782	1.2817078
908139644316189	0.452713	2.0201263	1.3855438
908139649687282	0.42826843	2.1081085	1.4918518
908139654386989	0.4185028	2.1887207	1.5944672
908139659025661	0.42582703	2.2424927	1.6873322
908139664457790	0.4478302	2.258377	1.7630768
908139669523708	0.47958374	2.231491	1.8155975
908139674528591	0.51867676	2.165512	1.8412628
908139679563991	0.56388855	2.071457	1.8449249
908139684996120	0.6103058	1.9578247	1.8376007
908139689634792	0.6542816	1.8356476	1.8314819
908139694670192	0.6933899	1.7134857	1.8204956
908139699919216	0.7324829	1.607193	1.7923889
908139704710476	0.77523804	1.541214	1.7337494
908139709105007	0.77523804	1.5326538	1.7337494
908139714811794	0.85343933	1.5326538	1.551712
908139719816677	0.85832214	1.5852051	1.4552002
908139724882595	0.85832214	1.5473328	1.4552002
908139729917995	0.82899475	1.5473328	1.3660126
908139735167019	0.77523804	1.4447021	1.2817078
908139739988796	0.7043762	1.3152008	1.1974182
908139745024196	0.61642456	1.2028046	1.110672
908139750303737	0.50401306	1.1368256	1.019043
908139755064480	0.3684082	1.1221619	0.92251587
908139759214870	0.21569824	1.1478271	0.8235626
908139765165798	0.064193726	1.2028046	0.7245941
908139770201198	-0.07507324	1.271225	0.63175964
908139775236599	-0.193573	1.3408508	0.5450134
908139780302517	-0.2778778	1.4068298	0.46925354
908139785734646	-0.30473328	1.4581451	0.4179535
908139790342800	-0.2436676	1.4557037	0.4069519
908139795378200	-0.0970459	1.3677368	0.4387207
908139800596706	0.07763672	1.2272339	0.4912567
908139805449001	0.20593262	1.1209412	0.53523254
908139809629909	0.25357056	1.1111755	0.5608978
908139815489284	0.24867249	1.1856995	0.5743408
908139820616237	0.24134827	1.2944336	0.58166504
908139825590603	0.26211548	1.414154	0.58044434
908139830626003	0.31098938	1.5351257	0.5584564
908139836058132	0.37208557	1.6279602	0.5022583
908139840696804	0.4319458	1.6633911	0.41062927
908139845701687	0.4820404	1.6426239	0.29089355
908139851103298	0.51379395	1.5986328	0.15649414
908139855803005	0.52233887	1.5705414	0.026992798
908139859159939	0.52233887	1.5509949	0.026992798
908139865904323	0.52479553	1.5509949	-0.07070923
908139870909206	0.52479553	1.3738403	-0.07070923
908139875944607	0.56632996	1.3738403	0.01966858
908139880980007	0.6261902	1.2480164	0.17726135
908139886442653	0.670166	1.1893616	0.34465027
908139891020290	0.6738434	1.1966858	0.47416687
908139896116726	0.64819336	1.1966858	0.54867554
908139901396267	0.61886597	1.1429443	0.5743408
908139906187526	0.5968628	1.064743	0.56578064
908139910795681	0.5724335	1.0183258	0.53523254
908139916227810	0.54067993	1.0244446	0.47904968
908139921263210	0.50157166	1.0696259	0.38742065
908139926329128	0.466156	1.1319427	0.26400757
908139931334011	0.452713	1.1966858	0.1394043
908139937162868	0.48080444	1.2614288	0.061203003
908139941465847	0.55900574	1.3347473	0.06488037
908139946501247	0.67752075	1.4129333	0.1552887
908139952238552	0.82289124	1.4789124	0.30921936
908139956572048	0.980484	1.5216827	0.4998169
908139959928982	1.1381073	1.5387726	0.7148285
908139966673366	1.2846985	1.5387726	0.9432831
908139971647732	1.4142151	1.5302124	1.1717682
908139976744167	1.5314941	1.515564	1.3965454
908139981749050	1.6561127	1.489914	1.6152344
908139987638942	1.7941589	1.4385834	1.8033905
908139991789333	1.9236603	1.3164368	1.9084625
908139996855251	1.9859772	1.1099548	1.884018
908140002134792	1.9028931	0.9279175	1.7325287
908140006895534	1.6280212	0.9437866	1.4771881
908140010191433	1.6280212	1.2162476	1.4771881
908140016966335	1.1625214	1.2162476	1.110672
908140022001735	0.5602112	1.6218567	0.63664246
908140027006618	-0.083602905	1.9883575	0.14060974
908140032042019	-0.67126465	2.2424927	-0.21121216
908140037474148	-1.1379547	2.3878784	-0.27230835
908140042112819	-1.4739227	2.42453	-0.01574707
908140047117702	-1.709732	2.3561096	0.46681213
908140052488796	-1.8819885	2.231491	1.0422516
908140057188503	-2.006607	2.1215363	1.59935
908140060575954	-2.0921326	2.071457	2.0733795
908140067289821	-2.1422272	2.0934448	2.435028
908140072325222	-2.1568756	2.1716309	2.6781464
908140077360622	-2.1287842	2.284027	2.8174286
908140082365505	-2.0481415	2.4196472	2.885849
908140087675564	-1.9137573	2.5784607	2.9200592
908140092527859	-1.7341766	2.7592926	2.962799
908140097502224	-1.5179291	2.952301	3.0483246
908140102934353	-1.2699127	3.1380157	3.2022552
908140107573025	-0.99012756	3.2956238	3.4331818
908140110929958	-0.99012756	3.4092407	3.4331818
908140117643825	-0.33529663	3.4092407	4.0403595
908140122648708	0.0018920898	3.5057526	4.3311462
908140127714626	0.29510498	3.4971924	4.559601
908140132750026	0.5028076	3.4373322	4.7013245
908140137999050	0.60298157	3.3151703	4.7404175
908140142851345	0.58465576	3.1404572	4.663452
908140147856228	0.44415283	2.9547424	4.480194
908140153135769	0.19493103	2.799591	4.222412
908140157927028	0.19493103	2.709198	3.9365234
908140161283962	-0.11904907	2.709198	3.9365234
908140167997829	-0.4317932	2.6835327	3.657959
908140173033230	-0.6798096	2.6994019	3.4075165
908140178068630	-0.8312988	2.7140808	3.196167
908140183104030	-0.8862915	2.7018433	3.0361176
908140188536159	-0.86428833	2.6627655	2.937149
908140193144314	-0.78611755	2.6151123	2.8956146
908140198210232	-0.66760254	2.57724	2.8956146
908140203581325	-0.52830505	2.5613708	2.9090576
908140208311550	-0.3890381	2.580902	2.9090576
908140211607448	-0.2778778	2.6358795	2.87117
908140218412868	-0.21434021	2.707962	2.7832184
908140223387234	-0.20455933	2.7702637	2.6488342
908140228453151	-0.23754883	2.8118134	2.4863281
908140233458034	-0.2937622	2.8496857	2.3262787
908140239317409	-0.35116577	2.8985596	2.1967773
908140243528835	-0.3890381	2.952301	2.1124725
908140248564235	-0.38415527	2.980423	2.084381
908140254148952	-0.32429504	2.9425354	2.114914
908140258665554	-0.19721985	2.8118134	2.2065582
908140261991970	-0.19721985	2.5870209	2.2065582
908140268736355	0.29632568	2.5870209	2.5547485
908140273741237	0.64331055	1.9651489	2.767334
908140278837673	1.0061493	1.6157532	2.9542542
908140283812038	1.3311157	1.2357788	3.0788574
908140289518825	1.5766907	0.82896423	3.1204224
908140293913357	1.719635	0.42578125	3.0752106
908140298979275	1.746521	0.07759094	2.9566956
908140304625026	1.6622314	-0.17041016	2.7783203
908140309019558	1.6622314	-0.29867554	2.7783203
908140312376491	1.4887238	-0.29867554	2.5547485
908140319090359	1.2639313	-0.32312012	2.2981873
908140324125759	1.0305786	-0.27668762	2.0294037
908140329161159	0.82655334	-0.19606018	1.7655182
908140334257595	0.6738434	-0.11175537	1.5187225
908140340055935	0.56999207	-0.042114258	1.2914886
908140344267360	0.49913025	0.009185791	1.085022
908140349333278	0.43804932	0.045837402	0.9090729
908140354612819	0.37452698	0.078826904	0.7783661
908140359434597	0.30854797	0.119125366	0.69529724
908140362730495	0.24990845	0.16189575	0.65496826
908140369505398	0.20837402	0.19732666	0.64764404
908140374479763	0.18392944	0.21321106	0.6671753
908140379545681	0.17660522	0.19854736	0.71606445
908140384520046	0.18392944	0.14479065	0.7905731
908140390409939	0.20713806	0.059280396	0.8846588
908140394621364	0.23646545	-0.040893555	0.9872894
908140399656765	0.26823425	-0.13619995	1.0899048
908140405119411	0.31098938	-0.21315002	1.1827393
908140409758083	0.37208557	-0.2718048	1.2597198
908140413023464	0.37208557	-0.31089783	1.2597198
908140419859401	0.54556274	-0.31089783	1.3672333
908140426115505	0.62742615	-0.3524475	1.3904572
908140429838650	0.6872864	-0.36097717	1.3855438
908140435209743	0.7214966	-0.35609436	1.3513489
908140440641872	0.7300415	-0.32432556	1.2927094
908140445127956	0.7141571	-0.2571411	1.215744
908140450071804	0.7141571	-0.1557312	1.215744
908140455168239	0.6762848	-0.1557312	1.1277618
908140460142605	0.6225128	-0.027450562	1.032486
908140463438503	0.56266785	0.11180115	0.9371948
908140470243923	0.50401306	0.24742126	0.85165405
908140475187771	0.45147705	0.36714172	0.7881317
908140480253689	0.40750122	0.45877075	0.7539215
908140485350124	0.3684082	0.51252747	0.7551575
908140490934841	0.3329773	0.51864624	0.7881317
908140495451442	0.29632568	0.4721985	0.8480072
908140500364773	0.25967407	0.379364	0.92619324
908140506102077	0.21569824	0.25350952	1.0141449
908140510435573	0.1668396	0.10568237	1.0996704
908140513792507	0.1191864	-0.053115845	1.1778564
908140520536892	0.0874176	-0.20462036	1.2438354
908140525511257	0.07763672	-0.32432556	1.2890472
908140530607692	0.08618164	-0.39518738	1.3037109
908140535765163	0.095962524	-0.41963196	1.276825
908140541471950	0.100860596	-0.41107178	1.2096252
908140545652859	0.103302	-0.38053894	1.1167908
908140550718776	0.11428833	-0.33900452	1.0129395
908140556608669	0.1375122	-0.29623413	0.9115143
908140560789577	0.17172241	-0.26446533	0.8150177
908140564085476	0.17172241	-0.24615479	0.8150177
908140570890896	0.24502563	-0.24615479	0.6464081
908140575926296	0.27433777	-0.24125671	0.58654785
908140580961696	0.3024292	-0.24125671	0.55477905
908140585936062	0.3354187	-0.2351532	0.54867554
908140591825954	0.3818512	-0.21560669	0.5572357
908140596006862	0.3818512	-0.18139648	0.5572357
908140601072780	0.44050598	-0.18139648	0.56211853
908140606779567	0.56266785	-0.1239624	0.5046997
908140611174099	0.56266785	0.036071777	0.5046997
908140614469997	0.61398315	0.036071777	0.43751526
908140621244900	0.65919495	0.10079956	0.36175537
908140626249782	0.7019348	0.13500977	0.29945374
908140631315700	0.7471466	0.13745117	0.26768494
908140636290066	0.8009033	0.110580444	0.27134705
908140642057888	0.86076355	0.055618286	0.30065918
908140646605007	0.92430115	-0.032348633	0.34831238
908140651426784	0.9853821	-0.1532898	0.40083313
908140657164089	1.0403595	-0.31089783	0.4521637
908140661467067	1.0965424	-0.4953766	0.49493408
908140664854519	1.1625214	-0.68717957	0.5266876
908140671568386	1.2456055	-0.8728943	0.54989624
908140676573269	1.3421173	-1.0500488	0.56211853
908140681639187	1.4484253	-1.2186432	0.56211853
908140686918728	1.5583649	-1.3750153	0.542572
908140692350857	1.6671143	-1.5032959	0.50102234
908140696714870	1.7685089	-1.5961456	0.4362793
908140701811306	1.8540344	-1.6437988	0.34587097
908140707182400	1.9090118	-1.6303558	0.22491455
908140711851589	1.9138947	-1.5424042	0.06976318
908140715208523	1.9138947	-1.3835754	0.06976318
908140721922390	1.7453003	-1.3835754	-0.33094788
908140726957790	1.6011353	-0.9351959	-0.53985596
908140731993191	1.4630737	-0.70062256	-0.7060089
908140736998073	1.4630737	-0.50393677	-0.7060089
908140742887966	1.3115845	-0.50393677	-0.7732239
908140747099392	1.3115845	-0.2876892	-0.7732239
908140752165310	1.3079071	-0.2876892	-0.6644745
908140758085720	1.3934479	-0.26324463	-0.27474976
908140762236110	1.3934479	-0.34020996	-0.27474976
908140765532009	1.4728546	-0.34020996	-0.024291992
908140772337429	1.5791321	-0.40498352	0.23591614
908140777281276	1.7135315	-0.4636078	0.46925354
908140782347194	1.8662415	-0.511261	0.63786316
908140787382595	2.0140686	-0.5515747	0.7245941
908140793241970	2.1203766	-0.5919037	0.7355957
908140797453396	2.147232	-0.6309967	0.69285583
908140802488796	2.065384	-0.65908813	0.61343384
908140808592312	1.8699188	-0.6517639	0.5120239
908140812529079	1.5766907	-0.57966614	0.39718628
908140815886013	1.226059	-0.43917847	0.28356934
908140822660915	0.8729706	-0.2522583	0.17726135
908140827665798	0.56632996	-0.049453735	0.074645996
908140832731716	0.34152222	0.13989258	-0.029174805
908140837736599	0.21325684	0.29751587	-0.13058472
908140843443386	0.17536926	0.40623474	-0.22341919
908140848234646	0.19981384	0.45999146	-0.30407715
908140852873317	0.25723267	0.46855164	-0.38226318
908140858885280	0.3317566	0.45266724	-0.48487854
908140862913601	0.42826843	0.44410706	-0.644928
908140866270534	0.42826843	0.47099304	-0.644928
908140872984401	0.7190552	0.47099304	-1.177597
908140878172390	0.8986511	0.70066833	-1.5123596
908140883116237	0.8986511	0.8985901	-1.8519897
908140888578884	1.2309418	0.8985901	-2.157425
908140894041530	1.3384705	1.3775024	-2.3797913
908140898191921	1.3384705	1.5913086	-2.3797913
908140903257839	1.3873291	1.5913086	-2.467743
908140909117214	1.3787689	1.7256927	-2.3919983
908140913267605	1.3213501	1.7562561	-2.1635437
908140916563503	1.2223969	1.6914825	-1.8177795
908140923399441	1.0977783	1.5570984	-1.3987274
908140928495876	0.96461487	1.3775024	-0.9527893
908140933378689	0.83755493	1.17836	-0.5386505
908140938475124	0.7178192	0.99876404	-0.20877075
908140943937771	0.6017456	0.87416077	0.0050201416
908140948729030	0.50035095	0.82040405	0.10397339
908140953520290	0.43927002	0.81307983	0.11495972
908140959623806	0.45391846	0.8057556	0.06732178
908140963591091	0.56632996	0.75442505	-0.019424438
908140966948025	0.77401733	0.6456909	-0.1257019
908140973661892	1.0550079	0.50520325	-0.23686218
908140978727810	1.3763275	0.37080383	-0.33461
908140983732692	1.7135315	0.25230408	-0.3932495
908140988859646	2.047058	0.12156677	-0.3908081
908140994078151	2.3561554	-0.061660767	-0.31750488
908141002653591	2.6212616	-0.30845642	-0.18312073
908141009367458	2.9853516	-0.89242554	0.16137695
908141013914577	3.0769653	-1.1538849	0.32510376
908141017271511	3.0769653	-1.3652496	0.32510376
908141024015896	3.100174	-1.3652496	0.59143066
908141029142849	3.0513153	-1.5240784	0.59143066
908141034086696	2.9364777	-1.6291504	0.6855011
908141039885036	2.5540771	-1.6804504	0.7856903
908141044371120	2.5540771	-1.613266	0.7856903
908141049955837	2.2975006	-1.613266	0.786911
908141054228298	1.9981842	-1.5326233	0.7575989
908141059599392	1.6597748	-1.4580994	0.71362305
908141064268581	1.2908173	-1.3860168	0.66596985
908141067656032	0.8937378	-1.2785034	0.62197876
908141074369900	0.47714233	-1.1135559	0.56944275
908141079527370	0.05809021	-0.91322327	0.4912567
908141084440700	-0.33529663	-0.72994995	0.3678589
908141090269558	-0.6871338	-0.6077881	0.1894989
908141094847194	-0.99012756	-0.5540161	-0.036499023
908141100157253	-1.2491455	-0.5418091	-0.28330994
908141104551784	-1.4592743	-0.5320282	-0.51664734
908141109831325	-1.6083221	-0.4807129	-0.7084503
908141114653103	-1.6755219	-0.36341858	-0.855072
908141117979519	-1.6523132	-0.18385315	-0.9589081
908141124723903	-1.5460205	0.014083862	-1.0187683
908141129972927	-1.3725281	0.18266296	-1.0200043
908141134794704	-1.1526184	0.2987213	-0.94914246
908141140074245	-0.90216064	0.37690735	-0.8061981
908141145231716	-0.63949585	0.47099304	-0.6094971
908141150541775	-0.38781738	0.6420288	-0.3993683
908141154936306	-0.14958191	0.9095917	-0.23442078
908141160490505	0.0874176	1.2272339	-0.16479492
908141165007107	0.334198	1.5070038	-0.19168091
908141168333523	0.334198	1.6743927	-0.19168091
908141175077907	0.5724335	1.6743927	-0.26254272
908141180326931	0.763031	1.7110443	-0.32484436
908141185148708	0.8729706	1.6572876	-0.3590393
908141190458767	0.8937378	1.5705414	-0.3761444
908141195433132	0.83631897	1.4837952	-0.3859253
908141201109401	0.722702	1.3909454	-0.3895874
908141205290310	0.5724335	1.2736664	-0.3834839
908141210936062	0.40138245	1.1197205	-0.3712616
908141215361110	0.22669983	0.9450226	-0.3590393
908141218687526	0.06175232	0.77275085	-0.3529358
908141225431911	-0.08604431	0.6127167	-0.3517151
908141231077663	-0.21678162	0.45510864	-0.35049438
908141235472194	-0.33529663	0.27919006	-0.34683228
908141241331569	-0.45011902	0.07759094	-0.3541565
908141245756618	-0.5613098	-0.1374054	-0.3883667
908141251249782	-0.66026306	-0.3365631	-0.46043396
908141255613796	-0.7299042	-0.48316956	-0.57284546
908141261991970	-0.74823	-0.5588989	-0.7194519
908141265715114	-0.70425415	-0.5576935	-0.89660645
908141269102566	-0.70425415	-0.47338867	-0.89660645
908141275816433	-0.46235657	-0.47338867	-1.3022156
908141281553737	-0.29985046	-0.06654358	-1.4793549
908141285887234	-0.127594	0.18022156	-1.5820007
908141291624538	0.044647217	0.37080383	-1.5599976
908141296782009	0.20225525	0.44288635	-1.3865204
908141301695339	0.3024292	0.3304901	-1.0896454
908141305967800	0.29022217	-0.0054626465	-0.7512207
908141312376491	0.14360046	-0.4953766	-0.4494629
908141316038601	0.14360046	-0.9461975	-0.4494629
908141319426052	-0.08604431	-0.9461975	-0.22341919
908141326139919	-0.29864502	-1.1612091	-0.08538818
908141331785671	-0.4256897	-1.1001434	-0.090270996
908141336210720	-0.4928894	-0.89733887	-0.090270996
908141341886989	-0.57839966	-0.70306396	-0.20632935
908141346678249	-0.7286682	-0.5625763	-0.33461
908141352293484	-0.9205017	-0.44163513	-0.426239
908141356321804	-1.0890808	-0.33288574	-0.46166992
908141362120144	-1.1758423	-0.27546692	-0.44578552
908141366423122	-1.1562805	-0.29867554	-0.39569092
908141369780056	-1.0426636	-0.37321472	-0.32606506
908141376493923	-0.866745	-0.43063354	-0.25030518
908141382200710	-0.67126465	-0.42695618	-0.18678284
908141386564724	-0.49165344	-0.36953735	-0.15501404
908141392820827	-0.34994507	-0.3023529	-0.16723633
908141396879665	-0.25099182	-0.266922	-0.22709656
908141402678005	-0.18501282	-0.2876892	-0.32728577
908141406706325	-0.1300354	-0.35733032	-0.4543457
908141412443630	-0.071395874	-0.44407654	-0.58750916
908141416777126	0.0018920898	-0.5051575	-0.6913605
908141420164577	0.0018920898	-0.5063782	-0.6913605
908141426847927	0.18637085	-0.5063782	-0.72068787
908141432096950	0.28900146	-0.3341217	-0.6717987
908141436918728	0.38061523	-0.2058258	-0.60461426
908141443235866	0.45147705	-0.07510376	-0.49832153
908141447416775	0.49180603	0.054397583	-0.33216858
908141453001491	0.49302673	0.18388367	-0.1269226
908141457029812	0.49302673	0.30239868	0.061203003
908141462645046	0.3354187	0.379364	0.18338013
908141467131130	0.3354187	0.38302612	0.18338013
908141470488064	0.18269348	0.38302612	0.23223877
908141477232448	0.005554199	0.3072815	0.23103333
908141482817165	-0.17156982	0.18144226	0.21759033
908141487272732	-0.32429504	0.05807495	0.22491455
908141493101589	-0.43547058	-0.016464233	0.26524353
908141497740261	-0.4953308	-0.01890564	0.32754517
908141503416530	-0.5112152	0.047073364	0.3935089
908141507414333	-0.49656677	0.16311646	0.44728088
908141514372341	-0.46600342	0.30848694	0.5083618
908141517546169	-0.43302917	0.46487427	0.5083618
908141520811550	-0.411026	0.6065979	0.53157043
908141527647487	-0.4098053	0.71777344	0.56700134
908141533659450	-0.4391327	0.7959595	0.62075806
908141537718288	-0.4953308	0.8460541	0.6855011
908141544126980	-0.5661926	0.8778229	0.7453766
908141548490993	-0.63949585	0.89126587	0.7856903
908141554258816	-0.7103424	0.87538147	0.8113556
908141557768337	-0.7848816	0.82528687	0.8357849
908141563993923	-0.866745	0.74586487	0.8687744
908141567839138	-0.94859314	0.6408081	0.9029846
908141571226589	-0.94859314	0.5222931	0.9029846
908141578001491	-1.0756531	0.5222931	0.95796204
908141584043972	-1.1074219	0.3280487	0.9872894
908141588041775	-1.1171875	0.28651428	1.0288239
908141593046657	-1.1098633	0.2779541	1.0886688
908141598814480	-1.0878754	0.2803955	1.163208
908141604277126	-1.0561066	0.27427673	1.2401733
908141608213894	-1.0561066	0.25106812	1.2401733
908141613951198	-1.0096893	0.25106812	1.3440094
908141618223659	-1.0096893	0.18388367	1.3440094
908141621580593	-1.0170135	0.18388367	1.3672333
908141628294460	-1.0475464	0.18388367	1.381897
908141634428493	-1.0939789	0.22053528	1.3928986
908141638365261	-1.1452942	0.31828308	1.3928986
908141643370144	-1.1917267	0.31828308	1.3696747
908141649260036	-1.2283783	0.3048401	1.3244781
908141653471462	-1.2454681	0.22297668	1.2646027
908141658506862	-1.223465	0.07148743	1.1937408
908141664000026	-1.1403961	-0.15084839	1.1069946
908141668547146	-0.9974518	-0.43307495	0.99705505
908141671904079	-0.8252106	-0.73851013	0.866333
908141678678982	-0.66026306	-1.0060577	0.7221527
908141684904567	-0.5136566	-1.1832123	0.57310486
908141688719265	-0.37805176	-1.2479553	0.4252777
908141695158474	-0.2436676	-1.2064209	0.27745056
908141699461452	-0.108047485	-1.0720215	0.12962341
908141703886501	0.026321411	-0.8508911	-0.021850586
908141708860866	0.15704346	-0.550354	-0.17944336
908141714781276	0.28656006	-0.19117737	-0.34927368
908141718931667	0.4209442	0.19488525	-0.5386505
908141722227566	0.4209442	0.5772705	-0.5386505
908141729094021	0.7691345	0.5772705	-0.9882355
908141735289089	1.0232544	1.2724304	-1.2289276
908141739073269	1.3372345	1.5729828	-1.4598236
908141744200222	1.6890869	1.8307648	-1.6662903
908141749907009	2.047058	2.0213623	-1.8312225
908141754240505	2.047058	2.1215363	-1.8312225
908141759214870	2.3769226	2.1215363	-1.9399719
908141765257351	2.8888397	2.1154327	-1.9045258
908141769285671	2.8888397	1.8417664	-1.9045258
908141772612087	3.0451965	1.8417664	-1.745697
908141779356472	3.1184998	1.6316223	-1.5184631
908141785826198	2.987793	1.3909454	-1.0028839
908141789457790	2.987793	0.7898712	-1.0028839
908141794523708	2.794754	0.7898712	-0.7597809
908141800352566	2.536972	0.43678284	-0.53131104
908141804594509	2.2303162	0.078826904	-0.31996155
908141809568874	1.8955688	-0.25958252	-0.13546753
908141814970485	1.5510406	-0.563797	0.006225586
908141819609157	1.212616	-0.8252411	0.09907532
908141822966091	0.89009094	-1.0414886	0.1577301
908141829710476	0.59321594	-1.2137451	0.2078247
908141834715359	0.3231964	-1.3481293	0.27012634
908141839781276	0.08618164	-1.447113	0.35075378
908141844816677	-0.11781311	-1.5118561	0.44604492
908141850279323	-0.28520203	-1.5350647	0.5450134
908141854917995	-0.41226196	-1.5155182	0.63786316
908141859892360	-0.502655	-1.4629822	0.7148285
908141865416042	-0.5588684	-1.3847809	0.7649231
908141869993679	-0.5832977	-1.2956085	0.7832489
908141873289577	-0.5832977	-1.2003174	0.7832489
908141880064480	-0.5454254	-1.2003174	0.7258301
908141885099880	-0.4880066	-1.0121613	0.65252686
908141890196316	-0.411026	-0.9339905	0.5596771
908141895170681	-0.411026	-0.8692169	0.5596771
908141900999538	-0.23510742	-0.8692169	0.34831238
908141905271999	-0.23510742	-0.76049805	0.34831238
908141910276882	-0.1483612	-0.76049805	0.24935913
908141915831081	-0.06895447	-0.70674133	0.16017151
908141920317165	-0.0029907227	-0.64320374	0.08442688
908141923704616	0.04220581	-0.5650177	0.023345947
908141930449001	0.06175232	-0.47705078	-0.024291992
908141935453884	0.05809021	-0.39030457	-0.0597229
908141940489284	0.026321411	-0.31578064	-0.08294678
908141945494167	-0.035980225	-0.2559204	-0.093933105
908141951231472	-0.13491821	-0.21315002	-0.0914917
908141955595485	-0.26687622	-0.18873596	-0.08049011
908141960630886	-0.4220276	-0.17649841	-0.06338501
908141966337673	-0.59184265	-0.1716156	-0.045059204
908141970671169	-0.77023315	-0.17041016	-0.026733398
908141974058620	-0.95591736	-0.17649841	-0.007217407
908141980772487	-1.1513977	-0.19606018	0.020904541
908141985777370	-1.3456573	-0.22538757	0.061203003
908141990873806	-1.5032501	-0.29257202	0.118637085
908141995878689	-1.5765533	-0.5014801	0.19558716
908142001768581	-1.5460205	-0.9804077	0.28601074
908142005980007	-1.4458313	-1.7415314	0.3837433
908142011015407	-1.343216	-2.613861	0.4729309
908142016722194	-1.2845612	-3.3591156	0.5364685
908142021055691	-1.2870026	-3.8355865	0.56211853
908142024351589	-1.2870026	-4.0310364	0.56211853
908142031157009	-1.4617157	-4.0310364	0.5083618
908142036192409	-1.618103	-3.736618	0.4411621
908142041258327	-1.618103	-3.2796936	0.4411621
908142046232692	-1.7732697	-3.2796936	0.36175537
908142052153103	-1.7256165	-2.578415	0.2188263
908142056303493	-1.7256165	-0.4990387	0.2188263
908142061338894	-1.394516	-0.4990387	0.17237854
908142067259304	-0.9070587	0.54185486	0.13452148
908142071379177	-0.37193298	1.3115234	0.094192505
908142074827663	0.10694885	1.7623444	0.050216675
908142081480495	0.46492004	1.9615021	0.011108398
908142086515896	0.67752075	1.9957123	-0.01210022
908142091551296	0.7508087	1.9199524	-0.01210022
908142096617214	0.7068176	1.7770233	0.008666992
908142102385036	0.578537	1.5925293	0.03555298
908142106718532	0.40994263	1.3738403	0.05632019
908142111692898	0.25357056	1.1160583	0.062438965
908142117643825	0.14848328	0.82896423	0.06732178
908142121733181	0.10450745	0.5381775	0.08564758
908142125151150	0.09841919	0.2596283	0.1247406
908142131895534	0.09841919	-0.01524353	0.17481995
908142136869900	0.08985901	-0.29745483	0.21391296
908142141966335	0.07763672	-0.57966614	0.22615051
908142146971218	0.0715332	-0.8325653	0.21147156
908142152678005	0.07763672	-1.0243835	0.17605591
908142157042019	0.09474182	-1.1465607	0.1235199
908142162016384	0.11795044	-1.2015381	0.05632019
908142167784206	0.13871765	-1.2039795	-0.020629883
908142172087185	0.15216064	-1.1783295	-0.08782959
908142175505153	0.15216064	-1.1514435	-0.08782959
908142182219021	0.1533966	-1.1514435	-0.1232605
908142187254421	0.1533966	-1.1477966	-0.1232605
908142192259304	0.14971924	-1.1477966	-0.10371399
908142197294704	0.14848328	-1.1563263	-0.07070923
908142203215114	0.16436768	-1.1490021	0.039215088
908142207365505	0.16436768	-1.0512543	0.039215088
908142212431423	0.18148804	-1.0512543	0.10519409
908142218260280	0.20349121	-0.97673035	0.15284729
908142222441189	0.23034668	-0.92419434	0.16749573
908142225828640	0.26211548	-0.9193115	0.1552887
908142232573025	0.29388428	-0.9547577	0.13572693
908142237608425	0.30854797	-0.9950714	0.12840271
908142242613308	0.2975464	-0.9975128	0.12962341
908142247648708	0.2669983	-0.9290924	0.1259613
908142253538601	0.23278809	-0.7910309	0.1076355
908142257688991	0.21081543	-0.6041107	0.08074951
908142262724392	0.20469666	-0.39762878	0.055099487
908142268614284	0.21446228	-0.18629456	0.03677368
908142272825710	0.23646545	0.031188965	0.02822876
908142276121609	0.23646545	0.25595093	0.02822876
908142282927028	0.30610657	0.48075867	0.04043579
908142287901394	0.347641	0.68356323	0.07220459
908142292997829	0.38549805	0.83628845	0.1259613
908142298002712	0.41362	0.9230194	0.19802856
908142303770534	0.4295044	0.946228	0.27378845
908142308104030	0.4319458	0.9230194	0.33364868
908142313108913	0.42582703	0.87294006	0.36297607
908142318876735	0.41362	0.80451965	0.36297607
908142323149196	0.3977356	0.72265625	0.33976746
908142326536648	0.3977356	0.6347046	0.33976746
908142333281032	0.37817383	0.6347046	0.30311584
908142338255398	0.3500824	0.5430603	0.26156616
908142343290798	0.3170929	0.44410706	0.21635437
908142348326198	0.2828827	0.3390503	0.1736145
908142353575222	0.25479126	0.2303009	0.1394043
908142358396999	0.23890686	0.12768555	0.11495972
908142363401882	0.23158264	0.034851074	0.10031128
908142368742458	0.22790527	-0.054336548	0.094192505
908142373503200	0.21936035	-0.1532898	0.094192505
908142376860134	0.20225525	-0.27668762	0.10151672
908142383574001	0.17660522	-0.43673706	0.11129761
908142388639919	0.13995361	-0.6383209	0.118637085
908142393644802	0.09474182	-0.8704529	0.1235199
908142398680202	0.049545288	-1.1001434	0.12840271
908142404112331	0.012893677	-1.288269	0.13328552
908142408751003	-0.009109497	-1.4055786	0.13328552
908142413786403	-0.01399231	-1.447113	0.1247406
908142419188015	-0.005432129	-1.4214478	0.1088562
908142423857204	0.018997192	-1.3383636	0.08808899
908142427214138	0.018997192	-1.2186432	0.08808899
908142433958523	0.09474182	-1.2186432	0.053878784
908142438963405	0.12771606	-0.98651123	0.051437378
908142443998806	0.15583801	-0.90830994	0.062438965
908142449034206	0.18392944	-0.84236145	0.08198547
908142454496853	0.21936035	-0.76782227	0.10031128
908142459105007	0.26455688	-0.6700897	0.11251831
908142464140407	0.3183136	-0.5527954	0.11740112
908142469633571	0.37817383	-0.43307495	0.11495972
908142474211208	0.37817383	-0.33044434	0.11495972
908142477568142	0.4429474	-0.33044434	0.1076355
908142484282009	0.51379395	-0.2546997	0.0929718
908142489286892	0.58587646	-0.2058258	0.06732178
908142494352810	0.6530762	-0.18261719	0.026992798
908142499388210	0.710495	-0.17893982	-0.020629883
908142504637234	0.7544708	-0.1899414	-0.07070923
908142509459011	0.7850189	-0.20950317	-0.11225891
908142514494411	0.8009033	-0.2351532	-0.13668823
908142519773952	0.8009033	-0.266922	-0.13790894
908142524565212	0.78868103	-0.31700134	-0.12080383
908142527922146	0.763031	-0.40742493	-0.101257324
908142534636013	0.7117157	-0.56134033	-0.09637451
908142539640896	0.6261902	-0.78004456	-0.1073761
908142544706814	0.5064697	-1.0231628	-0.1257019
908142549742214	0.36473083	-1.2357483	-0.13546753
908142555204860	0.21813965	-1.3798981	-0.12814331
908142559813015	0.07763672	-1.4544373	-0.097595215
908142564848415	-0.048202515	-1.4861908	-0.045059204
908142570127956	-0.15568542	-1.5045166	0.020904541
908142574919216	-0.24610901	-1.5301819	0.0917511
908142578276150	-0.24610901	-1.572937	0.0917511
908142584990017	-0.37683105	-1.572937	0.2188263
908142590025417	-0.4220276	-1.7061005	0.27378845
908142595060817	-0.45256042	-1.7684174	0.32632446
908142600096218	-0.46235657	-1.805069	0.3776245
908142605497829	-0.44647217	-1.8099518	0.42771912
908142610136501	-0.40126038	-1.7928619	0.4729309
908142615202419	-0.40126038	-1.7622986	0.5095825
908142620634548	-0.25463867	-1.7207642	0.5389099
908142625273220	-0.25463867	-1.6596832	0.5389099
908142628599636	-0.18623352	-1.6596832	0.56333923
908142635344021	-0.14225769	-1.572937	0.58044434
908142640379421	-0.1312561	-1.4629822	0.58410645
908142645414821	-0.15814209	-1.3456879	0.56700134
908142650450222	-0.24243164	-1.2430725	0.5254669
908142655760280	-0.4134674	-1.184433	0.4656067
908142660490505	-0.67736816	-1.1942139	0.39230347
908142665556423	-0.99380493	-1.2846222	0.31288147
908142670958034	-1.2918854	-1.4434357	0.23835754
908142675627224	-1.5240173	-1.6352386	0.17237854
908142679014675	-1.684082	-1.8148346	0.122283936
908142685667507	-1.7964783	-1.9480133	0.086868286
908142690733425	-1.8819885	-2.0225372	0.06364441
908142695799343	-1.9503937	-2.0347595	0.04411316
908142700804226	-2.005371	-1.9981079	0.022109985
908142706144802	-2.046936	-1.9296875	-0.010864258
908142710875026	-2.072586	-1.8356018	-0.05606079
908142715910427	-2.0823517	-1.717102	-0.11103821
908142721220485	-2.0652466	-1.5692596	-0.17456055
908142725981228	-2.0004883	-1.4019012	-0.24665833
908142729338161	-2.0004883	-1.2394104	-0.24665833
908142736052028	-1.6523132	-1.2394104	-0.41281128
908142741117946	-1.3700867	-1.026825	-0.4861145
908142746122829	-1.0402222	-0.9950714	-0.53375244
908142751127712	-0.6871338	-1.0023956	-0.54473877
908142756559841	-0.33894348	-1.0280457	-0.5093231
908142761229030	-0.33894348	-1.0500488	-0.43234253
908142766233913	-0.021316528	-1.0500488	-0.43234253
908142771635525	0.24867249	-1.0488129	-0.321167
908142776335232	0.45881653	-1.0109406	-0.19532776
908142779661648	0.6103058	-0.9364319	-0.06826782
908142786406032	0.7043762	-0.83380127	0.04899597
908142791471950	0.7532501	-0.7213898	0.15040588
908142796476833	0.7691345	-0.6102295	0.2237091
908142801512234	0.7642517	-0.5161438	0.26768494
908142806913845	0.7483673	-0.45262146	0.28479004
908142811583034	0.72514343	-0.43551636	0.28845215
908142816618435	0.697052	-0.47583008	0.28479004
908142822081081	0.6677246	-0.5662384	0.27500916
908142826689235	0.6408386	-0.68963623	0.26036072
908142830015651	0.61642456	-0.8191223	0.2395935
908142836760036	0.59565735	-0.9376373	0.21635437
908142841795437	0.578537	-1.0280457	0.1870575
908142846830837	0.56510925	-1.0781403	0.15284729
908142851866237	0.55656433	-1.079361	0.12107849
908142857176296	0.55166626	-1.026825	0.094192505
908142861937038	0.55044556	-0.9217529	0.078308105
908142866972439	0.55410767	-0.7714844	0.074645996
908142872282497	0.56632996	-0.5845642	0.07952881
908142877043239	0.58587646	-0.37686157	0.08808899
908142880430691	0.58587646	-0.16552734	0.08808899
908142887114040	0.6408386	-0.16552734	0.1076355
908142892179958	0.6677246	0.22053528	0.11129761
908142897215359	0.6946106	0.3781433	0.110076904
908142902281276	0.7214966	0.5064087	0.106414795
908142908171169	0.7483673	0.6004944	0.106414795
908142912352077	0.7483673	0.6615753	0.106414795
908142917326442	0.77523804	0.6615753	0.11251831
908142923063747	0.81066895	0.6921234	0.13452148
908142927397243	0.81066895	0.66767883	0.13452148
908142930815212	0.80944824	0.66767883	0.15040588
908142937498562	0.7960205	0.6175995	0.16993713
908142942564480	0.77401733	0.5430603	0.1870575
908142947538845	0.7422638	0.44166565	0.20050049
908142952604763	0.7031708	0.3207245	0.2053833
908142958097927	0.6555176	0.18754578	0.20414734
908142962706081	0.5993042	0.04827881	0.19682312
908142967710964	0.53578186	-0.08610535	0.18093872
908142973570339	0.46247864	-0.20706177	0.15405273
908142977751247	0.38305664	-0.30599976	0.118637085
908142981138698	0.2987671	-0.37930298	0.08074951
908142987852566	0.21690369	-0.42819214	0.045318604
908142992857448	0.13995361	-0.45628357	0.018447876
908142997892849	0.067855835	-0.47338867	0.0025787354
908143002958767	0.004333496	-0.48316956	-0.0059814453
908143008329860	-0.04940796	-0.4807129	-0.013305664
908143013029567	-0.0970459	-0.4660492	-0.025527954
908143018034450	-0.13858032	-0.44163513	-0.045059204
908143023954860	-0.17645264	-0.41351318	-0.06706238
908143028135769	-0.2094574	-0.3842163	-0.08294678
908143031492702	-0.2094574	-0.35977173	-0.08294678
908143038176052	-0.259552	-0.35977173	-0.090270996
908143043211452	-0.27908325	-0.33900452	-0.08415222
908143048277370	-0.29129028	-0.34265137	-0.076828
908143053343288	-0.29129028	-0.34753418	-0.076828
908143059050075	-0.28640747	-0.34753418	-0.06826782
908143063414089	-0.28640747	-0.34632874	-0.06826782
908143068418972	-0.27052307	-0.34632874	-0.06462097
908143074156276	-0.24855042	-0.34020996	-0.058502197
908143078489773	-0.22044373	-0.3365631	-0.049942017
908143081846706	-0.18501282	-0.33776855	-0.03895569
908143088560573	-0.14103699	-0.34753418	-0.029174805
908143093565456	-0.08972168	-0.36586	-0.016983032
908143098631374	-0.027435303	-0.3866577	-0.0010986328
908143103666775	0.043426514	-0.40130615	0.014785767
908143109556667	0.11795044	-0.40130615	0.025787354
908143113737575	0.19004822	-0.38174438	0.026992798
908143118742458	0.25357056	-0.33776855	0.0135650635
908143124632351	0.3048706	-0.2657013	-0.01210022
908143128843776	0.34519958	-0.16552734	-0.04385376
908143132139675	0.3708496	-0.04701233	-0.0756073
908143138884060	0.38305664	0.082473755	-0.09881592
908143143980495	0.37817383	0.21685791	-0.11225891
908143148954860	0.35620117	0.35003662	-0.113479614
908143153990261	0.3146515	0.47343445	-0.09881592
908143159513942	0.26089478	0.57362366	-0.0743866
908143164122097	0.20593262	0.6469116	-0.04385376
908143169126980	0.16192627	0.6909027	-0.018188477
908143175016872	0.1350708	0.7116699	-0.0010986328
908143179197780	0.120391846	0.71533203	0.008666992
908143182554714	0.120391846	0.70433044	0.008666992
908143189268581	0.11306763	0.70433044	0.0025787354
908143194273464	0.11306763	0.6334839	-0.010864258
908143199308864	0.11306763	0.6334839	-0.010864258
908143204374782	0.108184814	0.57362366	-0.02796936
908143209623806	0.09718323	0.5039673	-0.03895569
908143214476101	0.08129883	0.42578125	-0.04385376
908143219480984	0.06297302	0.33781433	-0.04385376
908143225370876	0.044647217	0.24130249	-0.042617798
908143229551784	0.026321411	0.13989258	-0.04385376
908143232878200	0.0067749023	0.039733887	-0.048736572
908143239592067	-0.010314941	-0.056777954	-0.053619385
908143244596950	-0.023757935	-0.15208435	-0.057281494
908143249662868	-0.031082153	-0.24369812	-0.0597229
908143254698269	-0.035980225	-0.32312012	-0.0597229
908143260008327	-0.039642334	-0.38542175	-0.060943604
908143264775686	-0.044525146	-0.431839	-0.06338501
908143269811087	-0.06283569	-0.47338867	-0.062179565
908143275060110	-0.111709595	-0.5002594	-0.052383423
908143279881888	-0.18989563	-0.4819336	-0.046295166
908143283238821	-0.2644348	-0.38542175	-0.06826782
908143289952688	-0.2937622	-0.20462036	-0.122024536
908143294988089	-0.25463867	0.03239441	-0.17456055
908143300023489	-0.14958191	0.26818848	-0.17211914
908143305058890	0.004333496	0.41111755	-0.101257324
908143310521536	0.17292786	0.38424683	0.007461548
908143315129690	0.30610657	0.19364929	0.10519409
908143320195608	0.35984802	-0.057998657	0.16381836
908143325627737	0.334198	-0.2498169	0.18582153
908143330235892	0.27189636	-0.32922363	0.18826294
908143333562308	0.27189636	-0.31333923	0.18826294
908143340306692	0.20469666	-0.31333923	0.19926453
908143345342093	0.1326294	-0.24859619	0.19926453
908143350346976	0.04586792	-0.17893982	0.2188263
908143355412893	-0.051849365	-0.14964294	0.24447632
908143360661917	-0.1446991	-0.200943	0.25912476
908143365483694	-0.21310425	-0.33900452	0.24691772
908143370549612	-0.24855042	-0.5234833	0.2053833
908143376012259	-0.25219727	-0.6835327	0.15284729
908143380620413	-0.23143005	-0.76416016	0.11373901
908143383946829	-0.20089722	-0.75805664	0.10031128
908143390660696	-0.17279053	-0.68963623	0.110076904
908143395696097	-0.1459198	-0.5882263	0.13328552
908143400762015	-0.12025452	-0.4660492	0.16381836
908143405766897	-0.0970459	-0.3365631	0.19802856
908143411107474	-0.079956055	-0.21438599	0.23469543
908143415837698	-0.071395874	-0.10319519	0.26768494
908143420903616	-0.071395874	0.007980347	0.28356934
908143427892142	-0.071395874	0.13012695	0.27745056
908143430943899	-0.0652771	0.25595093	0.2579193
908143434331351	-0.0652771	0.36836243	0.2395935
908143441014700	-0.027435303	0.46365356	0.23469543
908143446050101	-0.0042266846	0.54429626	0.24691772
908143451085501	0.011657715	0.59194946	0.27500916
908143456120901	0.016555786	0.5675049	0.31410217
908143461400442	0.012893677	0.43066406	0.3544159
908143466191702	0.0067749023	0.18266296	0.3776245
908143471227102	0.005554199	-0.12640381	0.36541748
908143476537161	0.015335083	-0.41351318	0.31044006
908143481328421	0.03366089	-0.59310913	0.21759033
908143484593802	0.03366089	-0.6199951	0.21759033
908143491368704	0.055648804	-0.6199951	0.10397339
908143496434622	0.07397461	-0.5027008	-0.014541626
908143501439505	0.08129883	-0.29623413	-0.122024536
908143506474905	0.080078125	-0.060440063	-0.20388794
908143511876517	0.07397461	0.15945435	-0.25398254
908143516545706	0.06665039	0.34269714	-0.2710724
908143521611624	0.059310913	0.48199463	-0.26374817
908143526982718	0.05076599	0.5748291	-0.23809814
908143531651907	0.0385437	0.6200409	-0.20756531
908143534978323	0.023880005	0.6212616	-0.17700195
908143541722708	0.0067749023	0.5882721	-0.15501404
908143546758108	-0.009109497	0.53208923	-0.1415863
908143551793509	-0.027435303	0.46121216	-0.14035034
908143556828909	-0.046966553	0.38302612	-0.14646912
908143562138968	-0.06895447	0.30116272	-0.15623474
908143566899710	-0.09094238	0.22175598	-0.16111755
908143571965628	-0.108047485	0.14845276	-0.15257263
908143577428274	-0.12149048	0.08491516	-0.13424683
908143582005911	-0.1324768	0.034851074	-0.11714172
908143585423880	-0.1324768	-0.0042419434	-0.11714172
908143592046194	-0.16912842	-0.0042419434	-0.09881592
908143597112112	-0.19477844	-0.07144165	-0.093933105
908143602178030	-0.22288513	-0.11419678	-0.08905029
908143607182913	-0.24731445	-0.16552734	-0.081710815
908143612523489	-0.2644348	-0.2217102	-0.06826782
908143617253714	-0.27175903	-0.28157043	-0.048736572
908143622289114	-0.26687622	-0.34509277	-0.023086548
908143627660208	-0.25463867	-0.41107178	0.0037841797
908143632359915	-0.25463867	-0.47827148	0.0037841797
908143635747366	-0.23999023	-0.47827148	0.02822876
908143642430716	-0.2253418	-0.5479126	0.050216675
908143647435599	-0.2094574	-0.6236725	0.06854248
908143652501517	-0.18867493	-0.70796204	0.08320618
908143657536917	-0.1593628	-0.79470825	0.094192505
908143662999563	-0.12271118	-0.87409973	0.10031128
908143667668753	-0.08483887	-0.92663574	0.10031128
908143672673636	-0.051849365	-0.9437561	0.09663391
908143678533011	-0.032318115	-0.9278717	0.094192505
908143682713919	-0.028640747	-0.89242554	0.0917511
908143686070852	-0.043319702	-0.84236145	0.086868286
908143692815237	-0.07383728	-0.7751465	0.07220459
908143697881155	-0.12025452	-0.6884155	0.050216675
908143702886038	-0.17524719	-0.5882263	0.025787354
908143707921438	-0.22898865	-0.48683167	0.008666992
908143713292532	-0.26564026	-0.4000702	0.0025787354
908143717992239	-0.28152466	-0.34509277	0.0037841797
908143722997122	-0.2754364	-0.34265137	0.0037841797
908143728887015	-0.25463867	-0.4025421	-0.007217407
908143733098440	-0.22166443	-0.5198059	-0.049942017
908143736394339	-0.22166443	-0.69207764	-0.049942017
908143743138724	-0.1618042	-0.69207764	-0.23565674
908143748174124	-0.15202332	-1.2247467	-0.3236084
908143753240042	-0.1593628	-1.5265198	-0.3565979
908143758305960	-0.17645264	-1.7671967	-0.32240295
908143763616018	-0.20211792	-1.9015808	-0.24177551
908143768407278	-0.23754883	-1.9345703	-0.14279175
908143773381643	-0.23754883	-1.897934	-0.046295166
908143779271536	-0.33285522	-1.897934	0.03555298
908143783452444	-0.33285522	-1.7329865	0.03555298
908143786809378	-0.38415527	-1.7329865	0.09663391
908143793553763	-0.4293518	-1.6340332	0.13572693
908143798528128	-0.463562	-1.5314026	0.15405273
908143803594046	-0.4794464	-1.4324341	0.15893555
908143808659964	-0.4782257	-1.3518066	0.15405273
908143814397268	-0.4586792	-1.301712	0.14305115
908143818700247	-0.4232483	-1.2846222	0.12962341
908143823735647	-0.37438965	-1.2956085	0.11984253
908143829442434	-0.32061768	-1.3273621	0.12107849
908143833806448	-0.26808167	-1.3701324	0.13696289
908143837102347	-0.22410583	-1.4165497	0.16629028
908143843877249	-0.19113159	-1.4605408	0.20170593
908143848912649	-0.17156982	-1.4959717	0.23591614
908143853917532	-0.16668701	-1.5155182	0.26768494
908143858952933	-0.17524719	-1.5130768	0.29821777
908143864476614	-0.1960144	-1.4898682	0.32510376
908143869054251	-0.22654724	-1.4532166	0.34587097
908143874120169	-0.26319885	-1.4116669	0.35809326
908143879918509	-0.30596924	-1.3762512	0.36419678
908143884129934	-0.34628296	-1.3505707	0.36419678
908143887517386	-0.34628296	-1.3347168	0.36419678
908143894200735	-0.39637756	-1.3347168	0.3360901
908143899297171	-0.39637756	-1.3224792	0.30921936
908143904271536	-0.37805176	-1.3212738	0.27989197
908143909337454	-0.34750366	-1.3224792	0.25302124
908143914647513	-0.30963135	-1.3273621	0.22859192
908143919408255	-0.30963135	-1.3322449	0.22859192
908143924443655	-0.27052307	-1.3322449	0.2078247
908143930272513	-0.19845581	-1.3359222	0.16993713
908143934483938	-0.19845581	-1.3127136	0.16993713
908143937871390	-0.16790771	-1.3127136	0.1577301
908143944554739	-0.1446991	-1.2821655	0.15161133
908143949590140	-0.1324768	-1.2418518	0.15040588
908143954686575	-0.13369751	-1.1905365	0.1552887
908143959691458	-0.1471405	-1.1282349	0.16381836
908143965398245	-0.16912842	-1.0585938	0.17605591
908143969762259	-0.19967651	-0.99017334	0.1870575
908143974797659	-0.23754883	-0.9327545	0.19682312
908143980138235	-0.2778778	-0.89242554	0.20050049
908143984837942	-0.31697083	-0.8667755	0.19682312
908143988194876	-0.35238647	-0.8521271	0.1870575
908143994939261	-0.38171387	-0.8411255	0.17605591
908143999944143	-0.4049225	-0.82891846	0.16629028
908144004979544	-0.41958618	-0.81059265	0.16017151
908144010014944	-0.4256897	-0.7885895	0.15649414
908144015263968	-0.42814636	-0.76293945	0.15405273
908144020085745	-0.4256897	-0.73727417	0.15405273
908144025121145	-0.4220276	-0.70796204	0.1552887
908144030400686	-0.41470337	-0.67497253	0.15405273
908144035222464	-0.4061432	-0.63708496	0.14916992
908144038518362	-0.4061432	-0.5992279	0.14916992
908144045293265	-0.3927002	-0.5992279	0.13572693
908144050298147	-0.3902588	-0.550354	0.13208008
908144055333548	-0.3890381	-0.5454712	0.1259613
908144060368948	-0.3890381	-0.5601349	0.11495972
908144065801077	-0.37927246	-0.5967865	0.097854614
908144070409231	-0.37927246	-0.66397095	0.097854614
908144075536184	-0.35606384	-0.66397095	0.0770874
908144080876761	-0.30963135	-0.76904297	0.051437378
908144085515433	-0.2436676	-0.9119873	0.024551392
908144088902884	-0.17034912	-1.0756989	0.0025787354
908144095616751	-0.10192871	-1.2333069	-0.008422852
908144100621634	-0.053085327	-1.355484	-0.0096588135
908144105657034	-0.031082153	-1.4226685	-0.002319336
908144110722952	-0.03843689	-1.4287872	0.01234436
908144115971976	-0.071395874	-1.3786926	0.033111572
908144120793753	-0.12271118	-1.288269	0.055099487
908144125829153	-0.1789093	-1.1722107	0.0758667
908144131261282	-0.23387146	-1.0463715	0.094192505
908144135899954	-0.28276062	-0.9229889	0.11129761
908144139256888	-0.32305908	-0.8056946	0.127182
908144146001272	-0.35362244	-0.69818115	0.13816833
908144151006155	-0.3731537	-0.6016693	0.14305115
908144156102591	-0.38415527	-0.511261	0.1394043
908144161046438	-0.3902588	-0.42575073	0.12840271
908144166387015	-0.39393616	-0.34265137	0.11251831
908144171147757	-0.39637756	-0.26202393	0.094192505
908144176183157	-0.39515686	-0.18261719	0.078308105
908144181462698	-0.3927002	-0.1056366	0.061203003
908144186314993	-0.38781738	-0.026229858	0.041671753
908144189580374	-0.38781738	0.055618286	0.041671753
908144196355276	-0.37193298	0.055618286	1.373291E-4
908144201329642	-0.36216736	0.21321106	-0.019424438
908144206395559	-0.36216736	0.2779541	-0.03529358
908144211400442	-0.34872437	0.2779541	-0.03529358
908144216802054	-0.33406067	0.32681274	-0.060943604
908144221501761	-0.31573486	0.3598175	-0.060943604
908144226598196	-0.2937622	0.37690735	-0.06706238
908144231786184	-0.27052307	0.379364	-0.069503784
908144236638479	-0.24855042	0.3622589	-0.07194519
908144239995413	-0.23143005	0.3280487	-0.07316589
908144246709280	-0.22288513	0.27919006	-0.07194519
908144251744681	-0.22044373	0.22541809	-0.065826416
908144256749563	-0.22166443	0.16799927	-0.054840088
908144261815481	-0.2277832	0.10935974	-0.04017639
908144267095022	-0.23875427	0.05316162	-0.025527954
908144271855765	-0.25219727	0.0018615723	-0.008422852
908144276921683	-0.27175903	-0.03967285	0.008666992
908144282384329	-0.29864502	-0.068984985	0.026992798
908144286961966	-0.33285522	-0.084869385	0.041671753
908144290288382	-0.3731537	-0.084869385	0.05265808
908144297002249	-0.41714478	-0.065338135	0.062438965
908144302068167	-0.4598999	-0.029907227	0.07098389
908144307103567	-0.503891	0.016525269	0.0770874
908144312138968	-0.5503082	0.07028198	0.086868286
908144317418509	-0.59428406	0.13012695	0.10151672
908144322179251	-0.63461304	0.19242859	0.12840271
908144327245169	-0.67126465	0.24862671	0.16749573
908144332646780	-0.70181274	0.29507446	0.2188263
908144337285452	-0.7262268	0.3292694	0.27134705
908144340703421	-0.7262268	0.3549347	0.27134705
908144347386770	-0.7506714	0.3549347	0.34342957
908144352391653	-0.7506714	0.41233826	0.34342957
908144357427054	-0.75434875	0.41233826	0.35321045
908144362462454	-0.75434875	0.45877075	0.34587097
908144367741995	-0.75434875	0.52352905	0.32998657
908144372563772	-0.75434875	0.6029358	0.31044006
908144377599173	-0.7555542	0.6921234	0.29089355
908144382909231	-0.7579956	0.78375244	0.27012634
908144387731009	-0.75679016	0.8692627	0.24691772
908144391026907	-0.7457886	0.9364624	0.22491455
908144397771292	-0.721344	0.973114	0.20414734
908144402806692	-0.6810303	0.9706726	0.18582153
908144407811575	-0.62727356	0.9291382	0.16629028
908144412816458	-0.5649719	0.8619385	0.14672852
908144418309622	-0.4953308	0.7825165	0.1247406
908144422917776	-0.41714478	0.703125	0.09907532
908144428868704	-0.33406067	0.6249237	0.07220459
908144433476858	-0.24487305	0.54429626	0.045318604
908144438054495	-0.15324402	0.46121216	0.023345947
908144441380911	-0.06163025	0.37446594	0.009902954
908144448094778	0.027542114	0.2889557	0.0025787354
908144453130179	0.11062622	0.20709229	1.373291E-4
908144458165579	0.18148804	0.13256836	1.373291E-4
908144463231497	0.23890686	0.06539917	1.373291E-4
908144468602591	0.2828827	0.0067443848	-0.0010986328
908144473332815	0.3158722	-0.036010742	-0.002319336
908144478307181	0.34152222	-0.061660767	-0.003540039
908144484197073	0.35984802	-0.07388306	-0.003540039
908144488408499	0.3696289	-0.081222534	1.373291E-4
908144491765433	0.3696289	-0.08854675	1.373291E-4
908144498479300	0.3684082	-0.08854675	0.0037841797
908144503453665	0.35620117	-0.09954834	0.006225586
908144508580618	0.334198	-0.11419678	0.0037841797
908144513585501	0.2999878	-0.13496399	-0.002319336
908144519292288	0.25723267	-0.16429138	-0.0096588135
908144523656302	0.20103455	-0.2033844	-0.014541626
908144528691702	0.1350708	-0.2510376	-0.014541626
908144534398489	0.059310913	-0.30355835	-0.004776001
908144538762503	-0.018875122	-0.35853577	0.014785767
908144542058401	-0.09828186	-0.40986633	0.037994385
908144548863821	-0.17645264	-0.45262146	0.05632019
908144553838186	-0.25099182	-0.4819336	0.066101074
908144558873587	-0.31817627	-0.497818	0.06976318
908144563970022	-0.3755951	-0.497818	0.066101074
908144569402151	-0.41958618	-0.4819336	0.057540894
908144574040823	-0.45135498	-0.4501648	0.04411316
908144579076224	-0.4721222	-0.40863037	0.033111572
908144584752493	-0.48432922	-0.36221313	0.026992798
908144589085989	-0.4880066	-0.31333923	0.025787354
908144592473440	-0.4880066	-0.26080322	0.025787354
908144599217825	-0.477005	-0.26080322	0.025787354
908144604222708	-0.4611206	-0.1374054	0.024551392
908144609258108	-0.4403534	-0.06777954	0.023345947
908144614293509	-0.41714478	0.0055236816	0.023345947
908144619664602	-0.3914795	0.08370972	0.025787354
908144624394827	-0.36460876	0.16189575	0.026992798
908144629430227	-0.34017944	0.23274231	0.026992798
908144635259085	-0.31573486	0.2828369	0.023345947
908144639470511	-0.31573486	0.30604553	0.01966858
908144642766409	-0.29252625	0.29751587	0.01966858
908144649510794	-0.26687622	0.29751587	0.014785767
908144654546194	-0.2436676	0.2571869	0.011108398
908144659642630	-0.22044373	0.18144226	0.006225586
908144664678030	-0.1960144	0.075149536	-0.002319336
908144670079642	-0.16912842	-0.056777954	-0.013305664
908144674748831	-0.13858032	-0.2021637	-0.026733398
908144679723196	-0.10437012	-0.3524475	-0.03895569
908144685613089	-0.071395874	-0.4990387	-0.05117798
908144689793997	-0.040878296	-0.63708496	-0.06462097
908144693181448	-0.018875122	-0.76171875	-0.07926941
908144699895315	-0.006668091	-0.8692169	-0.09515381
908144704869681	-0.006668091	-0.9535217	-0.11103821
908144709996634	-0.016433716	-1.0133972	-0.12814331
908144715032034	-0.037200928	-1.0536957	-0.14524841
908144720738821	-0.0652771	-1.0744629	-0.16111755
908144725102835	-0.10192871	-1.0769043	-0.17211914
908144730077200	-0.14225769	-1.0598145	-0.17823792
908144735906058	-0.18623352	-1.0280457	-0.17823792
908144740209036	-0.23266602	-0.98773193	-0.1733551
908144743504934	-0.23266602	-0.94252014	-0.1733551
908144750249319	-0.32185364	-0.94252014	-0.1574707
908144755284720	-0.36094666	-0.8460083	-0.14891052
908144760289602	-0.39515686	-0.7934723	-0.1415863
908144765355520	-0.4256897	-0.73483276	-0.13790894
908144770757132	-0.44891357	-0.6676483	-0.14402771
908144775426321	-0.463562	-0.5906677	-0.1574707
908144780492239	-0.4696808	-0.5051575	-0.1733551
908144786321097	-0.46844482	-0.41963196	-0.18678284
908144790532522	-0.46844482	-0.34388733	-0.18678284
908144793828421	-0.4598999	-0.34388733	-0.19776917
908144800572806	-0.4415741	-0.2840271	-0.20632935
908144805608206	-0.41226196	-0.24125671	-0.21365356
908144810643606	-0.37438965	-0.21560669	-0.21977234
908144815709524	-0.32917786	-0.20706177	-0.22465515
908144821050101	-0.2778778	-0.21315002	-0.22709656
908144825780325	-0.22288513	-0.23271179	-0.22589111
908144830785208	-0.16912842	-0.2681427	-0.22341919
908144836675101	-0.115371704	-0.3182373	-0.22097778
908144840856009	-0.06163025	-0.3842163	-0.22221375
908144844243460	-0.010314941	-0.46240234	-0.22341919
908144850926809	0.03488159	-0.5430298	-0.22465515
908144855962210	0.0703125	-0.6151123	-0.22221375
908144861089163	0.09474182	-0.66641235	-0.21733093
908144866063528	0.11062622	-0.69329834	-0.20877075
908144871770315	0.116744995	-0.69818115	-0.19776917
908144876134329	0.11306763	-0.68473816	-0.18067932
908144881139212	0.09841919	-0.6542053	-0.15501404
908144887029104	0.072753906	-0.60899353	-0.1269226
908144891240530	0.040985107	-0.5442505	-0.10247803
908144894566946	0.040985107	-0.45872498	-0.10247803
908144901341849	-0.018875122	-0.45872498	-0.101257324
908144906316214	-0.040878296	-0.2339325	-0.1232605
908144911351614	-0.059188843	-0.1056366	-0.15257263
908144916417532	-0.07261658	0.023864746	-0.18312073
908144921636038	-0.08239746	0.14601135	-0.21000671
908144926457815	-0.08850098	0.25839233	-0.23686218
908144931523733	-0.08850098	0.3573761	-0.23686218
908144936803274	-0.08972168	0.3573761	-0.28086853
908144941594534	-0.08239746	0.44532776	-0.28086853
908144944920950	-0.06651306	0.51864624	-0.29919434
908144951634817	-0.043319702	0.5809479	-0.3187256
908144956670218	-0.011550903	0.6298065	-0.34072876
908144961675101	0.028778076	0.6652374	-0.36027527
908144966741018	0.076416016	0.68600464	-0.3749237
908144971990042	0.13139343	0.6921234	-0.37980652
908144976811819	0.19493103	0.6786804	-0.3724823
908144981877737	0.27189636	0.6469116	-0.3553772
908144987279349	0.35984802	0.5931549	-0.32972717
908144991887503	0.46492004	0.5149689	-0.3052826
908144995244436	0.58465576	0.40989685	-0.28819275
908145001988821	0.7153778	0.2730713	-0.28086853
908145006993704	0.8509979	0.106918335	-0.27597046
908145012090140	0.9890442	-0.08366394	-0.26498413
908145017095022	1.146637	-0.29135132	-0.24665833
908145022618704	1.3457947	-0.5149231	-0.23197937
908145027165823	1.6035767	-0.76416016	-0.23686218
908145032170706	1.9053345	-1.04393	-0.2710724
908145037602835	2.2119904	-1.3444824	-0.33338928
908145042272024	2.4771118	-1.63768	-0.4079132
908145045598440	2.4771118	-1.8942566	-0.4079132
908145052373343	2.7874146	-1.8942566	-0.53131104
908145057347708	2.8118591	-2.2180176	-0.55329895
908145062444143	2.7495575	-2.2668762	-0.53497314
908145067449026	2.6102905	-2.229004	-0.47631836
908145072728567	2.40625	-2.10318	-0.3834839
908145077519827	2.40625	-1.8991394	-0.3834839
908145082524710	2.1545868	-1.8991394	-0.26374817
908145087834768	1.8686829	-1.638916	-0.12814331
908145092656546	1.566925	-1.3518066	0.011108398
908145095952444	1.2712708	-1.0732574	0.13208008
908145102696829	0.993927	-0.82891846	0.21270752
908145107732229	0.749588	-0.6383209	0.22979736
908145112767630	0.54312134	-0.5185852	0.17237854
908145117772513	0.3794098	-0.48805237	0.03555298
908145123204642	0.26333618	-0.5552521	-0.16235352
908145127873831	0.19004822	-0.70918274	-0.3908081
908145132939749	0.14971924	-0.9229889	-0.60339355
908145138188772	0.12771606	-1.1612091	-0.7609863
908145143010550	0.11550903	-1.4006653	-0.84407043
908145146336966	0.111846924	-1.6230316	-0.8709564
908145153020315	0.12162781	-1.8111877	-0.88072205
908145158116751	0.14604187	-1.9443512	-0.91859436
908145163121634	0.19004822	-2.0115356	-1.0053406
908145168157034	0.25357056	-2.0188751	-1.1372833
908145173680716	0.33787537	-1.9919891	-1.283905
908145178227835	0.44171143	-1.9553375	-1.4109497
908145183293753	0.56266785	-1.9150238	-1.4915924
908145188664847	0.6946106	-1.856369	-1.5209198
908145193334036	0.82899475	-1.7647552	-1.5099182
908145196690970	0.82899475	-1.6401367	-1.5099182
908145203374319	1.094101	-1.6401367	-1.4304962
908145208409720	1.2199554	-1.3078308	-1.3767395
908145213506155	1.3409119	-1.1111145	-1.3156586
908145218511038	1.3409119	-0.9095459	-1.2423553
908145224095755	1.5644836	-0.9095459	-1.1556091
908145228551321	1.5644836	-0.5552521	-1.1556091
908145233617239	1.6512299	-0.5552521	-1.0590973
908145239018851	1.7025299	-0.42939758	-0.95770264
908145243688040	1.7062073	-0.34144592	-0.85995483
908145247014456	1.6475525	-0.27546692	-0.7732239
908145253819876	1.5241547	-0.20706177	-0.6938019
908145258763724	1.3470001	-0.121520996	-0.61561584
908145263799124	1.1381073	-0.017684937	-0.53009033
908145268865042	0.92185974	0.08370972	-0.4384613
908145274114065	0.7129364	0.16311646	-0.34317017
908145278935843	0.51867676	0.20709229	-0.25030518
908145283940726	0.34640503	0.21809387	-0.16355896
908145289220267	0.20469666	0.20831299	-0.08415222
908145294194632	0.09352112	0.19120789	-0.01210022
908145297368460	0.012893677	0.17288208	0.04777527
908145304265433	-0.04576111	0.16677856	0.09541321
908145309178763	-0.08604431	0.18632507	0.13208008
908145314183645	-0.108047485	0.23886108	0.16261292
908145319188528	-0.114151	0.31948853	0.19438171
908145324712210	-0.108047485	0.41845703	0.22615051
908145329289847	-0.09460449	0.52597046	0.2579193
908145334508352	-0.07507324	0.6444702	0.28723145
908145339574270	-0.053085327	0.7690735	0.30921936
908145344365530	-0.032318115	0.894928	0.31900024
908145347722464	-0.032318115	1.0110016	0.31900024
908145354558401	0.01411438	1.0110016	0.27989197
908145359532767	0.044647217	1.179596	0.22491455
908145364751272	0.0849762	1.2198944	0.14428711
908145369573050	0.0849762	1.2113647	0.14428711
908145375554495	0.22058105	1.2113647	-0.10003662
908145379643851	0.22058105	0.96699524	-0.10003662
908145384801321	0.3390808	0.96699524	-0.26618958
908145390141897	0.50157166	0.7080078	-0.45922852
908145394872122	0.7019348	0.36592102	-0.6644745
908145398045950	0.91941833	-0.03112793	-0.855072
908145405095511	1.1185455	-0.42575073	-1.0016785
908145409825735	1.256607	-0.74827576	-1.0749817
908145415227347	1.2908173	-0.9290924	-1.0627594
908145419927054	1.204071	-0.9217529	-0.97358704
908145427434378	0.7801361	-0.7201843	-0.7035675
908145430028372	0.7801361	0.11424255	-0.7035675
908145435826712	0.54678345	0.11424255	-0.58384705
908145440373831	0.347641	0.6053772	-0.4861145
908145445470267	0.18269348	1.0513	-0.3993683
908145448430472	0.043426514	1.4043884	-0.31384277
908145455541067	-0.08483887	1.6352997	-0.22833252
908145460179739	-0.2094574	1.7366943	-0.14035034
908145465276175	-0.33773804	1.7159271	-0.048736572
908145470250540	-0.4721222	1.5900879	0.046554565
908145475804739	-0.61628723	1.388504	0.14916992
908145480351858	-0.7653198	1.1453857	0.26036072
908145485753470	-0.91682434	0.8827057	0.38742065
908145490636282	-1.0671082	0.6139221	0.5279083
908145495885306	-1.2161407	0.3475952	0.6781769
908145498814993	-1.2161407	0.08979797	0.6781769
908145505956106	-1.4837189	0.08979797	0.97872925
908145510594778	-1.4837189	-0.37686157	0.97872925
908145515904837	-1.5973206	-0.37686157	1.2597198
908145520635061	-1.6950531	-0.78004456	1.2597198
908145526799612	-1.8416748	-0.78004456	1.5358276
908145530675345	-1.8416748	-1.1294403	1.5358276
908145536199026	-1.8844299	-1.1294403	1.6885376
908145541264944	-1.8942108	-1.2992706	1.8510437
908145546452933	-1.8380127	-1.4935303	2.019638
908145549138479	-1.6632996	-1.7500916	2.1784515
908145556493216	-1.3273315	-2.1056213	2.2969666
908145560918265	-0.839859	-2.546646	2.3238373
908145566747122	-0.29008484	-2.9693756	2.2053375
908145570989065	0.17660522	-3.2051697	1.9206696
908145576543265	0.44050598	-3.1135406	1.5113983
908145581059866	0.4637146	-2.67128	1.0691376
908145586278372	0.3024292	-1.9810028	0.68673706
908145591557913	0.0544281	-1.2210846	0.4203949
908145596806936	-0.19967651	-0.5540161	0.27868652
908145599492483	-0.4134674	-0.06410217	0.23469543
908145606999808	-0.57595825	0.22909546	0.25302124
908145611241751	-0.68836975	0.35369873	0.30311584
908145617192679	-0.761673	0.34881592	0.35809326
908145621343069	-0.8056488	0.25839233	0.4069519
908145626836233	-0.8325348	0.12400818	0.44604492
908145631413870	-0.84962463	-0.016464233	0.48513794
908145636723929	-0.8630676	-0.13619995	0.53157043
908145641728811	-0.8752899	-0.2192688	0.59143066
908145647466116	-0.8862915	-0.2657013	0.6671753
908145657414847	-0.9082794	-0.27668762	0.8333435
908145661626272	-0.9082794	-0.1875	0.8333435
908145667424612	-0.92414856	-0.1875	0.9665222
908145671666556	-0.92414856	0.067840576	0.9665222
908145677251272	-0.92658997	0.067840576	1.0141449
908145681767874	-0.9205017	0.2303009	1.0544739
908145687688284	-0.9082794	0.38424683	1.0874634
908145692052298	-0.8875122	0.51252747	1.1143341
908145697850638	-0.86428833	0.6139221	1.1338806
908145707677298	-0.8239746	0.82896423	1.1179962
908145712010794	-0.80444336	0.98776245	1.058136
908145717931204	-0.7824402	1.1905823	0.95428467
908145722051077	-0.75679016	1.4263763	0.8076782
908145727788382	-0.73358154	1.6817169	0.6244354
908145732121878	-0.7127991	1.9284973	0.4179535
908145738072806	-0.6969147	2.1374207	0.20903015
908145742558890	-0.682251	2.276703	0.020904541
908145748174124	-0.66760254	2.3316803	-0.13424683
908145758489065	-0.62971497	2.2999115	-0.32606506
908145762303763	-0.60650635	2.014038	-0.36149597
908145768590384	-0.5808563	1.7916718	-0.36637878
908145772405081	-0.55763245	1.5534515	-0.34683228
908145778233938	-0.542984	1.3262024	-0.31018066
908145782506399	-0.5356598	1.130722	-0.26130676
908145788304739	-0.5356598	0.9718933	-0.20021057
908145793340140	-0.5405426	0.8484955	-0.13058472
908145798802786	-0.5491028	0.7507477	-0.052383423
908145808904104	-0.5723114	0.6725769	0.11619568
908145812688284	-0.5723114	0.52108765	0.11619568
908145818852835	-0.5832977	0.52108765	0.26644897
908145822789602	-0.5832977	0.23641968	0.26644897
908145828404837	-0.582077	0.23641968	0.31166077
908145832860403	-0.5832977	0.009185791	0.32632446
908145839360647	-0.58940125	-0.2546997	0.25302124
908145843205862	-0.60528564	-0.73239136	0.25302124
908145849248343	-0.63583374	-0.73239136	0.18093872
908145859319143	-0.7457886	-0.88145447	0.029434204
908145863103323	-0.8203125	-0.78370667	-0.026733398
908145869573050	-0.89849854	-0.5857849	-0.06338501
908145873143606	-0.979126	-0.31944275	-0.08294678
908145879186087	-1.058548	-0.020126343	-0.0914917
908145883214407	-1.1342926	0.2730713	-0.09637451
908145889836722	-1.2014923	0.52841187	-0.10003662
908145893712454	-1.2552338	0.728775	-0.101257324
908145899510794	-1.2967987	0.86805725	-0.0927124
908145909612112	-1.3456573	0.947464	-0.036499023
908145913426809	-1.3480988	0.920578	0.007461548
908145919804983	-1.3322144	0.8118439	0.055099487
908145923497610	-1.302887	0.6469116	0.10031128
908145929631643	-1.2576752	0.43678284	0.13816833
908145933568411	-1.2014923	0.19488525	0.16749573
908145939855032	-1.1306305	-0.06410217	0.18461609
908145944127493	-1.046341	-0.3206787	0.18582153
908145949925833	-0.94859314	-0.56134033	0.16873169
908145960149222	-0.7152405	-0.7739258	0.08074951
908145963750296	-0.7152405	-1.070816	0.08074951
908145970220022	-0.4562378	-1.070816	-0.041412354
908145973851614	-0.4562378	-1.1551208	-0.041412354
908145979619436	-0.32917786	-1.1551208	-0.09881592
908145983922415	-0.20701599	-1.109909	-0.14891052
908145990239554	-0.08850098	-1.0170593	-0.18556213
908145994664602	0.025100708	-0.8875427	-0.21000671
908146000432425	0.12895203	-0.73483276	-0.21977234
908146009068899	0.28778076	-0.40498352	-0.21733093
908146014104300	0.34396362	-0.24736023	-0.21488953
908146020268851	0.38917542	-0.09954834	-0.21733093
908146024205618	0.42462158	0.038513184	-0.22465515
908146029241018	0.45147705	0.16555786	-0.23930359
908146034276419	0.4685974	0.27919006	-0.25886536
908146039281302	0.47958374	0.37202454	-0.28086853
908146045049124	0.4820404	0.43800354	-0.30163574
908146049352102	0.47348022	0.47587585	-0.3187256
908146052739554	0.47348022	0.48687744	-0.3187256
908146059483938	0.42218018	0.48687744	-0.3382721
908146064458304	0.3818512	0.46365356	-0.34439087
908146069554739	0.3366394	0.44166565	-0.34805298
908146074559622	0.28778076	0.40989685	-0.34805298
908146080144339	0.23646545	0.36470032	-0.3419342
908146084630423	0.1851654	0.30239868	-0.33216858
908146089696341	0.1851654	0.22175598	-0.33216858
908146095555716	0.09718323	0.22175598	-0.29673767
908146099767142	0.09718323	0.010421753	-0.29673767
908146103032522	0.06297302	0.010421753	-0.26498413
908146109837942	0.037322998	-0.109313965	-0.22465515
908146114812308	0.021438599	-0.22659302	-0.17823792
908146119908743	0.018997192	-0.3365631	-0.13546753
908146124913626	0.027542114	-0.43673706	-0.10003662
908146130467825	0.04220581	-0.52104187	-0.0743866
908146134984427	0.06541443	-0.5870056	-0.060943604
908146141484671	0.099624634	-0.6334381	-0.065826416
908146145879202	0.14483643	-0.65908813	-0.09637451
908146151341849	0.19493103	-0.6676483	-0.15257263
908146160191946	0.281662	-0.6444397	-0.31628418
908146165166311	0.3134308	-0.6041107	-0.4018097
908146170262747	0.34152222	-0.5381317	-0.4812317
908146175237112	0.36473083	-0.4477234	-0.54963684
908146180638724	0.3842926	-0.33532715	-0.59973145
908146185307913	0.4026184	-0.2033844	-0.6278229
908146190404349	0.4160614	-0.049453735	-0.63760376
908146195714407	0.4295044	0.12768555	-0.63394165
908146200505667	0.4502716	0.3292694	-0.62294006
908146203801565	0.4502716	0.5479431	-0.62294006
908146210576468	0.53700256	0.5479431	-0.59851074
908146215520315	0.60910034	0.98287964	-0.59239197
908146220586233	0.6946106	1.1600342	-0.59239197
908146225591116	0.79234314	1.2895508	-0.5972748
908146231114798	0.8962097	1.3652954	-0.60461426
908146235692434	0.8962097	1.3860626	-0.60461426
908146240758352	1.0000458	1.3860626	-0.6094971
908146246465140	1.1772003	1.361618	-0.59239197
908146250798636	1.1772003	1.2272339	-0.59239197
908146254125052	1.2431641	1.2272339	-0.56430054
908146260869436	1.2908173	1.1319427	-0.5154419
908146265935354	1.317688	1.0207672	-0.4409027
908146270970755	1.3274689	0.88638306	-0.34072876
908146275975638	1.322586	0.72021484	-0.21977234
908146281865530	1.3067017	0.5137329	-0.08538818
908146286046438	1.2859192	0.26086426	0.057540894
908146291081839	1.2663727	-0.04333496	0.19558716
908146296941214	1.2541656	-0.39762878	0.31776428
908146301152640	1.2492676	-0.80081177	0.41183472
908146304479056	1.2480469	-1.2381897	0.47416687
908146311253958	1.2456055	-1.6865692	0.5083618
908146316228323	1.2431641	-2.1043854	0.5120239
908146321294241	1.252945	-2.452591	0.48513794
908146326329642	1.2932587	-2.7066956	0.43016052
908146332036429	1.3812103	-2.8655243	0.34465027
908146336400442	1.5168304	-2.9376068	0.22491455
908146341405325	1.6842041	-2.9070587	0.0599823
908146347295218	1.8638	-2.7433624	-0.15379333
908146351476126	2.0323944	-2.4330292	-0.4103546
908146354863577	2.0323944	-1.9993134	-0.4103546
908146361577444	2.2584229	-1.9993134	-0.9613495
908146366582327	2.2950592	-0.9779663	-1.2081299
908146371648245	2.2804108	-0.4990387	-1.4060516
908146376683645	2.2804108	-0.09098816	-1.5514526
908146382420950	2.1166992	-0.09098816	-1.6491852
908146386754446	2.1166992	0.46365356	-1.6491852
908146391789847	1.9749756	0.46365356	-1.7163696
908146397527151	1.8039398	0.6273651	-1.760376
908146401860647	1.6145782	0.73487854	-1.78479
908146405217581	1.4264221	0.7959595	-1.7884674
908146411931448	1.2505035	0.8191681	-1.7701416
908146416936331	1.0965424	0.8106384	-1.7298126
908146422032767	0.9719391	0.78131104	-1.6638336
908146427007132	0.8778534	0.73609924	-1.5722198
908146434544974	0.7862396	0.6713562	-1.3181
908146437138968	0.7862396	0.45266724	-1.3181
908146442143851	0.7776947	0.45266724	-1.16539
908146448064261	0.7837982	0.2938385	-1.0090027
908146452214651	0.79478455	0.115478516	-0.85995483
908146455541067	0.7960205	-0.057998657	-0.7304535
908146462285452	0.7789154	-0.200943	-0.62538147
908146467351370	0.7398224	-0.29867554	-0.54229736
908146472356253	0.6787262	-0.34877014	-0.47631836
908146477422171	0.60298157	-0.34877014	-0.41889954
908146483251028	0.52111816	-0.29745483	-0.3675995
908146487462454	0.43559265	-0.19238281	-0.31262207
908146492497854	0.3488617	-0.045776367	-0.24909973
908146497991018	0.26455688	0.122802734	-0.1733551
908146502568655	0.18760681	0.28527832	-0.08538818
908146505864554	0.18760681	0.41601563	-0.08538818
908146512700491	0.0849762	0.41601563	0.10397339
908146517674856	0.053207397	0.54185486	0.19194031
908146522740774	0.053207397	0.5613861	0.19194031
908146527745657	0.025100708	0.5613861	0.26156616
908146533452444	-0.03352356	0.5772705	0.34342957
908146537785940	-0.03352356	0.6359253	0.34342957
908146542851858	-0.0652771	0.6359253	0.37397766
908146548161917	-0.09828186	0.676239	0.4093933
908146552922659	-0.13491821	0.7238922	0.4521637
908146556279593	-0.17401123	0.7825165	0.50346375
908146562962942	-0.2094574	0.84973145	0.5584564
908146567998343	-0.23875427	0.9169159	0.61343384
908146573094778	-0.25463867	0.96699524	0.6598511
908146578099661	-0.25708008	0.98532104	0.68673706
908146583989554	-0.24487305	0.960907	0.68673706
908146588139944	-0.21434021	0.88882446	0.6464081
908146593236380	-0.1593628	0.7666321	0.5584564
908146598546438	-0.071395874	0.5968323	0.41183472
908146603368216	0.056869507	0.38180542	0.2053833
908146606694632	0.22669983	0.11668396	-0.052383423
908146613439017	0.4295044	-0.200943	-0.33338928
908146618413382	0.62742615	-0.5527954	-0.5948334
908146623509817	0.77279663	-0.8912201	-0.7878723
908146628453665	0.8302307	-1.1465607	-0.87950134
908146634648733	0.8009033	-1.2601776	-0.8733978
908146638554983	0.7214966	-1.2174225	-0.81108093
908146643651419	0.631073	-1.0353699	-0.7463379
908146649602347	0.54922485	-0.74217224	-0.7060089
908146653661184	0.47225952	-0.36709595	-0.6876831
908146656957083	0.47225952	0.054397583	-0.6876831
908146663701468	0.27311707	0.054397583	-0.5972748
908146668706351	0.27311707	0.8277283	-0.5972748
908146673772268	0.1350708	0.8277283	-0.49343872
908146678807669	-0.024993896	1.0708618	-0.36271667
908146684667044	-0.38049316	1.1722565	-0.093933105
908146688847952	-0.38049316	0.96455383	-0.093933105
908146693913870	-0.5588684	0.96455383	0.020904541
908146699376517	-0.7262268	0.7141113	0.11619568
908146703984671	-0.8765106	0.41479492	0.19194031
908146707341604	-1.0108948	0.09591675	0.24568176
908146714055472	-1.1306305	-0.2217102	0.28233337
908146719090872	-1.2393494	-0.5173645	0.30921936
908146724126272	-1.3407745	-0.7714844	0.3385315
908146729161673	-1.4323883	-0.9645233	0.3837433
908146734502249	-1.5105743	-1.0915833	0.45336914
908146739201956	-1.5716705	-1.1636505	0.55233765
908146744237356	-1.618103	-1.1954193	0.6757355
908146749577933	-1.6461945	-1.1990967	0.8199005
908146754338675	-1.6584167	-1.1807709	0.98117065
908146757695608	-1.6584167	-1.1428833	1.1607666
908146764409476	-1.6535187	-1.084259	1.3611298
908146769414358	-1.6510773	-1.0084991	1.5822601
908146774480276	-1.6413116	-0.92663574	1.8107147
908146779515677	-1.5863342	-0.86557007	2.0233002
908146785375052	-1.4299469	-0.8716583	2.180893
908146789555960	-1.1269684	-0.99261475	2.2358704
908146794591360	-0.7005768	-1.2333069	2.1479187
908146799962454	-0.23387146	-1.5265198	1.9145813
908146804692679	0.16072083	-1.7610931	1.5822601
908146808019095	0.16072083	-1.8392792	1.5822601
908146814793997	0.41238403	-1.8392792	1.2328339
908146819798880	0.5064697	-1.730545	0.93840027
908146824834280	0.47714233	-1.4678802	0.73194885
908146829839163	0.3708496	-1.1221161	0.60365295
908146835729056	0.22914124	-0.76416016	0.5279083
908146839909964	0.07763672	-0.44528198	0.48025513
908146844945364	-0.07015991	-0.1899414	0.45092773
908146850499563	-0.2118988	-5.79834E-4	0.4338379
908146855077200	-0.34506226	0.12890625	0.42771912
908146858373099	-0.47088623	0.20587158	0.43504333
908146865239554	-0.58695984	0.2425232	0.46072388
908146870122366	-0.69325256	0.25474548	0.5132446
908146875188284	-0.79100037	0.2620697	0.59510803
908146880193167	-0.8801727	0.27919006	0.6989441
908146885960989	-0.95835876	0.31584167	0.8113556
908146890263968	-1.0280151	0.3757019	0.91763306
908146895299368	-1.0915375	0.46365356	1.0080566
908146900823050	-1.150177	0.5870514	1.0801239
908146905431204	-1.2039337	0.74586487	1.1314392
908146908727102	-1.2039337	0.9328003	1.1314392
908146915471487	-1.289444	0.9328003	1.1790924
908146920476370	-1.3212128	1.3274078	1.1742096
908146925542288	-1.3480988	1.4960022	1.1436462
908146930547171	-1.3700867	1.6255188	1.083786
908146935979300	-1.3859711	1.707367	0.9958191
908146940648489	-1.394516	1.7354584	0.8846588
908146945683890	-1.3920746	1.7183685	0.7514801
908146951421194	-1.3761902	1.6646118	0.59754944
908146955754690	-1.3761902	1.5852051	0.43016052
908146959111624	-1.3444366	1.5852051	0.43016052
908146965825491	-1.294342	1.4874725	0.26524353
908146970860892	-1.2308197	1.375061	0.1259613
908146975896292	-1.1575165	1.256546	0.025787354
908146980931692	-1.0780945	1.1380463	-0.034057617
908146986791067	-0.9889221	1.0219727	-0.060943604
908146990971976	-0.892395	0.8998108	-0.06338501
908146996037893	-0.7897644	0.76786804	-0.049942017
908147001531058	-0.6846924	0.6310425	-0.023086548
908147006139212	-0.5808563	0.50520325	0.006225586
908147009435110	-0.48312378	0.40501404	0.03555298
908147016179495	-0.3927002	0.34269714	0.0599823
908147021214895	-0.31329346	0.3207245	0.07952881
908147026341849	-0.24731445	0.3366089	0.0929718
908147031285696	-0.1960144	0.38180542	0.10031128
908147037145071	-0.1593628	0.45143127	0.097854614
908147041325979	-0.1312561	0.53453064	0.08808899
908147046391897	-0.114151	0.6200409	0.074645996
908147051885061	-0.11048889	0.703125	0.066101074
908147056462698	-0.12149048	0.7788696	0.07098389
908147059819632	-0.12149048	0.84729004	0.07098389
908147066533499	-0.18379211	0.84729004	0.14060974
908147071538382	-0.23510742	0.9560089	0.2053833
908147076634817	-0.30596924	0.9951172	0.27012634
908147081639700	-0.39759827	1.0244446	0.30921936
908147087315970	-0.5063324	1.039093	0.31044006
908147091710501	-0.62361145	1.0183258	0.27989197
908147096745901	-0.7396698	0.9450226	0.23223877
908147102086477	-0.8471832	0.81796265	0.18093872
908147106847220	-0.8471832	0.6542511	0.18093872
908147110173636	-0.94247437	0.6542511	0.12962341
908147116979056	-1.0267792	0.47099304	0.08074951
908147121892386	-1.0964203	0.2779541	0.039215088
908147126958304	-1.1513977	0.07759094	0.009902954
908147131963186	-1.1917267	-0.13131714	-0.0059814453
908147137853079	-1.2210236	-0.33900452	-0.0059814453
908147142064505	-1.2417908	-0.5405731	0.006225586
908147147099905	-1.2552338	-0.73239136	0.029434204
908147152837210	-1.2564697	-0.9119873	0.057540894
908147157170706	-1.2417908	-1.0756989	0.086868286
908147160497122	-1.2100525	-1.2186432	0.11373901
908147167333059	-1.1623993	-1.3298035	0.13208008
908147172276907	-1.0988617	-1.3970184	0.13572693
908147177312308	-1.0231323	-1.4141083	0.12107849
908147182347708	-0.93759155	-1.3835754	0.08930969
908147188329153	-0.8459778	-1.315155	0.046554565
908147192418509	-0.7506714	-1.2162018	-0.003540039
908147197423392	-0.65171814	-1.0940247	-0.058502197
908147202947073	-0.5491028	-0.95596313	-0.113479614
908147207524710	-0.44647217	-0.8069153	-0.16355896
908147210851126	-0.44647217	-0.6566467	-0.16355896
908147217626028	-0.24975586	-0.6566467	-0.22465515
908147222600393	-0.15446472	-0.3866577	-0.23686218
908147227666311	-0.059188843	-0.28279114	-0.24053955
908147232701712	0.032440186	-0.200943	-0.23809814
908147238530569	0.11550903	-0.12884521	-0.23442078
908147242741995	0.11550903	-0.05555725	-0.23809814
908147247807913	0.19004822	-0.05555725	-0.23809814
908147253270559	0.30366516	0.022628784	-0.28207397
908147257909231	0.30366516	0.18144226	-0.28207397
908147261235647	0.3390808	0.18144226	-0.31506348
908147268041067	0.36108398	0.25106812	-0.34561157
908147273137503	0.37573242	0.31340027	-0.36637878
908147278020315	0.38796997	0.36958313	-0.373703
908147283055716	0.40138245	0.41845703	-0.3675995
908147288731985	0.41482544	0.45510864	-0.35049438
908147293095999	0.42582703	0.47587585	-0.32484436
908147298131399	0.43559265	0.47831726	-0.29307556
908147303471976	0.44659424	0.46243286	-0.2576294
908147308232718	0.46247864	0.42456055	-0.22221375
908147311589651	0.48692322	0.3573761	-0.18922424
908147318303518	0.51623535	0.25474548	-0.16235352
908147323308401	0.55044556	0.12156677	-0.15135193
908147328404837	0.58709717	-0.03112793	-0.1574707
908147333409720	0.62498474	-0.18873596	-0.18312073
908147339116507	0.66407776	-0.3365631	-0.22465515
908147343419485	0.7019348	-0.4660492	-0.28086853
908147348485403	0.7349243	-0.5711365	-0.34439087
908147353734427	0.7618103	-0.6444397	-0.4066925
908147358556204	0.7837982	-0.6835327	-0.45555115
908147361913138	0.7837982	-0.69451904	-0.45555115
908147368627005	0.8192291	-0.69451904	-0.50076294
908147373662405	0.83387756	-0.66152954	-0.50076294
908147378667288	0.8461151	-0.6102295	-0.49464417
908147383733206	0.8595276	-0.5283661	-0.4885559
908147389165335	0.87664795	-0.42451477	-0.48976135
908147393804007	0.87664795	-0.31211853	-0.48976135
908147398839407	0.89985657	-0.31211853	-0.5019989
908147404241018	0.9340668	-0.21194458	-0.5252075
908147408879690	0.980484	-0.13252258	-0.55818176
908147412297659	1.0354767	-0.07998657	-0.60095215
908147418981009	1.0965424	-0.05067444	-0.65226746
908147423985892	1.1539917	-0.037231445	-0.7084503
908147429021292	1.204071	-0.032348633	-0.7573395
908147434148245	1.2443848	-0.025009155	-0.7854309
908147439336233	1.2749329	-0.01524353	-0.7939911
908147444158011	1.292038	-0.0042419434	-0.789093
908147449193411	1.2957001	0.0055236816	-0.7732239
908147454472952	1.2883759	0.010421753	-0.7390137
908147459264212	1.278595	0.0055236816	-0.6791382
908147462621145	1.2749329	-0.01890564	-0.59851074
908147469335013	1.2834778	-0.07510376	-0.50808716
908147474339895	1.3018036	-0.1691742	-0.41281128
908147479405813	1.322586	-0.30355835	-0.31384277
908147484410696	1.3372345	-0.47460938	-0.20756531
908147489690237	1.3396759	-0.6835327	-0.090270996
908147494512015	1.3311157	-0.9290924	0.04043579
908147499638968	1.3128052	-1.2027588	0.18582153
908147504796438	1.2932587	-1.4825287	0.3360901
908147509618216	1.2957001	-1.7464294	0.4656067
908147512975149	1.2957001	-1.9761047	0.4656067
908147519689017	1.4936218	-1.9761047	0.53767395
908147524724417	1.7220764	-2.2803192	0.43260193
908147529759817	2.0055237	-2.3194275	0.2237091
908147534795218	2.0055237	-2.2570953	0.2237091
908147540227347	2.5027618	-2.2570953	-0.4384613
908147544866018	2.5027618	-1.7696381	-0.4384613
908147549870901	2.6004944	-1.7696381	-0.81596375
908147555303030	2.5565186	-1.3493652	-1.1678314
908147559972220	2.3891602	-0.84724426	-1.4732666
908147563298636	2.1533508	-0.32922363	-1.7286072
908147570073538	1.9114532	0.13256836	-1.9289703
908147575078421	1.6976471	0.47953796	-2.0682373
908147580113821	1.5204926	0.69944763	-2.1403198
908147585149222	1.3665619	0.82040405	-2.152542
908147590581351	1.2248383	0.88882446	-2.1244354
908147595220022	1.0904541	0.9413452	-2.0718994
908147600285940	0.9658356	0.9889984	-1.9973907
908147605657034	0.8570862	1.0158844	-1.8935242
908147610326224	0.7654724	0.9902344	-1.7542572
908147613713675	0.6884918	0.88882446	-1.589325
908147620397024	0.6213074	0.7141113	-1.4134064
908147625432425	0.56632996	0.48687744	-1.2411346
908147630528860	0.53089905	0.23518372	-1.0835266
908147635503226	0.5235748	-0.010345459	-0.9430237
908147641148977	0.54067993	-0.22415161	-0.8196411
908147645574026	0.57121277	-0.38174438	-0.7108917
908147650609427	0.59565735	-0.46728516	-0.6107178
908147655888968	0.60054016	-0.4819336	-0.51664734
908147660680227	0.57489014	-0.43795776	-0.43113708
908147664006643	0.57489014	-0.34877014	-0.43113708
908147670751028	0.4295044	-0.34877014	-0.27230835
908147675786429	0.4295044	-0.09465027	-0.19168091
908147680821829	0.3183136	0.04095459	-0.19168091
908147685857229	0.19248962	0.04095459	-0.1085968
908147691167288	0.064193726	0.16799927	-0.025527954
908147695928030	-0.05429077	0.28407288	0.05632019
908147700963431	-0.15202332	0.38790894	0.13696289
908147706212454	-0.23022461	0.47587585	0.2188263
908147711003714	-0.29252625	0.54185486	0.30311584
908147714391165	-0.34384155	0.5821533	0.38742065
908147721074515	-0.3914795	0.6065979	0.46925354
908147726109915	-0.43669128	0.623703	0.542572
908147731175833	-0.4794464	0.6444702	0.60731506
908147736211233	-0.517334	0.6725769	0.6622925
908147742223196	-0.5491028	0.7141113	0.7123871
908147746282034	-0.57351685	0.7715454	0.7563629
908147751286917	-0.5906372	0.84117126	0.7893524
908147756719046	-0.59672546	0.9108124	0.8076782
908147761388235	-0.5906372	0.9682312	0.8064575
908147764806204	-0.57351685	1.0	0.7795868
908147771489554	-0.53686523	0.9926758	0.71850586
908147776463919	-0.4745636	0.9352417	0.6121979
908147781499319	-0.37193298	0.8118439	0.4411621
908147786565237	-0.21310425	0.6090393	0.19070435
908147791997366	0.01777649	0.30848694	-0.14524841
908147796636038	0.32443237	-0.11175537	-0.55574036
908147801671438	0.6726074	-0.6542053	-0.9906769
908147807012015	0.9914856	-1.2601776	-1.3645172
908147811742239	1.199173	-1.8013916	-1.5917664
908147815099173	1.199173	-2.1202698	-1.5917664
908147821813040	1.2578278	-2.1202698	-1.5648956
908147826817923	1.1955261	-2.1227112	-1.5648956
908147831883841	1.0721283	-1.805069	-1.4451447
908147836919241	0.93774414	-1.236969	-1.3462067
908147842626028	0.80822754	-0.5149231	-1.2777863
908147847081595	0.6726074	0.26574707	-1.2069244
908147852055960	0.51745605	1.013443	-1.1018524
908147857762747	0.3366394	1.6499481	-0.94670105
908147862096243	0.13015747	2.1203156	-0.7512207
908147865483694	-0.0970459	2.3964233	-0.53253174
908147872197561	-0.33285522	2.4782715	-0.307724
908147877202444	-0.5661926	2.3903198	-0.09515381
908147882268362	-0.78364563	2.1740723	0.090530396
908147887334280	-0.97792053	1.8686371	0.24447632
908147893132620	-1.1428375	1.5106812	0.3678589
908147897344046	-1.2772369	1.1356049	0.4717102
908147902409964	-1.3810883	0.7666321	0.56822205
908147907720022	-1.4568329	0.41845703	0.66596985
908147912480765	-1.5056915	0.099594116	0.77104187
908147915776663	-1.5056915	-0.18139648	0.88586426
908147922582083	-1.5338135	-0.41841125	1.0166016
908147927586966	-1.5215759	-0.6126709	1.1693268
908147932652884	-1.4983673	-0.76782227	1.3464661
908147937627249	-1.4751587	-0.8936615	1.5468292
908147943486624	-1.4555969	-0.99383545	1.7679596
908147947698050	-1.4409485	-1.0720215	2.0086365
908147952763968	-1.4238434	-1.1306763	2.2664185
908147958196097	-1.3798676	-1.1795349	2.53154
908147962865286	-1.2662354	-1.2418518	2.780777
908147966344290	-1.2662354	-1.355484	2.780777
908147972905569	-1.018219	-1.355484	2.9664764
908147977940970	-0.57839966	-1.5558472	3.025116
908147982976370	0.05076599	-1.8209534	2.89682
908147987981253	0.7691345	-2.050644	2.5584106
908147993688040	1.4203033	-2.089737	2.0514069
908147998082571	1.8601227	-1.8356018	1.4674072
908148003087454	2.0250702	-1.302948	0.9139862
908148008458548	1.929779	-0.61143494	0.4680481
908148013188772	1.6451111	0.09347534	0.16017151
908148016667776	1.2602692	0.70066833	-0.013305664
908148023259573	0.8546448	1.1404877	-0.07070923
908148028294974	0.48080444	1.3824005	-0.048736572
908148033360892	0.16436768	1.4324951	0.01234436
908148038335257	-0.08850098	1.323761	0.07952881
908148044072561	-0.2803192	1.103836	0.13208008
908148048436575	-0.41958618	0.8167267	0.16873169
908148053502493	-0.5185394	0.4880829	0.19438171
908148058782034	-0.59428406	0.14845276	0.22491455
908148063573294	-0.6639252	-0.17649841	0.27500916
908148067113333	-0.73846436	-0.45506287	0.34953308
908148073644095	-0.8215332	-0.6652069	0.44604492
908148078648977	-0.9107208	-0.7934723	0.5584564
908148083714895	-1.0011292	-0.84480286	0.68185425
908148088780813	-1.085434	-0.82891846	0.813797
908148094548636	-1.1623993	-0.76660156	0.9506378
908148098790579	-1.2320251	-0.67741394	1.083786
908148103856497	-1.2955627	-0.5735779	1.2047424
908148109288626	-1.3542023	-0.45628357	1.2988129
908148113896780	-1.3542023	-0.32556152	1.2988129
908148117619925	-1.4091797	-0.32556152	1.3452454
908148123998099	-1.4617157	-0.18139648	1.3256989
908148129033499	-1.5118103	-0.022567749	1.2267456
908148134099417	-1.5582275	0.15701294	1.0459137
908148139073782	-1.5961151	0.3549347	0.8027954
908148145055227	-1.6193237	0.55285645	0.5205841
908148149144583	-1.6254272	0.7190094	0.23223877
908148154179983	-1.6144257	0.82896423	-0.036499023
908148159947806	-1.5851135	0.8766022	-0.26374817
908148164311819	-1.5374603	0.87171936	-0.4360199
908148168004446	-1.4751587	0.8277283	-0.54841614
908148174382620	-1.4018555	0.7629852	-0.60705566
908148179326468	-1.3200073	0.6921234	-0.61927795
908148184392386	-1.2344666	0.6322479	-0.5948334
908148189397268	-1.1489563	0.59439087	-0.54229736
908148195165091	-1.0671082	0.5797119	-0.4726715
908148199498587	-0.9889221	0.5858307	-0.3920288
908148204503470	-0.91682434	0.6017151	-0.30895996
908148209813528	-0.853302	0.6249237	-0.22709656
908148214635306	-0.7970886	0.6554718	-0.15013123
908148218388968	-0.7970886	0.6957855	-0.08294678
908148224675589	-0.7005768	0.7446594	-0.026733398
908148229680472	-0.65415955	0.79719543	0.011108398
908148234776907	-0.6114044	0.85217285	0.033111572
908148239812308	-0.5771942	0.9132538	0.037994385
908148245610647	-0.5539856	0.986557	0.030670166
908148249852591	-0.5454254	1.078186	0.014785767
908148254857474	-0.5454254	1.1808014	-0.003540039
908148260167532	-0.56863403	1.1808014	-0.018188477
908148264989309	-0.56863403	1.3530731	-0.018188477
908148268804007	-0.59428406	1.3530731	-0.024291992
908148275029593	-0.62605286	1.3872833	-0.020629883
908148280064993	-0.6663666	1.3689575	-0.0010986328
908148285130911	-0.7164612	1.283432	0.03189087
908148290105276	-0.7799988	1.1099548	0.074645996
908148295995169	-0.8520813	0.8460541	0.11740112
908148300176077	-0.92904663	0.5222931	0.14428711
908148305241995	-1.0072479	0.19488525	0.14550781
908148310674124	-1.0817566	-0.09098816	0.1247406
908148315312796	-1.1440735	-0.32556152	0.0929718
908148319615774	-1.1880493	-0.5137024	0.0599823
908148325414114	-1.2112579	-0.66397095	0.034332275
908148330388479	-1.2149353	-0.77638245	0.017227173
908148335454397	-1.2026978	-0.8508911	0.011108398
908148340459280	-1.1758423	-0.8912201	0.0135650635
908148346349173	-1.1342926	-0.9022217	0.023345947
908148350530081	-1.0793152	-0.8961029	0.03677368
908148355565481	-1.0145721	-0.87901306	0.051437378
908148360967093	-0.9412689	-0.86312866	0.06364441
908148365666800	-0.8691864	-0.84968567	0.06732178
908148369939261	-0.79953	-0.8374481	0.066101074
908148375829153	-0.734787	-0.82647705	0.06488037
908148380742483	-0.67248535	-0.81791687	0.06854248
908148385808401	-0.6114044	-0.81303406	0.0770874
908148390813284	-0.55274963	-0.8093567	0.08808899
908148396184378	-0.49777222	-0.8044739	0.097854614
908148400945120	-0.49777222	-0.79470825	0.102752686
908148405950003	-0.4476776	-0.79470825	0.102752686
908148411656790	-0.36705017	-0.77638245	0.09663391
908148416020804	-0.36705017	-0.71040344	0.09663391
908148420384817	-0.33406067	-0.71040344	0.08320618
908148426091604	-0.30352783	-0.6676483	0.06364441
908148432378226	-0.25587463	-0.6224365	0.008666992
908148436162405	-0.25587463	-0.5418091	0.008666992
908148441228323	-0.23875427	-0.5418091	-0.029174805
908148447026663	-0.22410583	-0.5100403	-0.076828
908148451238089	-0.2094574	-0.484375	-0.13180542
908148456365042	-0.193573	-0.46484375	-0.19412231
908148461614065	-0.1776886	-0.45262146	-0.26254272
908148466374808	-0.1593628	-0.44895935	-0.33338928
908148470738821	-0.13613892	-0.45384216	-0.40057373
908148476445608	-0.10682678	-0.4660492	-0.45922852
908148481572561	-0.071395874	-0.4819336	-0.5068817
908148486516409	-0.027435303	-0.50393677	-0.53985596
908148491521292	0.023880005	-0.5405731	-0.55818176
908148497411184	0.08129883	-0.5967865	-0.55574036
908148501592093	0.14115906	-0.66641235	-0.53375244
908148506658011	0.19981384	-0.73727417	-0.49464417
908148511998587	0.25479126	-0.7934723	-0.4409027
908148516759329	0.2999878	-0.8227997	-0.38104248
908148521367483	0.334198	-0.8276825	-0.31750488
908148526799612	0.35864258	-0.808136	-0.25642395
908148531804495	0.37573242	-0.76660156	-0.20509338
908148536870413	0.3842926	-0.7018585	-0.16601563
908148541905813	0.38305664	-0.61143494	-0.1415863
908148547215872	0.37329102	-0.4965973	-0.12936401
908148552007132	0.37329102	-0.36097717	-0.12936401
908148557042532	0.35864258	-0.36097717	-0.1269226
908148562413626	0.34519958	-0.21438599	-0.13058472
908148567082815	0.334198	-0.06289673	-0.13424683
908148571690970	0.32809448	0.08615112	-0.13058472
908148577153616	0.32809448	0.22909546	-0.11836243
908148582158499	0.33787537	0.3634796	-0.10371399
908148587224417	0.36228943	0.48931885	-0.09515381
908148592259817	0.4026184	0.6053772	-0.10003662
908148597936087	0.45759583	0.7116699	-0.11958313
908148602300101	0.52601624	0.8008423	-0.15135193
908148607457571	0.6042023	0.87171936	-0.19168091
908148612615042	0.6897278	0.920578	-0.23197937
908148617436819	0.7776947	0.946228	-0.26986694
908148622075491	0.86932373	0.947464	-0.30407715
908148627538138	0.96339417	0.9230194	-0.3370514
908148632665091	1.0623474	0.87294006	-0.3712616
908148637578421	1.1649628	0.79719543	-0.4054718
908148642644339	1.2675934	0.69944763	-0.43722534
908148648473196	1.3677673	0.58461	-0.46655273
908148652684622	1.4642944	0.45877075	-0.49588013
908148657720022	1.5485992	0.3256073	-0.5227661
908148663152151	1.6133423	0.18632507	-0.5386505
908148667790823	1.6585541	0.04219055	-0.53131104
908148671117239	1.6585541	-0.100753784	-0.53131104
908148677892142	1.6915283	-0.100753784	-0.4103546
908148682866507	1.680542	-0.38174438	-0.2893982
908148687932425	1.680542	-0.5344696	-0.13058472
908148692937308	1.6548767	-0.71650696	-0.13058472
908148698796683	1.5828094	-0.71650696	0.25180054
908148703008108	1.5828094	-1.1770935	0.25180054
908148708074026	1.541275	-1.1770935	0.4387207
908148713536673	1.5070648	-1.43367	0.59632874
908148718144827	1.4936218	-1.6865692	0.7087097
908148721501761	1.5131683	-1.922348	0.7637024
908148728185110	1.5705872	-2.1239471	0.7453766
908148733220511	1.6671143	-2.2717743	0.6305237
908148738286429	1.7904968	-2.3585205	0.39718628
908148743291311	1.9126587	-2.3841705	0.045318604
908148748998099	2.0018616	-2.347519	-0.3895874
908148753423147	2.026291	-2.2338867	-0.84284973
908148758428030	1.9676514	-2.0249786	-1.2398987
908148764165335	1.8320313	-1.71344	-1.5392303
908148768498831	1.6439056	-1.3090363	-1.7347107
908148771855765	1.4398651	-0.84480286	-1.850769
908148778600149	1.2578278	-0.36341858	-1.9106445
908148783574515	1.1185455	0.078826904	-1.925293
908148788640433	1.0232544	0.44410706	-1.9020844
908148793675833	0.9621582	0.7116699	-1.8446655
908148799474173	0.9169769	0.8875885	-1.7566986
908148803716116	0.87908936	0.986557	-1.640625
908148808751517	0.84487915	1.0244446	-1.5050354
908148814061575	0.8143463	1.0073242	-1.3657532
908148818852835	0.78990173	0.9389038	-1.2374573
908148822209768	0.78990173	0.8240814	-1.2374573
908148829015188	0.7556915	0.8240814	-1.0346527
908148833959036	0.7556915	0.50520325	-0.9564667
908148838994436	0.7422638	0.50520325	-0.9564667
908148844029837	0.7263794	0.34513855	-0.8904877
908148849858694	0.6652832	0.21076965	-0.7732239
908148854070120	0.6652832	0.031188965	-0.7732239
908148859105520	0.61886597	0.031188965	-0.7060089
908148864568167	0.56144714	-0.027450562	-0.62416077
908148869206839	0.49546814	-0.07510376	-0.52885437
908148872533255	0.4209442	-0.1056366	-0.42990112
908148879308157	0.3366394	-0.1056366	-0.3358307
908148884313040	0.24256897	-0.06289673	-0.25154114
908148889348440	0.13995361	0.018966675	-0.17823792
908148894353323	0.036102295	0.12400818	-0.11470032
908148900212698	-0.06163025	0.23762512	-0.0597229
908148904454642	-0.1459198	0.34269714	-0.0096588135
908148909490042	-0.21434021	0.43556213	0.042877197
908148915166311	-0.26808167	0.51252747	0.10519409
908148919591360	-0.31452942	0.5723877	0.17481995
908148922948294	-0.35606384	0.6163635	0.24935913
908148929692679	-0.3927002	0.649353	0.32144165
908148934667044	-0.4232483	0.6811218	0.38986206
908148939702444	-0.4452362	0.7238922	0.4521637
908148944798880	-0.45500183	0.78131104	0.5083618
908148950414114	-0.45011902	0.85461426	0.5572357
908148954900198	-0.4256897	0.9364624	0.59999084
908148959844046	-0.38293457	1.0207672	0.63786316
908148965245657	-0.32429504	1.0989532	0.66841125
908148969914847	-0.25463867	1.1575928	0.68185425
908148973302298	-0.25463867	1.1832428	0.68185425
908148979985647	-0.17401123	1.1832428	0.66596985
908148985021048	-0.07507324	1.166153	0.60243225
908148990056448	0.0544281	1.0940704	0.47416687
908148995213919	0.23034668	0.9486847	0.26768494
908149000951224	0.46492004	0.70433044	-0.39569092
908149005162649	0.7532501	-0.13008118	-0.39569092
908149010198050	1.0611267	-0.13008118	-0.7915497
908149016118460	1.3299103	-0.6383209	-1.1287384
908149020268851	1.4924011	-1.0646973	-1.3217621
908149023564749	1.5192719	-1.288269	-1.3462067
908149030339651	1.4325409	-1.2467346	-1.2545776
908149035405569	1.2871399	-0.952301	-1.1360626
908149040410452	1.133194	-0.47216797	-1.0554199
908149045415335	0.9866028	0.11668396	-1.0261078
908149051305227	0.8461151	0.7507477	-1.0212097
908149055516653	0.7031708	1.375061	-1.0077972
908149060552054	0.55044556	1.9443817	-0.9637909
908149066533499	0.3842926	2.4123077	-0.88072205
908149070622854	0.20713806	2.7421722	-0.7671051
908149073918753	0.20713806	2.9095612	-0.63394165
908149080693655	-0.16790771	2.9095612	-0.4971161
908149085729056	-0.3572693	2.7934875	-0.36515808
908149090764456	-0.54418945	2.555252	-0.24298096
908149095769339	-0.721344	2.2290497	-0.12936401
908149101537161	-0.8875122	1.8429871	-0.01210022
908149106145315	-1.0365448	1.4324951	0.11619568
908149110906058	-1.1697235	1.0317688	0.2579193
908149117009573	-1.2845612	0.66645813	0.41551208
908149120976858	-1.3835297	0.35614014	0.58776855
908149124303274	-1.3835297	0.11180115	0.58776855
908149131047659	-1.4690399	0.11180115	0.7746887
908149136052542	-1.5460205	-0.06777954	0.9774933
908149141118460	-1.6156616	-0.19850159	1.202301
908149146672659	-1.6816254	-0.3023529	1.4564209
908149151799612	-1.7402649	-0.40863037	1.744751
908149156224661	-1.7488251	-0.56134033	2.0623932
908149161260061	-1.6242065	-0.8301239	2.3934937
908149167058401	-1.2784729	-1.2748413	2.6891327
908149171330862	-0.7005768	-1.8869324	2.8748474
908149174687796	0.003112793	-2.546646	2.884613
908149181401663	0.6555176	-3.0707703	2.7086945
908149186437063	1.1161041	-3.3016663	2.409378
908149191502981	1.3384705	-3.1868439	2.0758362
908149196507864	1.3445587	-2.7592316	1.7691803
908149202367239	1.1784058	-2.0811768	1.5089569
908149206578665	0.8827667	-1.2162018	1.2890472
908149211583548	0.5076904	-0.266922	1.110672
908149217564993	0.11062622	0.6175995	0.9774933
908149221684866	-0.25831604	1.283432	0.8871002
908149224980765	-0.25831604	1.6523895	0.8871002
908149231786184	-0.8435211	1.6523895	0.7637024
908149236821585	-1.0597687	1.6450653	0.70262146
908149241826468	-1.2320251	1.4117126	0.63420105
908149246953421	-1.3664246	1.100174	0.5608978
908149252721243	-1.4617157	0.755661	0.490036
908149257024222	-1.5215759	0.42578125	0.4362793
908149261968069	-1.5496826	0.14356995	0.4069519
908149268590384	-1.5484619	-0.07144165	0.3996277
908149272008352	-1.5484619	-0.20950317	0.3996277
908149275395804	-1.5264587	-0.20950317	0.4045105
908149282109671	-1.4873657	-0.2693634	0.4069519
908149287206106	-1.4348297	-0.2571411	0.39230347
908149292180472	-1.3713074	-0.18629456	0.3519745
908149297490530	-1.3016815	-0.07632446	0.28723145
908149302861624	-1.2332611	0.05807495	0.19926453
908149308171683	-1.1746063	0.20587158	0.08930969
908149312291556	-1.1269684	0.3634796	-0.037734985
908149317754202	-1.0927582	0.5271759	-0.17456055
908149322392874	-1.0695496	0.70188904	-0.30651855
908149325749808	-1.0573273	0.8839264	-0.4152527
908149332463675	-1.0573273	1.065979	-0.4885559
908149337804251	-1.0683136	1.2382202	-0.51664734
908149342564993	-1.0951996	1.3982849	-0.49464417
908149348424368	-1.1318512	1.5387726	-0.42869568
908149353429251	-1.1733856	1.6585083	-0.33461
908149358312063	-1.2088165	1.7525787	-0.22709656
908149362676077	-1.2320251	1.8173218	-0.11836243
908149367955618	-1.2405853	1.8490906	-0.016983032
908149372746878	-1.2320251	1.839325	0.0758667
908149376073294	-1.2320251	1.786789	0.0758667
908149382848196	-1.1721649	1.786789	0.20170593
908149388097220	-1.1355133	1.6035309	0.22003174
908149392888479	-1.1013031	1.5241241	0.20903015
908149398229056	-1.0732117	1.489914	0.17237854
908149403752737	-1.0524292	1.5082397	0.118637085
908149408818655	-1.0390015	1.5717621	0.053878784
908149413030081	-1.0390015	1.659729	-0.013305664
908149418706351	-1.0206604	1.659729	-0.08049011
908149423100882	-1.0206604	1.8148804	-0.08049011
908149426396780	-1.0048065	1.8148804	-0.14279175
908149433202200	-0.98280334	1.838089	-0.19900513
908149438908987	-0.95225525	1.798996	-0.24542236
908149443242483	-0.91438293	1.6878357	-0.27597046
908149448979788	-0.8704071	1.4947968	-0.28330994
908149453954153	-0.826416	1.2223358	-0.26130676
908149459386282	-0.7922058	0.8790436	-0.20756531
908149463353567	-0.77267456	0.49420166	-0.1232605
908149469151907	-0.7689972	0.10568237	-0.018188477
908149473454886	-0.77511597	-0.2522583	0.08564758
908149476811819	-0.78611755	-0.5564575	0.16629028
908149483525686	-0.79953	-0.79470825	0.21026611
908149489293509	-0.8154144	-0.9669647	0.2212677
908149493627005	-0.8349762	-1.0744629	0.2188263
908149499638968	-0.8606262	-1.123352	0.2188263
908149504338675	-0.8875122	-1.1257935	0.22859192
908149509801321	-0.9119415	-1.0989075	0.24935913
908149513738089	-0.93026733	-1.0598145	0.27500916
908149519505911	-0.93515015	-1.0195007	0.30065918
908149523808890	-0.9278259	-0.98895264	0.32144165
908149527135306	-0.9278259	-0.97428894	0.32144165
908149533879690	-0.8801727	-0.97428894	0.32388306
908149539708548	-0.8423004	-1.0109406	0.30189514
908149543950491	-0.7934418	-1.0536957	0.26890564
908149550420218	-0.734787	-1.0952301	0.22735596
908149554875784	-0.6663666	-1.1257935	0.17726135
908149560094290	-0.5906372	-1.1380005	0.118637085
908149564092093	-0.5906372	-1.1306763	0.118637085
908149569890433	-0.41836548	-1.1306763	-0.010864258
908149574162893	-0.41836548	-1.0512543	-0.010864258
908149577458792	-0.32305908	-1.0512543	-0.076828
908149584233694	-0.22044373	-0.97428894	-0.14035034
908149589848929	-0.115371704	-0.87657166	-0.19412231
908149594304495	-0.010314941	-0.76293945	-0.23321533
908149600194388	0.08618164	-0.6419983	-0.25398254
908149604863577	0.17292786	-0.52104187	-0.25886536
908149610539847	0.24746704	-0.40374756	-0.25030518
908149614446097	0.30976868	-0.29623413	-0.23442078
908149620488577	0.35740662	-0.200943	-0.21853638
908149624486380	0.39041138	-0.11419678	-0.21000671
908149627873831	0.40750122	-0.03479004	-0.21488953
908149634587698	0.41238403	0.034851074	-0.23321533
908149640599661	0.4050598	0.08979797	-0.26130676
908149644689017	0.38917542	0.12036133	-0.29063416
908149650945120	0.3659668	0.12400818	-0.31506348
908149655431204	0.34031677	0.10324097	-0.32850647
908149661168509	0.3134308	0.07028198	-0.32972717
908149664800101	0.28778076	0.03239441	-0.31750488
908149670934134	0.26455688	-0.0030212402	-0.29795837
908149674840384	0.24502563	-0.03479004	-0.27719116
908149678258352	0.24502563	-0.06410217	-0.27719116
908149684941702	0.20837402	-0.06410217	-0.24786377
908149691167288	0.19004822	-0.11299133	-0.23686218
908149695073538	0.17292786	-0.12519836	-0.23077393
908149700017386	0.17292786	-0.12884521	-0.22589111
908149705815726	0.15216064	-0.12640381	-0.22341919
908149710149222	0.15216064	-0.12275696	-0.22341919
908149715123587	0.14727783	-0.12275696	-0.22097778
908149720982962	0.14727783	-0.12275696	-0.23077393
908149725194388	0.14727783	-0.13131714	-0.23077393
908149728642874	0.15460205	-0.13131714	-0.24177551
908149735356741	0.16804504	-0.14108276	-0.25154114
908149741185599	0.18637085	-0.15452576	-0.25886536
908149745427542	0.20957947	-0.16673279	-0.25886536
908149751836233	0.24012756	-0.17529297	-0.25154114
908149756291800	0.27677917	-0.174057	-0.23809814
908149761662893	0.3183136	-0.16184998	-0.22341919
908149765508108	0.36473083	-0.13619995	-0.21488953
908149770604544	0.41726685	-0.09587097	-0.21853638
908149775578909	0.47470093	-0.037231445	-0.23809814
908149778905325	0.53700256	0.03363037	-0.26863098
908149785680227	0.5993042	0.11180115	-0.30407715
908149791844778	0.66407776	0.18876648	-0.3382721
908149795689993	0.7288208	0.26330566	-0.3712616
908149802190237	0.79478455	0.33416748	-0.4030304
908149806065970	0.8595276	0.39646912	-0.43113708
908149810887747	0.9230652	0.44654846	-0.45799255
908149815831595	0.9853821	0.47953796	-0.47999573
908149821477347	1.046463	0.5015259	-0.49464417
908149825932913	1.1014557	0.5137329	-0.49588013
908149829259329	1.1014557	0.5174103	-0.49588013
908149836003714	1.1808472	0.5174103	-0.44702148
908149842259817	1.2028503	0.46975708	-0.3920288
908149846074515	1.2028503	0.41111755	-0.31996155
908149851109915	1.2101746	0.41111755	-0.31996155
908149856450491	1.199173	0.32437134	-0.23442078
908149861211233	1.1698761	0.20587158	-0.1415863
908149866216116	1.1234283	0.05316162	-0.04385376
908149871556692	1.0635681	-0.13496399	0.057540894
908149876256399	0.9914856	-0.35488892	0.16381836
908149879643851	0.91085815	-0.5992279	0.27500916
908149886327200	0.8192291	-0.8521271	0.38742065
908149892644339	0.7190552	-1.0867004	0.48757935
908149896398001	0.61154175	-1.2723999	0.56578064
908149901402884	0.51257324	-1.3872528	0.61099243
908149906835013	0.45515442	-1.4312286	0.60731506
908149911504202	0.50157166	-1.4165497	0.5364685
908149916509085	0.7117157	-1.3628082	0.38006592
908149921819143	1.0965424	-1.2772827	0.14428711
908149926610403	1.6047821	-1.1526794	-0.13668823
908149929967337	2.1460266	-0.9852905	-0.4225769
908149936681204	2.6322632	-0.77882385	-0.6754761
908149941747122	3.0110016	-0.5576935	-0.87461853
908149946752005	3.2504578	-0.35609436	-1.0102386
908149951787405	3.3371887	-0.1875	-1.0847473
908149957219534	3.2687836	-0.03967285	-1.1042938
908149961858206	3.0635223	0.11791992	-1.0810852
908149966893606	2.7617645	0.29016113	-1.0285645
908149972295218	2.4135742	0.44532776	-0.9686737
908149976933890	2.0629425	0.52352905	-0.91493225
908149980290823	2.0629425	0.48687744	-0.91493225
908149987035208	1.4361877	0.48687744	-0.8709564
908149992040091	1.4361877	0.12646484	-0.8709564
908149997106009	1.1637573	0.12646484	-0.8892822
908150002141409	0.9230652	-0.11907959	-0.9271393
908150007390433	0.7153778	-0.36953735	-0.97358704
908150012181692	0.54556274	-0.6102295	-1.0175629
908150017247610	0.41482544	-0.8301239	-1.0493317
908150022679739	0.32563782	-1.0170593	-1.0652008
908150027318411	0.27555847	-1.1624451	-1.0590973
908150030675345	0.26333618	-1.2650604	-1.0297699
908150037389212	0.2828827	-1.3212738	-0.97602844
908150042394095	0.3329773	-1.328598	-0.9051666
908150047460013	0.40629578	-1.2846222	-0.8220825
908150052495413	0.49302673	-1.189331	-0.7328949
908150057744436	0.5760956	-1.0549316	-0.63882446
908150062566214	0.64819336	-0.8997803	-0.54473877
908150067601614	0.6994934	-0.74095154	-0.45310974
908150072850638	0.7276001	-0.5833435	-0.3675995
908150077672415	0.7324829	-0.42086792	-0.28575134
908150081029349	0.71661377	-0.23881531	-0.20877075
908150087743216	0.67752075	-0.032348633	-0.14035034
908150092778616	0.6200714	0.18144226	-0.07926941
908150097783499	0.55166626	0.37446594	-0.025527954
908150102818899	0.4820404	0.5222931	0.022109985
908150108220511	0.41238403	0.6200409	0.07098389
908150112889700	0.34031677	0.6811218	0.118637085
908150117925101	0.26579285	0.72021484	0.16749573
908150123326712	0.19369507	0.74954224	0.21147156
908150128026419	0.12895203	0.7764282	0.25056458
908150131352835	0.12895203	0.80207825	0.25056458
908150138097220	0.07397461	0.80207825	0.28601074
908150143102102	0.028778076	0.8277283	0.32510376
908150148168020	-0.005432129	0.8484955	0.3727417
