accelerometer_timestamp	accelerometer_x_data	accelerometer_y_data	accelerometer_z_data
1442674132818304930	-0.9232483	14.378784	-0.59988403
1442674132826697264	-1.4571075	15.050339	-0.9513092
1442674132835089598	-0.95062256	15.030228	-1.165741
1442674132843481932	-0.38700867	14.482391	-0.905365
1442674132851874266	0.12963867	13.877701	-0.5467987
1442674132860266600	1.2541809	12.535675	0.7224121
1442674132868658934	2.11586	11.2456665	0.5279846
1442674132877051268	3.0102081	10.718689	0.27505493
1442674132885443602	3.505661	10.468063	0.3406067
1442674132893835936	3.912384	10.211716	0.32566833
1442674132902228270	3.9432068	9.868179	0.14350891
1442674132910620604	3.4534302	9.360214	-0.31001282
1442674132919012938	2.830307	8.900848	-0.7323761
1442674132927405272	2.3708344	8.536484	-0.73301697
1442674132935797606	1.7794342	8.287537	-0.5132141
1442674132944196310	1.1525421	8.236191	-0.015625
1442674132952588644	0.2895813	7.9714966	-0.26513672
1442674132960980978	0.15867615	7.884262	-0.56951904
1442674132969373312	0.1683197	7.841202	-0.8439026
1442674132977765646	0.11174011	7.451523	-0.9040985
1442674132986157980	0.5241852	6.587616	-0.7293091
1442674132994550314	1.0102997	5.7534485	-0.37008667
1442674133002942648	0.9717407	5.444992	-0.013442993
1442674133011334982	0.8686981	5.1507416	0.53904724
1442674133019727316	0.57354736	5.016983	1.2632294
1442674133028119650	0.24427795	5.104187	1.5713196
1442674133036511984	0.10083008	5.057266	1.6535645
1442674133044904318	0.057769775	4.8728333	1.6336517
1442674133053296652	-0.22080994	4.556015	1.5529938
1442674133061688986	-0.5986786	4.132599	1.5843048
1442674133070081320	-0.8748932	3.5471191	2.0475616
1442674133078473654	-0.9086914	3.3468628	2.4070587
1442674133086865988	-0.9034424	3.2028656	2.740036
1442674133095258322	-0.434021	3.2419434	3.0035095
1442674133103650656	0.4873047	3.8865051	3.5782776
1442674133112042990	1.5110931	4.502304	4.404602
1442674133120435323	1.9442139	4.8602295	4.7561035
1442674133128827657	2.3535004	5.3194733	5.3633575
1442674133137219991	2.785675	5.994049	6.2697906
1442674133145612325	3.493454	6.9458466	6.6784363
1442674133154004659	4.1053925	7.8640747	6.872574
1442674133162396993	4.5102234	8.601791	7.1398926
1442674133170789327	4.5486298	10.065903	7.8279724
1442674133179181661	3.55867	12.545486	8.079971
1442674133187573995	2.3603973	16.205704	6.6473694
1442674133195966329	2.584488	17.694534	5.838623
1442674133204358663	2.9540253	18.845505	5.1445923
1442674133212750997	3.622696	17.551834	5.1576996
1442674133221143331	3.346634	14.647018	5.7540436
1442674133229535665	2.9289703	12.413101	6.670105
1442674133237927999	2.9617462	11.375931	7.4213104
1442674133246320333	3.2915802	9.958237	8.394699
1442674133254712667	3.6404572	7.9077454	8.903549
1442674133263105001	3.6170807	6.6600494	8.077972
1442674133271497335	3.6217804	7.0832977	6.926529
1442674133279889669	3.6012268	8.089615	5.8154755
1442674133288282003	3.3852386	11.197144	4.5423737
1442674133296674337	1.2683258	15.594864	3.6649323
1442674133305066671	-0.8987427	18.492172	0.2524414
1442674133313459005	-1.4056854	17.20279	-1.427475
1442674133321851339	-1.8946838	15.080215	-2.5389252
1442674133330243673	-2.6705627	7.273117	0.5279236
1442674133338636007	-2.5702057	2.4329987	1.4861145
1442674133347028341	-2.3695374	0.6288452	0.24116516
1442674133355420675	-2.2532196	0.119903564	0.090164185
1442674133363813009	-1.9473267	0.16574097	-0.44656372
1442674133372205343	-1.2791443	3.1826935	-2.2663422
1442674133380597677	-0.079833984	8.295517	-4.4374847
1442674133388990011	1.0330048	11.381653	-5.2514954
1442674133397382345	1.9403687	13.406509	-5.495041
1442674133405774679	3.324356	15.982544	-4.7908783
1442674133414167013	4.3670197	16.750381	-2.1547089
1442674133422559347	4.359741	14.70433	0.4203949
1442674133430951681	4.014984	12.756165	0.9828644
1442674133439344015	3.742752	10.616974	1.3878021
1442674133447736349	3.7152863	7.5319977	0.88871765
1442674133456128683	2.6824493	5.9101715	0.5525818
1442674133464521017	1.601944	5.4193115	0.04324341
1442674133472913351	1.0146027	5.416092	-0.38023376
1442674133481305685	0.8708191	5.5501404	-1.1550293
1442674133489698019	1.1750946	6.072113	-1.5581665
1442674133498090353	1.4201202	6.7333374	-1.2505798
1442674133506482687	1.3871155	7.284149	-1.1426086
1442674133514875021	1.2367401	7.800812	-1.1516113
1442674133523267355	0.64398193	8.644211	-1.1956177
1442674133531659689	0.11174011	9.0681	-1.1481476
1442674133540052023	0.09329224	9.034988	-0.53323364
1442674133548444357	0.06437683	9.07869	-0.19779968
1442674133556836691	0.08938599	9.065933	0.18399048
1442674133565229025	0.23564148	8.84935	0.72769165
1442674133573621359	0.19529724	8.82431	0.95454407
1442674133582013693	0.76646423	8.753403	0.90130615
1442674133590406027	1.3955688	8.718063	0.8196869
1442674133598798361	1.9918213	8.702301	0.7470398
1442674133607190695	2.2473145	8.549103	0.48112488
1442674133615583029	2.0561676	8.291519	-0.5534363
1442674133623975363	1.8855896	8.181671	-1.331955
1442674133632367697	1.768631	8.127045	-1.8865204
1442674133640760031	1.8244629	8.549271	-2.3895874
1442674133649152365	2.0599518	9.420013	-1.9631653
1442674133657544698	2.150528	10.173935	-0.7088318
1442674133665937032	2.162735	10.332657	-0.13049316
1442674133674329366	2.1372375	10.493393	0.33996582
1442674133682721700	2.0979614	10.701889	0.31007385
1442674133691114034	2.3489227	10.8471985	-0.013916016
1442674133699506368	2.513794	10.708328	-0.34854126
1442674133707898702	2.6937256	10.618378	-0.5259094
1442674133716291036	3.005066	10.732285	-0.76719666
1442674133724683370	3.392395	11.205368	-0.9307556
1442674133733075704	3.7292786	11.43605	-1.1358948
1442674133741468038	4.0518646	11.505447	-1.394867
1442674133749860372	4.4970093	10.930191	-1.6149445
1442674133758252706	4.4710083	10.526794	-1.1378479
1442674133766645040	4.0772095	10.907257	-0.2563324
1442674133775037374	3.7841797	11.042206	0.027053833
1442674133783429708	3.41893	11.221573	0.21835327
1442674133791822042	2.7493134	11.598785	0.10473633
1442674133800214376	2.3376617	12.012833	0.21562195
1442674133808606710	2.406784	12.300186	-0.107788086
1442674133816999044	2.748001	12.116394	-0.4907837
1442674133825391378	3.2867126	11.601791	-1.1223907
1442674133833783712	3.8661346	10.734894	-1.7298431
1442674133842176046	3.9923706	10.295425	-1.4210663
1442674133850568380	3.7176971	10.165497	-0.97369385
1442674133858960714	3.3616943	10.062042	-0.61834717
1442674133867353048	2.6441803	10.559769	-0.25798035
1442674133875745382	2.1509552	11.616379	0.49757385
1442674133884137716	1.2277527	12.812195	1.6559753
1442674133892530050	0.8235626	13.294144	1.803772
1442674133900922384	0.22297668	13.84169	1.7065277
1442674133909314718	-1.1332245	14.625671	0.63420105
1442674133917707052	-2.2326355	15.482071	-0.43144226
1442674133926099386	-2.4282532	16.165451	-0.99043274
1442674133934491720	-2.1718445	16.360153	-1.2506866
1442674133942884054	-1.2422333	15.624222	-1.2395782
1442674133951276388	0.36003113	13.724228	-0.44459534
1442674133959668722	1.3938141	12.166	1.5480652
1442674133968061056	1.9293213	11.6519165	1.6764069
1442674133976453390	2.3990784	11.380096	1.1109161
1442674133984845724	2.6677246	11.064819	0.48051453
1442674133993238058	3.2073975	10.530548	0.81591797
1442674134001630392	3.1249847	10.288528	0.85710144
1442674134010022726	3.0832062	9.969803	0.7832031
1442674134018415060	2.8677673	9.476593	0.6029968
1442674134026807394	2.1569672	8.58197	-0.008544922
1442674134035199728	1.4929504	8.052856	-0.44422913
1442674134043592062	0.94026184	7.7743835	-0.32995605
1442674134051984396	0.56947327	7.6336517	-0.337677
1442674134060376730	0.026916504	7.3996124	-0.419281
1442674134068769064	-0.16757202	6.992569	-0.78897095
1442674134077161398	-0.047790527	6.33638	-0.88349915
1442674134085553732	0.14268494	5.7780914	-0.88401794
1442674134093946066	0.3438263	5.2620697	-0.8975067
1442674134102338400	0.64860535	4.3592834	-0.36798096
1442674134110730734	0.36862183	3.906311	0.79933167
1442674134119123068	0.0030975342	3.770874	1.475647
1442674134127515402	-0.056030273	3.625	1.6176605
1442674134135907736	-0.13374329	3.4417572	1.7707977
1442674134144300070	-0.2642975	3.1333313	1.8744965
1442674134152692404	-0.35578918	2.773758	1.9589996
1442674134161084738	-0.29406738	2.4607239	2.2266998
1442674134169477072	-0.14434814	2.188263	2.5094452
1442674134177869406	0.08097839	1.97966	3.0978088
1442674134186261740	0.48098755	2.0492096	3.7120209
1442674134194654073	0.97076416	2.5293884	4.2772675
1442674134203046407	1.4314728	3.0719604	4.7742767
1442674134211438741	1.8845062	3.6085358	5.2568665
1442674134219831075	2.8877869	4.9451294	6.4439087
1442674134228223409	4.01799	6.644806	7.2246246
1442674134236615743	5.261383	8.513153	7.5660095
1442674134245008077	5.767105	9.934586	7.3211823
1442674134253400411	5.8761597	12.036255	7.132904
1442674134261792745	4.9042816	15.785446	7.4138184
1442674134270185079	3.8789978	19.439056	7.6509857
1442674134278577413	3.5503693	20.547165	6.991791
1442674134286969747	3.506668	19.810745	6.1564026
1442674134295362081	3.4202118	16.533371	5.603256
1442674134303754415	3.0280914	12.502548	5.8981323
1442674134312146749	2.9040833	9.446014	6.505005
1442674134320539083	3.0910645	7.9833374	7.15773
1442674134328931417	3.309433	6.722748	7.8183746
1442674134337323751	3.4799042	5.3582153	8.611603
1442674134345716085	3.942871	5.5157013	7.459656
1442674134354108419	4.4646454	6.9254913	6.1201477
1442674134362500753	4.244873	8.077042	5.5623627
1442674134370893087	3.4810028	9.544601	4.999542
1442674134379285421	1.4353027	11.555603	3.937149
1442674134387677755	-0.98062134	13.926285	1.1700287
1442674134396070089	-2.4374237	15.800476	-1.2752533
1442674134404462423	-3.17836	16.976425	-2.646576
1442674134412854757	-3.7266998	16.352951	-1.1234283
1442674134421247091	-3.0350037	11.370377	1.1390533
1442674134429639425	-1.6925354	5.9781647	1.6558533
1442674134438031759	-1.213501	4.2602997	1.5249939
1442674134446424093	-0.78364563	2.8700256	1.3144379
1442674134454816427	0.42489624	1.3374939	0.061920166
1442674134463208761	0.7445984	3.6158752	-2.1543884
1442674134471601095	0.2882843	8.133606	-4.017914
1442674134479993429	0.37374878	10.054993	-4.8237457
1442674134488385763	1.0166931	11.960739	-5.178833
1442674134496778097	2.4379883	13.446396	-3.9110565
1442674134505170431	3.444458	13.698303	-1.4230347
1442674134513562765	3.6863403	12.948517	0.0010986328
1442674134521955099	3.6053772	11.985901	0.632782
1442674134530347433	3.3185425	9.902847	1.1994781
1442674134538739767	2.7169342	8.012726	1.1226807
1442674134547132101	1.501236	7.2141724	0.97436523
1442674134555524435	0.83036804	7.2392883	0.63209534
1442674134563916769	0.22073364	7.2896423	0.24873352
1442674134572309103	-0.03656006	7.1397552	-0.3313141
1442674134580701437	0.24880981	6.815506	-0.36888123
1442674134589093771	0.79208374	6.8376007	-0.8026428
1442674134597486105	0.9084015	7.267502	-0.946579
1442674134605878439	1.170578	7.924881	-0.946579
1442674134614270773	1.7234955	8.699249	-0.6372833
1442674134622663107	2.2637177	9.126923	-0.40834045
1442674134631055441	2.4284058	9.203384	-0.3210144
1442674134639447775	2.4264832	9.148773	-0.22782898
1442674134647840109	2.448944	8.78804	0.026123047
1442674134656232443	2.469818	8.383759	0.19024658
1442674134664624777	2.3876343	8.282349	0.12904358
1442674134673017111	2.2862244	8.201431	0.05090332
1442674134681409445	2.0207672	7.9903107	0.029052734
1442674134689801779	1.9078827	7.871994	0.10134888
1442674134698194113	2.0385132	7.7855988	0.13150024
1442674134706586447	2.2010956	7.7759705	0.27416992
1442674134714978781	2.2248535	7.833832	0.45706177
1442674134723371115	1.979187	8.13028	0.5702362
1442674134731763448	2.0811462	8.646561	0.3241272
1442674134740155782	2.4414215	8.996979	0.21385193
1442674134748548116	2.734436	9.201981	0.3121643
1442674134756940450	2.6670837	9.518036	0.07727051
1442674134765332784	2.256485	9.282883	-0.41532898
1442674134773725118	2.0688019	9.100174	-0.59376526
1442674134782117452	2.2800903	9.488617	-0.42845154
1442674134790509786	2.5320435	10.002991	-0.24365234
1442674134798902120	2.9548492	11.412781	-0.101486206
1442674134807294454	3.1090546	11.900467	-0.60375977
1442674134815686788	3.3230743	11.395905	-1.6120605
1442674134824079122	3.6064606	10.96344	-2.089508
1442674134832471456	4.139282	10.576294	-2.3598022
1442674134840863790	4.7785187	10.525253	-1.8141937
1442674134849256124	5.006546	10.842056	-0.7069092
1442674134857648458	4.82399	11.051239	0.08816528
1442674134866040792	4.4917603	11.160477	0.6986389
1442674134874433126	3.5369568	11.67778	0.66304016
1442674134882825460	2.436264	12.206848	0.62620544
1442674134891217794	1.9678345	12.752396	-0.34925842
1442674134899610128	2.1796875	12.61853	-0.6902313
1442674134908002462	2.475418	12.433289	-1.011795
1442674134916394796	3.2529602	11.8967285	-1.2535858
1442674134924787130	3.6667633	11.198776	-1.362442
1442674134933179464	3.5496674	10.804779	-1.182785
1442674134941571798	3.2971191	10.549667	-0.7515869
1442674134949964132	2.8103485	10.534805	-0.23388672
1442674134958356466	2.147049	11.175034	0.6424866
1442674134966748800	1.4371643	12.412552	1.5990143
1442674134975141134	0.7771454	13.252167	1.5782013
1442674134983533468	0.17887878	13.818314	1.1341553
1442674134991925802	-1.2249451	14.405899	0.17349243
1442674135000318136	-2.0796814	15.253906	-0.22680664
1442674135008710470	-1.9830017	16.41951	-0.41737366
1442674135017102804	-1.7208099	16.278137	-0.63586426
1442674135025495138	-1.3605347	15.886307	-0.6184845
1442674135033887472	-0.5486145	14.184845	0.80822754
1442674135042279806	0.2384491	12.681732	2.075943
1442674135050672140	1.1901398	11.792969	1.5364227
1442674135059064474	1.6624603	11.230682	0.8623352
1442674135067456808	2.126007	10.304291	0.44451904
1442674135075849142	2.8039703	9.331787	0.29516602
1442674135084241476	3.2582703	8.969452	0.39634705
1442674135092633810	3.385559	8.78894	0.52272034
1442674135101026144	3.4678192	8.596802	0.60624695
1442674135109418478	3.3051147	8.080414	0.33764648
1442674135117810812	2.5343018	7.8229065	-0.3781128
1442674135126203146	1.5900879	7.7240143	-0.22200012
1442674135134595480	1.1229248	7.733017	-0.15388489
1442674135142987814	0.57032776	7.7493286	-0.12513733
1442674135151380148	-0.30426025	7.7270203	-0.28207397
1442674135159772482	-0.9394226	7.412201	-0.29328918
1442674135168164816	-1.1155548	6.9497833	-0.06854248
1442674135176557150	-1.0924225	6.571289	-0.123168945
1442674135184949484	-0.8255768	5.8609924	-0.03817749
1442674135193341818	-0.46646118	4.985504	0.62106323
1442674135201734152	-0.29959106	4.2735596	1.502655
1442674135210126486	-0.36235046	4.022278	1.8371124
1442674135218518820	-0.48316956	3.9111023	1.999054
1442674135226911154	-0.36564636	3.5598907	1.9853668
1442674135235303488	-0.061782837	3.2916412	1.9164581
1442674135243695822	-0.06222534	3.4044647	1.9021301
1442674135252088156	0.1177063	3.3794098	1.8860626
1442674135260480490	0.38856506	3.3072357	1.9108276
1442674135268872823	0.8288574	3.2069855	2.1636658
1442674135277265157	1.0353546	3.442047	2.7243042
1442674135285657491	1.3244171	3.7144012	3.3041687
1442674135294049825	1.572464	3.9457397	3.7109375
1442674135302442159	2.0835724	4.400009	4.4078674
1442674135310834493	2.7574615	5.1774597	5.246643
1442674135319226827	3.321579	6.229309	6.022461
1442674135327619161	3.8323517	7.064926	6.384659
1442674135336011495	4.3387146	7.8212585	6.636566
1442674135344403829	5.779312	10.1297	6.6391754
1442674135352796163	6.352829	13.581924	6.2326202
1442674135361188497	5.999878	17.51616	7.2885437
1442674135369580831	5.598892	19.344376	7.735153
1442674135377973165	5.16333	20.730774	7.712631
1442674135386365499	4.516464	19.541504	6.5405884
1442674135394757833	3.6373444	15.376495	6.224045
1442674135403150167	3.101532	11.988449	6.5887756
1442674135411542501	2.9472961	9.908325	6.724365
1442674135419934835	2.8681183	6.8121185	7.1897125
1442674135428327169	2.5416412	4.130295	7.802994
1442674135436719503	2.4136963	4.0625	7.5532227
1442674135445111837	2.7453156	5.4355164	7.0182953
1442674135453504171	3.1527252	6.969406	6.481079
1442674135461896505	3.2262268	10.956207	5.1134033
1442674135470288839	1.7919006	15.341339	3.3536377
1442674135478681173	-0.73683167	18.719131	1.3916321
1442674135487073507	-1.7784882	19.666977	-0.44621277
1442674135495465841	-2.7025757	19.379974	-1.7898102
1442674135503858175	-2.9852905	14.666351	-0.22273254
1442674135512250509	-2.673645	7.8931427	2.6496124
1442674135520642843	-2.5372925	4.1752625	2.5253143
1442674135529035177	-2.5315094	2.593811	1.5536957
1442674135537427511	-2.5847015	0.79945374	0.91252136
1442674135545819845	-2.1124573	0.030960083	0.1043396
1442674135554212179	-1.4093933	3.148819	-1.7524719
1442674135562604513	-1.021286	6.009552	-3.088913
1442674135570996847	-0.6858368	8.675705	-4.298935
1442674135579389181	1.0395813	12.217407	-5.310669
1442674135587781515	2.7822113	14.633835	-4.3410034
1442674135596173849	3.8671417	15.425156	-2.4029236
1442674135604566183	4.1286774	14.898224	-1.2841492
1442674135612958517	4.165512	13.538376	0.030761719
1442674135621350851	3.8721313	10.606903	0.94496155
1442674135629743185	3.474533	8.374283	0.75860596
1442674135638135519	2.8289337	7.495865	0.6669464
1442674135646527853	2.2030334	7.1488495	0.63931274
1442674135654920187	1.2149963	6.9007874	0.33564758
1442674135663312521	0.66874695	7.018509	-0.38232422
1442674135671704855	0.73109436	7.078842	-0.88191223
1442674135680097189	0.88082886	7.105194	-1.3156738
1442674135688489523	1.4107819	7.348816	-1.6082001
1442674135696881857	1.1403809	7.829422	-1.4393616
1442674135705274191	1.0189056	8.428757	-1.2536316
1442674135713666525	1.2363586	8.99292	-0.94955444
1442674135722058859	1.214508	9.18248	-0.81396484
1442674135730451193	1.3302155	9.086502	-0.53134155
1442674135738843527	1.6588593	8.51297	-0.076538086
1442674135747235861	1.8235016	8.168381	0.17120361
1442674135755628195	1.8498535	8.047577	0.30551147
1442674135764020529	1.9649506	7.945282	0.38302612
1442674135772412863	2.0803833	7.900177	0.34222412
1442674135780805197	2.0466156	7.821228	0.21165466
1442674135789197531	1.987915	7.806778	0.120147705
1442674135797589865	1.9307404	7.8048553	0.037246704
1442674135805982198	1.8084259	8.035049	-0.055267334
1442674135814374532	1.7221375	8.458176	-0.2822876
1442674135822766866	1.7805481	9.0065155	-0.5422363
1442674135831159200	1.8756714	9.19931	-0.602005
1442674135839551534	2.0373688	9.531937	-0.659317
1442674135847943868	2.2085724	9.964401	-0.55111694
1442674135856336202	2.1696167	10.106415	-0.1628418
1442674135864728536	2.1106415	10.040344	0.073349
1442674135873120870	2.074646	9.85527	0.14082336
1442674135881513204	2.4720001	9.572525	0.19718933
1442674135889905538	3.0836945	9.879028	0.22125244
1442674135898297872	3.4088593	10.524979	0.37094116
1442674135906690206	3.333084	10.720657	0.24932861
1442674135915082540	3.2141724	10.867874	0.06272888
1442674135923474874	3.0380096	11.1059265	-0.9468994
1442674135931867208	3.366806	10.812546	-1.8240662
1442674135940259542	3.5303345	10.628265	-1.8839111
1442674135948651876	3.5991058	10.617981	-1.2837219
1442674135957044210	3.4360046	10.795639	-0.50050354
1442674135965436544	2.767105	11.325699	0.19543457
1442674135973828878	2.0944824	11.673737	0.28520203
1442674135982221212	1.7186584	11.934067	0.072128296
1442674135990613546	1.450058	12.288147	-0.2626648
1442674135999005880	1.456253	12.6483	-0.5689697
1442674136007398214	1.8909607	12.779419	-1.1235046
1442674136015790548	2.8693848	12.22406	-1.6408081
1442674136024182882	3.2756195	11.753143	-1.6441956
1442674136032575216	3.6161957	11.283508	-1.5612488
1442674136040967550	3.6306152	10.690674	-0.7898102
1442674136049359884	3.218872	10.411087	-0.047851563
1442674136057752218	2.7469177	10.804031	-0.071502686
1442674136066144552	2.4956665	11.239075	0.108444214
1442674136074536886	2.1232147	11.857117	0.556015
1442674136082929220	1.2402039	12.744797	0.7559967
1442674136091321554	-0.21138	13.364426	0.23352051
1442674136099713888	-1.0634003	13.699829	-0.029312134
1442674136108106222	-1.4566803	14.000565	-0.10321045
1442674136116498556	-1.4308624	14.894089	-0.17956543
1442674136124890890	-0.9853363	15.440262	-0.43218994
1442674136133283224	-0.027191162	14.341782	0.057617188
1442674136141675558	0.36523438	13.552521	0.8773041
1442674136150067892	0.7969971	12.778244	1.5970154
1442674136158460226	1.6791992	12.002121	1.2458038
1442674136166852560	2.4110565	11.178757	0.1678772
1442674136175244894	2.8590393	10.500244	-0.20359802
1442674136183637228	3.0363922	10.216217	-0.16697693
1442674136192029562	3.1231995	9.797226	-0.14407349
1442674136200421896	2.89003	9.256027	-0.31195068
1442674136208814230	2.5659332	8.631332	-0.60336304
1442674136217206564	2.3157196	8.28511	-0.67378235
1442674136225598898	2.067688	8.123184	-0.64356995
1442674136233991232	1.1225281	8.050705	-0.49871826
1442674136242383566	0.31028748	7.9078674	-0.31404114
1442674136250775900	-0.1769867	7.7001495	-0.1666565
1442674136259168234	-0.6216736	7.615326	-0.23799133
1442674136267560568	-0.97587585	7.4549713	-0.34043884
1442674136275952902	-0.7555084	6.8357544	-0.544693
1442674136284345236	-0.38639832	6.132965	-0.27682495
1442674136292737570	-0.08540344	5.520874	0.29812622
1442674136301129904	0.13114929	5.205353	0.6239319
1442674136309522238	0.37957764	4.868698	1.1405792
1442674136317914572	0.51420593	4.5396423	1.7126465
1442674136326306906	0.6248474	4.1690826	1.9593201
1442674136334699240	0.6489258	3.9645233	1.951355
1442674136343091573	0.6122894	3.8482056	1.8877411
1442674136351483907	0.62028503	3.7066345	1.7096405
1442674136359876241	0.64746094	3.6474	1.7081451
1442674136368268575	1.0519714	3.4522247	1.7475281
1442674136376660909	1.2029877	3.4503021	1.926178
1442674136385053243	1.4099731	3.501297	2.1730652
1442674136393445577	1.9403839	3.8043213	2.728592
1442674136401837911	2.6910858	4.1467133	3.4814148
1442674136410230245	3.2617645	4.4502106	4.4072113
1442674136418622579	3.5278015	4.699539	4.962433
1442674136427014913	3.758606	5.312088	5.7710876
1442674136435407247	3.9325256	6.5231476	6.5095673
1442674136443799581	4.3501587	8.24559	6.614029
1442674136452191915	4.620453	9.56633	6.591568
1442674136460584249	4.7901	10.682526	6.6018524
1442674136468976583	4.549225	13.029724	6.81514
1442674136477368917	4.3644714	16.043991	6.739929
1442674136485761251	4.1028595	17.905533	6.2223663
1442674136494153585	4.365036	17.778305	5.6497955
1442674136502545919	4.6387177	17.07959	5.1780396
1442674136510938253	4.771576	13.976822	5.4507446
1442674136519330587	4.4015503	10.219116	6.7507477
1442674136527722921	4.1570435	7.6552734	7.7336884
1442674136536115255	4.2071686	6.145157	8.101898
1442674136544507589	3.9320374	4.195343	8.568268
1442674136552899923	3.236786	3.893341	8.268982
1442674136561292257	2.7721252	6.186798	7.198822
1442674136569684591	2.487091	8.328766	6.3079376
1442674136578076925	2.2139893	10.243729	5.505966
1442674136586469259	1.1084137	15.156723	3.0752869
1442674136594861593	-1.3249207	21.17746	-0.544693
1442674136603253927	-3.7480316	25.053055	-4.0052032
1442674136611646261	-3.5886688	23.712585	-3.1087646
1442674136620038595	-2.840454	19.828903	-0.88887024
1442674136628430929	-1.0710602	9.565369	3.0797424
1442674136636823263	-1.0779877	2.9725952	2.2829285
1442674136645215597	-1.310852	-0.0030975342	1.5406036
1442674136653607931	-1.2549438	-1.3557739	1.438446
1442674136662000265	-1.187088	-2.2469482	0.26864624
1442674136670392599	-1.8722839	0.13630676	-1.7350159
1442674136678784933	-1.2963715	5.5369873	-4.379669
1442674136687177267	-0.55262756	8.74588	-5.7025146
1442674136695569601	0.092544556	11.300217	-6.6606445
1442674136703961935	1.6275177	14.656082	-5.2297516
1442674136712354269	2.8499756	16.664566	-1.488327
1442674136720746603	3.3831635	16.557571	0.8341522
1442674136729138937	3.594574	15.0442505	1.2107086
1442674136737531271	3.6596222	12.916077	1.5581207
1442674136745923605	3.0379944	9.801865	1.7446747
1442674136754315939	2.0937653	8.280624	1.6037445
1442674136762708273	1.5006561	7.6662903	1.2393799
1442674136771100607	0.5688782	7.1081085	0.32130432
1442674136779492941	-0.1239624	6.750595	-0.772995
1442674136787885275	-0.07752991	6.441559	-1.3521729
1442674136796277609	0.23860168	6.500351	-1.5540009
1442674136804669943	0.77793884	6.7168274	-1.512085
1442674136813062277	1.3543549	6.941742	-1.4369049
1442674136821454611	2.3081207	8.070801	-1.0805054
1442674136829846945	2.922226	9.354538	-0.8118286
1442674136838239279	3.1387787	9.835831	-0.7687683
1442674136846631613	3.2128296	10.163345	-0.6528778
1442674136855023947	3.0060883	9.730988	-0.34832764
1442674136863416281	2.9462585	8.681656	-0.13505554
1442674136871808615	2.7445984	7.9950867	-0.028564453
1442674136880200948	2.5858765	7.660919	0.04084778
1442674136888593282	1.9341278	7.5114136	-0.095336914
1442674136896985616	1.269043	7.547989	-0.48150635
1442674136905377950	0.8541107	7.644699	-0.68240356
1442674136913770284	0.6341858	7.6930084	-0.6696167
1442674136922162618	0.45169067	7.727707	-0.6265564
1442674136930554952	0.21250916	7.9669495	-0.42970276
1442674136938947286	0.13835144	8.408325	-0.05644226
1442674136947339620	0.118896484	8.945694	0.23269653
1442674136955731954	0.29945374	9.1719055	0.18193054
1442674136964124288	0.6142273	9.395065	0.029907227
1442674136972516622	1.2658234	9.5581665	-0.3025055
1442674136980908956	2.001709	9.559906	-0.22802734
1442674136989301290	2.5076141	9.575699	0.14015198
1442674136997693624	2.710678	9.695221	0.41197205
1442674137006085958	2.830658	10.140472	0.6990204
1442674137014478292	3.078888	10.833633	0.5808716
1442674137022870626	3.3559113	11.180313	-0.2960968
1442674137031262960	3.7050476	11.143509	-0.93099976
1442674137039655294	4.069397	11.056763	-1.4919891
1442674137048047628	4.187851	10.703217	-1.4874573
1442674137056439962	3.8335571	10.941711	-0.5953064
1442674137064832296	3.0231934	11.457016	0.05708313
1442674137073224630	2.7320862	11.622177	0.30899048
1442674137081616964	2.3854828	11.829208	0.5272827
1442674137090009298	1.923584	12.14151	0.56918335
1442674137098401632	1.5070953	12.588959	0.19094849
1442674137106793966	1.3872528	12.735306	-0.2538452
1442674137115186300	1.4733582	12.521957	-0.50575256
1442674137123578634	1.9280396	11.771393	-0.79067993
1442674137131970968	2.7372742	11.057922	-1.3481903
1442674137140363302	3.346695	10.398819	-1.6981354
1442674137148755636	3.41922	10.059128	-1.5146942
1442674137157147970	3.4275818	9.772324	-1.254303
1442674137165540304	3.3942719	9.929001	-0.37942505
1442674137173932638	3.4483032	10.3497925	-0.3726349
1442674137182324972	3.105835	11.02063	-0.34602356
1442674137190717306	2.631607	11.479446	0.26316833
1442674137199109640	1.6135864	12.301254	0.5787506
1442674137207501974	-0.27279663	13.519592	0.50183105
1442674137215894308	-1.5777435	14.5911255	0.71284485
1442674137224286642	-1.9694214	15.622879	0.6348877
1442674137232678976	-2.0420227	16.51738	0.24032593
1442674137241071310	-1.6451874	16.979523	-0.8220062
1442674137249463644	-0.9757385	15.92601	-0.30264282
1442674137257855978	0.11286926	14.100067	1.9372864
1442674137266248312	0.9994812	13.185181	2.7085876
1442674137274640646	1.8478088	12.33139	3.2244873
1442674137283032980	2.561325	11.159637	1.9388733
1442674137291425314	3.918396	10.529205	0.6144409
1442674137299817648	4.726227	10.053665	0.23348999
1442674137308209982	4.7288055	9.59227	0.47705078
1442674137316602316	4.6582336	8.945694	0.50141907
1442674137324994650	4.2973175	8.034592	0.0683136
1442674137333386984	3.7637482	7.2527313	-0.33702087
1442674137341779318	3.4103851	6.90094	-0.55470276
1442674137350171652	3.1552582	6.7589264	-0.74812317
1442674137358563986	2.3643951	6.647232	-0.7119293
1442674137366956320	1.4066772	6.603531	-0.70399475
1442674137375348654	0.40272522	6.539627	-0.7741394
1442674137383740988	0.06489563	6.3332367	-0.66134644
1442674137392133322	-0.22137451	6.097748	-0.4975586
1442674137400525656	-0.20652771	5.598236	0.045928955
1442674137408917990	0.24378967	4.8835144	0.48739624
1442674137417310323	0.3239441	4.4169464	0.97688293
1442674137425702657	0.1613617	4.3783875	1.3470154
1442674137434094991	-0.068222046	4.438217	1.725647
1442674137442487325	-0.25616455	4.5251465	2.091507
1442674137450879659	-0.35514832	4.4639435	2.3700104
1442674137459271993	-0.45233154	4.408203	2.449524
1442674137467664327	-0.53523254	4.376709	2.4463196
1442674137476056661	-0.5196991	4.2932434	2.5576782
1442674137484448995	-0.10935974	4.1439514	2.7069244
1442674137492841329	0.45736694	4.1247406	3.0329742
1442674137501233663	0.8430176	4.1961365	3.1770782
1442674137509625997	1.3154602	4.272827	3.3123322
1442674137518018331	2.3258972	4.419327	3.5192413
1442674137526410665	3.074524	4.806198	4.2097473
1442674137534802999	3.5093842	5.401947	4.792099
1442674137543195333	3.7163086	5.948807	5.160965
1442674137551587667	4.053009	6.962494	5.4814453
1442674137559980001	4.542206	8.815292	5.4676666
1442674137568372335	4.8745117	11.309357	5.3033295
1442674137576764669	4.986862	13.276169	5.505615
1442674137585157003	5.045349	14.891678	5.8532715
1442674137593549337	5.089554	17.122955	6.4971924
1442674137601941671	4.7860413	17.677475	6.2297974
1442674137610334005	4.9157867	16.081833	5.409088
1442674137618726339	4.8335266	14.403366	5.3255463
1442674137627118673	4.749344	12.404785	5.306732
1442674137635511007	4.7627563	8.960251	5.6738434
1442674137643903341	5.062546	6.3118744	6.431946
1442674137652295675	5.186783	4.94664	7.424423
1442674137660688009	5.2458954	4.5122375	8.106232
1442674137669080343	5.158722	4.759201	8.740921
1442674137677472677	5.1306915	6.1816254	8.295181
1442674137685865011	5.0451355	7.721634	6.869171
1442674137694257345	4.7237244	8.925507	5.7233276
1442674137702649679	4.35231	10.053284	4.7356415
1442674137711042013	3.113968	13.160294	2.844101
1442674137719434347	1.345047	16.684937	0.684021
1442674137727826681	0.40499878	17.74205	-0.5455017
1442674137736219015	-0.42384338	18.525482	-1.8538971
1442674137744611349	-0.4651184	16.664139	-2.423462
1442674137753003683	-0.8468323	10.702866	2.022873
1442674137761396017	-2.8208313	4.4736633	4.840027
1442674137769788351	-3.709259	1.4299316	4.2308044
1442674137778180685	-3.811432	0.642746	3.6196747
1442674137786573019	-4.2061157	0.51008606	2.6031494
1442674137794965353	-4.770294	2.6636047	0.35351563
1442674137803357687	-3.8682709	5.030243	-1.7074738
1442674137811750021	-2.3189545	7.0023956	-3.429657
1442674137820142355	0.5548706	10.786011	-5.8032074
1442674137828534689	2.6131287	14.406555	-6.8716736
1442674137836927023	2.7362366	16.446823	-4.027191
1442674137845319357	2.7092438	16.126816	-1.8776855
1442674137853711691	2.72464	15.366394	0.059524536
1442674137862104025	2.7094269	12.464279	0.6920471
1442674137870496359	2.2662048	9.768433	0.5734558
1442674137878888693	2.3007355	8.182907	0.6082611
1442674137887281027	1.9440918	7.6039124	0.45724487
1442674137895673361	0.9732666	7.014633	-0.13076782
1442674137904065695	0.08026123	6.4300385	-1.3079224
1442674137912458029	-0.021362305	6.233246	-2.4357452
1442674137920850363	0.01852417	6.442749	-2.7184143
1442674137929242697	0.046157837	6.7312927	-2.713913
1442674137937635031	0.33906555	7.553131	-2.376587
1442674137946027365	0.9377136	8.592102	-1.7047272
1442674137954419698	1.1809082	9.336716	-0.9898987
1442674137962812032	1.289505	9.377838	-0.7566376
1442674137971204366	1.3841248	9.279907	-0.5826416
1442674137979596700	1.4866943	8.56633	-0.598053
1442674137987989034	1.6697998	7.77623	-0.38571167
1442674137996381368	1.6281891	7.4986267	-0.087524414
1442674138004773702	1.4842529	7.5622406	-0.016189575
1442674138013166036	1.1634216	7.689438	0.036315918
1442674138021558370	1.0119476	7.7266235	0.100753784
1442674138029950704	1.1383972	7.822525	-0.03050232
1442674138038343038	1.2875824	8.046173	-0.113601685
1442674138046735372	1.4315338	8.289719	-0.15151978
1442674138055127706	1.707077	8.583481	0.31098938
1442674138063520040	2.1729584	9.047684	0.18440247
1442674138071912374	2.3377228	9.652603	-0.14155579
1442674138080304708	2.373703	9.861435	-0.4416504
1442674138088697042	2.4009247	10.09111	-0.566864
1442674138097089376	2.4608002	10.286148	-0.040664673
1442674138105481710	2.7597656	10.147202	0.56455994
1442674138113874044	3.1003113	9.952026	0.77508545
1442674138122266378	3.2795868	9.916672	0.8194275
1442674138130658712	3.6084137	10.183792	0.85354614
1442674138139051046	4.0939636	10.59845	0.5447235
1442674138147443380	4.4684296	10.7773285	-0.42362976
1442674138155835714	4.619583	10.705643	-1.405014
1442674138164228048	4.726898	10.589325	-2.343216
1442674138172620382	4.555542	10.532333	-2.373352
1442674138181012716	3.8506927	11.124268	-1.0332642
1442674138189405050	3.0231628	11.972092	-0.09535217
1442674138197797384	2.686432	12.327454	0.024169922
1442674138206189718	2.2082825	12.802475	-0.022918701
1442674138214582052	1.5665741	13.3702545	-0.4912567
1442674138222974386	1.5753021	13.269684	-1.3143921
1442674138231366720	1.9723663	12.942337	-2.185669
1442674138239759054	2.372055	12.768188	-2.5686646
1442674138248151388	2.9003754	12.481903	-2.4701538
1442674138256543722	3.3771667	12.026718	-2.160965
1442674138264936056	3.0760803	12.273636	-1.4550781
1442674138273328390	2.565628	12.708908	-0.6104889
1442674138281720724	2.057953	13.135605	0.23516846
1442674138290113058	0.51589966	13.754044	1.2958069
1442674138298505392	-0.97268677	14.026047	1.7756195
1442674138306897726	-2.6101227	14.211472	1.3389893
1442674138315290060	-3.56633	14.499359	1.0639648
1442674138323682394	-4.460327	14.938919	0.5823822
1442674138332074728	-4.8121643	15.77356	-0.8156738
1442674138340467062	-3.9590302	15.978958	-2.7231598
1442674138348859396	-2.676468	15.116638	-3.0063171
1442674138357251730	-1.6091003	14.087189	-2.0738983
1442674138365644064	-0.061584473	12.223328	1.8359528
1442674138374036398	2.2404175	10.600037	3.1434174
1442674138382428732	3.1259308	10.382065	1.3513184
1442674138390821066	3.2424164	10.486435	0.66789246
1442674138399213400	3.3062134	10.595642	0.21380615
1442674138407605734	3.715332	10.67128	0.17042542
1442674138415998068	3.6790771	10.291443	0.38476563
1442674138424390402	3.2309875	9.328308	0.23614502
1442674138432782736	2.9398956	8.622086	-0.018966675
1442674138441175070	2.537506	7.8553467	-0.25117493
1442674138449567404	1.8023987	7.122299	-0.4820404
1442674138457959738	0.94039917	6.6488495	-0.6001892
1442674138466352072	0.45619202	6.377411	-0.60014343
1442674138474744406	0.22869873	6.2148285	-0.6444702
1442674138483136740	0.12594604	5.8005676	-0.60491943
1442674138491529073	0.09190369	5.2617035	-0.7164612
1442674138499921407	0.32138062	4.782547	-0.6289978
1442674138508313741	0.45318604	4.536545	-0.20288086
1442674138516706075	0.5646057	4.3102875	0.27198792
1442674138525098409	0.54556274	4.0425415	1.1192932
1442674138533490743	0.34846497	4.0093536	1.6334839
1442674138541883077	0.19049072	3.9310455	1.8375702
1442674138550275411	0.12107849	3.7838745	1.8221436
1442674138558667745	0.1566925	3.5009613	1.7917175
1442674138567060079	0.15873718	3.2303925	1.8720093
1442674138575452413	0.14974976	3.198761	2.0792084
1442674138583844747	0.31288147	3.1663513	2.227188
1442674138592237081	0.45681763	3.1502838	2.354416
1442674138600629415	0.9528961	3.1479034	2.6194763
1442674138609021749	1.8788452	3.3239899	3.1997986
1442674138617414083	3.0660553	3.7499847	4.049118
1442674138625806417	3.657196	4.1390533	4.538437
1442674138634198751	4.253433	4.576462	5.0112
1442674138642591085	5.3584747	5.7178802	5.530197
1442674138650983419	6.3069305	7.3528595	5.760086
1442674138659375753	6.5414886	8.702972	5.772934
1442674138667768087	6.635208	11.021072	5.600769
1442674138676160421	6.180374	15.284317	5.5646515
1442674138684552755	5.32193	18.92038	7.022232
1442674138692945089	5.003174	19.981247	8.165115
1442674138701337423	4.796234	18.800781	7.9880524
1442674138709729757	4.408737	17.066391	7.5806274
1442674138718122091	3.3341522	13.063614	7.111801
1442674138726514425	2.7452087	8.826141	6.8427734
1442674138734906759	2.464096	5.6514435	7.346695
1442674138743299093	2.3602905	5.1769867	7.762207
1442674138751691427	2.2884521	5.0045013	8.08551
1442674138760083761	2.4779358	7.0165253	7.6394043
1442674138768476095	2.871933	10.145676	6.6613617
1442674138776868429	3.2793274	12.27269	5.367157
1442674138785260763	3.254181	15.713547	3.670166
1442674138793653097	1.9150085	20.248764	2.1154327
1442674138802045431	0.23200989	20.495132	0.20292664
1442674138810437765	-0.28581238	17.108856	-0.9727783
1442674138818830099	-0.26716614	13.183838	-0.9213867
1442674138827222433	-1.3865204	6.7342834	1.9277954
1442674138835614767	-2.5577698	1.0700836	2.2946472
1442674138844007101	-3.4479523	-1.7352295	0.82392883
1442674138852399435	-3.5521088	-2.2934113	0.97958374
1442674138860791769	-3.5351257	-2.559967	1.137558
1442674138869184103	-2.5378723	-0.17095947	-0.186203
1442674138877576437	-0.7850342	5.8930664	-3.51503
1442674138885968771	0.7619171	10.891586	-5.6112366
1442674138894361105	1.6217194	13.256378	-6.031494
1442674138902753439	2.4991608	16.234955	-5.354889
1442674138911145773	3.058197	18.838623	-2.302658
1442674138919538107	3.0315094	17.91417	0.7021179
1442674138927930441	2.8612213	15.20372	1.6674805
1442674138936322775	2.7140656	12.487442	1.8904724
1442674138944715109	2.2876892	8.90361	1.9666138
1442674138953107443	1.709549	6.6665344	1.5999451
1442674138961499777	0.8919678	5.8215027	0.6230469
1442674138969892111	0.40603638	5.8433685	0.11727905
1442674138978284445	-0.08152771	5.92717	-0.3527527
1442674138986676779	-0.5160217	6.3615723	-0.5747833
1442674138995069113	-0.2415924	6.818527	-0.62924194
1442674139003461447	0.50045776	7.29657	-0.8327484
1442674139011853781	0.878952	7.6847076	-0.8918762
1442674139020246115	1.4085083	8.230179	-0.9061279
1442674139028638448	1.9981537	8.761887	-0.89152527
1442674139037030782	2.31221	8.921066	-0.79193115
1442674139045423116	2.3130188	8.86377	-0.6036835
1442674139053815450	2.2179108	8.766098	-0.40576172
1442674139062207784	2.013382	8.662155	-0.084869385
1442674139070600118	1.9970856	8.565826	0.097335815
1442674139078992452	2.0766296	8.494232	0.35639954
1442674139087384786	1.8754883	8.442184	0.47207642
1442674139095777120	1.662796	8.366913	0.57125854
1442674139104169454	1.4384766	8.145859	0.5372009
1442674139112561788	1.2990112	7.9612427	0.30656433
1442674139120954122	1.0785522	8.077606	0.06587219
1442674139129346456	1.0907593	8.271683	-0.0067443848
1442674139137738790	0.9375305	8.650848	0.012542725
1442674139146131124	0.7499542	9.107376	0.11720276
1442674139154523458	0.82943726	9.428009	0.08831787
1442674139162915792	0.9696045	9.6306	0.033721924
1442674139171308126	1.0955505	9.797668	-0.0016326904
1442674139179700460	1.4806671	9.843887	-0.083236694
1442674139188092794	1.7982483	9.94014	-0.24269104
1442674139196485128	2.2829437	9.926788	-0.28164673
1442674139204877462	2.5766144	10.04953	-0.2058258
1442674139213269796	2.9149933	10.211533	-0.14807129
1442674139221662130	3.3992615	10.473038	-0.2424469
1442674139230054464	3.7072906	10.599487	-0.6393585
1442674139238446798	3.8519897	10.710281	-1.1503601
1442674139246839132	3.932312	10.651794	-1.5680695
1442674139255231466	3.8317719	10.591583	-1.7941589
1442674139263623800	3.3364105	10.582184	-1.4390717
1442674139272016134	2.484436	11.035156	-0.679718
1442674139280408468	1.9354706	11.476181	-0.19171143
1442674139288800802	1.5229187	11.843109	0.18164063
1442674139297193136	0.81622314	12.118607	0.6225586
1442674139305585470	0.58081055	11.77739	0.5358887
1442674139313977804	0.83551025	11.594315	0.08444214
1442674139322370138	1.0668488	11.559616	0.16926575
1442674139330762472	1.443924	11.449829	0.30767822
1442674139339154806	2.2915192	11.00386	0.2447052
1442674139347547140	2.8741302	10.296585	-0.8313141
1442674139355939474	2.9730988	9.699707	-1.5982666
1442674139364331808	2.932602	9.389343	-1.7107239
1442674139372724142	2.8865814	9.294952	-0.9241638
1442674139381116476	3.0283813	9.784027	-0.38511658
1442674139389508810	3.3478699	11.029724	-0.7748871
1442674139397901144	3.0636292	12.106552	-0.94236755
1442674139406293478	2.60289	13.07753	-1.0001984
1442674139414685812	0.84091187	15.266937	-0.60754395
1442674139423078146	-0.6524048	16.472183	0.21932983
1442674139431470480	-2.1958313	17.272263	1.2967682
1442674139439862814	-2.469574	17.715652	1.2755585
1442674139448255148	-2.5863953	17.858826	0.89186096
1442674139456647482	-2.2543335	16.850922	0.23519897
1442674139465039816	-1.6073608	15.00354	1.4265594
1442674139473432150	-0.58940125	13.394623	2.5678253
1442674139481824484	0.3712921	12.385086	3.0009308
1442674139490216818	1.6173859	10.818497	2.6912994
1442674139498609152	2.7830658	9.407486	1.2741241
1442674139507001486	3.8090057	8.694931	0.20918274
1442674139515393820	4.080063	8.201416	0.08850098
1442674139523786154	4.1845856	7.722473	0.12918091
1442674139532178488	4.2667084	7.247284	0.15919495
1442674139540570822	3.5572662	6.9361877	-0.29830933
1442674139548963156	3.45076	6.850281	-1.3526611
1442674139557355490	3.1545105	6.975586	-1.6212769
1442674139565747823	2.6811981	7.1794434	-1.777008
1442674139574140157	1.7424927	7.3900604	-1.5991669
1442674139582532491	0.75894165	7.1433563	-1.2277374
1442674139590924825	0.16882324	6.699112	-0.8746338
1442674139599317159	-0.102996826	6.261505	-0.62594604
1442674139607709493	0.04486084	5.4732513	-0.084854126
1442674139616101827	0.020019531	4.701996	0.9037628
1442674139624494161	-0.046676636	4.4482117	1.4790192
1442674139632886495	-0.08137512	4.313263	1.9102173
1442674139641278829	-0.06384277	4.3694305	2.5888977
1442674139649671163	-0.09864807	4.4571533	2.9694061
1442674139658063497	-0.31604004	4.6507874	2.9544678
1442674139666455831	-0.2949524	4.507492	2.653473
1442674139674848165	-0.33865356	4.495285	2.526245
1442674139683240499	-0.31108093	4.4993744	2.3794556
1442674139691632833	-0.1481781	4.5829926	2.3095398
1442674139700025167	0.15493774	4.664917	2.4362946
1442674139708417501	0.6188965	4.668762	2.5950165
1442674139716809835	1.3735046	4.631546	2.8007202
1442674139725202169	2.6688995	4.453476	3.3741913
1442674139733594503	3.690979	4.643936	3.9774475
1442674139741986837	4.3010254	4.719986	4.296158
1442674139750379171	4.853012	4.7411957	4.562195
1442674139758771505	4.7572174	5.1615753	5.454605
1442674139767163839	4.3663635	6.5217743	5.6339874
1442674139775556173	4.0474396	8.275253	5.602829
1442674139783948507	4.0345764	9.32077	5.723633
1442674139792340841	4.1822815	10.78064	6.0042114
1442674139800733175	4.9622498	13.1831665	6.325592
1442674139809125509	5.718521	15.421738	5.9681396
1442674139817517843	5.8516693	16.571625	5.341858
1442674139825910177	5.952545	16.883286	4.627289
1442674139834302511	5.998642	16.054321	3.8968048
1442674139842694845	5.9552	13.462463	4.641159
1442674139851087179	6.0790253	10.1501465	6.239212
1442674139859479513	5.9736633	8.195969	7.256668
1442674139867871847	5.8220215	6.478302	8.165955
1442674139876264181	5.2774353	3.3500214	9.453369
1442674139884656515	4.1537323	2.313507	9.320282
1442674139893048849	3.7877655	4.119095	7.951172
1442674139901441183	3.5185242	5.6427155	6.6158447
1442674139909833517	2.7767944	7.9854126	4.9220276
1442674139918225851	1.0476685	12.539551	2.4550629
1442674139926618185	-1.2443085	18.828995	-0.4293518
1442674139935010519	-3.6070251	23.835876	-2.678543
1442674139943402853	-5.6260834	27.054672	-4.1404724
1442674139951795187	-3.990982	27.192139	-4.0323486
1442674139960187521	0.16229248	18.053604	3.1767883
1442674139968579855	-0.23164368	6.670517	7.212982
1442674139976972189	-1.8960114	2.6472778	5.635956
1442674139985364523	-3.5648804	-0.49647522	3.590805
1442674139993756857	-4.5291595	-2.965866	3.3387146
1442674140002149191	-5.8219147	-3.6700745	2.0776672
1442674140010541525	-6.565628	-0.5252075	-0.7433777
1442674140018933859	-5.2772217	2.4281921	-3.3079987
1442674140027326193	-2.8322601	6.416855	-6.2855225
1442674140035718527	1.0262756	11.824936	-8.612915
1442674140044110861	3.2471008	15.967041	-7.348831
1442674140052503195	3.8378906	17.633392	-4.5594025
1442674140060895529	3.9606323	18.154556	-1.9825745
1442674140069287863	3.8420258	16.543625	0.36547852
1442674140077680197	3.1136932	12.782761	0.7505188
1442674140086072531	3.0563812	9.270782	0.7016144
1442674140094464865	2.586975	7.951416	0.8801117
1442674140102857198	1.9769135	6.7698517	1.032074
1442674140111249532	0.13032532	5.4427032	0.4514923
1442674140119641866	-0.84672546	4.9594574	-1.1102142
1442674140128034200	-1.1412354	5.4464417	-2.3539886
1442674140136426534	-1.0358582	5.912979	-2.711914
1442674140144818868	-0.7535858	6.7540436	-2.6913147
1442674140153211202	0.24279785	8.144592	-2.048462
1442674140161603536	1.682373	9.614563	-1.2424316
1442674140169995870	2.413681	10.397491	-0.77763367
1442674140178388204	2.7401276	10.734207	-0.554657
1442674140186780538	2.8555908	10.567902	-0.54411316
1442674140195172872	2.7946777	9.528824	-0.66033936
1442674140203565206	3.1371002	8.2317505	-0.4021454
1442674140211957540	3.1946259	7.746338	-0.16166687
1442674140220349874	3.1964417	7.35997	0.04725647
1442674140228742208	2.8202667	7.6442413	0.015335083
1442674140237134542	2.4100952	8.119202	0.010620117
1442674140245526876	1.9972076	8.209503	-0.041625977
1442674140253919210	1.7812958	8.317459	-0.087249756
1442674140262311544	1.5085907	8.558701	-0.045074463
1442674140270703878	1.4393921	9.025742	0.16215515
1442674140279096212	1.7998047	9.511261	0.1906128
1442674140287488546	2.1172638	9.716293	0.027755737
1442674140295880880	2.3479614	9.790192	-0.15023804
1442674140304273214	2.5791779	9.631256	-0.4229126
1442674140312665548	2.8138428	9.896622	-0.68418884
1442674140321057882	3.2305298	10.020905	-0.10606384
1442674140329450216	3.3674011	10.101227	-0.038604736
1442674140337842550	3.4985352	10.168518	0.003250122
1442674140346234884	3.4810944	10.213593	-0.088150024
1442674140354627218	3.046692	10.418823	-0.26504517
1442674140363019552	2.765747	10.47554	-0.8208008
1442674140371411886	2.727829	10.503815	-1.2841187
1442674140379804220	2.5750122	10.473846	-1.7396088
1442674140388196554	2.0981903	10.382599	-1.544754
1442674140396588888	1.7504425	10.473022	-0.80895996
1442674140404981222	1.6420898	10.688736	-0.313797
1442674140413373556	1.5624084	10.911713	0.06791687
1442674140421765890	1.4377747	11.411362	0.39076233
1442674140430158224	1.1986389	11.971207	0.3645172
1442674140438550558	1.1838379	11.945679	0.37509155
1442674140446942892	1.4447327	11.916748	-0.122283936
1442674140455335226	1.8215027	11.825653	-0.63752747
1442674140463727560	2.7365417	11.412842	-1.3428955
1442674140472119894	3.5607147	10.883865	-2.1688385
1442674140480512228	3.9789429	10.594131	-2.3269806
1442674140488904562	4.1029663	10.719437	-2.134842
1442674140497296896	4.1122437	11.209152	-1.6348114
1442674140505689230	3.8327942	12.170578	-0.6672821
1442674140514081564	2.7564087	13.22319	0.7071228
1442674140522473898	1.647049	13.742462	1.3420715
1442674140530866232	0.6516571	14.066345	1.6524506
1442674140539258566	-1.298172	14.80014	1.3378906
1442674140547650900	-3.026535	15.3984375	0.72813416
1442674140556043234	-3.6931458	15.997726	0.3011322
1442674140564435568	-3.5774689	15.948883	-0.2540741
1442674140572827902	-3.2450714	15.6744995	-0.8751831
1442674140581220236	-1.9588318	14.241913	-1.2552795
1442674140589612570	-0.571228	12.400101	-0.40304565
1442674140598004904	0.2590027	11.34816	0.47538757
1442674140606397238	1.6463623	10.320511	0.8544464
1442674140614789572	2.9161987	9.822571	0.5278015
1442674140623181906	3.5912628	9.984604	0.17080688
1442674140631574240	3.8653412	10.234756	0.027374268
1442674140639966573	3.5775757	10.235413	-0.15516663
1442674140648358907	3.1682434	10.169235	-0.368515
1442674140656751241	2.494156	9.380966	-0.32933044
1442674140665143575	1.6055908	8.900055	-0.5820465
1442674140673535909	1.5297546	8.801743	-0.6816559
1442674140681928243	1.2828827	8.69397	-0.6916504
1442674140690320577	0.39204407	8.556488	-0.43736267
1442674140698712911	-0.10069275	8.396652	-0.73002625
1442674140707105245	-0.5133667	8.128494	-1.0004272
1442674140715497579	-0.87579346	7.8932953	-0.7954407
1442674140723889913	-0.9929199	7.4161835	-0.5677643
1442674140732282247	-0.8287964	6.824875	-0.34194946
1442674140740674581	-0.5615845	6.3355713	0.11941528
1442674140749066915	-0.42012024	6.041992	0.6864624
1442674140757459249	-0.33529663	5.8132324	1.24617
1442674140765851583	-0.1708374	5.3870544	2.1193848
1442674140774243917	-0.28746033	5.0510864	2.0986786
1442674140782636251	-0.27693176	4.766037	1.8974762
1442674140791028585	-0.08607483	4.587387	1.8801117
1442674140799420919	0.09313965	4.396408	1.8772125
1442674140807813253	0.20960999	4.149399	1.9371338
1442674140816205587	0.28852844	3.8598022	2.1179657
1442674140824597921	0.35646057	3.668686	2.3808746
1442674140832990255	0.3738098	3.64299	2.5267334
1442674140841382589	0.63201904	3.7730255	2.8410187
1442674140849774923	1.1750946	4.100891	3.3727112
1442674140858167257	2.0774536	4.4041443	4.1488495
1442674140866559591	2.6920624	4.5842743	4.5763855
1442674140874951925	3.183014	4.736557	4.875824
1442674140883344259	3.8433685	5.218933	5.324829
1442674140891736593	4.5249176	6.1825256	5.524933
1442674140900128927	5.203064	7.4625244	5.360306
1442674140908521261	5.399704	8.468842	5.3313904
1442674140916913595	5.4618835	9.872971	5.2617493
1442674140925305929	5.0051117	12.681686	5.171402
1442674140933698263	4.463333	15.958282	5.7221375
1442674140942090597	4.3555603	17.977798	6.474106
1442674140950482931	4.435257	18.591476	6.6765137
1442674140958875265	4.592819	17.770493	6.5955505
1442674140967267599	4.039566	14.727249	6.6145935
1442674140975659933	3.0028076	10.732559	6.7831726
1442674140984052267	2.7879639	8.224915	6.8316803
1442674140992444601	2.7783203	6.099823	6.8509674
1442674141000836935	3.2124786	2.7458954	7.048828
1442674141009229269	2.4559631	1.7596741	6.74321
1442674141017621603	2.1940765	3.8459167	6.2394257
1442674141026013937	2.304596	5.7415924	5.792816
1442674141034406271	2.2300568	8.454575	5.144867
1442674141042798605	1.1417999	13.550217	4.1486816
1442674141051190939	-0.5826874	19.488434	2.851059
1442674141059583273	-0.7975311	23.26207	1.1536713
1442674141067975607	0.020507813	24.65651	-0.2028656
1442674141076367941	1.4539795	21.08165	0.21984863
1442674141084760275	2.5718384	12.047852	2.1597595
1442674141093152609	1.216095	5.168579	1.1570282
1442674141101544943	0.105667114	2.946701	0.12384033
1442674141109937277	-0.8408966	1.412796	-0.7449646
1442674141118329611	-2.299652	-0.5002899	-0.7068634
1442674141126721945	-3.1621857	-0.9574127	-1.6304169
1442674141135114279	-2.5846558	1.8599701	-2.6403656
1442674141143506613	-1.8893585	4.4798584	-3.0265808
1442674141151898947	-0.8878479	7.8309937	-3.4462128
1442674141160291281	0.78637695	12.256805	-3.6014404
1442674141168683615	2.2651367	15.30455	-2.8365326
1442674141177075948	2.847351	16.1745	-1.8751373
1442674141185468282	2.910324	15.873764	-1.155426
1442674141193860616	2.256546	13.688202	0.17037964
1442674141202252950	1.218811	10.260605	1.13031
1442674141210645284	0.14691162	8.076782	1.1349487
1442674141219037618	-0.34028625	7.611801	0.77082825
1442674141227429952	-0.7447052	7.343155	0.37303162
1442674141235822286	-1.0020142	7.3491364	-0.34451294
1442674141244214620	-1.1098938	7.4555206	-0.71707153
1442674141252606954	-1.439209	8.012482	-0.8761902
1442674141260999288	-1.3633881	8.169281	-1.0432739
1442674141269391622	-0.99406433	8.226059	-1.2411957
1442674141277783956	-0.22569275	8.265762	-1.3056793
1442674141286176290	0.1712799	8.702148	-1.0451355
1442674141294568624	0.26242065	9.151764	-0.8701935
1442674141302960958	0.28877258	9.469833	-0.8187866
1442674141311353292	0.37754822	9.749191	-0.8694458
1442674141319745626	0.4789276	9.685623	-0.8569641
1442674141328137960	0.7029114	9.324112	-0.78842163
1442674141336530294	0.90197754	9.102356	-0.65686035
1442674141344922628	1.1042175	8.916977	-0.50572205
1442674141353314962	1.4645844	9.098984	-0.11479187
1442674141361707296	1.9677734	9.403793	0.20118713
1442674141370099630	2.2191162	9.637985	0.3403473
1442674141378491964	2.3746185	9.579514	0.24139404
1442674141386884298	2.4715118	9.458572	0.018539429
1442674141395276632	2.4377136	9.198135	-0.38955688
1442674141403668966	2.2551727	8.995804	-0.75201416
1442674141412061300	2.0497742	8.929596	-0.9447632
1442674141420453634	1.8852692	8.890396	-1.0527191
1442674141428845968	1.5962067	8.86319	-1.1031952
1442674141437238302	1.2321777	8.870407	-0.96235657
1442674141445630636	1.0469971	8.883408	-0.51101685
1442674141454022970	1.010025	8.91095	-0.21125793
1442674141462415304	0.9809418	8.946228	0.07559204
1442674141470807638	0.9769745	9.027573	0.30459595
1442674141479199972	0.9805603	8.979919	0.35343933
1442674141487592306	0.86369324	9.0147705	0.13502502
1442674141495984640	0.7197418	9.264755	-0.18307495
1442674141504376974	0.62345886	9.438736	-0.5328522
1442674141512769308	0.5764313	9.498322	-0.7624512
1442674141521161642	0.65982056	9.773148	-0.7332611
1442674141529553976	0.78009033	10.023483	-0.6506653
1442674141537946310	0.8623352	10.165497	-0.5799713
1442674141546338644	0.8873291	10.544144	-0.93130493
1442674141554730978	1.390625	10.46608	-1.071228
1442674141563123312	1.5087433	10.389832	-1.4076996
1442674141571515646	1.7574768	10.209854	-1.2063141
1442674141579907980	2.014801	10.084091	-0.9731598
1442674141588300314	2.2815247	10.343369	-0.55662537
1442674141596692648	2.3766327	10.597351	-0.11764526
1442674141605084982	2.3840332	10.732544	0.20117188
1442674141613477316	2.3371277	10.768524	0.33354187
1442674141621869650	2.2795715	11.010468	-0.023757935
1442674141630261984	2.5360718	11.556656	-0.75038147
1442674141638654318	3.10112	12.055923	-1.2866211
1442674141647046652	3.3874054	12.251846	-1.5844879
1442674141655438986	3.5326385	12.337952	-1.7823944
1442674141663831320	3.7640991	12.344147	-1.9298401
1442674141672223654	3.8516388	12.08284	-1.6703796
1442674141680615988	3.474701	11.980774	-1.3220367
1442674141689008322	3.074997	12.09259	-1.1401825
1442674141697400656	2.5276642	12.218063	-0.84843445
1442674141705792990	1.2078094	12.251007	0.053100586
1442674141714185323	0.011856079	11.937012	0.78289795
1442674141722577657	-0.7605438	12.059113	0.74819946
1442674141730969991	-1.6285248	12.459427	0.7208557
1442674141739362325	-2.1424713	13.283203	0.67015076
1442674141747754659	-2.095932	14.185745	0.21635437
1442674141756146993	-1.8994293	14.449753	-0.34545898
1442674141764539327	-1.6616669	14.361053	-0.8184204
1442674141772931661	-0.8182068	13.474899	-1.4145203
1442674141781323995	0.7068634	12.124893	-1.0602264
1442674141789716329	1.8782196	11.269577	0.2687683
1442674141798108663	2.3961792	11.033386	0.5710907
1442674141806500997	2.9223175	10.791718	0.81240845
1442674141814893331	3.361084	10.509232	0.65792847
1442674141823285665	3.0449066	10.239731	0.34423828
1442674141831677999	2.682541	9.845673	0.14408875
1442674141840070333	2.5919342	9.636185	0.07789612
1442674141848462667	2.524292	9.410156	0.15037537
1442674141856855001	2.2372284	9.00473	0.25961304
1442674141865247335	1.8615875	8.556564	0.40673828
1442674141873639669	1.6114349	8.355209	0.55636597
1442674141882032003	1.3858795	8.24147	0.6681824
1442674141890424337	0.87039185	8.057495	0.64901733
1442674141898816671	0.5485382	7.79187	0.46177673
1442674141907209005	0.08921814	7.407242	0.49438477
1442674141915601339	-0.0014038086	7.187454	0.4571228
1442674141923993673	-0.034072876	6.9010468	0.46627808
1442674141932386007	0.19891357	6.3433075	0.76371765
1442674141940778341	0.37005615	6.0307465	1.2366486
1442674141949170675	0.5070801	5.9066315	1.6259766
1442674141957563009	0.54241943	5.907913	1.9100037
1442674141965955343	0.6103821	5.7530212	2.3159485
1442674141974347677	0.49249268	5.5446777	2.81456
1442674141982740011	-0.013809204	5.4572906	3.0447083
1442674141991132345	-0.085006714	5.1913605	3.0588531
1442674141999524679	0.06150818	4.845001	3.041504
1442674142007917013	-0.24308777	4.8620453	3.0346375
1442674142016309347	-0.17175293	4.769943	2.938919
1442674142024701681	0.28337097	4.643326	3.1173096
1442674142033094015	0.4857788	4.652313	3.216278
1442674142041486349	0.9277954	4.5932617	3.3448029
1442674142049878683	2.0758514	4.3560944	3.5928497
1442674142058271017	2.5828857	4.387787	3.8731384
1442674142066663351	2.9271088	4.5340424	4.161148
1442674142075055685	3.1070404	4.7499695	4.3995514
1442674142083448019	3.5353699	5.314499	4.8140106
1442674142091840353	4.181198	6.3814087	5.2658234
1442674142100232687	4.764694	7.8043823	5.5197754
1442674142108625021	4.993805	8.854752	5.590866
1442674142117017355	5.11911	9.752457	5.62236
1442674142125409689	4.8977966	11.695816	5.5279694
1442674142133802023	4.5850983	14.162842	5.6383057
1442674142142194357	4.2310333	16.365143	5.816574
1442674142150586691	4.1095886	16.96405	5.7760925
1442674142158979025	3.981186	17.13205	5.8091736
1442674142167371359	3.7322998	15.499741	6.1856537
1442674142175763693	3.2991638	12.74704	6.7258606
1442674142184156027	3.0996246	10.525497	6.985428
1442674142192548361	3.1156921	9.257645	7.067032
1442674142200940695	3.2036285	7.7478943	6.9586487
1442674142209333029	2.8688202	6.379776	6.401123
1442674142217725363	2.4151764	6.2789	5.920288
1442674142226117697	2.4553223	7.1460114	5.6421814
1442674142234510031	2.6114655	8.156189	5.392853
1442674142242902365	2.9345245	10.793488	4.472336
1442674142251294698	2.1387024	14.532486	2.751648
1442674142259687032	0.7388458	17.622238	1.9455872
1442674142268079366	0.13095093	17.714767	1.6429138
1442674142276471700	-0.18534851	16.52118	1.587265
1442674142284864034	0.24725342	11.300659	2.041275
1442674142293256368	0.16514587	5.5267334	1.6056061
1442674142301648702	-0.52233887	2.437027	0.51301575
1442674142310041036	-1.1218872	1.164032	-0.33135986
1442674142318433370	-1.8089447	-0.42184448	-0.74020386
1442674142326825704	-3.1423798	0.31315613	-0.8965759
1442674142335218038	-4.4012604	5.3391876	-2.0714111
1442674142343610372	-3.358841	8.006912	-2.908661
1442674142352002706	-1.8641357	9.982285	-3.6103668
1442674142360395040	0.7927551	13.005875	-3.277954
1442674142368787374	2.478653	15.629288	-2.2869263
1442674142377179708	3.4888	15.878601	-1.2881622
1442674142385572042	3.4290314	14.736053	-0.36151123
1442674142393964376	2.8031616	12.819809	0.6290283
1442674142402356710	1.338028	9.717026	1.2486877
1442674142410749044	0.8041992	7.973999	0.62960815
1442674142419141378	0.601593	7.393463	-0.07345581
1442674142427533712	0.39468384	7.2925873	-0.39219666
1442674142435926046	0.3366394	7.489029	-0.7219238
1442674142444318380	0.41574097	7.976349	-0.8928528
1442674142452710714	0.6441803	8.469818	-1.0522461
1442674142461103048	1.1047363	8.556351	-1.2672882
1442674142469495382	1.5962067	8.582642	-1.4889221
1442674142477887716	2.0340729	8.938965	-1.6754608
1442674142486280050	2.1840973	9.18895	-1.6139679
1442674142494672384	2.3040314	9.343063	-1.2642517
1442674142503064718	2.4062042	9.415039	-1.053482
1442674142511457052	2.4399567	9.403107	-0.79156494
1442674142519849386	2.3090515	9.095001	-0.47135925
1442674142528241720	2.1409607	8.628815	-0.29606628
1442674142536634054	2.0523682	8.428223	-0.33514404
1442674142545026388	2.0151062	8.408936	-0.46687317
1442674142553418722	2.1679535	8.5039215	-0.6820679
1442674142561811056	2.1708527	8.598114	-0.6670227
1442674142570203390	1.8595886	8.507431	-0.6367798
1442674142578595724	1.7066193	8.439545	-0.6780243
1442674142586988058	1.5703278	8.385773	-0.7146759
1442674142595380392	1.2714386	8.539398	-0.4861145
1442674142603772726	0.8543854	8.83017	-0.2303009
1442674142612165060	0.7770386	9.075912	-0.045547485
1442674142620557394	0.80467224	9.251984	-0.04170227
1442674142628949728	0.9068756	9.419144	-0.06112671
1442674142637342062	1.099289	9.440628	-0.04171753
1442674142645734396	1.1362457	9.167786	-0.14183044
1442674142654126730	1.0926971	8.923401	-0.28579712
1442674142662519064	1.0695648	8.783951	-0.32821655
1442674142670911398	1.2408752	8.858215	-0.21655273
1442674142679303732	1.6184692	9.496445	-0.14279175
1442674142687696066	1.9995728	10.271637	-0.28703308
1442674142696088400	2.2121582	10.405319	-0.32125854
1442674142704480734	2.4089355	10.473312	-0.34794617
1442674142712873068	2.5403137	10.319229	-0.38635254
1442674142721265402	2.605072	10.535904	-0.47294617
1442674142729657736	2.570816	10.747131	-0.860672
1442674142738050070	2.6382904	10.735565	-1.1369781
1442674142746442404	2.6653748	10.580338	-1.3688507
1442674142754834738	2.4932556	10.351212	-1.3063507
1442674142763227072	2.244278	10.399033	-1.0334167
1442674142771619406	2.0521393	10.564178	-0.7853699
1442674142780011740	1.8128815	10.82309	-0.27082825
1442674142788404073	1.4171906	11.169891	0.09957886
1442674142796796407	1.1382294	11.580475	-0.018218994
1442674142805188741	1.1880951	11.851196	-0.08987427
1442674142813581075	1.280899	12.113464	-0.1638031
1442674142821973409	1.646225	12.457687	-0.6075134
1442674142830365743	2.1627655	12.174011	-1.266922
1442674142838758077	2.7698975	11.785324	-1.6510162
1442674142847150411	3.0102386	11.613754	-1.6086121
1442674142855542745	3.361084	11.458435	-1.3501587
1442674142863935079	3.7205658	11.389282	-0.93096924
1442674142872327413	3.5462494	11.413544	-0.8020477
1442674142880719747	3.1524506	11.503601	-0.6177521
1442674142889112081	2.8157196	11.625061	-0.3478546
1442674142897504415	1.8030701	11.662018	0.5960846
1442674142905896749	0.51412964	11.777924	1.4448395
1442674142914289083	-0.7635803	12.112381	0.8480377
1442674142922681417	-1.4115143	12.348312	0.35812378
1442674142931073751	-1.9824524	12.616592	-0.076553345
1442674142939461931	-1.9924316	13.337204	-0.10437012
1442674142947854265	-1.1946259	13.796158	-0.30329895
1442674142956246599	-0.1071167	13.352646	-0.65011597
1442674142964638933	0.66207886	12.519836	-0.40657043
1442674142973031267	1.5458221	11.62085	0.18283081
1442674142981423601	2.541687	11.081253	0.798172
1442674142989815935	3.1427002	11.076355	0.62220764
1442674142998208269	3.3436432	11.198242	0.3453064
1442674143006600603	3.47023	11.359528	0.16281128
1442674143014992937	3.4913025	11.184448	0.1695404
1442674143023385271	2.619522	10.685944	0.08570862
1442674143031777605	1.8640594	9.545502	0.15498352
1442674143040169939	1.6973267	8.946671	0.09213257
1442674143048562273	1.4952393	8.397827	0.010772705
1442674143056954607	0.91711426	8.2031555	-0.07574463
1442674143065346941	0.25700378	8.274185	0.33283997
1442674143073739275	-0.24360657	8.137161	0.5923462
1442674143082131609	-0.24874878	7.9957886	0.47026062
1442674143090523943	-0.14704895	7.8793488	0.07928467
1442674143098916277	0.10507202	7.824707	-0.38619995
1442674143107308611	0.52352905	7.4496765	-0.25741577
1442674143115700945	0.8110199	7.0614777	0.061935425
1442674143124093279	0.98646545	6.781952	0.34918213
1442674143132485613	1.071106	6.2746887	0.86727905
1442674143140877947	1.3097839	5.697281	1.3345947
1442674143149270281	1.1069946	5.213562	1.7080841
1442674143157662615	0.9823303	4.8941803	1.9169312
1442674143166054949	0.8076019	4.5607758	2.120575
1442674143174447283	0.42562866	4.1435394	2.2409058
1442674143182839617	0.33966064	3.7280884	2.2438812
1442674143191231951	0.383255	3.4480286	2.397461
1442674143199624285	0.4449463	3.3098755	2.4996338
1442674143208016619	0.6993561	3.1438599	2.7365875
1442674143216408953	1.2266235	3.2093506	3.0990906
1442674143224801287	2.0953217	3.6707306	3.3033142
1442674143233193621	2.7312775	4.0439453	3.521286
1442674143241585955	3.202942	4.3331146	3.780899
1442674143249978289	3.8404999	5.077667	4.4601135
1442674143258370623	4.1874084	6.3078003	5.063431
1442674143266762957	3.9138947	7.5649567	5.226761
1442674143275155291	3.81044	8.281464	5.2164764
1442674143283547625	3.7418518	9.136368	5.23851
1442674143291939959	3.7879791	10.518433	5.519623
1442674143300332293	3.7937317	11.90036	6.024826
1442674143308724627	3.870041	13.364975	6.144043
1442674143317116961	3.8668365	14.359085	6.0572968
1442674143325509294	4.0851746	15.205841	5.661728
1442674143333901628	4.457657	15.040634	5.288208
1442674143342293962	4.5746765	13.578476	5.6175537
1442674143350686296	4.51593	12.29245	6.0457306
1442674143359078630	4.434967	11.189102	6.421646
1442674143367470964	4.1651306	9.075211	7.3285675
1442674143375863298	3.6121826	7.6405945	8.375885
1442674143384255632	3.1479034	7.4708405	8.108765
1442674143392647966	3.0566406	7.783798	7.3196564
1442674143401040300	2.9645233	8.397659	6.3798523
1442674143409432634	2.7528381	10.395447	4.8966827
1442674143417824968	1.9389343	13.511383	3.3364563
1442674143426217302	0.6174774	16.23407	2.0940247
1442674143434609636	-0.62854004	17.800095	1.3036194
1442674143443001970	-1.9754333	18.75235	0.19036865
1442674143451394304	-2.1462555	15.88324	0.462265
1442674143459786638	-2.5297089	9.394424	2.8700714
1442674143468178972	-2.7671967	5.7374115	3.2461853
1442674143476571306	-2.8558655	3.0898895	2.9004517
1442674143484963640	-2.4451904	0.38935852	1.1332397
1442674143493355974	-2.3799438	-1.0377655	0.2348175
1442674143501748308	-2.056015	0.19003296	-1.7292938
1442674143510140642	-2.2327423	3.115158	-3.021576
1442674143518532976	-2.043518	6.7748413	-4.4577026
1442674143526925310	-0.89912415	11.993118	-5.7223053
1442674143535317644	0.4184723	15.227219	-5.0036163
1442674143543709978	1.8289337	16.115143	-3.3428192
1442674143552102312	2.7877045	15.957062	-2.001709
1442674143560494646	3.6496887	14.232574	0.03753662
1442674143568886980	3.5971985	10.85704	1.6111908
1442674143577279314	2.897583	8.214752	2.0064087
1442674143585671648	2.642746	7.114746	1.6748352
1442674143594063982	2.5078125	6.285141	1.2352905
1442674143602456316	1.54393	5.894043	0.1595459
1442674143610848650	0.4459076	6.578705	-0.3399353
1442674143619240984	-0.33180237	7.4633484	-0.48968506
1442674143627633318	-0.21292114	7.661911	-0.7171631
1442674143636025652	0.07246399	7.8886414	-0.98028564
1442674143644417986	0.77809143	8.247284	-1.3820343
1442674143652810320	1.6469269	8.798584	-2.1585388
1442674143661202654	1.6722107	9.268585	-1.6699524
1442674143669594988	0.72758484	9.558395	0.41079712
1442674143677987322	1.5490417	9.411865	-0.19604492
1442674143686379656	2.1703491	9.066788	-1.045166
1442674143694771990	1.414566	8.812408	-0.248703
1442674143703164324	1.3627625	8.620056	0.061965942
1442674143711556658	1.4784241	8.434982	0.23161316
1442674143719948992	1.7320557	8.497269	0.4494171
1442674143728341326	1.3374939	8.711029	0.5595856
1442674143736733660	1.0867462	8.594574	0.27153015
1442674143745125994	0.91967773	8.485321	0.16677856
1442674143753518328	0.6829529	8.399719	-0.023757935
1442674143761910662	0.4845581	8.478409	-0.30241394
1442674143770302996	0.6332092	8.8250885	-0.3741455
1442674143778695330	0.7802582	9.160492	-0.31480408
1442674143787087664	0.8451538	9.396973	-0.22483826
1442674143795479998	1.1062622	9.670151	-0.19866943
1442674143803872332	1.4105988	9.692978	-0.15246582
1442674143812264666	1.573349	9.387451	-0.13365173
1442674143820657000	1.5628967	9.343033	-0.08760071
1442674143829049334	1.5380249	9.340057	-0.04385376
1442674143837441668	1.6691589	9.411362	-0.25248718
1442674143845834002	1.7949219	9.647202	-0.27320862
1442674143854226336	1.8276978	9.93895	-0.1305542
1442674143862618669	1.8358307	10.306335	0.05593872
1442674143871011003	1.7340851	10.750977	0.19224548
1442674143879403337	1.6013947	10.878876	-0.27804565
1442674143887795671	1.760788	10.79924	-0.94218445
1442674143896188005	2.1296387	10.704773	-1.3643799
1442674143904580339	2.855362	10.4626465	-2.1322174
1442674143912972673	3.5730286	10.059036	-2.2865143
1442674143921365007	3.832962	10.076614	-1.5549469
1442674143929757341	3.9112244	10.292664	-0.98939514
1442674143938149675	3.9761353	10.521423	-0.47853088
1442674143946542009	3.3406982	10.840759	0.21287537
1442674143954934343	2.3152924	11.281586	0.24438477
1442674143963326677	1.8432312	11.604034	0.19914246
1442674143971719011	1.7706146	11.828308	-0.06819153
1442674143980111345	1.9181519	12.127548	-0.44981384
1442674143988503679	2.6116486	12.364151	-0.86724854
1442674143996896013	3.3625336	12.269714	-1.0675049
1442674144005288347	3.6978455	12.133011	-1.1989441
1442674144013680681	3.7878113	11.985214	-1.2214355
1442674144022073015	3.5983887	11.735504	-0.95970154
1442674144030465349	2.740799	11.489883	-0.4513092
1442674144038857683	1.4664459	11.663528	-0.06880188
1442674144047250017	0.76930237	11.898102	0.34002686
1442674144055642351	0.13563538	12.145142	0.76976013
1442674144064034685	-0.95124817	12.897827	1.486084
1442674144072427019	-2.013794	13.494217	0.71525574
1442674144080819353	-2.73732	14.04834	-0.07237244
1442674144089211687	-2.88768	14.258469	-0.27799988
1442674144097604021	-2.9393616	14.579559	-0.5207062
1442674144105996355	-2.5029907	14.690231	-0.86576843
1442674144114388689	-1.3870544	13.795959	-0.5861969
1442674144122781023	-0.4887848	12.9001465	0.5076599
1442674144131173357	0.06578064	12.350723	1.7254028
1442674144139565691	0.8438263	11.865601	2.1126251
1442674144147958025	1.8365479	11.480545	0.8027344
1442674144156350359	2.1145325	10.823257	0.3861847
1442674144164742693	2.4785004	10.335175	0.20539856
1442674144173135027	2.8297272	9.87529	0.05105591
1442674144181527361	2.758484	9.552414	0.24003601
1442674144189919695	2.5882416	9.099228	0.3134613
1442674144198312029	2.21875	8.712891	0.048950195
1442674144206704363	1.9674835	8.379379	-0.16696167
1442674144215096697	1.6641998	8.041382	-0.2893982
1442674144223489031	1.0932617	7.7987366	-0.024917603
1442674144231881365	0.4154663	7.7778625	0.14099121
1442674144240273699	0.09580994	7.701172	0.03942871
1442674144248666033	-0.05456543	7.5334473	-0.038330078
1442674144257058367	-0.29048157	7.4566193	-0.47817993
1442674144265450701	-0.23674011	6.93486	-0.36102295
1442674144273843035	-0.33666992	6.3599396	-0.12669373
1442674144282235369	-0.17962646	5.8989716	0.08111572
1442674144290627703	-0.002166748	5.3992157	0.33618164
1442674144299020037	0.17630005	4.6310425	1.0134277
1442674144307412371	-0.097091675	4.387451	1.6260529
1442674144315804705	-0.3866577	4.14386	1.9804382
1442674144324197039	-0.43292236	3.9504395	2.1243896
1442674144332589373	-0.5401306	3.7423553	2.2809753
1442674144340981707	-0.63900757	3.6044312	2.416687
1442674144349374041	-0.3187256	3.4994965	2.524994
1442674144357766375	0.10873413	3.4288177	2.6616516
1442674144366158709	0.46539307	3.3947601	2.81073
1442674144374551043	1.2708282	3.5466309	3.2430573
1442674144382943377	1.9864655	4.0395355	3.8491058
1442674144391335711	2.9417114	4.448929	4.443619
1442674144399728044	3.2880707	4.7046814	4.912094
1442674144408120378	3.6084137	5.0021667	5.447235
1442674144416512712	3.9305878	5.6550446	6.2267303
1442674144424905046	4.794037	6.8996735	6.3277435
1442674144433297380	5.278122	8.468338	6.365921
1442674144441689714	5.4715424	9.519623	6.396118
1442674144450082048	5.2438507	11.272675	6.5764465
1442674144458474382	4.499054	14.11879	7.0313873
1442674144466866716	3.9889526	16.996994	7.2360535
1442674144475259050	3.8541565	17.943344	6.997772
1442674144483651384	3.8085327	18.092438	6.6546173
1442674144492043718	3.5087585	16.08696	6.1953278
1442674144500436052	3.0688782	12.872025	6.543213
1442674144508828386	2.77063	10.185135	7.130829
1442674144517220720	2.6723022	9.018173	7.4611206
1442674144525613054	2.569168	7.769104	7.8609467
1442674144534005388	2.4845428	6.5037384	8.174789
1442674144542397722	2.6427917	7.0053406	7.147537
1442674144550790056	2.9980621	8.749863	6.1933594
1442674144559182390	3.26474	10.328735	5.5462646
1442674144567574724	3.2316895	13.306046	4.5967407
1442674144575967058	1.684845	17.068481	2.9100342
1442674144584359392	-1.2214661	18.870926	0.07992554
1442674144592751726	-2.3839874	17.780014	-1.0647125
1442674144601144060	-2.7958984	15.917114	-1.4168549
1442674144609536394	-3.7011108	9.592255	1.8526001
1442674144617928728	-3.7322235	3.7610626	2.641449
1442674144626321062	-3.2022552	0.9914856	0.9973602
1442674144634713396	-3.0923615	0.3855133	0.7422333
1442674144643105730	-2.7627869	-0.031402588	0.31785583
1442674144651498064	-1.6918488	1.4221191	-1.1501007
1442674144659890398	-1.0242615	6.4563446	-3.6985474
1442674144668282732	-0.84558105	10.991455	-5.412979
1442674144676675066	-0.838501	13.301605	-5.900711
1442674144685067400	-0.103881836	15.321823	-5.4249268
1442674144693459734	1.51474	15.827911	-3.210617
1442674144701852068	3.1849976	14.191971	-0.7776947
1442674144710244402	3.5868378	12.508804	0.34805298
1442674144718636736	3.6138306	10.998032	1.1185303
1442674144727029070	3.465805	8.702042	1.2185211
1442674144735421404	2.653183	7.3305664	0.7203522
1442674144743813738	1.3776398	6.829712	-0.22406006
1442674144752206072	0.71640015	6.9826508	-0.5684967
1442674144760598406	0.023223877	7.2360077	-0.9338989
1442674144768990740	-0.41670227	7.5718536	-1.3261719
1442674144777383074	-0.09379578	7.4976654	-1.4705353
1442674144785775408	0.20652771	7.6302185	-1.4420776
1442674144794167742	0.4693451	7.8724823	-1.5275421
1442674144802560076	0.9481354	8.340622	-1.7314606
1442674144810952410	1.3150482	9.059204	-1.7003632
1442674144819344744	1.5987396	9.443207	-1.2511444
1442674144827737078	1.6437225	9.397705	-1.0216064
1442674144836129412	1.6244507	9.280121	-0.8705902
1442674144844521746	1.8305817	8.771835	-0.7539673
1442674144852914080	1.876831	8.346024	-0.4756012
1442674144861306414	1.9120789	8.291077	-0.17321777
1442674144869698748	1.8825073	8.343765	0.033050537
1442674144878091082	1.8004608	8.418701	0.29382324
1442674144886483416	1.6021576	8.58786	0.56666565
1442674144894875750	1.4712067	8.8046875	0.55378723
1442674144903268084	1.4625092	8.905243	0.4903412
1442674144911660418	1.5274048	8.916809	0.45306396
1442674144920052752	1.3226624	8.960724	0.42630005
1442674144928445086	1.218277	9.01741	0.14730835
1442674144936837419	1.2348633	9.003357	-0.06391907
1442674144945229753	1.4008636	9.037445	-0.14654541
1442674144953622087	1.5955658	9.084991	-0.21466064
1442674144962014421	1.7771912	9.397079	-0.18669128
1442674144970406755	2.0317688	9.687149	0.004333496
1442674144978799089	2.3698883	9.888687	-0.008056641
1442674144987191423	2.4887695	9.933029	-0.0993042
1442674144995583757	2.5926514	9.992371	-0.19302368
1442674145003976091	2.574112	10.09613	-0.23298645
1442674145012368425	2.4387817	10.229523	-0.18911743
1442674145020760759	2.3333893	10.374756	-0.15570068
1442674145029153093	2.266327	10.585892	-0.3874817
1442674145037545427	2.4065094	10.660324	-1.1545258
1442674145045937761	2.7605743	10.414215	-1.8379974
1442674145054330095	2.9514008	10.23703	-1.8952179
1442674145062722429	3.0914764	10.096954	-1.8226013
1442674145071114763	3.1427612	10.216858	-0.9135437
1442674145079507097	2.9209747	10.439667	0.0662384
1442674145087899431	2.615097	10.66011	0.50790405
1442674145096291765	2.3824768	10.92099	0.46292114
1442674145104684099	2.1085052	11.286743	0.38398743
1442674145113076433	1.6810913	11.930511	0.24914551
1442674145121468767	1.259201	12.520676	0.05078125
1442674145129861101	1.151474	12.716202	-0.2749939
1442674145138253435	1.2305145	12.626877	-0.572525
1442674145146645769	1.7328186	12.347687	-0.83955383
1442674145155038103	2.5213928	11.7986145	-1.0473938
1442674145163430437	3.0775452	11.033112	-1.1385345
1442674145171822771	3.1325226	10.785339	-1.1991425
1442674145180215105	3.106186	10.644608	-1.2595367
1442674145188607439	2.843567	11.073212	-0.9937897
1442674145196999773	2.2261047	11.875793	-0.33348083
1442674145205392107	1.0713501	12.386993	0.46437073
1442674145213784441	0.40498352	12.541214	0.29022217
1442674145222176775	-0.5016022	12.670486	-0.12037659
1442674145230569109	-1.7971344	12.837448	-0.62945557
1442674145238961443	-2.4370728	13.456116	-0.3390808
1442674145247353777	-2.3574371	14.090973	-0.091812134
1442674145255746111	-2.1370087	14.418045	-0.07574463
1442674145264138445	-1.4664459	14.349136	0.049102783
1442674145272530779	-0.533371	13.31308	0.78938293
1442674145280923113	0.45013428	12.116547	1.5057983
1442674145289315447	0.88986206	11.649826	1.4002686
1442674145297707781	1.2515259	11.283417	1.1737518
1442674145306100115	1.6649475	10.962738	0.15489197
1442674145314492449	2.6850739	10.2816925	-0.23487854
1442674145322884783	3.254013	9.660812	-0.49394226
1442674145331277117	3.221878	9.273972	-0.41297913
1442674145339669451	3.048645	8.672913	-0.40325928
1442674145348061785	2.6471405	7.9413605	-0.60513306
1442674145356454119	2.407608	7.7062225	-0.43789673
1442674145364846453	2.1543884	7.6657867	-0.043823242
1442674145373238787	1.7893829	7.6484375	0.15281677
1442674145381631121	1.201355	7.742157	0.08106995
1442674145390023455	0.559021	7.7518463	-0.19429016
1442674145398415789	0.25650024	7.668274	-0.7196655
1442674145406808123	0.17382813	7.5005493	-0.7444916
1442674145415200457	0.1026001	7.3047028	-0.6755066
1442674145423592791	-0.015182495	6.6932526	0.19972229
1442674145431985125	-0.0043792725	6.011383	1.1969604
1442674145440377459	-0.16871643	5.7851563	1.8419495
1442674145448769793	-0.28823853	5.67334	2.0617218
1442674145457162127	-0.48162842	5.592087	2.2295227
1442674145465554461	-0.6343689	5.477234	2.1782227
1442674145473946794	-0.5961304	5.2737427	1.9661713
1442674145482339128	-0.49894714	5.0841217	1.8669891
1442674145490731462	-0.3717041	4.9016113	1.8419342
1442674145499123796	-0.5219116	4.8011017	2.0509186
1442674145507516130	-0.14024353	4.466507	2.2663422
1442674145515908464	0.6390686	4.042389	2.614685
1442674145524300798	0.93359375	4.0596466	2.9073029
1442674145532693132	1.2293701	4.1449585	3.190277
1442674145541085466	1.882431	4.6602936	3.5096436
1442674145549477800	2.7447052	5.0004272	4.3293304
1442674145557870134	3.2032776	5.312439	4.970276
1442674145566262468	3.31958	5.571411	5.259445
1442674145574654802	3.367218	6.0592346	5.525818
1442674145583047136	3.541504	7.0508575	5.7261963
1442674145591439470	4.107025	8.445862	5.978012
1442674145599831804	4.461899	9.591812	6.197571
1442674145608224138	4.623825	10.51265	6.362076
1442674145616616472	4.804764	12.750168	6.309555
1442674145625008806	4.582779	15.917252	6.4913483
1442674145633401140	4.3849335	18.45996	5.837372
1442674145641793474	4.3144226	18.373764	5.4169617
1442674145650185808	4.232544	17.871323	5.137451
1442674145658578142	3.9911346	14.523102	5.911194
1442674145666970476	3.4598541	10.644577	7.1019897
1442674145675362810	3.0489807	7.8109283	8.140244
1442674145683755144	2.9429626	6.209564	8.580429
1442674145692147478	2.5647278	4.395981	8.844879
1442674145700539812	2.1502533	3.9095612	8.455978
1442674145708932146	2.4349823	6.2057037	6.8763733
1442674145717324480	2.5855408	8.467987	5.6003723
1442674145725716814	2.5276947	10.269211	4.717453
1442674145734109148	1.261795	13.497833	2.9028015
1442674145742501482	-1.3069458	16.988953	1.1031647
1442674145750893816	-3.8168793	19.208633	-0.2331543
1442674145759286150	-3.7648315	18.641861	-0.28907776
1442674145767678484	-3.5366516	17.281342	0.08468628
1442674145776070818	-2.5654907	11.650024	2.311737
1442674145784463152	-2.2776794	6.2379	2.4570313
1442674145792855486	-2.1979218	3.2094421	1.3562622
1442674145801247820	-2.1844177	1.9846497	1.058075
1442674145809640154	-2.1394196	0.6649933	0.5078583
1442674145818032488	-1.3591461	1.2462616	-1.036972
1442674145826424822	-0.9712982	5.0947723	-3.2473907
1442674145834817156	-1.1385345	8.194931	-4.5234833
1442674145843209490	-1.325531	10.593765	-5.398056
1442674145851601824	-0.24778748	13.255615	-5.353485
1442674145859994158	1.5753632	14.765778	-3.4747772
1442674145868386492	2.9057007	14.363342	-1.1670532
1442674145876778826	3.1299744	13.166824	-0.21278381
1442674145885171160	3.2289429	11.675278	0.71965027
1442674145893563494	2.7915497	9.160568	1.3123322
1442674145901955828	2.3322601	7.663849	1.1772614
1442674145910348162	1.9589081	7.178055	0.97291565
1442674145918740496	1.0706482	6.9820404	0.5048828
1442674145927132830	-0.05697632	7.2875366	-0.12632751
1442674145935525164	-0.23162842	7.3834076	-0.6586151
1442674145943917498	-0.060562134	7.4223633	-0.8234863
1442674145952309832	0.07244873	7.5425262	-0.8119049
1442674145960702166	0.77381897	7.866165	-1.2398834
1442674145969094500	1.3437805	8.371857	-1.7187805
1442674145977486834	1.6656799	9.071442	-1.3481445
1442674145985879168	1.8282471	9.290573	-1.1579285
1442674145994271502	1.9503479	9.431778	-0.91093445
1442674146002663836	1.9220734	9.09877	-0.45896912
1442674146011056169	2.0320435	8.604111	-0.35707092
1442674146019448503	2.0045319	8.410278	-0.34126282
1442674146027840837	1.9325714	8.378143	-0.200531
1442674146036233171	1.8043365	8.4422	0.014465332
1442674146044625505	1.5675812	8.60643	0.017196655
1442674146053017839	1.262146	8.566437	-0.08981323
1442674146061410173	1.0052948	8.488174	-0.14241028
1442674146069802507	0.7739563	8.439972	-0.19445801
1442674146078194841	0.8369446	8.597717	-0.03401184
1442674146086587175	0.9132538	9.143051	0.07597351
1442674146094979509	1.2003937	9.74234	0.03627014
1442674146103371843	1.4047394	9.808517	-0.056900024
1442674146111764177	1.6371002	9.799271	-0.17411804
1442674146120156511	1.8715668	9.503128	-0.37051392
1442674146128548845	1.839035	9.339523	-0.4313507
1442674146136941179	1.9036713	9.376373	-0.32507324
1442674146145333513	2.019333	9.442566	-0.23060608
1442674146153725847	2.2780151	9.596024	-0.12948608
1442674146162118181	2.5460663	9.958862	-0.065460205
1442674146170510515	2.5871277	10.283508	-0.026443481
1442674146178902849	2.5496826	10.441513	-0.048034668
1442674146187295183	2.5104828	10.563614	-0.08979797
1442674146195687517	2.5909424	10.578079	-0.8798218
1442674146204079851	3.0835114	10.601501	-1.986145
1442674146212472185	3.2524567	10.405106	-2.1000214
1442674146220864519	3.2614594	10.470642	-1.6662598
1442674146229256853	3.2376404	10.645248	-1.08107
1442674146237649187	3.0473785	11.134506	-0.05218506
1442674146246041521	2.5733185	11.517838	0.44570923
1442674146254433855	2.132553	11.686111	0.33213806
1442674146262826189	2.0400238	11.626984	0.34692383
1442674146271218523	1.8577576	11.698715	0.16017151
1442674146279610857	1.9966431	11.6604	-0.05595398
1442674146288003191	2.5644531	11.400635	-0.08711243
1442674146296395525	2.9579773	11.15715	-0.34016418
1442674146304787859	3.2818604	10.929672	-0.665329
1442674146313180193	3.5294647	10.413788	-1.319397
1442674146321572527	3.1212769	10.568863	-1.2881012
1442674146329964861	2.7523804	10.711685	-0.44410706
1442674146338357195	2.350113	11.037491	-0.42933655
1442674146346749529	1.8577576	11.537323	-0.324646
1442674146355141863	1.0755615	12.675629	0.2578888
1442674146363534197	0.078933716	14.24852	0.7312012
1442674146371926531	-0.8634796	15.369537	0.47328186
1442674146380318865	-1.5626373	15.847626	0.30491638
1442674146388711199	-2.5478058	16.208939	0.29466248
1442674146397103533	-2.9826813	16.473373	0.02079773
1442674146405495867	-2.573532	16.14331	-0.6789551
1442674146413888201	-1.9481201	15.416916	-0.58610535
1442674146422280535	-1.3119507	14.646439	-0.3078766
1442674146430672869	-0.05848694	12.849899	1.7546539
1442674146439065203	1.4934692	11.370575	2.243042
1442674146447457537	2.6187744	10.5716095	1.2377625
1442674146455849871	3.0743713	10.379471	0.9608002
1442674146464242205	3.717682	10.037384	0.6308136
1442674146472634539	4.2395782	9.419373	0.32322693
1442674146481026873	3.5828705	8.932205	0.19163513
1442674146489419207	2.864151	8.551605	-0.03074646
1442674146497811541	2.422058	8.2322235	-0.27365112
1442674146506203875	1.8571167	7.7786865	-0.6099243
1442674146514596209	1.1157684	7.47287	-0.93133545
1442674146522988543	0.24926758	7.5296783	-1.0203705
1442674146531380877	-0.2112732	7.5913696	-0.96591187
1442674146539773211	-0.6032562	7.642151	-0.89715576
1442674146548165544	-1.2496643	7.837265	-0.8318634
1442674146556557878	-1.1072998	7.632965	-0.55062866
1442674146564950212	-0.8994751	7.131897	0.30456543
1442674146573342546	-0.64886475	6.6904297	0.6014404
1442674146581734880	-0.36894226	6.1390686	0.9707031
1442674146590127214	-0.057998657	5.383774	1.5484619
1442674146598519548	-0.060775757	4.8060455	2.13443
1442674146606911882	-0.4119568	4.621399	2.2794952
1442674146615304216	-0.8039398	4.6066284	2.1477509
1442674146623696550	-1.1817169	4.5043793	1.8477478
1442674146632088884	-1.2044373	4.321991	1.5271759
1442674146640481218	-1.2502441	4.3610535	1.6628723
1442674146648873552	-1.1590118	4.448456	1.8042145
1442674146657265886	-1.0637817	4.5559845	1.940979
1442674146665658220	-1.1325073	5.0136566	2.1992188
1442674146674050554	0.5875397	4.0844574	2.4290314
1442674146682442888	1.5737305	4.0735474	2.96344
1442674146690835222	1.9547882	4.4038544	3.4094238
1442674146699227556	2.550537	4.853882	3.981018
1442674146707619890	3.167038	5.4937134	4.8516083
1442674146716012224	3.3353882	6.269623	5.739731
1442674146724404558	3.4908142	7.006485	6.1538544
1442674146732796892	3.6694489	7.625305	6.300995
1442674146741189226	4.04158	8.940018	6.490692
1442674146749581560	4.195587	10.796127	6.4414673
1442674146757973894	4.1518097	13.185532	5.7698364
1442674146766366228	4.1819153	14.575928	5.5574493
1442674146774758562	4.212982	15.896713	5.4069977
1442674146783150896	4.211426	17.006073	5.5296783
1442674146791543230	4.4243927	15.992493	5.5545044
1442674146799935564	4.60083	13.615265	5.8589478
1442674146808327898	4.84758	11.857101	6.136551
1442674146816720232	5.1378784	9.567932	6.703308
1442674146825112566	5.1718597	6.861862	7.741867
1442674146833504900	4.63501	4.6725616	8.342316
1442674146841897234	4.0121613	3.4853363	8.337753
1442674146850289568	3.4511719	2.8131714	8.215027
1442674146858681902	3.0467072	3.5944977	7.5039063
1442674146867074236	3.290039	5.813553	6.276779
1442674146875466570	2.504013	8.599594	4.801773
1442674146883858904	1.6807556	10.714508	3.7519226
1442674146892251238	0.6755676	13.189468	2.590683
1442674146900643572	-1.8560028	18.661362	0.6644745
1442674146909035906	-3.7050934	22.535385	0.09738159
1442674146917428240	-3.2096405	23.194702	0.108306885
1442674146925820574	-1.6389465	21.641602	0.794693
1442674146934212908	0.31059265	14.910263	3.0855103
1442674146942605242	-0.49116516	6.990616	3.7333374
1442674146950997576	-2.2519379	1.5724487	2.2664185
1442674146959389910	-3.2773438	-0.63298035	1.7077637
1442674146967782244	-3.9572144	-1.8217926	1.6287231
1442674146976174578	-4.401657	-1.953659	0.14367676
1442674146984566912	-4.2890472	1.4804535	-2.040268
1442674146992959246	-2.6973877	7.6556244	-5.044159
1442674147001351580	-1.2714386	10.332062	-6.065262
1442674147009743914	0.3420868	13.14975	-6.8247223
1442674147018136248	2.9046936	16.365356	-5.6112366
1442674147026528582	4.4475555	17.378616	-3.1384125
1442674147034920916	4.8299103	16.822128	-1.5158539
1442674147043313250	4.935501	14.9813385	0.256073
1442674147051705584	4.4314575	11.385864	1.1999054
1442674147060097918	3.695816	8.343262	0.68330383
1442674147068490252	3.042221	6.8963013	0.17448425
1442674147076882586	2.43367	6.1367493	-0.1493988
1442674147085274919	1.0643463	5.789383	-0.6497803
1442674147093667253	-0.24336243	5.9841003	-1.0188141
1442674147102059587	-0.65019226	6.298828	-0.9990845
1442674147110451921	-0.35769653	6.5236206	-1.0571442
1442674147118844255	-0.006942749	6.8191223	-1.0640717
1442674147127236589	0.62397766	7.715042	-0.67477417
1442674147135628923	1.0649719	8.708466	-0.49543762
1442674147144021257	1.4674988	9.456085	-0.49964905
1442674147152413591	1.4854889	9.76326	-0.40905762
1442674147160805925	1.5023041	9.759506	-0.27046204
1442674147169198259	1.5976868	9.107529	-0.17878723
1442674147177590593	1.7241516	8.264572	-0.111083984
1442674147185982927	1.7812042	7.8384857	-0.13397217
1442674147194375261	1.8171844	7.601364	-0.2258606
1442674147202767595	1.5175018	7.4649353	-0.37817383
1442674147211159929	1.0898132	7.457443	-0.5576019
1442674147219552263	0.62327576	7.6621094	-0.43649292
1442674147227944597	0.42407227	7.9577026	-0.43328857
1442674147236336931	0.22619629	8.317108	-0.42518616
1442674147244729265	0.032058716	9.010132	-0.30200195
1442674147253121599	-0.19496155	9.618347	-0.032821655
1442674147261513933	-0.30429077	10.124893	-0.11607361
1442674147269906267	-0.11665344	10.336945	-0.08972168
1442674147278298601	0.25531006	10.393921	-0.091659546
1442674147286690935	0.7845001	10.113464	-0.16235352
1442674147295083269	1.2741394	9.870132	-0.14433289
1442674147303475603	1.6907654	9.923599	-0.05784607
1442674147311867937	2.080185	10.05983	0.028259277
1442674147320260271	2.5678558	10.445435	-0.0065460205
1442674147328652605	2.5204163	10.634354	-0.026992798
1442674147337044939	2.1573792	10.902222	0.05947876
1442674147345437273	2.0166473	11.000534	0.15008545
1442674147353829607	1.794281	11.213623	0.017715454
1442674147362221941	1.4485931	11.714523	-1.0164642
1442674147370614275	1.814209	11.459869	-1.5665131
1442674147379006609	1.9895325	11.116959	-1.4291992
1442674147387398943	1.7980347	11.032776	-1.0597076
1442674147395791277	1.5778809	10.934601	-0.14399719
1442674147404183611	1.3370361	11.1996155	0.45310974
1442674147412575945	1.1190491	11.701218	0.5117645
1442674147420968279	0.99575806	12.133408	0.32354736
1442674147429360613	0.90257263	12.543396	0.04852295
1442674147437752947	1.549942	12.502853	-0.33351135
1442674147446145281	2.6602173	12.289246	-0.8551483
1442674147454537615	3.784668	11.736465	-1.1009216
1442674147462929949	3.9645844	11.252579	-1.434433
1442674147471322283	4.1507874	10.772263	-1.8898163
1442674147479714617	4.124588	10.493637	-2.3554993
1442674147488106951	3.4538574	10.91626	-1.5297852
1442674147496499285	2.817505	11.609726	-0.7413025
1442674147504891619	2.3998108	12.09552	-0.65133667
1442674147513283953	1.8370361	12.792038	-0.6780243
1442674147521676287	1.4416656	13.399826	-0.5982208
1442674147530068621	0.9975586	13.700958	-0.37590027
1442674147538460955	0.475235	13.709106	-0.28703308
1442674147546853289	-0.044631958	13.6519165	-0.24076843
1442674147555245623	-0.72462463	13.352493	-0.038482666
1442674147563637957	-0.91186523	13.2812805	0.047683716
1442674147572030291	-0.82948303	13.340607	0.48059082
1442674147580422625	-0.6707611	13.080994	1.0345154
1442674147588814959	-0.41664124	12.737762	1.6670837
1442674147597207293	0.15280151	12.118103	2.220642
1442674147605599627	0.81970215	11.565186	1.8152618
1442674147613991961	1.219162	11.275345	1.2557983
1442674147622384294	1.2892151	11.040787	1.1002808
1442674147630776628	1.657547	10.466827	1.1534576
1442674147639168962	2.124054	9.618134	1.306488
1442674147647561296	2.1006622	8.740372	0.7750244
1442674147655953630	1.9676056	8.241165	0.29977417
1442674147664345964	1.8448639	7.830536	-0.10827637
1442674147672738298	1.5153809	7.4321594	-0.4194336
1442674147681130632	0.94750977	7.195389	-0.35144043
1442674147689522966	0.7177124	6.915451	-0.429245
1442674147697915300	0.34371948	6.78244	-0.3444214
1442674147706307634	0.039764404	6.5174866	-0.23500061
1442674147714699968	0.042800903	5.887039	-0.104019165
1442674147723092302	-0.035232544	5.373993	0.11167908
1442674147731484636	-0.24559021	5.1082	0.36686707
1442674147739876970	-0.16462708	4.8222504	0.46583557
1442674147748269304	-0.56073	4.841873	0.80415344
1442674147756661638	-1.2962494	5.305847	1.2597809
1442674147765053972	-1.5888824	5.7155914	1.5263062
1442674147773446306	-1.2896271	5.5297546	1.633667
1442674147781838640	-0.9079132	5.2450867	1.7217102
1442674147790230974	-1.0794373	5.559845	1.9849548
1442674147798623308	-1.2935638	5.985779	2.1995544
1442674147807015642	-0.72631836	5.762619	2.246292
1442674147815407976	-0.2970581	5.514572	2.354248
1442674147823800310	0.10328674	5.365204	2.5523682
1442674147832192644	0.5428314	5.3793335	2.9425507
1442674147840584978	1.1945953	5.3575897	3.2449036
1442674147848977312	1.8826904	5.3421173	3.4008331
1442674147857369646	2.538147	5.3144836	3.5306244
1442674147865761980	3.6873474	5.242096	4.0950623
1442674147874154314	4.3015594	5.81221	4.942215
1442674147882546648	4.892151	6.626831	5.8619843
1442674147890938982	5.122818	7.128662	6.1990814
1442674147899331316	5.30188	7.6097717	6.462631
1442674147907723650	5.5845184	9.126785	6.914444
1442674147916115984	5.568619	11.447769	7.185623
1442674147924508318	5.611038	13.03949	7.416321
1442674147932900652	5.5254517	15.054108	7.6993256
1442674147941292986	5.059784	17.516525	7.794861
1442674147949685320	4.308563	17.99701	7.380005
1442674147958077654	3.5204926	16.021835	7.2698517
1442674147966469988	3.1108093	13.689117	7.4812775
1442674147974862322	2.86792	11.898819	7.733185
1442674147983254656	2.2457886	9.324417	8.139893
1442674147991646990	1.8335266	7.0187836	8.546692
1442674148000039324	2.028839	5.385956	7.7353363
1442674148008431658	2.2756348	5.3517456	6.6852264
1442674148016823992	2.497757	5.5900726	5.5866547
1442674148025216326	2.081604	8.2656555	3.8872833
1442674148033608660	-0.24130249	11.545166	3.1160583
1442674148042000994	-2.1877594	13.082275	2.1129456
1442674148050393328	-4.214813	14.789642	1.0580292
1442674148058785662	-5.5950623	15.826202	1.1466217
1442674148067177996	-5.0955505	13.369354	2.9980316
1442674148075570330	-4.1259155	9.911819	3.4326935
1442674148083962664	-3.406845	7.4962616	2.7438202
1442674148092354998	-2.4269104	5.0549316	1.2570496
1442674148100747332	-1.2221375	3.8106842	0.5
1442674148109139666	-0.041030884	4.1828156	-0.34214783
1442674148117532000	0.69218445	5.598404	-1.8590851
1442674148125924334	1.3583679	7.156189	-3.4782257
1442674148134316668	1.5238647	10.278168	-5.8729706
1442674148142709002	1.354248	12.146835	-4.607147
1442674148151101336	1.9246063	12.986359	-2.1207733
1442674148159493669	2.4431763	13.335281	-1.1530151
1442674148167886003	3.2937775	13.43277	-0.22911072
1442674148176278337	4.4049683	12.483978	0.52427673
1442674148184670671	4.306717	10.544205	1.154007
1442674148193063005	3.856369	9.003937	1.3551941
1442674148201455339	3.7291412	7.8973846	1.2446747
1442674148209847673	2.1693268	6.8690643	0.845047
1442674148218240007	-0.03239441	6.611679	0.17147827
1442674148226632341	-1.4714508	6.5893707	-0.116241455
1442674148235024675	-1.4376068	6.41835	-0.3000183
1442674148243417009	-1.2627106	6.2579956	-0.4527893
1442674148251809343	-0.591156	6.485321	-0.22673035
1442674148260201677	0.23832703	6.992981	-0.36064148
1442674148268594011	0.65797424	7.6377106	-0.5191345
1442674148276986345	0.89445496	7.914673	-0.6437988
1442674148285378679	1.2272491	8.146881	-0.8574524
1442674148293771013	1.635315	8.015198	-0.9734497
1442674148302163347	1.9404907	7.391037	-0.4654541
1442674148310555681	2.1399994	6.9820557	-0.04434204
1442674148318948015	2.2897186	6.7937775	0.12658691
1442674148327340349	2.3151398	7.034546	0.22883606
1442674148335732683	2.1845856	7.790146	0.37927246
1442674148344125017	1.8252716	8.695511	0.68247986
1442674148352517351	1.8802185	9.0516205	0.6971283
1442674148360909685	1.9278564	9.414658	0.6608734
1442674148369302019	1.7316284	9.993408	0.36216736
1442674148377694353	1.4236145	10.242554	0.4557953
1442674148386086687	1.0319977	10.304443	0.390213
1442674148394479021	0.9568176	10.121292	0.3040924
1442674148402871355	0.7125702	9.808441	0.08628845
1442674148411263689	0.6490631	9.447571	-0.29605103
1442674148419656023	0.78681946	9.520203	-0.519989
1442674148428048357	0.8946533	9.739502	-0.4360199
1442674148436440691	1.0527344	9.9123535	-0.24772644
1442674148444833025	1.4734802	10.109055	-0.04373169
1442674148453225359	2.0294952	10.316528	-0.11677551
1442674148461617693	2.609375	10.400787	-0.21365356
1442674148470010027	2.6403046	10.500305	-0.2082367
1442674148478402361	2.6790009	10.637009	-0.3199463
1442674148486794695	2.8048706	11.056503	-1.1576385
1442674148495187029	2.9813995	11.467072	-1.8029175
1442674148503579363	2.9313812	11.380005	-2.0101776
1442674148511971697	2.673706	11.268845	-1.7627869
1442674148520364031	2.0868988	11.335037	-1.0653534
1442674148528756365	1.209198	11.694275	-0.06317139
1442674148537148699	0.32658386	12.0720215	0.48860168
1442674148545541033	-0.20944214	12.27887	0.462265
1442674148553933367	-0.571228	12.426025	0.25726318
1442674148562325701	-0.45083618	12.487778	0.114349365
1442674148570718035	0.27391052	12.308441	0.14549255
1442674148579110369	1.5266266	11.729095	0.3597107
1442674148587502703	2.302887	11.327469	-0.023284912
1442674148595895037	3.1052856	10.821396	-0.53038025
1442674148604287371	3.782486	9.886688	-1.4785004
1442674148612679705	3.498413	9.3476715	-1.5834656
1442674148621072039	3.0649567	9.2734375	-1.1623993
1442674148629464373	2.9859161	9.417389	-1.1013489
1442674148637856707	3.0054169	10.130066	-1.2138519
1442674148646249041	3.051773	12.123352	-0.8621063
1442674148654641375	2.2812042	15.005417	-0.34500122
1442674148663033709	1.1490631	16.320251	-0.6277466
1442674148671426043	0.03414917	16.964142	-1.1598206
1442674148679818377	-1.6362457	16.879211	-0.6773224
1442674148688210711	-2.3547974	16.264679	0.10902405
1442674148696603044	-2.8869781	15.698395	0.7184601
1442674148704995378	-3.0566254	15.156021	1.434967
1442674148713387712	-3.0475311	14.457825	2.2480316
1442674148721780046	-2.1047516	13.12883	2.9019012
1442674148730172380	-0.50102234	11.662949	1.9472504
1442674148738564714	0.76712036	10.538757	0.9089813
1442674148746957048	1.5446777	10.019531	0.35377502
1442674148755349382	2.6156006	9.295731	-0.036636353
1442674148763741716	3.3805084	8.691666	0.08912659
1442674148772134050	4.2686615	8.100403	0.08451843
1442674148780526384	4.3503265	7.6286774	-0.15385437
1442674148788918718	4.113205	7.217407	-0.4147644
1442674148797311052	3.5222778	6.9908447	-1.1812592
1442674148805703386	2.7649841	7.0433807	-1.6478271
1442674148814095720	1.7918701	7.4072723	-1.8174744
1442674148822488054	1.1332092	7.358429	-1.6272583
1442674148830880388	0.4537201	7.1088867	-1.4859009
1442674148839272722	-0.107543945	6.1441956	-1.3599243
1442674148847665056	-0.19673157	4.9782104	-0.68032837
1442674148856057390	-0.32269287	4.307266	0.22071838
1442674148864449724	-0.63179016	4.2372284	0.8903198
1442674148872842058	-0.8761444	4.3871155	1.9202881
1442674148881234392	-0.9002533	4.9501038	2.901352
1442674148889626726	-1.3465729	5.943344	3.1815338
1442674148898019060	-1.4362183	6.326294	3.0905304
1442674148906411394	-1.3854523	6.5248566	2.9568634
1442674148914803728	-1.566803	6.694748	2.1845398
1442674148923196062	-1.0306244	6.399475	1.819519
1442674148931588396	-0.52531433	5.964569	1.9311829
1442674148939980730	-0.12754822	5.6509857	2.2518463
1442674148948373064	0.38449097	5.31868	2.7230988
1442674148956765398	1.3101044	4.9306183	3.5187988
1442674148965157732	2.2736511	4.633957	3.9912872
1442674148973550066	2.9792175	4.4842377	4.1769867
1442674148981942400	3.5460815	4.507187	4.5611267
1442674148990334734	3.8616638	4.5890656	5.0520477
1442674148998727068	3.918045	4.675537	5.5157166
1442674149007119402	3.9946442	5.1341705	6.0162964
1442674149015511736	4.296631	5.6763306	6.253296
1442674149023904070	4.637863	6.2135468	6.43515
1442674149032296404	5.358124	7.640564	6.7000427
1442674149040688738	5.700943	9.371246	5.9884796
1442674149049081072	5.97789	10.657089	5.333023
1442674149057473406	6.1437836	12.248184	4.726822
1442674149065865740	5.7389984	14.588364	4.379547
1442674149074258074	4.933197	16.116241	4.5451508
1442674149082650408	4.5875244	16.472183	5.2105865
1442674149091042742	4.5997467	16.231201	5.9450836
1442674149099435076	4.7517395	14.825851	7.441742
1442674149107827410	4.380554	12.104996	8.68721
1442674149116219744	3.388626	9.412888	8.854752
1442674149124612078	2.7411346	8.186539	8.439117
1442674149133004412	2.2077637	7.2997437	7.94046
1442674149141396746	1.656311	7.405075	6.824234
1442674149149789080	1.8469849	10.653397	4.9760284
1442674149158181414	1.0908356	15.263138	3.2114868
1442674149166573748	0.2188263	17.41713	2.2173767
1442674149174966082	-0.8403778	18.97696	0.9012146
1442674149183358416	-1.8487549	17.100372	-0.059692383
1442674149191750750	-2.3310852	10.931656	1.841217
1442674149200143084	-3.0945587	6.0158386	3.2267914
1442674149208535418	-3.5315247	3.4512024	3.058426
1442674149216927752	-3.9797974	1.1634979	2.2901459
1442674149225320086	-4.170059	0.131073	1.9272766
1442674149233712419	-3.3189545	1.2510376	0.8068695
1442674149242104753	-2.5435486	3.5336761	-0.9287567
1442674149250497087	-1.8379822	5.9440765	-2.720337
1442674149258889421	-0.7381897	10.412689	-6.1455383
1442674149267281755	0.4855194	13.249939	-5.9564667
1442674149275674089	0.79652405	15.445419	-3.4679413
1442674149284066423	1.4545593	15.95372	-1.9725952
1442674149292458757	2.630783	15.728531	-0.6522522
1442674149300851091	4.2720947	13.218582	0.24421692
1442674149309243425	4.427704	9.826508	1.0207672
1442674149317635759	3.9589996	7.9602356	1.2441406
1442674149326028093	3.4468384	7.1884613	1.0121765
1442674149334420427	2.0371094	6.4983826	0.3914795
1442674149342812761	0.47349548	6.2741547	-0.8532257
1442674149351205095	-0.707901	6.5618744	-1.5763092
1442674149359597429	-0.9742279	6.9164124	-1.83461
1442674149367989763	-1.1100769	7.2732544	-2.0459747
1442674149376382097	-0.60621643	8.115067	-1.9504547
1442674149384774431	0.10713196	8.972397	-1.8112946
1442674149393166765	0.4903412	9.757904	-2.013977
1442674149401559099	0.5565338	9.968689	-1.8192749
1442674149409951433	0.5592804	10.026489	-1.4924316
1442674149418343767	0.4501953	9.619904	-1.0773163
1442674149426736101	0.40901184	8.834091	-0.7273407
1442674149435128435	0.40626526	8.269104	-0.36314392
1442674149443520769	0.38249207	7.9741516	-0.09710693
1442674149451913103	0.34474182	7.918686	0.026412964
1442674149460305437	0.21087646	8.159134	-0.09489441
1442674149468697771	-0.05126953	8.182022	-0.49336243
1442674149477090105	-0.107803345	8.068924	-0.69584656
1442674149485482439	-0.11540222	7.9509583	-0.86227417
1442674149493874773	0.4060669	7.9393005	-0.7392273
1442674149502267107	0.9395752	8.256439	-0.33688354
1442674149510659441	1.5186768	8.731186	-0.20198059
1442674149519051775	1.6671143	8.943878	-0.20648193
1442674149527444109	1.8294373	9.118988	-0.22990417
1442674149535836443	2.0488281	9.151657	-0.43632507
1442674149544228777	2.3997955	9.148193	-0.5742035
1442674149552621111	2.7659454	9.337631	-0.4353943
1442674149561013445	3.0891724	9.619095	-0.25804138
1442674149569405779	3.6567078	10.156708	0.0881958
1442674149577798113	3.9280396	10.564178	0.28163147
1442674149586190447	3.821869	10.772491	0.59098816
1442674149594582781	3.6413422	10.868378	0.72032166
1442674149602975115	3.4485168	10.946686	0.74809265
1442674149611367449	3.1416626	10.880905	-0.2746277
1442674149619759783	2.8709717	10.745987	-1.4076538
1442674149628152117	2.7177124	10.609756	-1.4329224
1442674149636544451	2.4947357	10.623901	-0.9715271
1442674149644936785	2.194809	10.840973	-0.37338257
1442674149653329119	1.980133	11.203217	0.27485657
1442674149661721453	1.8596649	11.670074	0.09033203
1442674149670113787	1.8782959	12.017853	-0.25761414
1442674149678506121	2.0177307	12.197128	-0.39385986
1442674149686898455	2.5827332	12.315201	-1.6748505
1442674149695290789	3.682541	12.166077	-2.442276
1442674149703683123	4.5628967	12.200638	-2.5049286
1442674149712075457	4.512787	12.141724	-2.3694763
1442674149720467791	4.3194885	12.083374	-2.1425629
1442674149728860125	3.0437317	12.258926	-1.1908875
1442674149737252459	1.1475372	13.341354	0.16786194
1442674149745644793	-0.2758026	14.15477	1.3707886
1442674149754037127	-0.98973083	14.481857	1.7203674
1442674149762429461	-1.4820251	14.581924	1.6200867
1442674149770821794	-1.9581909	14.379364	0.5339813
1442674149779214128	-2.4898682	14.285385	-0.725647
1442674149787606462	-2.5040894	14.369232	-1.1102905
1442674149795998796	-2.3151703	14.493271	-1.1443481
1442674149804391130	-1.677063	14.784561	-1.1289063
1442674149812783464	-0.7622986	14.041565	-0.4278412
1442674149821175798	0.30517578	12.594757	0.96151733
1442674149829568132	0.8520355	12.236832	1.3252258
1442674149837960466	1.3849335	11.893463	1.3967285
1442674149846352800	1.6796265	11.582642	4.272461E-4
1442674149854745134	1.4860382	10.978394	-0.70840454
1442674149863137468	1.3888245	10.2951355	-0.65815735
1442674149871529802	1.1619873	10.040024	-0.5964813
1442674149879922136	0.9032135	9.6800995	-0.46835327
1442674149888314470	0.8519592	9.008499	-0.40855408
1442674149896706804	0.7674408	8.17424	-0.42337036
1442674149905099138	0.5093231	7.801071	-0.34362793
1442674149913491472	0.2291565	7.618561	-0.23117065
1442674149921883806	-0.113082886	7.534073	-0.12579346
1442674149930276140	-0.38053894	7.707489	-0.60583496
1442674149938668474	-0.121673584	7.423996	-1.0073547
1442674149947060808	0.021621704	7.131607	-0.9662323
1442674149955453142	0.14250183	6.768265	-0.8941498
1442674149963845476	0.185318	6.1046295	-0.6795807
1442674149972237810	0.26931763	5.584305	-0.3486023
1442674149980630144	0.14283752	5.512329	0.04107666
1442674149989022478	-0.2889862	5.65242	0.2749939
1442674149997414812	-0.7311859	5.6859894	0.5116577
1442674150005807146	-0.9731293	5.5298157	0.8982086
1442674150014199480	-1.0167847	5.277878	1.1554565
1442674150022591814	-1.0302734	5.010559	1.305191
1442674150030984148	-0.96577454	4.451172	1.5988617
1442674150039376482	-0.9573364	3.9808502	2.0843048
1442674150047768816	-0.90304565	3.6854095	2.9900818
1442674150056161150	-0.49183655	3.5266724	3.81781
1442674150064553484	-0.042663574	3.5157623	4.1063385
1442674150072945818	0.49057007	3.660736	4.4933624
1442674150081338152	1.3591766	4.337616	5.08609
1442674150089730486	2.1443787	4.83078	5.357712
1442674150098122820	2.572998	4.977936	5.585846
1442674150106515154	3.005188	5.344986	6.1280518
1442674150114907488	3.2215729	6.212219	6.3876038
1442674150123299822	3.1655273	7.4865417	6.0911255
1442674150131692156	3.0966644	8.416473	6.0181427
1442674150140084490	3.0471802	9.163818	6.061844
1442674150148476824	2.9588776	10.337128	6.339569
1442674150156869158	3.0683289	11.655991	6.575531
1442674150165261492	3.556137	13.469452	6.5597534
1442674150173653826	3.9789581	14.326035	6.47171
1442674150182046160	4.3884125	15.015686	6.3454437
1442674150190438494	4.703232	14.679245	6.2506714
1442674150198830828	4.67453	13.185074	6.869568
1442674150207223162	4.2588196	11.707642	7.7031555
1442674150215615496	3.9561615	10.869049	8.285355
1442674150224007830	3.6517487	10.259201	8.747086
1442674150232400164	3.3395844	10.364914	8.35556
1442674150240792498	2.7944489	11.826553	6.830017
1442674150249184832	2.6455536	13.967148	5.5885925
1442674150257577166	2.6654663	16.173843	4.545639
1442674150265969500	0.98231506	20.507263	2.565918
1442674150274361834	-0.51724243	21.21579	-0.63124084
1442674150282754168	-1.2492065	14.297119	-0.58769226
1442674150291146502	-2.197052	9.405624	1.5592499
1442674150299538836	-3.1558075	4.088196	3.0976563
1442674150307931169	-3.9604797	-1.3902283	2.1480865
1442674150316323503	-4.4384613	-3.3292084	1.1270447
1442674150324715837	-4.637848	-3.32193	1.6375275
1442674150333108171	-4.2388	-2.269989	1.8457336
1442674150341500505	-2.5998993	1.6528625	-1.0974731
1442674150349892839	-0.96240234	7.8623505	-6.027054
1442674150358285173	-0.145401	13.54039	-7.9606323
1442674150366677507	-0.33403015	16.873398	-6.360794
1442674150375069841	-0.76200867	19.634674	-4.1013947
1442674150383462175	0.9752197	22.001236	0.5511322
1442674150391854509	5.093231	18.371216	0.39788818
1442674150400246843	5.893341	12.686737	0.8821106
1442674150408639177	5.025818	10.415131	1.569046
1442674150417031511	4.047287	7.9915314	1.9096375
1442674150425423845	2.7489777	5.6666565	0.9104614
1442674150433816179	1.2537079	4.786743	-0.5764313
1442674150442208513	0.0129852295	4.737732	-1.2397003
1442674150450600847	-0.6900177	4.891968	-1.4665375
1442674150458993181	-1.2311096	5.4924316	-1.7245789
1442674150467385515	-0.88253784	6.5432434	-1.823822
1442674150475777849	-0.16441345	7.493973	-1.3403778
1442674150484170183	0.2590332	8.169388	-1.1732178
1442674150492562517	0.6182556	8.797852	-1.1102448
1442674150500954851	1.0500336	9.837814	-1.2811279
1442674150509347185	1.0292358	10.027695	-1.0696411
1442674150517739519	0.8935394	9.610107	-0.8273773
1442674150526131853	0.9012451	9.180206	-0.5818939
1442674150534524187	1.0239868	8.5907135	-0.21826172
1442674150542916521	1.1930847	7.929138	0.330307
1442674150551308855	1.0279694	7.9554596	0.5833435
1442674150559701189	0.9924927	8.153275	0.5723114
1442674150568093523	1.0503235	8.272797	0.4958496
1442674150576485857	1.1248932	8.316193	0.306015
1442674150584878191	1.2361908	8.285461	-0.229599
1442674150593270525	1.157486	8.281311	-0.6833801
1442674150601662859	1.1453247	8.323029	-0.82865906
1442674150610055193	1.1530457	8.370575	-0.9314728
1442674150618447527	1.2574615	8.628632	-1.0306702
1442674150626839861	1.3645782	9.140396	-0.81484985
1442674150635232195	1.4269409	9.543289	-0.45773315
1442674150643624529	1.496994	9.772705	-0.19169617
1442674150652016863	1.6138306	10.010239	0.18725586
1442674150660409197	1.8054352	10.184738	0.5966339
1442674150668801531	1.95224	10.184738	0.568985
1442674150677193865	1.8358154	10.126724	0.38432312
1442674150685586199	1.5235138	10.075958	0.22109985
1442674150693978533	1.3295593	10.0009	-0.14527893
1442674150702370867	1.1331024	10.189896	-0.4563446
1442674150710763201	1.0892792	10.727417	-0.55007935
1442674150719155535	1.2758636	10.858307	-0.82922363
1442674150727547869	1.5021362	10.922058	-1.1562653
1442674150735940203	2.190918	10.599533	-2.0616608
1442674150744332537	2.5569458	10.252441	-2.2265778
1442674150752724871	2.7054138	10.282715	-1.6604309
1442674150761117205	2.5833282	10.502487	-1.1816864
1442674150769509539	2.2779999	10.767456	-0.5019684
1442674150777901873	1.5270844	11.045242	0.28575134
1442674150786294207	0.7047272	11.315384	0.45877075
1442674150794686541	0.37069702	11.575806	0.3605652
1442674150803078875	0.3115692	11.784012	0.29566956
1442674150811471209	0.5947113	12.212631	-0.29888916
1442674150819863543	1.5332336	12.200729	-0.55574036
1442674150828255877	2.6632385	11.812393	-0.99594116
1442674150836648211	3.0966492	11.558594	-1.3111115
1442674150845040544	3.4543915	11.302475	-1.602478
1442674150853432878	3.4474792	10.962601	-1.6580963
1442674150861825212	3.078003	11.374985	-1.1095734
1442674150870217546	2.5684662	11.791916	-0.60046387
1442674150878609880	2.1616974	12.196747	-0.4880066
1442674150887002214	1.4488525	12.803513	-0.11210632
1442674150895394548	0.11540222	13.653183	0.24554443
1442674150903786882	-1.4063568	14.172852	-0.10481262
1442674150912179216	-2.3507538	14.203903	-0.2549286
1442674150920571550	-2.9503021	14.077957	-0.13990784
1442674150928963884	-3.1283875	13.910004	0.34483337
1442674150937356218	-2.6277924	13.891815	0.6447449
1442674150945748552	-1.5356903	13.431641	0.9044342
1442674150954140886	-0.7609863	12.758438	1.2331238
1442674150962533220	0.09098816	12.092987	1.5299835
1442674150970925554	1.6078491	11.570709	1.4654694
1442674150979317888	2.5293274	11.216461	1.0001526
1442674150987710222	2.9502563	10.92421	0.45944214
1442674150996102556	3.1918793	10.642105	0.15678406
1442674151004494890	3.4450836	10.153412	-0.09286499
1442674151012887224	3.145691	9.5247345	0.094314575
1442674151021279558	2.7255554	9.10849	0.32983398
1442674151029671892	2.5861206	8.768539	0.35939026
1442674151038064226	2.115326	8.255234	-0.036331177
1442674151046456560	1.4005127	7.840637	0.020507813
1442674151054848894	0.8174896	7.575821	0.15266418
1442674151063241228	0.61343384	7.584198	-0.016677856
1442674151071633562	0.38763428	7.6056366	-0.16563416
1442674151080025896	-0.29014587	7.4690094	0.14871216
1442674151088418230	-0.11291504	6.748474	0.19021606
1442674151096810564	0.056884766	6.1103363	0.42381287
1442674151105202898	0.18412781	5.7414856	0.6037445
1442674151113595232	0.13830566	5.358124	0.8529968
1442674151121987566	0.1184845	4.8424683	1.3177185
1442674151130379900	-0.048217773	4.454117	1.6630859
1442674151138772234	-0.5096588	4.4032135	1.7077484
1442674151147164568	-0.9434204	4.437271	1.6891022
1442674151155556902	-1.7937927	4.837906	1.6366119
1442674151163949236	-1.1271057	4.2828217	1.6977844
1442674151172341570	-0.9677582	4.3092346	2.175644
1442674151180733904	-0.56648254	4.189621	2.4958801
1442674151189126238	-0.08917236	4.0251007	2.8453827
1442674151197518572	0.7927704	3.632141	3.474594
1442674151205910906	1.1846008	3.7075806	3.9672852
1442674151214303240	1.8483582	4.0662384	4.142975
1442674151222695574	2.2384186	4.422241	4.281784
1442674151231087908	2.7584534	5.107712	4.5707245
1442674151239480242	3.2588196	6.4544067	4.977234
1442674151247872576	3.2604065	8.108429	5.1378937
1442674151256264910	3.0533142	9.2235565	5.1249237
1442674151264657244	2.858612	10.040298	5.0895844
1442674151273049578	2.4433594	11.5464325	5.8875732
1442674151281441912	2.081314	13.11322	7.3864594
1442674151289834246	2.0052338	14.158798	7.949234
1442674151298226580	2.2134247	14.29631	7.6356354
1442674151306618914	2.4715424	14.328201	7.187256
1442674151315011248	2.9931183	13.635361	6.0129395
1442674151323403582	3.4107819	12.57077	5.3930206
1442674151331795916	3.7828522	11.71962	5.6698
1442674151340188250	4.047592	11.214523	6.1408234
1442674151348580584	4.555252	10.722061	7.1446686
1442674151356972918	4.983017	10.611893	8.366379
1442674151365365252	4.893799	10.264664	8.495605
1442674151373757586	4.70282	9.71521	7.960327
1442674151382149919	4.5331726	9.2127075	7.3492126
1442674151390542253	4.1915436	9.243332	5.608917
1442674151398934587	3.6894073	11.344925	3.7093658
1442674151407326921	1.2766113	14.660751	2.736145
1442674151415719255	-0.19688416	15.384323	1.9637299
1442674151424111589	-1.484726	15.609711	1.051117
1442674151432503923	-1.7626495	12.707718	0.33117676
1442674151440896257	-2.1234894	7.350815	2.4175873
1442674151449288591	-3.28096	3.7522278	3.948059
1442674151457680925	-3.674881	2.2845154	3.4461823
1442674151466073259	-4.243286	0.9015198	2.347641
1442674151474465593	-4.5427704	0.6138458	0.96476746
1442674151482857927	-4.114746	2.8018646	-0.8839264
1442674151491250261	-3.703598	5.758774	-2.7051392
1442674151499642595	-3.3784485	8.669128	-4.4009705
1442674151508034929	-1.39888	13.673035	-6.294754
1442674151516427263	0.5778961	17.060028	-6.1576385
1442674151524819597	2.69516	17.331055	-3.9627075
1442674151533211931	3.606369	15.944962	-1.888382
1442674151541604265	4.379608	13.999878	0.27539063
1442674151549996599	4.3664703	10.364792	1.9611053
1442674151558388933	3.6951752	7.804199	1.3513184
1442674151566781267	3.112381	6.4688873	0.489563
1442674151575173601	2.4871216	6.0621033	0.053878784
1442674151583565935	1.5601501	6.096863	-0.59477234
1442674151591958269	0.6557617	6.7295837	-1.4611664
1442674151600350603	0.31407166	7.6309357	-2.0398407
1442674151608742937	0.5138855	8.030426	-2.160736
1442674151617135271	0.8223419	8.265625	-2.185791
1442674151625527605	1.5140076	8.528854	-1.7347565
1442674151633919939	1.7575836	8.734879	-1.0561218
1442674151642312273	2.2469635	8.745224	-0.4460144
1442674151650704607	2.363266	8.765793	-0.41453552
1442674151659096941	2.378006	8.763779	-0.29881287
1442674151667489275	2.2836761	8.53511	0.00289917
1442674151675881609	2.345398	8.0698395	0.11508179
1442674151684273943	1.9941101	7.849518	0.14118958
1442674151692666277	1.58992	7.7364197	0.17974854
1442674151701058611	1.1845703	7.664963	-0.078567505
1442674151709450945	0.7397461	7.93515	-0.33963013
1442674151717843279	0.43327332	8.300781	-0.3238678
1442674151726235613	0.49546814	8.443939	-0.18400574
1442674151734627947	0.6323395	8.539047	-0.029785156
1442674151743020281	0.9457855	8.826752	0.27513123
1442674151751412615	1.1854248	9.320328	0.7829132
1442674151759804949	1.5232086	9.629013	0.6683655
1442674151768197283	1.5887451	9.611023	0.37469482
1442674151776589617	1.7421417	9.584061	0.09429932
1442674151784981951	2.060669	9.4565735	-0.07925415
1442674151793374285	2.2964172	9.228958	-0.13526917
1442674151801766619	2.4371948	9.15213	-0.18548584
1442674151810158953	2.4763947	9.173981	-0.2098999
1442674151818551287	2.5871582	9.545044	0.0650177
1442674151826943621	2.4904022	10.328751	0.46746826
1442674151835335955	2.2043	10.904755	0.44459534
1442674151843728289	1.991394	10.97644	0.03541565
1442674151852120623	1.7966919	10.970657	-0.42340088
1442674151860512957	1.8986206	10.791321	-1.6712494
1442674151868905291	2.362381	10.584549	-2.412384
1442674151877297625	2.5239258	10.429596	-1.9927063
1442674151885689959	2.4468079	10.491928	-1.3770905
1442674151894082293	2.3272247	10.709259	-0.5966034
1442674151902474627	1.9827728	11.263016	0.25131226
1442674151910866961	1.3995361	11.6866	0.4996643
1442674151919259294	0.9990387	11.868698	0.397995
1442674151927651628	0.78697205	11.997864	0.17758179
1442674151936043962	0.84898376	11.985672	-0.2265625
1442674151944436296	1.5505981	11.808411	-0.42547607
1442674151952828630	2.6295319	11.354813	-0.7772064
1442674151961220964	3.1174927	10.959381	-1.2043152
1442674151969613298	3.50914	10.58046	-1.6218262
1442674151978005632	3.3355865	10.296707	-1.3093872
1442674151986397966	2.5552673	10.588257	-0.05088806
1442674151994790300	1.9517822	11.221436	0.74516296
1442674152003182634	1.4826813	11.888458	0.8762512
1442674152011574968	0.84814453	12.922806	0.6965637
1442674152019967302	-0.25164795	14.416489	-0.19274902
1442674152028359636	-1.6005402	15.314209	-0.82011414
1442674152036751970	-2.4070587	15.636444	-0.89105225
1442674152045144304	-2.7919922	15.791306	-0.90133667
1442674152053536638	-2.9185486	16.0168	-0.853302
1442674152061928972	-2.713089	15.571182	-0.62431335
1442674152070321306	-2.1796722	14.434906	0.8821106
1442674152078713640	-1.5133667	13.8237	1.7527466
1442674152087105974	-0.78904724	13.263306	2.4919739
1442674152095498308	0.73565674	12.562775	2.2039795
1442674152103890642	1.6729889	11.635635	1.2617798
1442674152112282976	2.2352753	11.250061	0.74961853
1442674152120675310	2.9865875	10.722885	0.4150238
1442674152129067644	3.7525787	10.000336	0.49649048
1442674152137459978	3.7411194	9.340134	0.47366333
1442674152145852312	3.2739105	8.55864	-0.13690186
1442674152154244646	2.9278412	8.126358	-0.6607666
1442674152162636980	2.7710419	7.9406586	-0.9216614
1442674152171029314	2.472458	7.651947	-1.0685425
1442674152179421648	1.3790436	7.5531464	-0.9420166
1442674152187813982	0.7340393	7.5464783	-0.9358368
1442674152196206316	0.16796875	7.535385	-0.95347595
1442674152204598650	-0.50382996	7.072586	-0.9626007
1442674152212990984	-0.9797821	6.4292145	-0.5074158
1442674152221383318	-0.7952118	5.560852	-0.23788452
1442674152229775652	-0.65127563	5.061554	0.03907776
1442674152238167986	-0.49645996	4.514801	0.49658203
1442674152246560320	-0.5315857	4.0136414	1.3329926
1442674152254952654	-0.7121124	3.6015625	2.0940094
1442674152263344988	-0.84840393	3.3442993	2.3735352
1442674152271737322	-1.0418243	3.256256	2.4146576
1442674152280129656	-1.352951	3.1796722	2.2515106
1442674152288521990	-1.314621	3.22023	2.1607819
1442674152296914324	-1.0452423	3.5196838	2.2729034
1442674152305306658	-0.9374695	3.6810303	2.4236298
1442674152313698992	-0.80807495	3.8296967	2.5998077
1442674152322091326	0.009307861	3.954895	3.093521
1442674152330483660	1.2799683	3.7603302	3.270752
1442674152338875994	2.0122223	4.201355	4.2203217
1442674152347268328	2.4093475	4.6749573	4.717697
1442674152355660662	2.9237213	5.3174133	5.438141
1442674152364052996	3.6653748	6.2877197	6.305893
1442674152372445330	4.6142883	7.604492	6.5581055
1442674152380837664	5.2709045	8.755585	6.4138336
1442674152389229998	5.6622467	9.661652	6.239044
1442674152397622332	5.6381683	11.546829	6.229828
1442674152406014666	5.082733	14.090134	6.2466583
1442674152414407000	4.563278	16.750153	6.7963257
1442674152422799334	4.4190063	17.369171	6.4693146
1442674152431191668	4.2847443	17.709396	6.0577393
1442674152439584002	4.030304	15.98024	5.3921356
1442674152447976336	3.5793915	12.682922	5.6995697
1442674152456368669	3.43779	9.827789	6.6463623
1442674152464761003	3.2064514	8.511093	7.217636
1442674152473153337	2.644867	6.8090057	8.089462
1442674152481545671	1.7754974	5.3721466	9.015381
1442674152489938005	1.352768	6.0892334	8.614716
1442674152498330339	1.4628601	7.6048737	7.481476
1442674152506722673	1.7288971	8.989029	6.3504944
1442674152515115007	2.0746765	12.286163	4.7490997
1442674152523507341	1.2682037	16.229904	3.4892578
1442674152531899675	-0.81240845	18.861694	2.0019836
1442674152540292009	-1.379364	18.828354	0.44528198
1442674152548684343	-1.8460693	18.311691	-0.9454346
1442674152557076677	-2.0429688	14.135025	-0.5961151
1442674152565469011	-3.2959137	7.972397	1.6017609
1442674152573861345	-3.7529602	3.9302979	1.7621918
1442674152582253679	-3.794098	2.3578491	1.6304474
1442674152590646013	-3.62706	0.4808197	1.4604492
1442674152599038347	-2.8708954	-0.3191681	0.5382538
1442674152607430681	-1.962143	2.8130798	-1.4590759
1442674152615823015	-1.4403839	6.256958	-3.2513275
1442674152624215349	-1.0548248	9.045227	-4.808365
1442674152632607683	-0.05455017	12.768753	-6.420822
1442674152641000017	1.114502	15.404648	-5.383194
1442674152649392351	2.7312775	16.120422	-2.6038666
1442674152657784685	3.3533173	15.192505	-1.5564117
1442674152666177019	3.9229126	13.904068	-0.53671265
1442674152674569353	4.01416	10.98732	0.27445984
1442674152682961687	3.3844452	8.806656	0.69189453
1442674152691354021	2.7016144	7.5983276	0.6270294
1442674152699746355	2.0031128	7.260971	0.38734436
1442674152708138689	0.8054352	7.1288757	0.11174011
1442674152716531023	-0.5002289	7.2606354	-0.26605225
1442674152724923357	-0.8640747	7.190872	-0.61660767
1442674152733315691	-0.6267395	7.248398	-0.8041992
1442674152741708025	-0.29707336	7.4077606	-0.9442749
1442674152750100359	0.28901672	7.8715515	-1.2365723
