accelerometer_timestamp	accelerometer_x_data	accelerometer_y_data	accelerometer_z_data
974856810766953	-5.062805	10.133682	0.7226105
974856815832871	-4.9873962	10.160019	0.92251587
974856820929307	-4.9802094	10.000793	1.1092682
974856825964707	-4.935913	9.998398	1.4037628
974856831030625	-4.68692	9.842789	1.4624176
974856836096543	-4.2894745	9.557877	1.3187561
974856841162461	-3.4850311	9.13649	0.99435425
974856846258896	-2.444748	8.7079315	0.35510254
974856851324814	-1.2823639	8.303314	-0.4517517
974856856390732	-0.25524902	8.114166	-1.2753601
974856861456650	0.575531	8.202759	-2.1312866
974856866553086	1.1465607	8.88031	-2.5095673
974856871619004	1.5763092	10.149246	-2.5694275
974856876684922	1.7762299	11.683929	-2.4628754
974856881750840	1.9043121	13.223389	-2.255783
974856886847275	2.0886688	14.560562	-2.0163574
974856891913193	2.4477997	15.642731	-1.4513245
974856896979111	2.986496	16.455566	-0.5606842
974856902045029	3.2725983	16.906876	0.6495819
974856907141465	3.0295868	16.832657	1.686264
974856912329453	2.5196228	16.380142	2.2501068
974856917334336	2.1700745	16.011444	2.4320679
974856922369736	1.6649017	15.58168	1.9711761
974856927405137	1.125	14.985535	1.0865173
974856932471055	0.68566895	14.131989	0.0677948
974856937536973	0.25590515	13.303604	-0.61335754
974856942602891	0.011703491	12.855881	-0.7270813
974856947668808	-0.5736847	12.770889	-0.6947632
974856952765244	-1.4379883	12.845108	-1.0957947
974856957831162	-2.5692444	12.907364	-1.7122955
974856962897080	-4.306244	13.023483	-2.1085358
974856967962998	-6.0372467	12.9696045	-2.0953674
974856973028916	-6.4358826	12.520691	-2.3647156
974856978094834	-7.0906982	12.183121	-3.3451385
974856983160752	-7.1936493	11.858704	-3.5989227
974856988257187	-6.864441	11.474426	-3.4085846
974856993323105	-5.9773865	10.93573	-2.8746796
974856998389023	-4.4953766	10.304855	-1.3447876
974857003454941	-3.6442413	9.68956	-0.66363525
974857008520859	-3.1235046	9.222687	-0.05909729
974857013586777	-4.37088	8.8862915	-2.5143585
974857018652695	-3.749588	8.760605	-2.3431702
974857023749131	-3.7064972	8.221909	-1.9517212
974857028815049	-4.9778137	7.263031	-2.6735687
974857033880967	-4.44989	6.3352814	-2.1863556
974857038946885	-3.7998657	5.2327423	-1.140091
974857044012803	-4.1745605	4.3947754	-1.4070435
974857049078721	-4.1075287	3.792633	-1.1795807
974857054144639	-3.6370544	3.310196	-1.0119934
974857059241074	-3.2743378	3.1390228	-1.5183716
974857064306992	-2.7105103	3.0360718	-1.539917
974857069372910	-2.1777954	2.7918549	-1.781723
974857074438828	-1.7624054	2.6446075	-1.9517212
974857079504746	-1.3889008	2.6410217	-1.7661743
974857084570664	-1.0213928	2.6087036	-1.3088684
974857089636582	-0.9184418	2.6589813	-1.0814209
974857094733017	-0.6167755	2.6398315	-0.91981506
974857099798935	-0.3199005	2.7751007	-0.94854736
974857104864853	0.20562744	2.827774	-0.7294769
974857109930771	0.6832733	2.784668	-0.110580444
974857114996689	0.8867798	2.5560303	0.6100769
974857120062607	0.6581421	2.3501282	0.18630981
974857125128525	0.40673828	2.2483673	-0.47210693
974857130194443	0.5168762	2.183731	-0.9210205
974857135290879	0.7167969	2.1130981	-1.2645874
974857140356797	0.7311554	2.0735931	-1.1628265
974857145422715	0.6018677	1.9095917	-0.8779144
974857150488633	0.45941162	1.7910767	-1.0131836
974857155554551	0.46780396	1.828186	-1.0467072
974857160620469	0.54681396	1.8581238	-1.0634766
974857165716904	0.62342834	1.9107971	-0.98446655
974857170782822	0.6413727	1.9574738	-0.88391113
974857175848740	0.59588623	1.9263611	-0.9365692
974857180914658	0.4845581	2.017334	-1.089798
974857185980576	0.19606018	2.1741486	-1.2095184
974857191046494	-0.2121582	2.3285828	-1.4597168
974857196112412	-0.6359253	2.558426	-1.7649689
974857201178330	-1.0896301	2.7655182	-2.1276855
974857206274766	-1.6151581	2.9714203	-2.5718231
974857211340683	-2.1191406	3.3149872	-3.1284637
974857216406601	-2.6734009	3.8105927	-3.7952576
974857221472519	-3.14505	4.613846	-4.446472
974857226538437	-3.7639465	5.741516	-5.12883
974857231604355	-4.402008	7.096634	-5.8782043
974857236700791	-5.0903473	8.749832	-6.568939
974857241766709	-6.319763	10.480835	-7.2057953
974857246832627	-10.529968	12.144806	-5.6723022
974857251898545	-8.262665	14.3606415	-10.174606
974857256964463	-10.466522	15.924057	-10.987442
974857262060898	-13.310837	17.29953	-11.183762
974857267126816	-15.252533	18.658234	-10.817444
974857272192734	-16.498718	19.492615	-9.948349
974857277258652	-16.628006	19.339386	-9.025391
974857282294053	-15.454834	18.045319	-8.030594
974857287390488	-13.997971	15.67865	-7.3374786
974857292486924	-12.379486	13.084534	-6.793991
974857297552842	-10.927399	10.954895	-6.3690186
974857302618760	-9.805725	9.335205	-6.2624817
974857307684678	-8.4517975	8.099808	-6.055374
974857312750596	-6.9973297	7.1229706	-6.097275
974857317816514	-6.133011	6.277817	-6.395355
974857322882432	-5.006546	5.8217163	-6.4647827
974857327948349	-3.7723389	5.6756744	-6.512665
974857333014267	-2.5345306	5.870804	-6.279236
974857338080185	-1.3865051	6.437027	-5.809967
974857343146103	-1.1770172	7.3468323	-5.2425537
974857348212021	-1.4954529	8.636108	-4.670334
974857353277939	-2.0113983	10.083405	-4.2621155
974857358374375	-2.5273438	11.868271	-3.6683655
974857363440293	-2.9858398	14.394165	-2.5011902
974857368506211	-3.4694672	17.328247	0.09892273
974857373572129	-3.3078613	19.958282	3.3574219
974857378668564	-2.1837769	21.710846	5.4236145
974857383734482	-0.35101318	22.24115	5.592407
974857388800400	1.9294586	20.771118	4.311508
974857393866318	3.7921448	16.639923	3.046173
974857398932236	3.500061	10.764557	2.0789185
974857403998154	1.8779755	5.5451965	1.2241974
974857409064072	1.3416748	2.345337	0.5777588
974857414129990	2.0443726	0.8345947	0.001953125
974857419226426	2.808136	0.34259033	-0.792923
974857424292344	2.9062958	0.4658966	-1.5279388
974857429358262	2.085083	1.0512695	-1.4345703
974857434424180	0.45343018	2.0436707	-0.9976349
974857439490098	-0.7532501	3.0312805	-0.6468811
974857444556016	-1.151886	3.9602356	-0.21113586
974857449621933	-1.5349579	4.8891754	0.54663086
974857454718369	-2.0784302	5.752289	1.3199615
974857459784287	-2.2208862	6.694412	1.8011932
974857464850205	-2.1215363	7.772995	1.8526611
974857469916123	-1.8869019	8.828842	2.057373
974857474982041	-1.6582489	9.536331	2.456009
974857480047959	-1.551712	10.005585	2.6990204
974857485113877	-1.74086	10.231842	2.919281
974857490179795	-1.9814758	10.223465	3.2855988
974857495276230	-2.4878387	10.309647	3.7404938
974857500372666	-2.9355621	10.498795	4.124771
974857505438584	-3.710083	10.764557	4.0553284
974857510504502	-4.6138916	11.044678	3.6626892
974857515570420	-5.3405304	11.179947	2.9958954
974857520636338	-5.6134796	11.133255	1.8574524
974857525702256	-5.3644714	11.072205	0.51431274
974857530768174	-5.0161285	11.069809	-0.27816772
974857535834092	-4.6138916	11.0327	-0.35838318
974857540930527	-4.251175	10.901016	-0.1381073
974857545996445	-3.6681824	10.471252	0.17912292
974857551062363	-3.0720367	9.794891	0.64120483
974857556128281	-2.7835236	8.871933	1.0877228
974857561194199	-2.6650085	7.750244	1.2792511
974857566260117	-2.39328	6.6920166	1.4324799
974857571326035	-2.0509033	5.748703	1.3977661
974857576391953	-1.6893768	5.089096	1.0984955
974857581457871	-1.3709564	4.7778473	0.78126526
974857586554307	-1.2368774	4.914322	0.49993896
974857591620224	-1.3075104	5.4434357	0.41015625
974857596686142	-1.3745422	6.263443	0.4915619
974857601752060	-1.527771	7.065506	0.37304688
974857606817978	-1.5684662	7.840027	0.22581482
974857611914414	-1.8294373	8.508011	0.05821228
974857616980332	-2.2376556	8.868347	0.18031311
974857622046250	-2.6315002	9.045517	1.0601807
974857627112168	-2.0281525	9.172409	0.5993042
974857632178086	-0.78915405	9.283737	-0.75102234
974857637244004	-0.8334503	9.208313	-0.32725525
974857642309922	-1.117157	8.972488	0.1587677
974857647406357	-1.2967224	8.779755	0.68310547
974857652472275	-1.5014343	8.519989	1.638382
974857657538193	-1.448761	8.38472	1.8323212
974857662604111	-1.6355133	8.339218	1.9137268
974857667670029	-2.1143494	8.308105	2.0849
974857672735947	-2.2603912	8.296127	1.9843445
974857677801865	-2.3250427	8.285355	1.5138855
974857682898301	-2.595581	8.172821	0.76330566
974857687964219	-2.7655792	8.036362	-0.021987915
974857693030137	-2.8673248	7.9022827	-0.6576538
974857698096055	-2.8433838	7.800522	-0.88391113
974857703161973	-2.860138	7.701172	-0.9246063
974857708227891	-2.8912659	7.630539	-0.93418884
974857713324326	-2.9403534	7.5659027	-0.8240509
974857718390244	-2.939148	7.6042023	-0.4912567
974857723456162	-2.7907104	7.623352	-0.16564941
974857728522080	-2.6039581	7.7442627	0.22221375
974857733587998	-2.7512054	7.8939056	0.45924377
974857738653916	-2.793106	8.122543	0.7405548
974857743719834	-2.848175	8.442169	1.0649719
974857748816269	-2.8864746	8.7630005	1.2648926
974857753882187	-2.96669	9.083817	1.3917847
974857758948105	-3.049286	9.419006	1.3307343
974857764014023	-3.1630096	9.663223	1.0949097
974857769079941	-3.3353882	9.9409485	0.7692871
974857774145859	-3.5580597	10.20192	0.41255188
974857779211777	-3.8345795	10.431763	0.064193726
974857784277695	-4.0799866	10.587372	-0.23149109
974857789374131	-4.0799866	10.673569	-0.39907837
974857794440049	-4.062027	10.805252	-0.37393188
974857799505967	-4.0991364	10.879471	-0.2757721
974857804571885	-4.2308197	10.899826	-0.01600647
974857809637803	-4.357712	10.851944	0.38861084
974857814703721	-4.4163666	10.746597	0.68070984
974857819769639	-4.520523	10.588577	0.7501373
974857824866074	-4.464264	10.419785	0.6172638
974857829931992	-4.508545	10.34198	0.49874878
974857834997910	-4.7252197	10.349152	0.4508667
974857840063828	-5.0089417	10.556259	0.53227234
974857845129746	-5.168152	10.898621	0.7357788
974857850195664	-5.2974396	11.261353	0.82914734
974857855292099	-5.449478	11.540268	0.8878021
974857860358017	-5.286667	11.82518	0.9021759
974857865423935	-5.183716	12.111282	0.8016205
974857870489853	-5.157379	12.405777	0.6316223
974857875555771	-5.0759735	12.711029	0.30960083
974857880621689	-4.7467804	12.992355	0.095321655
974857885687607	-4.345749	13.097702	0.02947998
974857890753525	-3.9171753	12.845108	0.37783813
974857895849961	-3.8022614	12.363876	1.1248322
974857900915879	-3.915985	11.959259	1.9867401
974857905981797	-4.014145	11.580978	2.646347
974857911047715	-4.038086	11.187134	2.701416
974857916113633	-3.8609161	10.833984	2.0980682
974857921179551	-3.3593292	10.357529	1.1308136
974857926275986	-2.6278992	9.720673	0.33833313
974857931341904	-1.7229004	9.008408	-0.13931274
974857936407822	-0.8801422	8.3715515	-0.52597046
974857941473740	-0.14990234	8.012421	-0.8635559
974857946539658	0.28823853	7.9645233	-1.0443115
974857951605576	0.4043579	8.375137	-1.3208466
974857956671494	0.42948914	9.111359	-1.6368866
974857961737412	0.6030731	10.0594635	-1.9924164
974857966803330	0.8496704	11.177551	-2.4604797
974857971899766	1.140564	12.511124	-2.7908783
974857976965683	1.5870819	13.758499	-2.7753296
974857982031601	2.1700745	14.782013	-2.1935272
974857987097519	2.6728516	15.445221	-1.2370453
974857992163437	2.8775635	15.597244	-0.20036316
974857997259873	2.9146729	15.321915	0.76091003
974858002325791	3.0068512	14.907715	1.4037628
974858007391709	3.0032501	14.450424	1.6084595
974858012457627	2.9206543	13.868637	1.4899445
974858017523545	2.8380585	13.043823	1.0601807
974858022589463	2.7159576	12.171143	0.43769836
974858027655381	2.5519562	11.351135	-0.08543396
974858032721299	2.0958557	10.885452	-0.31048584
974858037787217	1.2902069	11.09256	-0.28414917
974858042853135	0.31336975	11.491196	-0.5211792
974858047949570	-0.9759064	11.875458	-1.3244324
974858053015488	-2.8457794	12.190292	-1.8619385
974858058081406	-4.3720856	12.236984	-1.7697601
974858063147324	-5.6529846	12.374649	-2.7202606
974858068213242	-6.243149	12.69548	-3.6575928
974858073279160	-6.42511	12.71463	-3.7988434
974858078375596	-5.899582	12.315994	-3.0710144
974858083441514	-5.330963	11.624069	-1.9577026
974858088507432	-4.393631	10.719055	-1.0323486
974858093573349	-3.7747345	9.792511	-0.46012878
974858098639267	-4.179352	9.027557	-1.3184509
974858103705185	-4.6366425	8.566666	-2.5227356
974858108771103	-4.355316	8.38472	-2.5945587
974858113867539	-3.6813507	8.0794525	-2.6927185
974858118933457	-3.6669922	7.0834656	-2.0402985
974858123999375	-3.9566803	5.9797363	-1.9253845
974858129065293	-3.8621216	5.029236	-1.8092651
974858134131211	-4.0548553	4.404358	-1.7709503
974858139197129	-3.9111938	4.069168	-2.0115662
974858144293564	-3.4120026	3.5460358	-1.8667297
974858149359482	-2.8816833	3.124649	-1.7039185
974858154425400	-2.5764313	2.9953613	-2.081009
974858159491318	-2.3022919	2.7535553	-2.1695862
974858164557236	-2.0245667	2.4937744	-2.0558624
974858169623154	-1.7683868	2.41716	-2.1085358
974858174689072	-1.3577881	2.4387207	-1.9840393
974858179754990	-1.0441437	2.4746246	-1.713501
974858184820908	-0.7628174	2.5464478	-1.3220367
974858189917344	-0.34861755	2.559616	-1.0754395
974858194983262	-0.094833374	2.6326447	-0.871933
974858200049180	-0.08885193	2.645813	-0.7653961
974858205115098	-0.04336548	2.566803	-0.53315735
974858210181016	-0.18701172	2.465042	-0.5822296
974858215246933	-0.3617859	2.499771	-0.9796753
974858220312851	-0.33425903	2.5165253	-1.014389
974858225409287	-0.32946777	2.4674377	-0.99523926
974858230475205	-0.40608215	2.4423065	-1.3088684
974858235541123	-0.270813	2.4818115	-1.3376007
974858240607041	-0.11639404	2.5500488	-1.2346497
974858245672959	-0.13912964	2.5129395	-1.0275574
974858250738877	-0.20378113	2.4913788	-0.86834717
974858255835312	-0.28279114	2.4937744	-0.88868713
974858260901230	-0.41445923	2.5404663	-0.98446655
974858265967148	-0.5964203	2.6039124	-1.085022
974858271033066	-0.7424774	2.772705	-1.2705688
974858276098984	-1.0608978	2.8864288	-1.539917
974858281164902	-1.4762878	3.0001526	-1.729065
974858286230820	-1.7923279	3.109085	-2.003189
974858291327256	-2.0987854	3.195282	-2.3790894
974858296393174	-2.4866486	3.2994232	-2.887848
974858301459092	-3.0385132	3.444275	-3.5474548
974858306525010	-3.6562195	3.7172241	-4.2058563
974858311590928	-4.381653	4.2415466	-4.8546906
974858316656846	-5.0400696	4.974167	-5.5573883
974858321722764	-5.37764	5.943817	-6.3450775
974858326788682	-5.83255	7.108597	-6.9927063
974858331854599	-6.4682007	8.372742	-7.670273
974858336951035	-7.4402466	9.666809	-8.212555
974858342016953	-8.833679	10.869888	-8.510635
974858347082871	-10.599396	12.003555	-8.788361
974858352148789	-12.345963	13.064178	-8.721329
974858357214707	-13.538284	14.201431	-8.607605
974858362280625	-14.026703	15.127975	-8.625549
974858367377060	-14.129654	15.795959	-8.630341
974858372442978	-13.71904	16.27002	-8.663864
974858377508896	-12.8954315	16.426834	-8.347824
974858382574814	-11.972473	16.314316	-7.714569
974858387640732	-10.907059	15.830673	-6.8717957
974858392706650	-9.410675	14.950806	-6.094879
974858397803086	-7.9250793	13.62442	-5.576538
974858402869004	-7.4007416	11.7473755	-4.1747284
974858407934922	-7.7119904	9.6093445	-3.7282104
974858413000840	-6.4358826	8.731873	-7.3135376
974858418066758	-3.931549	7.4785004	-6.841873
974858423132676	-2.7655792	5.7822113	-6.124817
974858428198594	-2.1981506	4.440262	-6.1918488
974858433264512	-1.120758	3.6597595	-6.252899
974858438360947	-0.7508545	3.052826	-6.0877075
974858443426865	-0.8585968	2.894806	-5.3921814
974858448492783	-1.3661652	3.100708	-4.448868
974858453558701	-2.0473175	3.7579193	-3.267334
974858458624619	-1.9515381	4.761093	-1.7386322
974858463690537	-1.3266602	5.903122	-0.39907837
974858468756455	-0.49227905	7.1385345	0.21025085
974858473852891	0.37921143	8.514008	0.06300354
974858478918808	1.0124817	10.386261	-0.2925415
974858483984726	1.69841	12.9648285	-0.29852295
974858489050644	2.3963318	15.821106	0.5609894
974858494116562	3.1265564	18.64746	2.6391602
974858499182480	4.145294	20.734009	4.313904
974858504248398	4.7833405	21.296646	4.29834
974858509344834	4.9856567	20.099548	3.7716217
974858514410752	2.5926514	16.753647	1.9927368
974858519476670	-3.994995	12.111282	1.8371124
974858524542588	-2.6494598	10.626877	-0.2865448
974858529608506	0.8772125	10.495209	-3.461258
974858534674424	-2.7356415	8.858765	-3.7976532
974858539740342	-3.9243622	7.4473877	-3.212265
974858544836777	-4.1625824	6.373581	-2.4233704
974858549902695	-4.184143	5.4422455	-1.4944305
974858554968613	-3.7591705	4.811371	-0.40026855
974858560034531	-3.413208	4.5013123	0.84950256
974858565100449	-3.4299622	4.251129	1.9400635
974858570166367	-3.358139	4.127823	2.7840118
974858575232285	-2.9211884	4.21521	3.5836792
974858580328721	-2.5297394	4.522873	4.172653
974858585394639	-2.1933594	4.922699	4.330673
974858590460557	-1.8174744	5.4470215	4.1499023
974858595526474	-1.6079712	6.1233826	3.6794434
974858600592392	-1.3493958	7.0032654	3.1970062
974858605658310	-0.93400574	8.105789	2.7337341
974858610724228	-0.7293091	9.262192	2.5709229
974858615790146	-1.2476501	10.5143585	2.3901672
974858620856064	-2.0018158	11.555832	2.1806793
974858625921982	-2.7739563	12.180725	2.0214539
974858630987900	-3.5113678	12.365067	1.7185974
974858636084336	-3.9686584	12.215439	1.4648132
974858641150254	-3.9878082	11.801239	1.7724609
974858646216172	-3.899231	11.147629	2.2955933
974858651282090	-3.7124786	10.369507	2.772049
974858656348008	-3.61911	9.53154	2.7660522
974858661413926	-3.3952484	8.658844	2.3171387
974858666479844	-3.2180786	7.7203217	1.4648132
974858671545762	-3.0037994	6.970932	0.44248962
974858676642197	-2.4878387	6.536392	-0.37753296
974858681708115	-2.0592804	6.356827	-0.95573425
974858686774033	-1.7779694	6.342453	-1.3388062
974858691839951	-1.6115723	6.4106903	-1.4549255
974858696905869	-1.5900116	6.74469	-1.2023315
974858701971787	-1.622345	7.2366943	-0.8240509
974858707037705	-1.6295166	7.852005	-0.39788818
974858712103623	-1.5900116	8.340424	-0.105789185
974858717200058	-1.6331177	8.646881	0.0031433105
974858722265976	-1.6546631	8.808487	0.073776245
974858727331894	-1.66185	8.752228	0.004348755
974858732397812	-1.5612946	8.620544	0.047439575
974858737463730	-1.6151581	8.420624	0.50712585
974858742529648	-1.6786041	8.080643	1.2852478
974858747595566	-1.5744629	7.7035675	2.0561829
974858752661484	-1.3601685	7.613785	2.804367
974858757757920	-1.0225983	7.5706787	3.006668
974858762823838	-0.9687195	7.4390106	2.6631012
974858767889756	-0.17984009	7.7035675	1.914917
974858772955674	-0.13075256	7.998047	1.2218018
974858778021592	-0.96273804	7.974106	0.5921173
974858783087510	-1.5552979	7.963333	0.37065125
974858788153428	-1.974289	8.062698	0.30122375
974858793249863	-2.365738	8.298523	0.013916016
974858798315781	-2.8230286	8.48288	-0.44696045
974858803381699	-3.1187134	8.491257	-0.85995483
974858808447617	-3.3629303	8.352386	-1.0503082
974858813513535	-3.5580597	8.163254	-1.0155792
974858818579453	-3.6298828	7.9753113	-0.8049011
974858823675889	-3.6717834	7.7682037	-0.40266418
974858828741807	-3.646637	7.6676483	0.047439575
974858833807724	-3.5772095	7.6891937	0.39698792
974858838873642	-3.4946136	7.7837677	0.6100769
974858843939560	-3.6143188	7.947769	0.75372314
974858849005478	-3.6167145	8.244659	0.79203796
974858854071396	-3.7711334	8.547516	0.86865234
974858859137314	-3.7615662	8.876724	1.092514
974858864233750	-3.749588	9.280151	1.1739197
974858869299668	-3.7699432	9.719482	1.2613068
974858874365586	-3.6167145	10.015167	1.1786957
974858879431504	-3.5460815	10.189941	0.8842163
974858884497422	-3.4670715	10.1827545	0.44607544
974858889563340	-3.3485565	10.092972	-0.014816284
974858894659775	-3.2348328	10.053467	-0.29133606
974858899725693	-3.2982788	10.029526	-0.49604797
974858904791611	-3.2204742	10.1432495	-0.65286255
974858909857529	-3.248001	10.266556	-0.6097717
974858914923447	-3.2516022	10.401825	-0.598999
974858919989365	-3.2300415	10.582596	-0.6157532
974858925055283	-3.2025146	10.729828	-0.5678711
974858930121201	-3.184555	10.928558	-0.4637146
974858935217637	-3.397644	11.116501	-0.29493713
974858940283555	-3.71846	11.302048	-0.067474365
974858945349473	-4.0632324	11.579773	0.16116333
974858950415391	-4.354126	11.84433	0.3634796
974858955481308	-4.6414337	12.031082	0.50593567
974858960547226	-4.9323273	12.0442505	0.5741577
974858965613144	-5.152588	12.025101	0.55500793
974858970679062	-5.2423706	12.019104	0.53585815
974858975775498	-5.3297577	11.955658	0.49516296
974858980841416	-5.3692627	11.934113	0.484375
974858985907334	-5.386032	11.940109	0.41255188
974858990973252	-5.433914	12.007141	0.18151855
974858996039170	-5.354904	12.186707	0.023498535
974859001105088	-5.062805	12.345917	0.11807251
974859006201523	-4.4989777	12.283676	0.58374023
974859011267441	-3.9770355	11.990387	1.1296234
974859016363877	-3.820221	11.536682	1.5917053
974859021429795	-3.7639465	11.115295	1.9436493
974859026495713	-3.6298828	10.632874	1.8023834
974859031561631	-3.2516022	10.179169	1.1691284
974859036627549	-2.501007	9.830811	0.400589
974859041693467	-1.4272156	9.377106	-0.26860046
974859046759385	-0.38334656	8.795319	-0.8276367
974859051855820	0.33251953	8.596603	-1.129303
974859056921738	0.7455292	8.657654	-1.243042
974859061987656	1.1453552	8.997635	-1.4070435
974859067053574	1.4613953	9.69194	-1.4106293
974859072119492	1.6589203	10.527527	-1.3471832
974859077185410	1.9174805	11.375076	-1.5842133
974859082251328	2.01326	12.3806305	-1.7757416
974859087347764	2.053955	13.359863	-1.7015228
974859092413682	2.3412628	14.324722	-1.1185303
974859097479599	2.5806732	15.062149	-0.22549438
974859102545517	2.7398987	15.511047	0.736969
974859107611435	2.8739777	15.646332	1.6982422
974859112677353	2.847641	15.402115	2.3746033
974859117743271	2.5232239	14.847855	2.5410004
974859122839707	2.2012024	14.116425	2.24292
974859127905625	1.8516388	13.363449	1.7545013
974859132971543	1.2135925	12.515915	1.1248322
974859138037461	0.6210327	11.601318	0.7657013
974859143103379	0.32774353	10.977631	0.36827087
974859148169297	0.12184143	10.8663025	-0.28414917
974859153235215	-0.94358826	10.675964	-1.1065674
974859158301133	-2.1694183	11.05545	-1.7518005
974859163397568	-3.215683	11.719833	-1.9505157
974859168463486	-3.3928528	11.930527	-1.7098999
974859173529404	-4.1147003	12.041855	-2.8160248
974859178595322	-4.5731964	12.113678	-3.6324463
974859183661240	-3.79747	11.756943	-3.5067596
974859188727158	-2.5848083	11.144028	-1.9804535
974859193793076	-1.3829193	9.991226	0.07975769
974859198889512	-3.0169678	9.335205	-3.4313354
974859203955430	-4.002182	9.231064	-4.357895
974859209021348	-3.5472717	8.609772	-2.5825958
974859214087266	-3.9028168	7.91066	-2.808838
974859219153183	-4.041687	7.6437073	-3.2888794
974859224219101	-3.6921234	7.2378845	-2.6951141
974859229285019	-4.0404816	6.3364716	-2.0798035
974859234381455	-3.8070526	5.3955536	-1.1628265
974859239447373	-4.235611	4.7838287	-0.5463257
974859244513291	-4.7719116	4.582718	-0.44456482
974859249579209	-4.3325806	4.3121796	-0.2817688
974859254645127	-4.050064	4.053604	-0.26141357
974859259711045	-3.6885376	3.8453064	-0.7234955
974859264776963	-3.5616455	3.8620605	-1.4237976
974859269873398	-3.231247	3.753128	-1.5782166
974859274939316	-2.9247894	3.5819397	-1.7194824
974859280005234	-2.7631836	3.595108	-1.8511658
974859285071152	-2.164627	3.4933624	-1.6488495
974859290137070	-1.6486816	3.38443	-1.476471
974859295202988	-1.2763824	3.2575378	-1.342392
974859300268906	-0.9974518	3.2479553	-1.5255432
974859305365342	-0.8609772	3.310196	-1.6201172
974859310431260	-0.74487305	3.447876	-1.6679993
974859315497178	-0.73049927	3.4418793	-1.5518799
974859320563096	-0.5365753	3.361679	-1.192749
974859325629014	-0.428833	3.2683105	-0.9222107
974859330694932	-0.38095093	3.1138763	-0.990448
974859335791367	-0.33546448	2.997757	-1.2980957
974859340857285	-0.15589905	2.966629	-1.4788666
974859345923203	-0.034988403	2.8301697	-1.4549255
974859350989121	0.108673096	2.661377	-1.4644928
974859356055039	0.20443726	2.5129395	-1.6201172
974859361120957	0.24394226	2.4447021	-1.5458984
974859366186875	0.12782288	2.3369598	-1.3340149
974859371252793	-0.19898987	2.1573944	-1.1604309
974859376349228	-0.50424194	1.9921875	-1.2502136
974859381415146	-0.6838074	1.9000244	-1.4800568
974859386481064	-0.81788635	1.8952332	-1.7326508
974859391546982	-0.86816406	1.9526978	-2.0618439
974859396612900	-0.99147034	2.0077515	-2.4580994
974859401678818	-1.191391	2.1059265	-2.8686981
974859406744736	-1.299118	2.3213959	-3.4121857
974859411810654	-1.5552979	2.5931396	-4.0406647
974859416907090	-1.9252014	3.054016	-4.6416016
974859421973008	-2.4483337	3.8105927	-5.256912
974859427038926	-2.9343567	4.805374	-5.947647
974859432104844	-3.528122	6.1305695	-6.620407
974859437170762	-4.4869995	7.749054	-7.291992
974859442236680	-5.6182556	9.584213	-7.743286
974859447302598	-7.2140045	11.467255	-7.9228516
974859452399033	-8.63974	13.511902	-8.586044
974859457464951	-10.1636505	15.586472	-9.602386
974859462530869	-12.470474	17.577255	-10.074051
974859467596787	-14.610886	19.426773	-10.097992
974859472662705	-15.788834	20.883636	-9.55571
974859477728623	-15.989944	21.469025	-9.072067
974859482794541	-15.441666	20.774704	-8.566895
974859487860459	-12.936142	19.158615	-7.955185
974859492926377	-10.234283	16.66745	-7.73851
974859497992295	-8.528412	14.060165	-7.1878357
974859503058213	-6.7566986	11.653992	-6.6216125
974859508124131	-5.5141144	9.334015	-6.1463623
974859513220566	-4.6486053	7.373169	-5.8195496
974859518286484	-3.512558	5.791794	-5.70343
974859523352402	-2.4698944	4.650955	-5.856659
974859528418320	-1.512207	4.340912	-5.9069366
974859533484238	-0.83943176	4.7024384	-5.9177094
974859538550156	-1.0357666	5.2926025	-5.7357483
974859543616074	-1.7037506	6.2083893	-4.908554
974859548681992	-2.5046082	7.4868927	-3.8622894
974859553778428	-3.0397034	8.991638	-2.8411713
974859558844346	-3.088791	10.513153	-1.8236237
974859563910264	-2.7105103	12.040665	-0.3763275
974859568976182	-2.0018158	13.40416	1.7245789
974859574042099	-1.2763824	14.377396	3.594452
974859579108017	-0.6239624	15.060944	4.1475067
974859584173935	-0.24447632	15.573303	3.650711
974859589270371	0.42948914	15.693008	2.8378754
974859594336289	1.9330444	14.877792	2.472763
974859599402207	3.362381	12.788849	2.5266418
974859604468125	3.9717102	9.94693	2.0944824
974859609534043	3.314499	7.222336	0.9751892
974859614599961	2.642929	5.455414	-0.57266235
974859619665879	2.6944122	5.002899	-2.0391083
974859624762314	2.6513062	5.4063263	-2.4832306
974859629828232	0.6509552	5.871994	-1.9684753
974859634894150	0.26190186	6.4549866	-1.891861
974859639960068	1.9677582	7.5299835	-2.3455658
974859645025986	-0.6634674	7.3767548	-0.5690613
974859650091904	-1.9144287	7.230713	0.53585815
974859655157822	-2.382492	7.3444366	0.98716736
974859660254258	-2.5967865	7.6245575	1.3271484
974859665320176	-2.7164917	7.8148956	1.7533112
974859670386094	-3.0636444	7.7705994	2.2680664
974859675452012	-3.4407349	7.563507	2.7421112
974859680517930	-3.622696	7.334854	3.2293396
974859685583848	-3.658615	7.343231	3.7404938
974859690649766	-3.496994	7.5503387	4.0194244
974859695715683	-3.4419403	7.7825775	3.9894867
974859700812119	-3.3234253	8.104599	3.8039398
974859705878037	-3.3389893	8.602585	3.4160767
974859710943955	-3.8609161	9.180786	2.685852
974859716009873	-4.1865234	9.721878	1.8323212
974859721075791	-4.457077	10.398239	1.1356049
974859726141709	-4.728821	10.783707	0.48199463
974859731207627	-4.503769	11.0638275	0.13124084
974859736304062	-3.725647	11.114105	0.2916565
974859741369980	-2.8457794	10.977631	0.9632263
974859746435898	-2.1598358	10.496399	1.717392
974859751501816	-1.8593597	9.754196	2.2082062
974859756567734	-1.6845856	8.924606	2.3003845
974859761633652	-1.68219	7.9645233	1.9256897
974859766699570	-1.6295166	7.1708527	1.3355255
974859771765488	-1.4679108	6.6477203	0.697464
974859776861924	-1.464325	6.2418976	-0.07826233
974859781927842	-1.3362274	5.9917145	-0.69117737
974859786993760	-1.3410187	6.1114197	-1.0658569
974859792059678	-1.5481262	6.380768	-1.0981903
974859797125596	-1.7420502	6.7901764	-0.8096771
974859802191514	-1.888092	7.2845764	-0.47927856
974859807287949	-1.7863464	7.740677	-0.34161377
974859812353867	-1.6031799	8.108185	-0.26739502
974859817419785	-1.5552979	8.36795	-0.2745819
974859822485703	-1.4523468	8.502029	-0.20993042
974859827551621	-1.2488403	8.491257	-0.096206665
974859832617539	-1.2189178	8.485275	0.13961792
974859837683457	-1.3075104	8.409851	0.6004944
974859842779892	-1.3972778	8.294937	1.0565948
974859847845810	-1.3637695	8.267395	1.5725403
974859852911728	-1.2524414	8.262604	1.8825989
974859857977646	-1.0118256	8.12973	1.7377472
974859863043564	-1.0896301	8.124939	1.4875488
974859868109482	-1.1339264	8.342819	1.1763
974859873205918	-1.5552979	8.28775	1.1296234
974859878271836	-2.0724487	8.24585	0.88900757
974859883337754	-2.3238373	8.310486	0.4724121
974859888434189	-2.6087494	8.355988	0.0103302
974859893500107	-3.0361176	8.389496	-0.43858337
974859898566025	-3.366516	8.3763275	-0.8156738
974859903631943	-3.6143188	8.218323	-0.92700195
974859908697861	-3.844162	7.8855286	-0.8348236
974859913763779	-3.757965	7.606598	-0.60258484
974859918829697	-3.658615	7.412674	-0.4086609
974859923895615	-3.6538239	7.2917633	-0.23149109
974859928992051	-3.7352295	7.2917633	-0.09741211
974859934057969	-3.8178253	7.4390106	-0.03515625
974859939123887	-3.923172	7.647293	0.078567505
974859944189805	-3.8345795	8.004028	0.31080627
974859949255723	-3.7639465	8.373932	0.5993042
974859954321641	-3.804657	8.682785	1.1260223
974859959418076	-3.5137634	9.043121	1.559372
974859964483994	-3.5101624	9.204727	1.7640839
974859969549912	-3.3246155	9.29451	1.6084595
974859974615830	-3.073227	9.347183	1.1140594
974859979681748	-3.097168	9.356766	0.38381958
974859984747666	-3.06604	9.500412	-0.23387146
974859989813584	-2.7703552	9.92897	-0.64567566
974859994879502	-2.556076	10.429367	-0.7701721
974859999975937	-2.5465088	11.006363	-0.42660522
974860005041855	-2.595581	11.439713	0.12286377
974860010107773	-2.659027	11.651596	0.8303375
974860015173691	-2.796692	11.715042	1.3618622
974860020239609	-2.9020386	11.633652	1.6347961
974860025305527	-2.884079	11.505554	1.7090149
974860030401963	-3.1187134	11.480423	1.6719055
974860035467881	-3.6741638	11.472031	1.5533905
974860040533799	-3.9902039	11.539078	1.262497
974860045599717	-4.2020874	11.6528015	0.80041504
974860050665635	-4.5097504	11.694702	0.4041748
974860055731553	-4.733612	11.761734	0.114471436
974860060797471	-4.9011993	11.8311615	-0.105789185
974860065863389	-4.9885864	11.913773	-0.24584961
974860070959824	-5.1825256	11.960449	-0.20993042
974860076025742	-5.224411	12.1232605	-0.07107544
974860081091660	-5.220825	12.294449	-0.11416626
974860086157578	-5.176529	12.507523	-0.18719482
974860091223496	-4.7994385	12.615265	-0.084243774
974860096289414	-4.3684845	12.412964	0.27130127
974860101385849	-4.062027	11.990387	0.9356842
974860106451767	-3.983017	11.536682	1.6743011
974860111517685	-3.923172	11.132065	2.0597687
974860116583603	-3.6969147	10.844757	1.9376678
974860121649521	-3.3677063	10.549072	1.5174866
974860126715439	-2.8230286	10.289307	1.2205963
974860131811875	-2.070053	9.859543	0.7645111
974860136877793	-1.0908203	9.402252	0.049835205
974860141943711	-0.073287964	9.221481	-0.65644836
974860147009629	0.6006775	9.281342	-1.3938751
974860152075547	1.0579681	9.5494995	-2.0247345
974860157141465	1.4075165	10.114517	-2.4197845
974860162207383	1.4613953	11.1033325	-2.7585602
974860167273301	1.6385651	12.16037	-2.9058075
974860172339219	1.9414215	13.187485	-2.7992706
974860177405137	2.2754211	14.245712	-2.472458
974860182471055	2.9410095	15.133972	-1.9445343
974860187567490	3.552719	15.548172	-1.2071228
974860192633408	3.8711548	15.448807	-0.29971313
974860197699326	3.975296	14.950806	0.27249146
974860202795762	3.9358063	14.460007	0.6064911
974860207861680	3.7622223	14.041016	0.5502167
974860212927598	3.1732483	13.515488	0.16595459
974860217993516	2.891922	12.932495	-0.16923523
974860223059433	2.7877808	12.59491	-0.4086609
974860228125351	2.4741364	12.175934	-0.76179504
974860233191269	2.42984	12.069397	-0.76060486
974860238257187	1.9917145	12.191498	-0.3835144
974860243323105	0.9083252	12.403381	-0.3715515
974860248389023	-0.43481445	12.840317	-0.8132782
974860253454941	-2.0269623	13.058197	-1.4836578
974860258551377	-3.8561249	13.040237	-1.955307
974860263617295	-4.6294556	12.497955	-2.3719025
974860268683213	-4.744385	11.523514	-2.7789154
974860273749131	-5.1298523	11.147629	-3.1631775
974860278815049	-4.7958527	10.85553	-2.9213715
974860283880967	-4.4463043	10.12291	-2.2055054
974860288977402	-4.6222687	9.375916	-1.306488
974860294043320	-4.722824	8.479279	0.10848999
974860299109238	-4.2966614	7.662857	0.5921173
974860304175156	-4.5540466	7.535965	-1.618927
974860309241074	-4.9095764	7.440201	-2.223465
974860314306992	-5.7750854	6.7590485	-1.8499603
974860319372910	-5.916336	6.149719	-1.5746307
974860324438828	-5.559601	5.4613953	-0.97727966
974860329535264	-5.144211	4.805374	-1.1915588
974860334601182	-4.6952972	4.084732	-1.4549255
974860339667099	-4.434326	3.4502563	-1.5650482
974860344733017	-4.0644226	3.2060547	-1.9648895
974860349798935	-3.3928528	2.9211426	-2.4161987
974860354864853	-2.7464142	2.6865082	-2.817215
974860359961289	-2.461502	2.6410217	-2.975235
974860365027207	-1.9491425	2.566803	-3.0733948
974860370093125	-1.4463654	2.4889984	-2.6903229
974860375159043	-1.1901855	2.408783	-2.0163574
974860380224961	-1.0034332	2.5703888	-1.7075043
974860385290879	-0.62635803	2.740387	-1.6380768
974860390387314	-0.45516968	2.815796	-1.5315399
974860395453232	-0.29356384	2.7751007	-1.2202911
974860400519150	-0.22293091	2.8205872	-1.1748047
974860405585068	-0.14152527	2.8457336	-1.0084076
974860410650986	-0.12477112	2.8409424	-0.89945984
974860415716904	-0.07449341	2.8409424	-0.8156738
974860420782822	0.15534973	2.7978363	-0.54512024
974860425848740	0.2798462	2.7535553	-0.34640503
974860430914658	0.39237976	2.7858734	-0.3655548
974860436011094	0.23556519	2.771515	-0.20753479
974860441077012	0.15415955	2.7116547	-0.5499115
974860446142930	0.23796082	2.7631226	-0.6756134
974860451208848	0.27746582	2.740387	-0.6109619
974860456274766	0.20683289	2.6805267	-0.62054443
974860461340683	0.016494751	2.551239	-0.6157532
974860466406601	-0.21334839	2.4291382	-0.8204651
974860471472519	-0.2408905	2.4135742	-1.1819763
974860476568955	-0.29475403	2.4866028	-1.5913849
974860481634873	-0.40249634	2.5859528	-2.0905762
974860486700791	-0.5305786	2.6901093	-2.5670319
974860491766709	-0.6742401	2.8624878	-3.1165009
974860496832627	-0.8310547	3.0815582	-3.7713165
974860501898545	-0.9866791	3.456253	-4.457245
974860506994980	-1.2955322	4.0715637	-5.1659393
974860512060898	-1.8294373	4.910721	-5.956024
974860517126816	-2.6315002	6.097046	-6.726959
974860522192734	-3.46109	7.6125793	-7.3051605
974860527258652	-4.536087	9.283737	-7.685837
974860532324570	-6.0528107	10.99559	-7.9456024
974860537390488	-7.932266	12.79483	-8.327484
974860542456406	-9.6884	14.555771	-8.837448
974860547552842	-12.015564	16.244873	-9.470703
974860552618760	-14.21225	17.83583	-9.693375
974860557684678	-14.880234	19.231644	-9.924408
974860562750596	-15.427307	19.858917	-9.731674
974860567816514	-15.740952	19.587189	-8.945175
974860572882432	-14.802414	18.314667	-8.125168
974860577978867	-12.608139	16.29396	-7.527817
974860583044785	-10.318085	14.1032715	-6.9807434
974860588110703	-8.576294	12.14241	-6.382187
974860593176621	-7.132599	10.491608	-5.7836304
974860598242539	-5.9582367	9.062271	-5.705826
974860603308457	-4.8509216	7.9250336	-5.6016846
974860608374375	-3.552063	7.2366943	-5.401764
974860613440293	-2.247223	6.7470856	-5.369446
974860618536728	-1.2332764	6.7279205	-5.592102
974860623602646	-0.36657715	7.282181	-5.7130127
974860628668564	-0.26841736	8.146484	-5.453232
974860633734482	-1.2368774	9.211914	-5.180298
974860638800400	-2.2639923	10.345566	-4.6882935
974860643866318	-2.6291046	11.2421875	-3.919754
974860648932236	-2.5620575	11.932922	-2.9441223
974860653998154	-2.1155396	12.720612	-1.1795807
974860659064072	-1.4391785	13.533447	0.9249115
974860664129990	-1.1291351	13.988342	1.9771729
974860669195908	-0.6215668	14.3606415	1.3750305
974860674261826	0.046417236	14.413315	0.1300354
974860679358262	0.922699	13.805191	-0.41105652
974860684424180	2.4238586	12.351898	0.0103302
974860689490098	3.8891144	10.084595	0.44726563
974860694556016	4.3571777	7.519211	0.26052856
974860699621933	4.196762	5.4865265	-0.598999
974860704687851	3.9872742	4.3828125	-1.3244324
974860709753769	3.7825775	4.1110687	-1.192749
974860714819687	3.0834656	4.239151	-0.72109985
974860719916123	1.8408661	4.4857483	-0.39549255
974860724982041	0.63420105	4.7383423	0.064193726
974860730047959	-0.28756714	5.1022644	0.71302795
974860735113877	-1.1482849	5.527237	1.3139801
974860740179795	-1.8509827	6.061142	1.8718262
974860745245713	-2.3920746	6.8392487	2.3913574
974860750342148	-2.971466	7.464142	2.934845
974860755408066	-3.3593292	8.105789	3.4675598
974860760473984	-3.5724182	8.792923	3.973938
974860765539902	-3.8154297	9.325638	4.380951
974860770605820	-3.983017	9.794891	4.638321
974860775671738	-4.11351	10.1384735	4.6419067
974860780737656	-4.568405	10.509567	4.5066376
974860785803574	-5.224411	10.783707	4.313904
974860790900010	-5.7906494	10.982422	4.033783
974860795965928	-6.2216034	11.073395	3.3286896
974860801031846	-6.3724365	11.049454	2.1327972
974860806097764	-6.08873	11.068619	0.74176025
974860811163682	-5.4865875	10.93573	-0.42660522
974860816229599	-4.445099	10.654419	-1.203537
974860821326035	-3.4263763	10.280914	-1.3866882
974860826391953	-2.523758	9.875107	-1.2861328
974860831457871	-1.9000702	9.362747	-0.90904236
974860836523789	-1.3769379	8.736664	-0.2566223
974860841589707	-0.9316101	8.235077	0.36227417
974860846655625	-0.6239624	7.6089935	0.6866913
974860851721543	-0.46713257	6.9493866	0.85069275
974860856787461	-0.46354675	6.4106903	0.78245544
974860861883896	-0.61917114	6.1904297	0.42692566
974860866949814	-0.9292145	6.1868286	0.045043945
974860872015732	-1.2500458	6.3472443	-0.13691711
974860877081650	-1.4715118	6.591461	-0.017196655
974860882147568	-1.646286	6.9039	0.27488708
974860887213486	-1.7360687	7.2055664	0.63401794
974860892279404	-1.7037506	7.492874	0.7836609
974860897345322	-1.8054962	7.7478485	0.76091003
974860902441758	-2.1658173	7.875946	0.62564087
974860907507676	-1.9718933	8.0004425	0.39579773
974860912573594	-1.7911377	8.170425	0.23298645
974860917639512	-2.0413208	8.18959	0.41734314
974860922705430	-2.1347046	8.06868	0.60409546
974860927771348	-2.0161896	7.9753113	0.7477417
974860932837266	-1.7276917	8.215927	0.7956238
974860937933701	-1.5624847	8.335632	1.0302582
974860942999619	-1.6103668	8.335632	1.270874
974860948065537	-1.685791	8.2973175	1.1224365
974860953131455	-1.551712	8.24585	1.092514
974860958227891	-1.4691162	8.168045	1.0422363
974860963293808	-1.5624847	8.06868	0.90934753
974860968359726	-1.8186646	7.939392	0.7680969
974860973425644	-1.9647064	7.871155	0.6364136
974860978491562	-2.0904083	7.8963013	0.1695404
974860983557480	-2.1215363	7.9142456	-0.56666565
974860988623398	-2.2208862	7.8651733	-1.0335388
974860993689316	-2.3645477	7.7825775	-1.0634766
974860998755234	-2.6099548	7.6796265	-0.7653961
974861003821152	-2.8769073	7.5419617	-0.3799286
974861008887070	-3.168991	7.3563995	0.052230835
974861013983506	-3.097168	7.365982	0.46762085
974861019049424	-3.1342773	7.5419617	0.71302795
974861024115342	-3.2192688	7.7909546	0.7405548
974861029181260	-3.358139	8.123749	0.75372314
974861034247178	-3.4431305	8.570267	0.73817444
974861039313096	-3.5329132	9.096985	0.74894714
974861044409531	-3.9052124	9.626114	0.776474
974861049475449	-4.041687	10.179169	0.7645111
974861054541367	-3.9770355	10.662796	0.6352234
974861059607285	-3.915985	10.921371	0.45326233
974861064673203	-3.9064026	11.023117	0.13482666
974861069739121	-3.9686584	11.109314	-0.16204834
974861074805039	-3.9602814	11.2026825	-0.33444214
974861079901474	-3.852539	11.3607025	-0.31048584
974861084967392	-3.9291534	11.512741	-0.17521667
974861090033310	-4.188919	11.590546	0.085754395
974861095099228	-4.105133	11.737793	0.41734314
974861100165146	-3.8262024	11.920944	0.60409546
974861105231064	-3.8465576	12.026291	0.6711273
974861110296982	-4.005768	12.075378	0.7668915
974861115393418	-4.0009766	12.124451	0.73457336
974861120459336	-4.223648	12.131638	0.5957184
974861125525254	-4.568405	12.155579	0.46522522
974861130591172	-4.6653748	12.207062	0.43171692
974861135657090	-4.6330566	12.246567	0.3179779
974861140723008	-4.702484	12.216629	0.15518188
974861145788926	-4.876053	12.24057	0.06539917
974861150854844	-5.0747833	12.305222	0.13841248
974861155951279	-5.0843506	12.326767	0.10609436
974861161017197	-5.1190643	12.386627	-0.08303833
974861166083115	-4.8748627	12.517105	-0.16923523
974861171149033	-4.2296295	12.404572	0.07258606
974861176214951	-3.7747345	12.0215	0.5693817
974861181280869	-3.6801605	11.602524	1.171524
974861186346787	-3.5185547	11.23262	1.7736664
974861191412705	-3.318634	10.929749	1.8813934
974861196509141	-2.9762573	10.543091	1.5665588
974861201575058	-2.377716	10.127686	1.0027313
974861206640976	-1.5529022	9.5937805	0.50354004
974861211706894	-0.70176697	8.918625	-0.050720215
974861216772812	0.07035828	8.461334	-0.6803894
974861221838730	0.8388977	8.267395	-1.2561951
974861226935166	1.4218903	8.4158325	-1.7122955
974861232001084	1.8289032	8.923416	-2.1181183
974861237067002	1.8600311	9.780533	-2.480835
974861242132920	1.6792603	10.884262	-2.764557
974861247198838	1.6828613	12.107697	-2.7477875
974861252264756	1.9414215	13.337112	-2.4281616
974861257330674	2.6141968	14.228958	-1.7470093
974861262427109	3.223526	14.876587	-0.69117737
974861267493027	3.5251923	15.216568	0.4544525
974861272558945	3.3611908	14.959198	1.3834076
974861277624863	2.9661407	14.445633	2.0202637
974861282690781	2.7027893	13.924896	2.1770782
974861287756699	2.4501953	13.4747925	1.978363
974861292822617	2.0431824	12.898987	1.3426971
974861297888535	1.6373596	12.189102	0.42092896
974861302984971	1.3321075	11.530701	-0.26739502
974861308050889	1.1453552	11.238602	-0.598999
974861313116807	0.83291626	11.394226	-0.78933716
974861318182724	9.3078613E-4	11.856308	-0.9222107
974861323248642	-1.0202026	12.564987	-1.4190063
974861328314560	-1.9611206	12.927704	-1.9038391
974861333380478	-3.6801605	13.171921	-2.6831512
974861338476914	-5.397995	13.32634	-3.0123444
974861343542832	-5.8145905	13.282059	-3.2888794
974861348608750	-5.709244	12.659561	-3.3535156
974861353674668	-4.524109	11.703079	-2.1791687
974861358740586	-2.3034973	10.456894	0.736969
974861363806504	-2.7404327	9.5147705	-1.4525299
974861368872422	-3.8633118	9.061081	-2.978836
974861373968857	-3.3509521	8.463715	-1.3711243
974861379034775	-3.994995	8.163254	-2.7382202
974861384131211	-4.7252197	8.11058	-3.8766632
974861389197129	-4.299057	8.090225	-3.3511353
974861394263047	-4.334976	7.3803406	-2.2521973
974861399328965	-4.2224426	6.536392	-1.3747101
974861404394883	-4.0332947	5.962982	-1.0095978
974861409460801	-4.139847	5.1345825	-0.3942871
974861414526719	-3.9854126	4.556381	-0.115371704
974861419623154	-3.8010712	4.1888733	-0.43499756
974861424689072	-3.4658813	3.9470673	-1.0467072
974861429754990	-3.0923767	3.6705322	-1.3076782
974861434820908	-2.8553467	3.4251251	-1.5626678
974861439886826	-2.1035767	3.2252045	-1.8415833
974861444952744	-1.4367828	3.052826	-1.7278595
974861450018662	-1.0908203	2.803833	-1.6751862
974861455084580	-1.0094299	2.7475586	-1.729065
974861460181016	-0.8490143	2.788269	-1.6895599
974861465246933	-0.44439697	2.6601715	-1.2980957
974861470312851	-0.18222046	2.5871582	-1.1185303
974861475378769	0.2642975	2.6398315	-1.069458
974861480444687	0.5132904	2.5261078	-0.65286255
974861485510605	0.38160706	2.3644867	-0.5858307
974861490576523	0.23077393	2.3249817	-1.1496582
974861495642441	0.11705017	2.3237915	-1.6320953
974861500708359	0.26190186	2.2794952	-1.9074249
974861505774277	0.5527954	2.2794952	-1.753006
974861510840195	0.5456085	2.143036	-1.4190063
974861515906113	0.38279724	2.0161438	-1.2011414
974861520972031	0.13380432	1.946701	-1.1891632
974861526068467	-0.025405884	1.9395294	-1.3304291
974861531134385	-0.11160278	1.9419098	-1.5039978
974861536200303	-0.23251343	2.0065613	-1.7158966
974861541266221	-0.28756714	2.1933136	-1.9469299
974861546332139	-0.3713684	2.4554749	-2.1911316
974861551398057	-0.60002136	2.6948853	-2.4281616
974861556494492	-0.9304199	2.8660736	-2.5957642
974861561560410	-1.2919464	3.076767	-2.848343
974861566626328	-1.6654358	3.3305511	-3.2553558
974861571692246	-2.0724487	3.6166534	-3.7330017
974861576758164	-2.6075592	4.0392303	-4.3327484
974861581824082	-2.9068298	4.72876	-4.836731
974861586890000	-3.4108124	5.741516	-5.402954
974861591955918	-4.0596313	6.9290314	-6.0805206
974861597052353	-4.744385	8.30571	-6.7904053
974861602118271	-5.533264	9.697937	-7.508667
974861607184189	-6.488556	11.166779	-8.078476
974861612250107	-7.88797	12.529083	-8.624359
974861617316025	-9.425049	13.970383	-9.244461
974861622381943	-11.063873	15.461975	-9.693375
974861627478379	-12.841568	16.813507	-10.145874
974861632544297	-13.7765045	17.919617	-10.515778
974861637610215	-13.830368	18.56366	-10.4283905
974861642676133	-13.373077	18.513382	-9.925613
974861647742051	-12.5195465	17.524582	-9.149887
974861652807969	-10.558701	15.99588	-8.39093
974861657873887	-8.520035	14.175095	-7.470352
974861662970322	-7.185272	12.2573395	-6.7592773
974861668036240	-6.283844	10.535904	-6.2074127
974861673102158	-5.429123	9.09819	-5.896164
974861678168076	-4.60791	7.7682037	-5.8997498
974861683233994	-3.87648	6.452591	-5.956024
974861688299912	-3.0217438	5.271057	-5.932083
974861693396348	-2.0975952	4.2966156	-5.6974487
974861698462266	-1.1554718	3.617859	-5.3023987
974861703528183	-0.42045593	3.1893005	-4.922928
974861708594101	-0.28637695	2.8481293	-4.867859
974861713660019	-0.6455078	2.73201	-4.6523743
974861718725937	-1.093216	3.009735	-4.105301
974861723791855	-1.4272156	3.6058807	-3.002777
974861728857773	-1.5385437	4.4977264	-1.5028076
974861733923691	-1.1016083	5.606247	-0.07347107
974861738989609	-0.18940735	6.8739777	0.67710876
974861744055527	1.1190186	8.195572	0.7621155
974861749151963	2.5232239	9.778137	0.5885315
974861754217881	3.4282227	11.571396	0.8147888
974861759283799	3.6724396	13.866241	1.7042236
974861764349717	3.8328552	16.485489	2.6511383
974861769415635	4.3272552	19.204117	3.365799
974861774481553	5.183182	21.179321	3.4280548
974861779577988	5.3771057	21.430725	3.3861542
974861784643906	4.32605	20.237213	3.6064148
974861789709824	0.64616394	16.86139	2.4739685
974861794775742	-3.231247	13.780045	0.19468689
974861799841660	-5.5105286	11.66716	-2.6184998
974861804907578	-6.359268	10.126495	-3.461258
974861809973496	-6.2467346	8.911438	-2.590973
974861815069932	-6.378418	7.6891937	-1.4106293
974861820135849	-6.658539	6.536392	-0.57624817
974861825201767	-6.6262207	5.61821	-0.14529419
974861830267685	-6.160553	5.02684	0.26052856
974861835333603	-5.5308685	4.519272	0.90815735
974861840399521	-4.879654	4.144577	1.8131714
974861845465439	-4.1913147	4.024872	2.6080322
974861850531357	-3.1773682	4.3157654	3.203003
974861855627793	-2.192154	4.994522	3.5729065
974861860693711	-1.488266	5.9210815	3.8685913
974861865759629	-1.0896301	6.777008	3.8733673
974861870825547	-0.6969757	7.532379	3.927246
974861875891465	0.0021209717	8.424225	3.9332275
974861880957383	0.828125	9.536331	3.8350677
974861886023301	0.7563019	10.504776	3.1227875
974861891119736	0.49891663	11.082977	2.2836304
974861896185654	0.18049622	11.383453	1.6695099
974861901251572	-0.18103027	11.213455	1.4300842
974861906317490	-0.35940552	10.604141	1.5126953
974861911383408	-0.60839844	9.958908	1.800003
974861916449326	-1.081253	9.499207	2.2477112
974861921515244	-1.3925018	9.189163	2.6990204
974861926611680	-1.5385437	8.825241	2.9121094
974861931677598	-1.903656	8.263809	2.697815
974861936743516	-2.3334198	7.7705994	1.978363
974861941809433	-2.377716	7.4102783	0.9823761
974861946875351	-2.4387665	7.0942383	-0.00881958
974861951941269	-2.326233	6.8224945	-0.7474365
974861957007187	-1.8234558	6.658493	-1.172409
974861962103623	-1.5361481	6.777008	-1.3591461
974861967169541	-1.5660706	7.1816254	-1.2190857
974861972235459	-1.5050201	7.761017	-0.60258484
974861977301377	-1.6582489	8.255432	-0.13691711
974861982367295	-1.9467621	8.560684	0.01751709
974861987433213	-2.0054169	8.669617	0.06300354
974861992499131	-1.879715	8.638504	-0.024383545
974861997595566	-1.7444458	8.492447	0.147995
974862002661484	-1.6510773	8.291336	0.68429565
974862007727402	-1.3458099	8.115372	1.2481384
974862012793320	-1.0561066	7.8939056	1.7748566
974862017859238	-0.8130951	7.7873535	2.3973541
974862022925156	-0.71614075	7.6592712	2.89534
974862027991074	-0.84303284	7.461746	2.9444275
974862033056992	-0.4862976	7.7873535	2.4057312
974862038153428	-0.87893677	8.041138	2.081314
974862043219346	-1.7133179	8.005234	1.7461243
974862048285264	-2.0078125	8.077057	1.2241974
974862053351182	-1.6331177	8.406265	0.38861084
974862058417099	-1.6199493	8.621735	-0.3799286
974862063513535	-1.9455566	8.652863	-0.8348236
974862068579453	-2.250824	8.523575	-1.2047272
974862073645371	-2.5812225	8.315277	-1.2107086
974862078711289	-2.9176025	8.136917	-1.0167847
974862083777207	-3.2587738	7.915451	-0.5427246
974862088873642	-3.512558	7.819687	-0.096206665
974862093939560	-3.6873322	7.804123	0.1587677
974862099005478	-3.789093	7.8112946	0.2772827
974862104071396	-3.959076	7.8544006	0.18391418
974862109137314	-4.29187	7.942978	0.116867065
974862114203232	-4.1422424	8.269791	0.20066833
974862119299668	-3.9662628	8.760605	0.33833313
974862124365586	-3.9770355	9.306488	0.6244354
974862129431504	-4.0201263	9.881088	0.88301086
974862134497422	-3.890854	10.507172	1.0122986
974862139563340	-3.8884583	10.997986	0.9392853
974862144629258	-3.8118439	11.323593	0.6890869
974862149695176	-3.631073	11.513931	0.31199646
974862154761094	-3.5401	11.539078	-0.03515625
974862159857529	-3.555664	11.407394	-0.34042358
974862164923447	-3.4838257	11.302048	-0.5235748
974862169989365	-3.6298828	11.2026825	-0.5247803
974862175055283	-3.7663422	11.109314	-0.4194336
974862180121201	-3.6813507	11.100937	-0.26739502
974862185187119	-3.7675476	11.114105	-0.16804504
974862190283555	-3.8609161	11.150009	-0.024383545
974862195349473	-3.8585205	11.272125	0.073776245
974862200415391	-3.9052124	11.430145	0.071380615
974862205481308	-4.1470337	11.523514	0.07736206
974862210547226	-4.1039276	11.682724	0.104904175
974862215613144	-4.066818	11.851517	0.054626465
974862220679062	-4.1589966	11.987991	0.109695435
974862225744980	-4.0799866	12.143616	0.18510437
974862230841416	-3.935135	12.184311	0.29284668
974862235907334	-3.8968353	12.134033	0.30122375
974862240973252	-3.8728943	12.125656	0.21502686
974862246039170	-3.8250122	12.134033	0.13722229
974862251105088	-3.9423218	12.153183	-0.02558899
974862256171006	-3.994995	12.283676	-0.19676208
974862261236924	-3.7436066	12.429718	-0.2973175
974862266333359	-3.4084167	12.385422	0.0067443848
974862271399277	-3.1246948	12.104111	0.7357788
974862276465195	-2.9810486	11.695892	1.4157257
974862281531113	-3.0205536	11.209869	1.6886597
974862286597031	-2.9379578	10.721451	1.5617676
974862291662949	-2.6865692	10.270142	1.0757446
974862296728867	-2.2819366	9.695541	0.5514221
974862301794785	-1.725296	8.948547	0.12644958
974862306891221	-0.98069763	8.171631	-0.47329712
974862311957139	-0.19898987	7.567093	-1.0886078
974862317023057	0.43188477	7.2211304	-1.6596222
974862322088974	0.8365021	7.3073273	-2.010376
974862327154892	1.0376129	7.8232727	-2.058258
974862332220810	1.2710571	8.559494	-2.0534668
974862337286728	1.6960297	9.553085	-2.2414093
974862342383164	1.9043121	10.871094	-2.394638
974862347449082	2.0587463	12.06221	-2.2462006
974862352515000	2.33049	12.987564	-1.6943359
974862357580918	2.602234	13.74054	-0.7809601
974862362646836	2.6788483	14.216995	0.01272583
974862367712754	2.721939	14.539001	0.73217773
974862372778672	2.6644745	14.59407	1.1846924
974862377875107	2.7003937	14.564148	1.3869934
974862382941025	2.469345	14.403732	1.1799011
974862388006943	2.2814026	14.021866	0.80400085
974862393072861	2.2454987	13.551407	0.6364136
974862398138779	1.8923492	13.053406	0.3347473
974862403204697	1.3177338	12.723007	0.021102905
974862408270615	0.67729187	12.597305	-0.11895752
974862413367051	-0.34503174	12.500351	-0.37513733
974862418432969	-1.5457306	12.4201355	-0.48527527
974862423498887	-3.3210297	12.544632	-0.9988251
974862428564805	-4.749161	12.608078	-1.8882751
974862433630723	-5.520096	12.679916	-2.93573
974862438696641	-5.7391663	12.426132	-3.7844849
974862443762558	-5.571579	11.874268	-3.7186432
974862448828476	-4.60672	11.214661	-2.9656677
974862453894394	-3.2348328	10.515549	-1.5542755
974862458990830	-2.954712	9.779343	-1.3878784
974862464056748	-3.1833649	9.120926	-1.3986511
974862469122666	-3.334198	8.603775	-1.184372
974862474188584	-3.9519043	8.162048	-2.1025543
974862479254502	-3.892044	7.7358856	-2.3527527
974862484320420	-3.4347534	7.2187347	-1.8667297
974862489416855	-3.4814453	6.578293	-1.900238
974862494482773	-3.8321838	5.820526	-1.7661743
974862499548691	-3.6837463	4.963394	-1.539917
974862504614609	-3.571228	4.2798615	-1.5997772
974862509680527	-3.3689117	4.0942993	-1.4992065
974862514746445	-3.3377838	4.3205566	-1.9146118
974862519812363	-3.270752	4.1385956	-1.8439789
974862524878281	-2.927185	3.911148	-1.6835632
974862529974717	-2.3753204	3.9075623	-2.018753
974862535040635	-1.8713379	3.8512878	-2.34198
974862540106553	-1.4308014	3.6848907	-2.267746
974862545172471	-1.132721	3.5520172	-1.5650482
974862550238389	-0.84542847	3.6358185	-1.208313
974862555304307	-0.36418152	3.8058014	-1.1053619
974862560370224	0.24873352	3.8680573	-0.96650696
974862565466660	0.5743408	3.8680573	-0.94973755
974862570532578	0.7167969	3.8536835	-0.85876465
974862575598496	0.85087585	3.792633	-0.654068
974862580664414	0.76348877	3.6166534	-0.44577026
974862585730332	0.37442017	3.4179382	-0.6325073
974862590796250	0.18647766	3.3580933	-0.9545288
974862595862168	0.38519287	3.289856	-1.0634766
974862600958603	0.61743164	3.2790833	-1.0407257
974862606024521	0.81256104	3.2635193	-0.79052734
974862611090439	0.93107605	3.2072449	-0.4050598
974862616156357	0.76109314	3.107895	-0.24584961
974862621222275	0.6485596	3.0181122	-0.34161377
974862626288193	0.6653137	2.9211426	-0.5774536
974862631354111	0.54919434	2.827774	-0.8360138
974862636450547	0.46540833	2.796646	-1.0598755
974862641516465	0.29301453	2.8014374	-1.3196564
974862646582383	0.04522705	2.803833	-1.7434235
974862651648301	-0.17984009	2.8409424	-2.2689514
974862656714219	-0.3091278	2.9283295	-2.788498
974862661780137	-0.38693237	3.0731812	-3.339157
974862666846055	-0.7544403	3.265915	-3.9939728
974862671911973	-1.2500458	3.516098	-4.6727295
974862676977891	-1.7264862	3.9446716	-5.374222
974862682043808	-2.3046875	4.5934906	-5.990738
974862687140244	-2.947525	5.6122284	-6.55217
974862692206162	-3.7268372	6.8536224	-7.1160126
974862697272080	-4.7719116	8.302109	-7.7121735
974862702337998	-5.9187317	9.873901	-8.308319
974862707403916	-7.2654724	11.44809	-8.687805
974862712469834	-9.085068	13.118057	-9.147491
974862717566269	-11.158447	14.8550415	-9.523376
974862722632187	-13.306046	16.548935	-9.748428
974862727698105	-14.946075	17.967499	-9.763992
974862732764023	-15.943253	18.795898	-9.540146
974862737829941	-16.141983	18.859344	-8.991867
974862742895859	-15.531448	17.949554	-8.401703
974862747961777	-13.716644	16.436417	-7.5792847
974862753058213	-11.358368	14.535416	-6.9256744
974862758124131	-8.95578	12.561401	-6.591675
974862763190049	-7.295395	10.91658	-6.1152344
974862768255967	-5.8780365	9.436966	-5.4831696
974862773321885	-5.073578	7.836441	-5.314377
974862778387803	-4.532486	6.4095	-5.3479004
974862783453721	-3.607132	5.3787994	-5.7369537
974862788550156	-2.3525696	5.0555725	-6.097275
974862793616074	-1.4008789	5.436249	-6.303177
974862798681992	-0.8083191	6.1221924	-5.9572144
974862803747910	-0.8801422	7.1469116	-5.109665
974862808813828	-1.677414	8.548721	-4.151993
974862813879746	-2.2771606	9.955307	-3.081787
974862818945664	-2.2627869	10.9058075	-1.8356018
974862824042099	-1.5684662	11.42894	-0.4589386
974862829108017	-0.468338	11.687515	0.88301086
974862834173935	0.72875977	12.271698	1.8861847
974862839239853	1.7187653	13.022278	2.0358276
974862844305771	2.641739	13.8423	1.562973
974862849371689	3.199585	14.511475	1.0625763
974862854437607	3.8472137	14.371414	1.0673676
974862859534043	4.6241302	13.20903	1.5976868
974862864599961	4.942566	11.124878	1.8694305
974862869665879	4.2494354	8.78215	1.6288147
974862874731797	2.7063751	6.8500366	0.7836609
974862879797715	1.3632355	5.871994	-0.24105835
974862884863633	0.7694702	5.8779907	-1.1269226
974862889929551	0.44026184	6.361618	-1.5195618
974862895025986	-0.14631653	6.951782	-1.5842133
974862900091904	-0.81430054	7.342041	-1.5506897
974862905157822	-1.68219	7.330063	-1.0790253
974862910223740	-2.5943909	7.1864166	-0.11177063
974862915289658	-3.1821594	7.0511475	1.0984955
974862920355576	-3.4586945	7.026001	2.1782837
974862925421494	-3.6203003	7.1002197	3.0078735
974862930487412	-3.9758453	7.206772	3.6495209
974862935583848	-4.3038483	7.4234467	4.207367
974862940649766	-4.3529205	7.6688538	4.6203613
974862945715683	-4.46904	8.051926	4.646698
974862950781601	-4.567215	8.542725	4.335449
974862955847519	-4.500168	8.955734	3.958374
974862960913437	-4.4044037	9.413025	3.6195831
974862965979355	-4.2248383	9.968475	3.125183
974862971075791	-4.218857	10.577805	2.4284668
974862976141709	-4.1625824	11.114105	1.6324005
974862981207627	-3.998581	11.529495	0.8530884
974862986273545	-3.7460022	11.66716	0.033081055
974862991339463	-3.049286	11.566605	-0.30810547
974862996405381	-2.2388458	11.211075	-0.2470398
974863001471299	-1.3996735	10.616104	0.04145813
974863006537217	-0.7735901	9.987625	0.5777588
974863011633652	-0.5162201	9.245422	1.0039215
974863016699570	-0.32588196	8.534348	1.1248322
974863021765488	-0.310318	7.7239075	0.8698425
974863026831406	-0.33306885	7.089447	0.51071167
974863031897324	-0.6383209	6.548355	0.12884521
974863036963242	-0.5449524	6.086273	-0.19198608
974863042059678	-0.44558716	5.8217163	-0.24943542
974863047125596	-0.59402466	5.851654	-0.06867981
974863052191514	-0.83943176	6.065933	0.20664978
974863057257432	-1.077652	6.460968	0.44488525
974863062323349	-1.0046387	6.966156	0.657959
974863067389267	-1.1303253	7.4282227	0.65197754
974863072455185	-1.1794128	7.853195	0.3922119
974863077551621	-1.1351166	8.217117	0.018707275
974863082617539	-1.1590576	8.461334	-0.1776123
974863087683457	-1.1925812	8.619339	-0.0028381348
974863092749375	-1.2261047	8.566666	0.35150146
974863097815293	-1.259613	8.54512	0.78845215
974863102881211	-1.2955322	8.517593	1.262497
974863107947129	-1.0345612	8.496048	1.428894
974863113013047	-0.77119446	8.397888	1.5067139
974863118109482	-0.51501465	8.565475	1.4947357
974863123175400	-0.52220154	8.650467	1.4217072
974863128241318	-0.92562866	8.496048	1.365448
974863133307236	-1.4966431	8.351196	1.1667328
974863138373154	-1.8533783	8.248245	0.9787903
974863143439072	-1.5229797	8.323654	0.08215332
974863148504990	-1.666626	8.348801	-0.7187042
974863153570908	-2.0245667	8.260208	-0.9617157
974863158667344	-2.405243	8.092621	-0.9545288
974863163733262	-2.6865692	7.8699646	-0.84799194
974863168799180	-2.7188873	7.79335	-0.80729675
974863173865098	-3.033722	7.65448	-0.6073761
974863178931016	-3.3928528	7.5766754	-0.22549438
974863183996933	-3.6813507	7.6161804	0.13124084
974863189062851	-3.883667	7.780182	0.3431244
974863194128769	-3.899231	7.9525604	0.3934021
974863199225205	-4.1661835	8.225494	0.36946106
974863204291123	-4.124283	8.700745	0.53466797
974863209357041	-4.1386414	9.180786	0.721405
974863214422959	-4.082382	9.651245	1.0003357
974863219488877	-3.8178253	10.118118	1.1703186
974863224554795	-3.6897278	10.392258	1.1391907
974863229620713	-3.607132	10.517944	0.84710693
974863234717148	-3.1989288	10.559845	0.55381775
974863239783066	-2.8278198	10.516754	0.114471436
974863244848984	-2.4315796	10.628082	-0.22669983
974863249914902	-2.3370056	10.780106	-0.2925415
974863254980820	-2.329834	11.09256	-0.062698364
974863260046738	-2.4315796	11.351135	0.5119171
974863265112656	-2.5381165	11.412186	0.94047546
974863270209092	-2.642273	11.286484	0.9847717
974863275275010	-2.5728455	11.147629	0.6783142
974863280340928	-2.6446686	11.027908	0.34431458
974863285406846	-2.9439392	11.015945	0.35031128
974863290472764	-3.2922974	11.178741	0.642395
974863295538682	-3.9052124	11.473236	0.7657013
974863300604599	-4.394821	11.84314	0.90097046
974863305670517	-4.6881104	12.227402	0.7908325
974863310766953	-4.718048	12.53746	0.49516296
974863315832871	-4.8102264	12.608078	0.13841248
974863320898789	-4.7072754	12.501541	-0.17163086
974863325964707	-4.4510956	12.347122	-0.42541504
974863331030625	-4.413986	12.084946	-0.6361084
974863336096543	-4.421158	11.850327	-0.8096771
974863341192978	-4.4558716	11.729416	-0.9820709
974863346258896	-4.3529205	11.627655	-1.0754395
974863351324814	-4.0560455	11.583374	-1.0862122
974863356390732	-3.6442413	11.463654	-0.990448
974863361456650	-3.3713074	11.389435	-0.48287964
974863366522568	-3.2120972	11.223038	0.27488708
974863371588486	-3.105545	10.91539	0.94766235
974863376684922	-3.0397034	10.4748535	1.1380005
974863381750840	-2.8230286	9.94812	0.9392853
974863386816758	-2.5129852	9.468094	0.7657013
974863391882676	-2.2089233	8.934189	0.7956238
974863396948594	-1.8689423	8.443375	0.71183777
974863402014512	-1.5217896	7.947769	0.25453186
974863407080430	-0.8238678	7.4940643	-0.49723816
974863412146348	0.14457703	7.2378845	-1.4776611
974863417242783	1.0052948	7.270218	-2.1719818
974863422308701	1.7474976	7.843628	-2.434143
974863427374619	2.4142761	8.739059	-2.2809143
974863432440537	2.832077	9.930176	-2.0798035
974863437506455	3.16008	11.371475	-1.9074249
974863442572373	3.49646	12.706253	-1.776947
974863447638291	3.8316498	13.724976	-1.2561951
974863452704209	4.3045044	14.499512	-0.36436462
974863457800644	4.393097	14.9735565	0.6088867
974863462866562	3.8567963	15.2034	1.3462982
974863467932480	3.520401	15.235718	1.8167572
974863472998398	3.0762787	15.129181	1.677887
974863478064316	2.4633636	14.895752	1.0805359
974863483130234	1.9689636	14.555771	0.3646698
974863488226670	1.2902069	14.073334	-0.3655548
974863493292588	0.7000427	13.778854	-1.0407257
974863498358506	0.14099121	13.675903	-1.4896393
974863503424424	-0.5641022	13.772858	-1.2190857
974863508490342	-2.0664673	14.045807	-0.8049011
974863513556260	-3.6969147	14.210999	-0.7342682
974863518622178	-5.666153	14.286423	-1.3136597
974863523688096	-7.166107	13.699844	-2.1827545
974863528784531	-6.749527	13.292831	-2.844757
974863533850449	-5.6206512	12.551819	-2.6915283
974863538916367	-4.503769	11.694702	-1.994812
974863543982285	-3.5688324	11.01474	-1.539917
974863549048203	-2.6638184	10.318024	-1.3543701
974863554114121	-1.6235352	9.618927	-0.8671417
974863559180039	-2.1311035	8.971298	-2.1576233
974863564276474	-2.6458588	8.498444	-2.6975098
974863569342392	-2.5488892	7.8412323	-1.9409485
974863574408310	-2.8625336	7.23909	-1.6153259
974863579474228	-3.1306915	6.6728516	-1.6727905
974863584540146	-3.9506989	5.6996155	-1.6871643
974863589606064	-3.7879028	4.903549	-1.5291443
974863594671982	-3.3677063	4.1936646	-1.3807068
974863599768418	-3.3988342	3.792633	-1.3950653
974863604834336	-3.346161	3.681305	-1.4561157
974863609900254	-3.0564728	3.6046906	-1.3723145
974863614966172	-2.769165	3.5771637	-1.682373
974863620032090	-2.6494598	3.550827	-1.7984924
974863625098008	-2.1071625	3.5568085	-2.2462006
974863630163926	-1.4523468	3.4574432	-2.3180237
974863635229844	-0.95196533	3.3640747	-2.1181183
974863640295762	-0.80592346	3.3580933	-1.8583374
974863645392197	-0.66226196	3.3712616	-1.6105499
974863650458115	-0.37017822	3.413147	-1.350769
974863655524033	-2.746582E-4	3.5089264	-1.1951447
974863660589951	0.30140686	3.6011047	-1.1161346
974863665655869	0.42111206	3.603485	-1.0981903
974863670721787	0.43547058	3.5699768	-0.82884216
974863675818223	0.34091187	3.5029297	-0.77975464
974863680884141	0.21879578	3.3078156	-1.0610809
974863685950058	0.14099121	3.1689453	-1.4094238
974863691015976	0.2966156	3.093521	-1.4178162
974863696081894	0.59947205	3.0564117	-1.2561951
974863701147812	0.7982025	3.0276794	-0.9293976
974863706213730	0.9143219	2.9953613	-0.5977936
974863711310166	0.8377075	2.8995972	-0.35957336
974863716376084	0.7012329	2.795456	-0.3152771
974863721442002	0.50968933	2.6889038	-0.3715515
974863726507920	0.39956665	2.6266632	-0.49604797
974863731573838	0.3648529	2.6529999	-0.70314026
974863736639756	0.34449768	2.7355957	-0.9605255
974863741705674	0.16134644	2.8086243	-1.2382507
974863746771592	-0.13194275	2.8840332	-1.5961761
974863751837510	-0.3282776	2.973816	-2.0690308
974863756903428	-0.54255676	3.0959167	-2.6197052
974863761969346	-0.8693695	3.2778778	-3.2350159
974863767035264	-1.2691956	3.619049	-3.9257355
974863772131699	-1.780365	4.2128143	-4.706253
974863777197617	-2.5070038	5.0232544	-5.3646545
974863782263535	-3.0863953	6.147339	-5.94046
974863787329453	-3.7424011	7.5180054	-6.5282288
974863792395371	-4.8832397	8.9808655	-7.1327667
974863797461289	-6.3880005	10.628082	-7.797165
974863802527207	-8.041199	12.491959	-8.244873
974863807593125	-9.648895	14.358246	-8.691391
974863812689560	-11.164429	16.225723	-9.471909
974863817755478	-12.547089	17.865753	-9.979477
974863822821396	-13.78009	19.121506	-10.182983
974863827887314	-14.6073	19.736816	-9.833435
974863832953232	-14.483994	19.504578	-9.084045
974863838019150	-13.997971	18.177002	-8.322693
974863843085068	-12.501587	16.237701	-7.533798
974863848150986	-10.24147	14.218185	-6.9771423
974863853216904	-8.55954	12.371063	-6.8107452
974863858313340	-7.647354	10.741806	-6.8514557
974863863379258	-6.536438	9.341202	-6.698227
974863868445176	-5.5224915	7.9537506	-6.7353363
974863873511094	-4.6378326	6.5220184	-6.792801
974863878577012	-3.8884583	5.2758484	-6.726959
974863883642930	-2.88768	4.314575	-6.3367004
974863888739365	-1.7145233	3.7806702	-5.9883423
974863893805283	-0.5198059	3.5184937	-5.540619
974863898871201	0.25590515	3.1437988	-5.0845337
974863903937119	0.6138458	2.843338	-4.797226
974863909003037	0.50131226	3.0899353	-4.304016
974863914068955	-0.14750671	3.9530487	-3.4684448
974863919134873	-0.6850128	5.336899	-2.3683167
974863924231308	-0.73887634	6.8069305	-1.2059174
974863929297226	-0.428833	8.334442	-0.065093994
974863934363144	0.18887329	10.164795	0.90457153
974863939429062	1.085495	12.335144	1.5617676
974863944494980	1.9953003	14.732941	2.1663055
974863949560898	2.7470703	17.248047	3.4196777
974863954626816	3.8424225	19.942719	5.0525208
974863959692734	5.0191803	21.859283	5.6773987
974863964789170	6.5071716	22.102295	4.9770966
974863969855088	6.4042206	20.354523	3.3358765
974863974921006	2.9517822	16.49028	1.6587372
974863979986924	-0.8023224	12.466827	0.7836609
974863985052842	-2.1753998	10.134872	-0.38830566
974863990118760	-3.081604	8.497238	-2.4461212
974863995215195	-3.3222198	6.9733276	-4.369858
974864000281113	-2.9678802	5.848053	-4.8427124
974864005347031	-2.6518402	4.939453	-4.0993195
974864010412949	-2.5824127	4.1709137	-3.0733948
974864015478867	-2.911621	3.579544	-2.2342377
974864020544785	-3.2815247	3.4155426	-1.3591461
974864025610703	-3.4299622	3.5328674	-0.17881775
974864030676621	-3.2432098	3.8668518	1.2409515
974864035773057	-3.1881409	4.263092	2.5027008
974864040838974	-3.2970886	4.6952515	3.4699554
974864045904892	-2.9690857	5.0196686	4.2684174
974864050970810	-2.4279938	5.400345	4.5449524
974864056036728	-1.8653564	6.0635376	4.5329742
974864061102646	-1.2644043	6.9026947	4.5222015
974864066199082	-0.7975311	7.7550354	4.507843
974864071265000	-0.6742401	8.7630005	4.606003
974864076330918	-0.6167755	10.181564	4.6885986
974864081396836	-0.9866791	11.770111	4.6718445
974864086462754	-1.8581696	12.867859	4.111603
974864091528672	-2.5141754	13.3479	3.4005127
974864096594590	-2.5333405	13.4664	2.5685272
974864101660508	-2.216095	13.107269	1.9987183
974864106756943	-2.2208862	12.331558	1.930481
974864111822861	-2.2963104	11.395416	1.7856293
974864116888779	-2.1538544	10.419785	1.681488
974864121954697	-2.1909637	9.283737	1.302002
974864127020615	-2.2639923	8.181213	0.7788696
974864132086533	-2.2963104	7.1983795	0.01751709
974864137152451	-2.1442719	6.4106903	-0.75102234
974864142248887	-1.7911377	5.942627	-1.2861328
974864147314805	-1.117157	5.7163696	-1.5435028
974864152380723	-0.65148926	5.894745	-1.6117401
974864157446641	-0.58325195	6.4873047	-1.4345703
974864162512558	-0.76641846	7.310913	-0.911438
974864167578476	-1.017807	8.111771	-0.4589386
974864172644394	-1.0405426	8.821655	-0.18598938
974864177710312	-1.0249939	9.338806	0.01751709
974864182806748	-0.9603424	9.621323	0.23059082
974864187872666	-1.4140472	9.6488495	1.0649719
974864192938584	-3.3401794	8.851578	3.0605469
974864198004502	-2.5177765	9.058685	1.7581024
974864203070420	-1.0321655	9.385483	1.2457428
974864208136338	0.06317139	9.203537	0.5741577
974864213202256	0.6258087	8.943756	-0.01600647
974864218298691	0.43547058	8.425415	0.29403687
974864223364609	-0.037384033	8.036362	1.3331299
974864228430527	-0.3139038	8.029175	1.9735718
974864233496445	-0.84780884	7.9884796	2.4871368
974864238562363	-1.3757324	7.89151	2.5062866
974864243628281	-1.4284058	7.931015	1.8646393
974864248694199	-1.3122864	8.123749	1.1224365
974864253790635	-1.5205841	8.249435	0.34431458
974864258856553	-1.9635162	8.22789	-0.27337646
974864263922471	-2.3070831	8.123749	-0.51400757
974864269018906	-2.57164	7.9178467	-0.5427246
974864274084824	-2.7224731	7.7670135	-0.5235748
974864279150742	-2.800293	7.611389	-0.43618774
974864284216660	-2.8984528	7.4234467	-0.29014587
974864289282578	-2.9894257	7.2738037	-0.091430664
974864294348496	-2.9966125	7.285782	0.1982727
974864299414414	-3.010971	7.421051	0.44248962
974864304480332	-3.0995636	7.670044	0.54304504
974864309576767	-3.0600586	8.038757	0.6459961
974864314642685	-2.9068298	8.504425	0.6938782
974864319708603	-2.8852844	8.984467	0.72380066
974864324774521	-2.8589478	9.488434	0.7549286
974864329840439	-2.9044342	9.990021	0.7908325
974864334906357	-2.836197	10.42218	0.8518982
974864339972275	-2.8098602	10.788498	0.84950256
974864345068711	-2.9403534	10.97644	0.71661377
974864350134629	-2.8565521	11.124878	0.6100769
974864355200547	-2.9762573	11.108124	0.3574829
974864360266465	-2.9487305	11.07579	0.04864502
974864365332383	-3.0457	11.049454	-0.3368225
974864370398301	-3.176178	11.124878	-0.4816742
974864375494736	-3.3246155	11.31282	-0.36795044
974864380560654	-3.5855865	11.426544	-0.1273346
974864385626572	-3.7292328	11.486404	0.068984985
974864390692490	-3.9375305	11.407394	0.114471436
974864395758408	-3.883667	11.189514	-0.012420654
974864400824326	-3.7148743	11.031509	-0.22309875
974864405890244	-3.662201	10.947708	-0.28295898
974864410956162	-3.998581	10.922562	-0.23626709
974864416022080	-4.2332153	11.07579	-0.031570435
974864421118516	-4.366089	11.300858	0.18391418
974864426184433	-4.5624237	11.58815	0.26171875
974864431250351	-4.500168	11.937714	0.24736023
974864436316269	-4.4510956	12.263321	0.32876587
974864441382187	-4.4989777	12.606888	0.4508667
974864446448105	-4.3409576	12.889404	0.33114624
974864451544541	-4.0799866	13.097702	0.05102539
974864456610459	-3.5101624	13.181503	-0.06149292
974864461676377	-2.903244	12.89299	0.16714478
974864466742295	-2.738037	12.392609	0.657959
974864471808213	-2.90802	11.981995	0.99435425
974864476874131	-2.7727509	11.72821	1.108078
974864481940049	-2.2400513	11.474426	1.0194855
974864487005967	-1.6534576	11.060226	0.78845215
974864492102402	-0.9986572	10.412598	0.2844696
974864497168320	-0.19659424	9.612946	-0.36436462
974864502234238	0.67729187	8.995239	-0.9521332
974864507300156	1.3189392	8.6409	-1.6153259
974864512366074	1.8241119	8.616943	-2.2485962
974864517431992	2.0467682	8.892288	-2.6532135
974864522528428	1.9318542	9.460907	-2.7429962
974864527594346	1.8588257	10.312042	-2.4521027
974864532660264	1.8815765	11.402603	-2.1504364
974864537726182	2.3245087	12.527878	-1.7673645
974864542792099	2.871582	13.335922	-1.3531647
974864547858017	3.2414856	13.924896	-0.83003235
974864552923935	3.1888123	14.3055725	-0.105789185
974864557989853	2.8691864	14.529434	0.54782104
974864563055771	2.6237793	14.55098	1.0194855
974864568152207	2.5064545	14.462387	1.2385559
974864573218125	2.4837189	14.300781	1.250534
974864578284043	2.469345	13.786026	1.3486938
974864583349961	2.1269836	13.396973	1.0757446
974864588415879	1.6792603	13.212616	0.39819336
974864593481797	1.5428009	12.919327	-0.13212585
974864598547715	0.78263855	12.632034	-0.26260376
974864603644150	-0.5018616	12.533859	-0.6372986
974864608710068	-1.9264069	12.871445	-1.3328094
974864613775986	-3.8070526	13.304794	-1.718277
974864618841904	-5.906769	13.168335	-2.0606537
974864623907822	-6.832123	12.924118	-2.7717285
974864628973740	-6.8656464	12.615265	-3.133255
974864634039658	-5.916336	12.008331	-2.2330322
974864639105576	-3.678955	11.413376	-0.4517517
974864644202012	-2.8194427	11.019531	-1.208313
974864649267930	-3.057663	10.420975	-2.1085358
974864654333848	-3.8896484	9.952911	-2.417389
974864659399766	-4.1817474	9.651245	-2.59935
974864664465683	-4.0117493	9.195145	-2.2222595
974864669531601	-4.156601	8.475693	-2.3276062
974864674597519	-3.883667	7.5491333	-1.5818176
974864679693955	-3.9530945	6.5016785	-0.832428
974864684759873	-3.702896	5.4937134	-0.9246063
974864689825791	-3.4467163	4.723984	-1.1305084
974864694891709	-3.2922974	4.1888733	-1.1161346
974864699957627	-3.136673	4.002121	-1.1963501
974864705023545	-2.5117798	3.8608704	-1.7458191
974864710089463	-2.49263	3.6621552	-1.9912262
974864715155381	-2.5967865	3.3939972	-1.7553864
974864720251816	-1.8677521	3.116272	-1.7003326
974864725317734	-1.3637695	2.8995972	-1.9600983
974864730383652	-1.2656097	2.7906647	-1.970871
974864735449570	-1.0836487	2.692505	-1.8631287
974864740515488	-0.6826172	2.6482086	-1.5435028
974864745581406	-0.270813	2.693695	-1.4405518
974864750677842	0.16253662	2.7391815	-1.4321747
974864755743760	0.47618103	2.8361511	-1.4130249
974864760809678	0.6593323	2.8325653	-1.2059174
974864765875596	0.7048187	2.8062286	-1.0012207
974864770941514	0.7299652	2.796646	-1.2107086
974864776007432	0.6138458	2.7080536	-1.1939545
974864781073349	0.25350952	2.5835571	-1.5327301
974864786139267	0.25590515	2.5644073	-1.7841187
974864791235703	0.41392517	2.5691986	-1.6524353
974864796301621	0.5252533	2.5656128	-1.3088684
974864801367539	0.5037079	2.4782104	-0.85995483
974864806433457	0.37442017	2.4183655	-0.52238464
974864811499375	0.26190186	2.408783	-0.38830566
974864816565293	0.18408203	2.4039917	-0.35238647
974864821631211	0.1194458	2.4255524	-0.34880066
974864826727646	0.05718994	2.39682	-0.54393005
974864831793564	0.05479431	2.4039917	-0.8360138
974864836859482	-0.08766174	2.412384	-1.0754395
974864841925400	-0.28398132	2.4554749	-1.3687286
974864846991318	-0.42404175	2.5057526	-1.742218
974864852057236	-0.6060028	2.590744	-2.137268
974864857123154	-0.844223	2.6793365	-2.6292725
974864862189072	-1.1219482	2.8205872	-3.141632
974864867285508	-1.3446198	3.1066895	-3.7042694
974864872351426	-1.7767639	3.6549683	-4.29924
974864877417344	-2.2915192	4.534836	-4.924118
974864882483262	-2.872116	5.6601105	-5.470001
974864887549180	-3.5257263	7.0128326	-6.110443
974864892615098	-4.3517303	8.652863	-6.7018127
974864897681016	-5.61467	10.437744	-7.2620544
974864902746933	-7.2463226	12.329163	-7.762451
974864907843369	-8.935425	14.367828	-8.1515045
974864912909287	-10.619751	16.39093	-8.547745
974864917975205	-12.2226715	18.387695	-9.182205
974864923041123	-13.508362	20.197708	-9.518585
974864928107041	-14.732986	21.358887	-9.122345
974864933172959	-15.355484	21.66774	-8.496262
974864938238877	-14.965225	20.813019	-7.793564
974864943335312	-13.423355	18.700134	-6.9172974
974864948401230	-11.442154	15.970734	-6.5378113
974864953467148	-9.101822	13.508301	-6.501892
974864958533066	-7.3839874	11.3762665	-6.3295135
974864963598984	-6.1976624	9.450134	-6.5581665
974864968664902	-5.6158752	7.740677	-6.825119
974864973761338	-5.047241	6.294571	-6.9268646
974864978827256	-4.1183014	5.219574	-6.69104
974864983893174	-2.8350067	4.642578	-6.0446014
974864988959092	-1.5900116	4.4977264	-5.441269
974864994025010	-0.6826172	4.654541	-5.065384
974864999090928	-0.21455383	5.1273956	-4.548233
974865004156846	-0.27200317	6.065933	-4.094528
974865009222764	-0.7077484	7.2498627	-3.8000488
974865014319199	-1.0166016	8.612167	-3.1823425
974865019385117	-0.8011322	9.952911	-2.1240997
974865024451035	0.0045166016	11.104523	-1.014389
974865029516953	1.2207794	12.286072	0.4915619
974865034582871	2.0719147	13.332336	1.8347168
974865039648789	2.6908112	14.300781	2.5733185
974865044745224	2.8572083	15.390152	2.6056519
974865049811142	2.8380585	16.205368	2.057373
974865054877060	2.792572	16.088058	1.6683197
974865059942978	2.970932	14.667099	1.9017487
974865065008896	2.6333466	12.0634	1.8191528
974865070074814	1.4218903	9.353165	1.286438
974865075140732	0.22358704	7.5491333	0.25932312
974865080206650	-0.049346924	6.967346	-1.0000305
974865085303086	0.016494751	6.9565735	-1.9924164
974865090369004	-0.2121582	7.145706	-2.334793
974865095434922	-0.90408325	7.2498627	-2.2773285
974865100500840	-1.6199493	7.16008	-1.9648895
974865105566758	-2.2089233	6.9817047	-1.1077576
974865110632676	-2.6362915	6.8153076	0.02708435
974865115698594	-2.9523163	6.6094055	1.0003357
974865120764512	-3.073227	6.476532	1.8466797
974865125860947	-3.002594	6.404709	2.73732
974865130926865	-3.0289307	6.480133	3.6004333
974865135992783	-3.1725922	6.7638397	4.1307526
974865141058701	-3.1570282	7.065506	4.3474274
974865146124619	-2.8433838	7.4425964	4.428833
974865151190537	-2.5548859	7.9214325	4.337845
974865156286973	-2.405243	8.427811	4.191803
974865161352891	-2.1981506	8.989243	4.045761
974865166418808	-1.9730835	9.743423	3.8350677
974865171484726	-2.0389252	10.4904175	3.2317352
974865176550644	-2.338211	11.229019	2.5577545
974865181616562	-2.7344513	11.62886	1.9280853
974865186682480	-2.9379578	11.522308	1.420517
974865191748398	-2.5991821	11.245789	0.95843506
974865196844834	-2.0604858	10.91658	0.6962738
974865201910752	-1.5696716	10.491608	0.8339386
974865206976670	-1.2380676	9.877502	1.2541199
974865212042588	-1.314682	9.190369	1.6204376
974865217108506	-1.2272949	8.457733	1.7940063
974865222174424	-1.2895508	7.713135	1.5282593
974865227240342	-1.3362274	7.1301575	1.0087128
974865232306260	-1.3122864	6.793762	0.3646698
974865237402695	-1.4463654	6.6608887	-0.24345398
974865242468613	-1.3278503	6.638138	-0.65286255
974865247534531	-1.3529968	6.9529877	-0.89468384
974865252600449	-1.4475708	7.4545593	-0.88391113
974865257666367	-1.4116516	8.021988	-0.6839905
974865262732285	-1.354187	8.509216	-0.31887817
974865267798203	-1.3398285	8.813278	-0.031570435
974865272894639	-1.1087799	8.954529	0.07736206
974865277930039	-1.0680847	8.915024	0.21862793
974865283026474	-0.978302	8.757019	0.38142395
974865288092392	-0.71014404	8.576248	0.46043396
974865293158310	-0.47911072	8.454147	0.7680969
974865298224228	-0.349823	8.309296	1.2792511
974865303290146	-0.43481445	8.206345	1.851471
974865308386582	-0.5653076	8.153671	2.2082062
974865313452500	-0.4575653	8.197968	2.4200897
974865318518418	-0.5341797	8.24585	2.3518524
974865323584336	-0.7436676	8.314087	2.06456
974865328650254	-1.156662	8.389496	1.6898651
974865333716172	-1.4308014	8.351196	1.2804565
974865338782090	-1.6211395	8.278168	0.9069519
974865343848008	-1.4894562	8.547516	0.25334167
974865348944443	-2.0161896	8.448166	-0.18598938
974865354010361	-2.4890442	8.104599	-0.4086609
974865359076279	-2.5070038	7.8029175	-0.5786438
974865364142197	-2.5824127	7.456955	-0.5283661
974865369208115	-2.7488098	7.266617	-0.35238647
974865374274033	-3.009781	7.1540985	-0.20515442
974865379370469	-3.1594238	7.1157837	0.04864502
974865384436387	-3.0780182	7.279785	0.32157898
974865389502305	-3.1558228	7.57547	0.558609
974865394568223	-3.2516022	7.8747406	0.6507721
974865399634141	-3.3689117	8.239868	0.7046509
974865404700058	-3.492218	8.56308	0.7106323
974865409765976	-3.3521576	8.876724	0.6795044
974865414831894	-3.0516815	9.221481	0.6364136
974865419897812	-2.9343567	9.451324	0.64479065
974865424963730	-2.7871246	9.720673	0.5885315
974865430060166	-2.5620575	9.949326	0.56817627
974865435126084	-2.3430023	10.148041	0.6016998
974865440192002	-2.3214417	10.298874	0.62564087
974865445257920	-2.3406067	10.385071	0.53585815
974865450323838	-2.3453827	10.449707	0.30841064
974865455389756	-2.3358154	10.630478	-0.00642395
974865460486191	-2.4243927	10.867508	-0.34761047
974865465552109	-2.460312	11.124878	-0.6768036
974865470618027	-2.420807	11.393021	-0.8252411
974865475683945	-2.3597565	11.558228	-0.7558136
974865480749863	-2.5369263	11.542664	-0.57266235
974865485815781	-2.7464142	11.412186	-0.2709961
974865490881699	-2.96669	11.165573	-0.0076293945
974865495947617	-3.0911865	10.948898	0.24375916
974865501044053	-3.3138428	10.764557	0.3934021
974865506109971	-3.579605	10.693924	0.44847107
974865511175889	-3.773529	10.708282	0.45565796
974865516241807	-4.05365	10.702301	0.42453003
974865521307724	-4.242798	10.695114	0.23179626
974865526373642	-4.424759	10.8112335	0.07258606
974865531439560	-4.379257	10.969254	-0.06149292
974865536505478	-4.440323	11.059036	-0.12973022
974865541601914	-4.413986	11.13446	-0.13331604
974865546667832	-4.4379272	11.189514	-0.15008545
974865551733750	-4.3002625	11.297256	-0.18959045
974865556799668	-3.914795	11.354721	-0.057907104
974865561865586	-3.655014	11.236206	0.20187378
974865566931504	-3.5508728	11.012344	0.6651459
974865571997422	-3.4191895	10.8112335	1.0242767
974865577093857	-3.3138428	10.723846	1.0506134
974865582159775	-3.0828094	10.691528	0.88661194
974865587225693	-2.7152863	10.629272	0.73217773
974865592291611	-2.1694183	10.347961	0.4736023
974865597357529	-1.4595337	9.77095	0.12644958
974865602423447	-0.547348	9.310074	-0.4086609
974865607519883	0.33132935	9.003616	-0.81207275
974865612585801	0.97776794	8.962906	-1.0263519
974865617651719	1.5463867	9.132904	-1.2621918
974865622717637	1.7953796	9.463303	-1.6835632
974865627783555	1.9210815	10.095367	-2.0570679
974865632849473	1.9917145	11.031509	-2.1899414
974865637915391	2.1772614	12.150787	-2.2138824
974865642981308	2.334076	13.346695	-2.120514
974865648077744	2.6405334	14.467178	-1.7853241
974865653143662	3.0224152	15.145935	-1.2250824
974865658209580	3.326477	15.399719	-0.42422485
974865663275498	3.436615	15.254868	0.2557373
974865668341416	3.5706787	14.957993	0.7968292
974865673407334	3.6616669	14.664703	1.0554047
974865678473252	3.4868927	14.505493	1.1559601
974865683569687	3.3204956	14.361832	1.1116638
974865688635605	3.0272064	13.896164	1.0853271
974865693701523	2.50885	13.365845	0.7836609
974865698767441	1.9881134	13.126434	0.4340973
974865703833359	1.3823853	13.045029	-0.14768982
974865708899277	0.4857483	12.933701	-1.069458
974865713965195	-0.63952637	12.73497	-1.1975403
974865719031113	-2.0844269	12.524292	-1.2645874
974865724127549	-3.4898224	12.4991455	-2.0522766
974865729193467	-4.4427032	12.452469	-2.9764404
974865734259385	-5.2651215	12.253738	-3.7641296
974865739325303	-5.160965	11.940109	-3.3738708
974865744391221	-4.1829376	11.47084	-2.0379028
974865749457139	-2.7188873	10.583786	-0.08543396
974865754523057	-3.4562988	9.9253845	-2.219864
974865759588974	-4.856903	9.683563	-3.8191986
974865764685410	-5.504532	9.389084	-4.264511
974865769751328	-4.8820496	8.650467	-3.6839294
974865774817246	-4.6761475	7.8903046	-3.086563
974865779883164	-4.611496	7.3671722	-2.9979858
974865784949082	-4.228424	6.7075806	-2.2138824
974865790015000	-4.085968	5.9677734	-1.5973816
974865795111435	-4.038086	4.9669952	-1.0682526
974865800177353	-3.5807953	4.2738647	-0.6875763
974865805243271	-3.2216644	4.0200806	-0.05192566
974865810309189	-2.5979767	3.7483368	0.36108398
974865815375107	-2.362152	3.5089264	-0.043533325
974865820441025	-2.461502	3.5663757	-0.38591003
974865825506943	-2.4184113	3.7064362	-0.86834717
974865830572861	-1.7240906	3.657364	-1.3447876
974865835669297	-1.4224243	3.6070862	-1.5327301
974865840735215	-1.0046387	3.5448303	-1.476471
974865845801133	-0.5258026	3.4155426	-1.1712036
974865850867051	-0.1439209	3.337738	-0.94854736
974865855932969	0.14936829	3.310196	-1.1508636
974865860998887	0.25350952	3.3030243	-1.3004913
974865866064805	0.58032227	3.3281555	-1.445343
974865871130723	0.84010315	3.322174	-1.3531647
974865876227158	0.7203827	3.2299957	-1.3555603
974865881293076	0.6473694	3.2635193	-1.460907
974865886358994	0.4450531	3.258728	-1.7541962
974865891424912	0.28344727	3.2479553	-2.0881805
974865896490830	0.32774353	3.2407684	-2.2689514
974865901556748	0.38639832	3.2407684	-2.1468506
974865906653183	0.3361206	3.2479553	-1.816452
974865911719101	0.2283783	3.2527466	-1.603363
974865916785019	0.12542725	3.3018188	-1.6464539
974865921850937	0.026062012	3.3664703	-1.7386322
974865926916855	-0.014633179	3.4430847	-1.9241791
974865931982773	-0.17744446	3.5184937	-2.049881
974865937048691	-0.37017822	3.5831451	-2.1001587
974865942145127	-0.55332947	3.6705322	-2.1540222
974865947211045	-0.7903595	3.736374	-2.2222595
974865952276963	-1.0632935	3.784256	-2.3994293
974865957342881	-1.4750977	3.8225555	-2.7190552
974865962408799	-1.8629608	3.8512878	-3.2074738
974865967474717	-2.3034973	3.9087524	-3.809616
974865972540635	-2.8936615	4.089508	-4.551819
974865977606553	-3.4934082	4.437866	-5.240158
974865982672471	-4.1027374	4.969391	-5.9464417
974865987768906	-4.6845245	5.6840515	-6.462387
974865992834824	-5.572769	6.615402	-6.7951813
974865997900742	-6.4526367	7.579071	-7.288391
974866002966660	-7.2379456	8.570267	-7.7636414
974866008032578	-8.203995	9.700333	-8.035385
974866013098496	-9.610596	10.896225	-8.017426
974866018164414	-10.816071	12.16037	-7.825897
974866023260849	-11.557083	13.3012085	-7.699005
974866028326767	-12.068237	14.254105	-7.529007
974866033392685	-12.381882	14.86702	-7.572113
974866038458603	-12.276535	15.144745	-7.449997
974866043524521	-11.794113	15.044189	-7.0046844
974866048590439	-10.289352	14.663513	-6.2983856
974866053656357	-8.631363	13.964401	-5.7967987
974866058752793	-7.3648376	13.144379	-5.4520416
974866063818711	-5.8983917	12.347122	-5.0761566
974866068884629	-4.958664	11.60611	-5.145584
974866073950547	-4.3924255	10.812439	-5.272476
974866079016465	-3.6610107	9.9253845	-5.497528
974866084112900	-2.757187	9.160431	-5.753708
974866089178818	-1.527771	8.784546	-6.0446014
974866094244736	-0.586853	8.953339	-6.418106
974866099310654	-0.2851715	9.791306	-6.5545654
974866104376572	-0.8238678	11.194305	-6.5066833
974866109442490	-1.8869019	12.903763	-6.203827
974866114508408	-2.7919006	14.619217	-5.6411896
974866119574326	-2.9535217	16.11081	-4.9097595
974866124640244	-2.3669434	17.456345	-3.298462
974866129706162	-1.4308014	18.708511	-1.243042
974866134772080	-0.591629	19.344177	0.10609436
974866139868516	0.2571106	19.046097	-0.23387146
974866144934433	1.1824646	17.819061	-1.2585907
974866150000351	2.1186066	15.327896	-1.3232422
974866155066269	2.603424	11.492386	-0.05670166
974866160132187	2.5770874	7.3719635	1.1966553
974866165198105	2.2083893	4.0751495	1.215805
974866170264023	2.3233032	2.1549988	0.65197754
974866175360459	2.832077	1.2775269	0.12046814
974866180426377	3.2809906	1.2799225	0.17433167
974866185492295	3.1708527	1.8246002	0.5562134
974866190558213	2.6716614	2.3980103	0.8351288
974866195624131	2.0312042	2.776291	0.9680176
974866200690049	1.5679321	3.0839539	1.325943
974866205755967	1.164505	3.523285	1.8789978
974866210852402	0.64974976	4.0919037	2.685852
974866215918320	0.003326416	4.994522	3.436432
974866220984238	-0.84780884	5.8887634	3.9643555
974866226050156	-1.7600098	6.938614	4.392914
974866231116074	-2.3944702	8.102203	4.5497437
974866236181992	-2.6482544	9.125717	4.430023
974866241247910	-3.1223145	9.8463745	4.2648315
974866246344346	-3.5089722	10.306061	4.085266
974866251410264	-3.8034515	10.629272	3.753662
974866256476182	-4.1542053	10.878281	3.3681946
974866261542099	-4.4774323	11.045868	3.029419
974866266608017	-4.745575	11.17276	2.776825
974866271673935	-4.8437347	11.235016	2.151947
974866276739853	-4.6677704	11.129669	1.4420624
974866281805771	-4.595932	10.936935	0.7944336
974866286902207	-4.440323	10.631668	0.14680481
974866291968125	-3.9638672	10.308456	-0.3547821
974866297034043	-3.1821594	10.016357	-0.76060486
974866302099961	-1.9252014	9.684769	-0.85876465
974866307165879	-0.6538849	9.252609	-0.7486267
974866312231797	0.0907135	8.70195	-0.47927856
974866317297715	0.5432129	8.132126	-0.3140869
974866322394150	0.6006775	7.6496887	-0.2745819
974866327460068	0.41392517	7.39711	-0.30810547
974866332525986	0.16732788	7.2845764	-0.31887817
974866337591904	-0.092453	7.2773895	-0.3547821
974866342657822	-0.24926758	7.381546	-0.2135315
974866347723740	-0.23251343	7.543152	-0.02079773
974866352789658	-0.15708923	7.7071533	0.1767273
974866357855576	-0.2636261	7.903473	0.40538025
974866362951647	-0.42045593	8.0950165	0.5502167
974866368017565	-0.6634674	8.255432	0.6603546
974866373083483	-0.85739136	8.4110565	0.9237213
974866378149401	-1.5074158	8.46611	1.3750305
974866383215318	-2.523758	8.481674	2.3075714
974866388281236	-2.2292633	8.616943	2.3506622
974866393347154	-0.7125397	8.989243	0.9273071
974866398443590	-0.5593109	9.152054	0.39819336
974866403509508	-1.2320862	9.150864	0.66633606
974866408575426	-1.701355	9.03952	0.72021484
974866413641344	-1.58284	9.142471	0.25932312
974866418707262	-1.6905823	9.300491	0.061798096
974866423773180	-2.0604858	9.304092	-0.065093994
974866428839098	-2.0963898	9.189163	-0.3332367
974866433905016	-2.0113983	9.162827	-0.4517517
974866439001451	-1.958725	9.058685	-0.28894043
974866444067369	-2.4303894	8.688782	-0.13691711
974866449133287	-2.697342	8.378723	-0.08543396
974866454199205	-2.7739563	8.169235	-0.14529419
974866459265123	-2.7356415	7.9046783	-0.24584961
974866464331041	-2.7978973	7.6652527	-0.23626709
974866469396959	-2.9858398	7.354004	-0.18359375
974866474493395	-2.8816833	7.093048	0.0031433105
974866479559313	-2.757187	6.9817047	0.22819519
974866484625231	-2.6255035	6.9649506	0.40298462
974866489691149	-2.4160156	7.00206	0.5849457
974866494757067	-2.3753204	7.069092	0.6244354
974866499822984	-2.2843323	7.266617	0.65556335
974866504888902	-2.3813019	7.515625	0.598114
974866509985338	-2.595581	7.7514496	0.44128418
974866515051256	-2.5249481	8.126144	0.19108582
974866520117174	-2.456726	8.493652	0.109695435
974866525183092	-2.461502	8.818069	0.02468872
974866530249010	-2.3334198	9.134094	0.13482666
974866535314928	-2.3417969	9.396271	0.25334167
974866540380846	-2.5034027	9.517166	0.3538971
974866545446764	-2.4651031	9.586609	0.4736023
974866550543199	-2.4746704	9.636887	0.50712585
974866555609117	-2.619522	9.620117	0.5490265
974866560675035	-2.6949463	9.61055	0.56817627
974866565740953	-2.7260742	9.639282	0.6759186
974866570806871	-2.752411	9.591385	0.6866913
974866575903307	-2.6686096	9.53273	0.66156006
974866580969225	-2.6697998	9.641663	0.47120667
974866586035143	-2.657837	9.834396	0.21144104
974866591101061	-2.6087494	10.170792	-0.038757324
974866596166979	-2.4399567	10.531113	-0.16804504
974866601232897	-2.298706	10.909393	-0.22789001
974866606298815	-2.2615967	11.152405	-0.25064087
974866611364733	-2.33461	11.310425	-0.1776123
974866616430651	-2.532135	11.419357	-0.02079773
974866621496568	-2.736847	11.439713	0.22221375
974866626593004	-2.8421936	11.446899	0.32037354
974866631658922	-3.3605347	11.394226	0.5155029
974866636724840	-3.8824615	11.327194	0.5167084
974866641790758	-4.129074	11.361908	0.3862152
974866646856676	-4.6007233	11.493591	0.21264648
974866651922594	-4.92395	11.58815	0.0390625
974866657019029	-5.02211	11.636032	-0.13571167
974866662084947	-5.2220154	11.664764	-0.19915771
974866667150865	-5.20047	11.650406	-0.081848145
974866672216783	-5.184906	11.621674	0.15158081
974866677282701	-5.0999146	11.625259	0.28326416
974866682348619	-5.037674	11.618088	0.1587677
974866687414537	-4.884445	11.616882	-0.105789185
974866692480455	-4.649811	11.570206	-0.5104065
974866697546373	-4.29187	11.3762665	-0.7438507
974866702612291	-3.9662628	11.098541	-0.55589294
974866707678209	-3.7447968	10.9453125	-0.11177063
974866712744127	-3.4981995	10.710678	0.37425232
974866717810045	-3.1725922	10.387466	0.66633606
974866722906481	-2.5860138	10.047485	0.7333832
974866727972399	-1.8545837	9.627304	0.53466797
974866733038317	-0.7975311	9.175995	-0.062698364
974866738104234	0.41392517	8.700745	-0.8851013
974866743170152	1.26268	8.274582	-1.6668091
974866748236070	1.614624	8.190781	-2.2138824
974866753301988	1.8049622	8.554703	-2.4664764
974866758367906	2.038391	9.19635	-2.8136292
974866763464342	2.2478943	10.266556	-3.2326202
974866768530260	2.219162	11.749771	-3.5223083
974866773596178	2.0036774	13.198257	-3.3487396
974866778662096	1.9976959	14.232544	-2.8184204
974866783728014	2.2802124	14.943634	-1.9241791
974866788793932	2.4442139	15.446411	-0.78215027
974866793859850	2.602234	15.720551	0.20425415
974866798956285	2.5758972	15.823502	0.88900757
974866804022203	2.4789276	16.012634	1.2732697
974866809088121	2.1545105	16.1922	1.262497
974866814154039	1.6768646	15.947998	1.2301788
974866819250475	1.8660126	15.195023	1.6252136
974866824316393	1.4542084	14.51387	1.0781403
974866829382311	1.0759277	13.910538	0.2629242
974866834448229	-0.23251343	13.358673	-0.25543213
974866839514147	-2.0437164	13.098892	-1.263382
974866844580065	-3.9291534	12.869049	-1.9936218
974866849645983	-6.085129	12.7912445	-2.4473114
974866854711901	-7.0763245	12.709839	-3.3164063
974866859777818	-6.6896667	12.869049	-4.0251007
974866864874254	-5.8852234	12.615265	-3.5307007
974866869940172	-4.8988037	11.862289	-2.4245758
974866875006090	-3.7639465	11.339157	-2.7609558
974866880072008	-3.354538	10.895035	-3.2733154
974866885137926	-3.8034515	10.346756	-2.9141846
974866890203844	-4.0955505	9.797287	-2.2749329
974866895269762	-4.7359924	9.253815	-2.789688
974866900335680	-4.8353577	8.797714	-2.9189758
974866905401598	-4.2810974	8.40387	-2.4676666
974866910498033	-3.543686	7.5922394	-1.3447876
974866915563951	-4.168579	6.3316803	-0.7270813
974866920629869	-4.4941864	5.4147034	-0.87312317
974866925695787	-4.120697	4.6449738	-0.5295563
974866930761705	-3.9207764	3.894394	-0.44456482
974866935827623	-3.9902039	3.416748	-0.63131714
974866940893541	-3.9363403	2.918747	-0.7187042
974866945959459	-3.8704987	2.372879	-0.94854736
974866951025377	-3.4443207	2.1645813	-1.4860535
974866956121813	-2.8577423	2.0556335	-1.9421387
974866961187731	-2.1694183	1.9287415	-1.9529114
974866966253649	-1.591217	1.8605194	-1.579422
974866971319567	-1.0357666	1.9024048	-1.1257172
974866976385484	-0.567688	1.977829	-1.0179749
974866981451402	0.02128601	2.1071167	-0.8252411
974866986547838	0.41990662	2.0305023	-0.57624817
974866991613756	0.59469604	2.0185242	-0.7869415
974866996679674	0.7958069	2.049652	-1.124527
974867001745592	0.83410645	2.1059265	-1.243042
974867006811510	0.6868744	2.1849213	-1.1903687
974867011877428	0.6916504	2.2328186	-1.1233215
974867016943346	0.7275696	2.285492	-1.0562897
974867022009264	0.8748169	2.3585052	-1.0275574
974867027105699	1.010086	2.4351196	-1.0000305
974867032171617	1.1740875	2.5464478	-0.9234009
974867037237535	1.3692169	2.6553955	-0.89468384
974867042303453	1.5284271	2.764328	-0.8036957
974867047369371	1.674469	2.8217926	-0.9210205
974867052435289	1.808548	2.9558563	-1.0371399
974867057501207	1.769043	3.052826	-1.2190857
974867062597643	1.6325836	3.1617584	-1.3567657
974867067663561	1.5236359	3.3245697	-1.5327301
974867072759996	1.2890015	3.5125122	-1.7482147
974867077825914	1.0352173	3.6848907	-2.0474854
974867082891832	0.8353119	3.8488922	-2.4353485
974867087957750	0.6904602	4.005722	-2.8734894
974867093023668	0.44863892	4.1972504	-3.4911957
974867098089586	0.048812866	4.4965363	-4.191498
974867103155504	-0.523407	4.914322	-4.9767914
974867108251940	-1.3015137	5.5691376	-5.738144
974867113317858	-2.0652618	6.495682	-6.3414917
974867118383776	-2.9858398	7.693985	-6.8299103
974867123449693	-4.0632324	8.970093	-7.381775
974867128515611	-5.2962494	10.331192	-7.870178
974867133581529	-6.8417053	11.797653	-8.436417
974867138647447	-8.734314	13.098892	-8.703369
974867143713365	-10.696365	14.51506	-8.856598
974867148809801	-12.415405	15.901306	-9.102005
974867153875719	-13.367096	17.075668	-8.985886
974867158941637	-13.751373	17.83223	-9.072067
974867164007555	-13.625671	18.046509	-9.178619
974867169073473	-13.231827	17.765198	-9.355789
974867174139391	-12.354355	17.030182	-9.312698
974867179205309	-10.205551	15.987503	-8.757233
974867184271227	-7.8592377	14.659912	-7.896515
974867189367662	-6.6334076	13.041443	-7.169876
974867194433580	-5.401581	11.407394	-6.27684
974867199499498	-4.176956	9.920593	-5.575348
974867204565416	-3.7064972	8.473297	-6.1307983
974867209631334	-3.1103363	7.295349	-6.5354156
974867214697252	-2.3250427	6.3352814	-6.0805206
974867219793688	-1.4559479	5.3799896	-5.2102203
974867224859606	-0.8190918	4.4390717	-4.5733643
974867229925524	-0.30673218	3.6453857	-4.579361
974867234991442	-0.07807922	3.2335815	-4.824753
974867240057359	-0.13673401	3.298233	-4.481186
974867245123277	-0.37734985	3.863266	-3.7090607
974867250189195	-0.646698	4.9669952	-2.6723785
974867255255113	-0.4970703	6.334076	-1.3711243
974867260351549	-0.051742554	7.8148956	-0.06149292
974867265417467	0.9538269	9.766174	1.0913086
974867270483385	2.132965	12.45845	2.472763
974867275549303	3.39711	15.508667	4.6443024
974867280615221	4.1440887	18.558868	7.006195
974867285681139	4.891083	21.328964	8.1111145
974867290747057	6.3527527	23.15335	7.2444153
974867295812975	7.670761	22.596695	5.34581
974867300909410	6.394638	18.830612	3.8781586
974867305975328	1.5032959	13.68428	3.0030823
974867311041246	-2.1119537	10.6137085	1.4564209
974867316107164	-3.947113	9.089798	-1.3483734
974867321173082	-4.5265045	7.947769	-4.0286865
974867326239000	-4.337372	6.8536224	-4.980377
974867331304918	-4.2380066	5.6912384	-4.7194214
974867336401354	-4.2487793	4.512085	-3.9365082
974867341467272	-4.0345	3.7495422	-2.6831512
974867346533190	-3.496994	3.5137024	-1.0024109
974867351599108	-2.9930267	3.6561584	0.8925934
974867356665026	-2.6386719	4.014099	2.4105225
974867361730943	-2.4160156	4.491745	3.259262
974867366796861	-2.192154	5.1705017	3.7907715
974867371862779	-2.0568848	6.0168457	3.8590088
974867376928697	-1.6390991	7.113388	3.595642
974867382025133	-1.0632935	8.454147	3.1347656
974867387091051	-0.43721008	9.781723	3.013855
974867392156969	0.24273682	11.071014	3.3286896
974867397222887	0.43307495	12.253738	3.444809
974867402288805	0.21520996	13.062988	3.1922302
974867407354723	-0.099624634	13.420914	2.7265472
974867412451158	-0.8621826	13.317963	1.969986
974867417517076	-1.8102875	12.91095	1.2253876
974867422582994	-2.6961365	12.3806305	0.8339386
974867427648912	-3.354538	11.730606	1.4815674
974867432714830	-3.7879028	10.958481	2.2800293
974867437780748	-4.062027	10.1827545	2.732544
974867442846666	-3.8932343	9.442947	2.756485
974867447912584	-3.749588	8.649277	2.5086823
974867453009020	-3.734024	7.6018066	2.0106812
974867458074938	-3.5820007	6.5100555	1.3714294
974867463140856	-3.2384338	5.649338	0.8195648
974867468206774	-2.7440186	5.120224	0.2952423
974867473272692	-2.022171	4.859253	-0.0758667
974867478338609	-1.7205048	4.9765625	-0.42182922
974867483435045	-1.5086212	5.425476	-0.4816742
974867488500963	-1.2919464	6.2371216	-0.30570984
974867493566881	-1.3087006	7.1145935	-0.34999084
974867498632799	-1.4439697	7.8232727	-0.40745544
974867503698717	-1.4810791	8.413437	-0.47808838
974867508764635	-1.2763824	8.869537	-0.6732178
974867513830553	-0.85020447	9.159241	-0.6277313
974867518896471	-0.57847595	9.245422	-0.20515442
974867523962389	-0.32946777	9.035934	0.5167084
974867529058824	0.03564453	8.798904	1.2660828
974867534124742	0.41152954	8.505615	1.8562622
974867539190660	0.43069458	8.211136	2.1615143
974867544256578	0.59588623	7.954956	2.0382233
974867549322496	0.92388916	8.035156	1.9053345
974867554388414	0.9179077	8.18959	1.7760468
974867559484850	0.30978394	8.132126	1.8610535
974867564550768	-0.27679443	8.053116	1.5090942
974867569616686	-0.43721008	8.199158	0.9907532
974867574682604	-0.6179657	8.406265	0.43051147
974867579748522	-1.1626587	8.548721	-0.15127563
974867584814440	-1.7564087	8.650467	-0.6265259
974867589880358	-2.2412415	8.594208	-0.9042511
974867594946276	-2.6626282	8.44696	-0.911438
974867600012193	-3.1151276	8.205154	-0.6875763
974867605078111	-3.2503967	7.934601	-0.25782776
974867610174547	-3.176178	7.750244	0.030685425
974867615240465	-3.428772	7.503647	0.27609253
974867620306383	-3.5460815	7.361191	0.3467102
974867625372301	-3.5508728	7.4066772	0.40298462
974867630438219	-3.5616455	7.7275085	0.56578064
974867635534654	-3.4467163	8.196762	0.7465515
974867640600572	-3.325821	8.889893	0.91534424
974867645666490	-3.3138428	9.683563	0.96681213
974867650732408	-3.3605347	10.414993	0.9213257
974867655798326	-3.4108124	11.044678	0.63282776
974867660864244	-3.4323578	11.525909	0.19229126
974867665930162	-3.6526184	11.729416	-0.47450256
974867670996080	-3.8477478	11.815598	-0.9928436
974867676061998	-3.8537292	11.812012	-1.2442322
974867681158434	-3.8704987	11.74617	-1.1987457
974867686224352	-3.7447968	11.682724	-0.89826965
974867691290270	-3.7436066	11.589355	-0.4984436
974867696356188	-3.8034515	11.372681	-0.16564941
974867701422106	-3.8585205	11.199097	0.11807251
974867706488024	-4.108719	11.080582	0.40896606
974867711553942	-4.3086395	11.205078	0.6759186
974867716650377	-4.319412	11.451691	0.7441559
974867721716295	-4.452286	11.753357	0.59690857
974867726782213	-4.54805	11.944885	0.31918335
974867731848131	-4.5025635	12.209457	0.01991272
974867736914049	-4.531296	12.493164	-0.17402649
974867741979967	-4.3720856	12.677521	-0.1955719
974867747045885	-4.240402	12.810394	-0.17402649
974867752111803	-4.149414	12.963623	-0.28894043
974867757208238	-4.160187	13.195862	-0.48886108
974867762274156	-3.8668976	13.473587	-0.33802795
974867767340074	-3.4036255	13.540619	0.25813293
974867772405992	-3.1354828	13.211426	1.152359
974867777471910	-2.90802	12.816376	1.9268951
974867782537828	-2.7272644	12.3411255	1.9185028
974867787634264	-2.3633423	11.709061	1.5186768
974867792700182	-1.7073364	11.148819	1.0793457
974867797766100	-0.9100647	10.425766	0.6172638
974867802832018	0.012893677	9.810455	-0.06867981
974867807897936	0.86283875	9.338806	-0.80729675
974867812963854	1.6313782	9.251419	-1.3088684
974867818029772	2.1700745	9.511185	-1.737442
974867823095690	2.468155	10.091782	-2.1743774
974867828161608	2.76503	10.97644	-2.4700623
974867833258043	2.9302368	12.078964	-2.607727
974867838323961	3.1169891	13.274872	-2.5179443
974867843389879	3.6209564	14.231354	-2.1468506
974867848455797	4.0363617	14.687454	-1.5758209
974867853521715	4.4517517	14.916092	-0.6576538
974867858618151	4.64328	14.969971	0.27967834
974867863684068	4.5882263	14.618011	1.0589905
974867868749986	4.38591	14.152344	1.4037628
974867873815904	4.0794525	13.772858	1.4564209
974867878881822	3.5886383	13.4664	1.1463776
974867883947740	3.1301575	13.067764	0.6507721
974867889013658	2.919464	12.610474	0.15757751
974867894079576	2.2012024	12.020309	-0.45773315
974867899145494	1.7846069	11.839554	-0.3727417
974867904241930	1.3668213	12.207062	0.121658325
974867909307848	0.44026184	12.6176605	-0.5858307
974867914373766	-1.017807	12.98877	-1.9170074
974867919439684	-2.800293	13.399368	-2.7597656
974867924505602	-4.6282654	13.590912	-3.0997314
974867929571520	-6.1581573	13.708221	-3.4109802
974867934637438	-6.469406	13.4640045	-3.7581482
974867939733873	-5.9654236	12.614075	-2.9213715
974867944799791	-4.750366	11.382248	-1.5435028
974867949865709	-3.4120026	10.351547	-0.792923
974867954931627	-2.6650085	9.530334	0.3179779
974867959997545	-3.6717834	8.698349	-0.6696167
974867965063463	-4.4869995	8.291336	-1.9050293
974867970129381	-4.394821	8.24704	-2.02594
974867975225817	-3.9411316	7.97171	-1.8906708
974867980291734	-4.187729	7.1337433	-1.0251617
974867985357652	-3.87648	6.366394	-0.43139648
974867990423570	-4.153015	5.650528	-0.7270813
974867995489488	-4.429535	4.993332	-0.71751404
974868000555406	-3.9914093	4.7227783	0.116867065
974868005621324	-2.6123352	4.29541	-1.2418365
974868010687242	-2.1334991	3.8776245	-1.4932251
974868015783678	-1.8617554	3.540039	-1.2897186
974868020849596	-1.6833954	3.1893005	-1.2837372
974868025915514	-1.5157928	2.9642334	-1.4261932
974868030981432	-1.3757324	2.8445282	-1.7003326
974868036047350	-0.9567566	2.558426	-1.4309845
974868041113268	-0.5700836	2.5225067	-1.3412018
974868046179186	-0.14750671	2.480606	-1.2538147
974868051245104	0.45343018	2.5021667	-1.0742493
974868056341539	0.85565186	2.4255524	-0.7198944
974868061407457	1.0687408	2.3872375	-0.8384094
974868066473375	1.274643	2.3896332	-0.6444855
974868071539293	0.93107605	2.250763	-0.6768036
974868076605211	0.7191925	2.1334534	-0.93777466
974868081671129	0.71559143	2.0711975	-1.2250824
974868086737047	0.8484802	1.986206	-1.2825317
974868091833483	0.86283875	1.9179688	-1.2382507
974868096899401	0.9143219	1.9095917	-1.2226868
974868101965318	1.0041046	1.8940277	-1.2621918
974868107031236	1.0471954	1.8892365	-1.3759155
974868112097154	1.0328369	1.9048004	-1.4836578
974868117163072	0.9681854	1.9395294	-1.6213226
974868122228990	0.84129333	1.9742432	-1.8008881
974868127325426	0.6258087	1.9886017	-1.9493256
974868132391344	0.33251953	2.0843658	-2.128891
974868137457262	0.015289307	2.2088623	-2.3060608
974868142523180	-0.16906738	2.3226013	-2.535904
974868147589098	-0.2636261	2.4315338	-2.7681427
974868152655016	-0.51501465	2.5332794	-3.0530548
974868157720934	-0.9280243	2.6446075	-3.4828033
974868162786852	-1.2320862	2.863678	-4.014328
974868167883287	-1.5229797	3.3042145	-4.572174
974868172949205	-1.9515381	4.0356445	-5.290436
974868178015123	-2.5381165	5.061554	-5.9260864
974868183081041	-3.3174286	6.3927307	-6.541397
974868188146959	-3.9902039	7.932205	-7.0453796
974868193212877	-5.0352783	9.557877	-7.4918976
974868198309313	-6.76149	11.260147	-8.035385
974868203375231	-8.617004	13.086929	-8.478317
974868208441149	-10.640106	15.074112	-8.845825
974868213507067	-12.617706	17.0625	-9.271988
974868218572984	-14.2864685	18.986237	-9.355789
974868223638902	-15.32077	20.595139	-8.98468
974868228704820	-15.429703	21.52768	-8.747665
974868233770738	-15.168732	21.366074	-8.777588
974868238867174	-13.563416	20.061234	-8.594437
974868243933092	-10.553909	17.868149	-8.108414
974868248999010	-7.9969025	15.136368	-7.927643
974868254064928	-6.279068	12.661957	-7.967148
974868259130846	-5.19928	10.623291	-7.537384
974868264196764	-4.3002625	8.917419	-6.8239136
974868269262682	-3.0313263	7.5706787	-6.208603
974868274328600	-1.6319122	6.617798	-6.327118
974868279394518	-0.38334656	6.267044	-6.8191376
974868284490953	0.47138977	6.769821	-6.9184875
974868289556871	0.7299652	8.029175	-6.4408417
974868294622789	0.13380432	9.639282	-5.5154877
974868299688707	-0.6131897	10.997986	-4.430908
974868304754625	-0.83226013	11.82518	-2.8974304
974868309820543	-0.42643738	12.172333	-0.7414551
974868314886461	0.40673828	12.3411255	1.286438
974868319952379	1.4350586	12.373459	2.0621643
974868325048815	2.4861145	12.399796	1.1763
974868330114733	3.3061218	12.3974	-0.33444214
974868335180651	3.73349	12.199875	-0.619339
974868340246568	3.9848785	11.503159	0.4831848
974868345312486	4.1776123	10.069031	1.8981628
974868350378404	4.6684265	8.259018	2.701416
974868355474840	4.212326	6.17247	1.7700653
974868360540758	3.0631104	4.4965363	0.41255188
974868365606676	2.3915405	3.736374	-0.38591003
974868370672594	2.021637	3.914734	-0.5175934
974868375738512	1.3823853	4.8496704	-0.40266418
974868380804430	0.5456085	5.9953003	-0.4709015
974868385900865	-0.11279297	6.966156	-0.63131714
974868390966783	-0.73887634	7.8101044	-0.45414734
974868396032701	-1.3470001	8.674408	0.2736969
974868401098619	-1.9599304	9.397461	1.2589111
974868406164537	-2.8553467	9.88707	2.1687012
974868411230455	-3.6454468	10.095367	2.7540894
974868416296373	-4.354126	10.115723	3.2413025
974868421362291	-4.939514	9.994812	3.7345123
974868426428209	-5.3644714	9.723068	4.1582794
974868431494127	-5.6481934	9.369934	4.239685
974868436590563	-5.619461	9.022766	4.335449
974868441656481	-5.646988	8.692368	4.2839813
974868446722399	-5.5775604	8.487671	4.0278015
974868451788317	-5.3165894	8.430206	3.6459198
974868456854234	-4.9562683	8.560684	2.9875183
974868461920152	-4.5779877	8.895874	2.136383
974868467016588	-4.1589966	9.21431	1.1882782
974868472082506	-3.5820007	9.446548	0.28926086
974868477148424	-3.0863953	9.652451	-0.23986816
974868482214342	-2.2819366	9.857147	-0.55589294
974868487280260	-1.211731	9.984039	-0.5534973
974868492346178	-0.40249634	9.986435	-0.20993042
974868497412096	0.032058716	9.792511	0.15039063
974868502478014	0.37202454	9.320847	0.49993896
974868507574449	0.60665894	8.741455	0.63282776
974868512640367	0.6365814	8.199158	0.5909271
974868517706285	0.5108948	7.725113	0.3347473
974868522772203	0.38160706	7.342041	0.02947998
974868527838121	0.199646	7.0786743	-0.21592712
974868532904039	-0.16667175	6.962555	-0.25901794
974868537969957	-0.43241882	7.0439606	-0.22190857
974868543035875	-0.67663574	7.271408	-0.065093994
974868548132311	-0.96154785	7.567093	0.2341919
974868553198229	-1.2177277	7.8388367	0.5609894
974868558264147	-1.2727814	8.126144	0.8195648
974868563330065	-1.2895508	8.389496	0.99554443
974868568395983	-1.3446198	8.621735	1.0601807
974868573461901	-1.4762878	8.771378	1.0350494
974868578558336	-1.6786041	8.837219	1.0470123
974868583624254	-1.7731781	8.713913	1.1224365
974868588690172	-1.7049408	8.608566	1.2086334
974868593756090	-1.6139679	8.500839	1.073349
974868598822008	-1.6079712	8.44696	0.950058
974868603887926	-2.128708	8.355988	1.2241974
974868608984361	-2.4986115	8.116562	1.6922607
974868614050279	-1.7863464	7.9657288	0.93688965
974868619116197	-1.0166016	8.12854	0.24975586
974868624182115	-0.9902649	8.203949	0.16116333
974868629248033	-1.409256	8.005234	0.50354004
974868634313951	-1.8066864	7.702362	0.63760376
974868639379869	-1.7037506	7.563507	0.58255005
974868644445787	-1.50383	7.582657	0.45924377
974868649511705	-1.6103668	7.595825	0.23898315
974868654608141	-1.706131	7.5335693	0.076171875
974868659674059	-1.6893768	7.4821014	0.04385376
974868664739977	-1.7085266	7.503647	0.028289795
974868669805895	-1.74086	7.4354095	0.0103302
974868674871813	-1.7731781	7.405487	0.04864502
974868679937731	-1.7959137	7.4102783	0.25932312
974868685003649	-1.7887421	7.5862427	0.35629272
974868690069567	-2.1107635	7.7203217	0.2964325
974868695166002	-2.1442719	7.978897	0.33354187
974868700231920	-2.0640717	8.32605	0.3754425
974868705297838	-2.259201	8.7234955	0.29284668
974868710363756	-2.5465088	9.148468	0.2054596
974868715429674	-2.817047	9.696732	0.20066833
974868720495592	-2.8589478	10.253387	0.2736969
974868725561510	-2.9355621	10.745392	0.400589
974868730657945	-3.1067505	11.090164	0.5095215
974868735723863	-3.2300415	11.291275	0.5609894
974868740789781	-3.3174286	11.381058	0.4736023
974868745855699	-3.3916626	11.401413	0.2521515
974868750921617	-3.349762	11.361908	0.0965271
974868755987535	-3.231247	11.3762665	-0.02798462
974868761053453	-3.208496	11.432526	-0.024383545
974868766119371	-3.2970886	11.486404	-0.00642395
974868771215807	-3.2779236	11.530701	-0.055511475
974868776281725	-3.1929321	11.528305	-0.089035034
974868781347643	-3.1773682	11.47084	-0.084243774
974868786413561	-3.3521576	11.462463	-0.14648438
974868791479479	-3.5580597	11.47084	-0.14529419
974868796545397	-3.9040222	11.50795	-0.122543335
974868801611315	-4.282303	11.620483	-0.077056885
974868806677233	-4.402008	11.671951	-0.108184814
974868811773668	-4.4869995	11.642029	-0.14289856
974868816839586	-4.68692	11.624069	-0.067474365
974868821905504	-4.7407837	11.661179	-0.09741211
974868826971422	-4.698883	11.703079	-0.13571167
974868832037340	-4.579178	11.827576	-0.120147705
974868837103258	-4.551651	11.9652405	-0.08543396
974868842199693	-4.5827637	12.114883	-0.09501648
974868847265611	-4.46904	12.254944	-0.010025024
974868852331529	-4.1266785	12.353104	0.2964325
974868857397447	-3.8788757	12.312408	0.69148254
974868862463365	-3.7220612	12.086151	1.2277832
974868867529283	-3.5065765	11.777298	1.5761414
974868872595201	-3.3222198	11.379852	1.5007172
974868877661119	-2.954712	11.045868	1.1140594
974868882727037	-2.496231	10.624496	0.69148254
974868887823473	-1.9635162	10.016357	0.20425415
974868892889391	-1.1375122	9.466888	-0.29612732
974868897955309	-0.08287048	9.050308	-0.9617157
974868903021227	0.97895813	8.810883	-1.6883545
974868908087145	1.848053	8.693558	-2.3970337
974868913153063	2.2969666	8.912628	-2.9058075
974868918218981	2.3759766	9.490829	-2.9465027
974868923315416	2.548355	10.363525	-2.6903229
974868928381334	2.8033447	11.657593	-2.4760437
974868933447252	3.2223206	12.998337	-2.2174683
974868938513170	3.8819275	14.045807	-1.7027283
974868943579088	4.2961273	14.740128	-0.7593994
974868948645006	4.3883057	15.175873	0.30480957
974868953741442	4.2219086	15.2704315	1.270874
974868958807359	3.8783417	15.082489	2.0525818
974868963873277	3.448578	14.82991	2.3015747
974868968939195	2.8691864	14.584503	2.0777283
974868974005113	2.258667	14.2948	1.6000824
974868979071031	1.4996948	13.887787	0.973999
974868984136949	0.89157104	13.454437	0.46762085
974868989202867	1.1705017	13.098892	1.0314636
974868994268785	0.8029785	12.956436	1.171524
974868999365221	-0.47431946	13.266495	-0.16204834
974869004431139	-2.1311035	13.587311	-1.4417572
974869009497057	-4.156601	13.813568	-2.2342377
974869014562975	-5.6457977	13.778854	-3.1595917
974869019628893	-6.235962	13.709412	-4.1088867
974869024694811	-5.6888885	13.306	-3.8826447
974869029760729	-4.682129	12.5542145	-3.117691
974869034857164	-3.2851105	11.772507	-1.9996033
974869039923082	-2.5764313	10.968063	-2.0163574
974869044989000	-2.7081146	10.398239	-2.417389
974869050054918	-2.769165	9.932571	-2.034317
974869055120836	-2.903244	9.185577	-1.3004913
974869060186754	-3.2695465	8.508011	-1.1867676
974869065283190	-3.2719421	7.887909	-1.2143097
974869070349108	-3.2611694	6.864395	-1.0347443
974869075415026	-3.464676	5.7463074	-0.7258911
974869080480943	-3.2228699	5.0304413	-0.9437561
974869085546861	-2.8098602	4.1900787	-1.0981903
974869090612779	-2.736847	3.598709	-1.2202911
974869095678697	-3.089981	3.6214447	-1.7865143
974869100744615	-3.5460815	3.3820343	-1.9780579
974869105810533	-3.3377838	3.0947266	-1.7829285
974869110906969	-2.8409882	3.0264893	-2.0989685
974869115972887	-2.5093994	2.9762115	-2.489212
974869121038805	-1.9850616	2.8050232	-2.6951141
974869126104723	-1.5744629	2.4949799	-2.1037445
974869131170641	-1.2416687	2.357315	-1.4034424
974869136236559	-0.86816406	2.3357697	-0.8779144
974869141302477	-0.43122864	2.3357697	-0.56666565
974869146368395	0.016494751	2.3644867	-4.4250488E-4
974869151434313	-0.092453	2.3884277	-0.38591003
974869156530748	0.048812866	2.4147644	-1.0335388
974869161596666	0.20802307	2.381256	-1.1712036
974869166662584	0.23196411	2.2926636	-0.92700195
974869171728502	0.19485474	2.226822	-0.9629059
974869176794420	0.3588562	2.1705627	-1.0167847
974869181860338	0.67729187	2.2052765	-1.0479126
974869186956774	0.92988586	2.2711182	-0.97369385
974869192022692	1.1130371	2.3441467	-0.76179504
974869197088609	1.1956329	2.5093384	-0.6839905
974869202154527	1.2028198	2.6470032	-0.6863861
974869207220445	1.1573334	2.740387	-0.75102234
974869212286363	0.9574127	2.7463684	-0.9413605
974869217352281	0.89157104	2.7679138	-1.2765503
974869222418199	0.7802429	2.803833	-1.5303345
974869227514635	0.5144806	2.7523499	-1.8116608
974869232580553	0.31336975	2.7691193	-2.1276855
974869237646471	0.1637268	2.834961	-2.5969543
974869242712389	-0.017028809	2.8852386	-3.117691
974869247778307	-0.18103027	2.9606476	-3.7162476
974869252844225	-0.5066376	3.1689453	-4.4835815
974869257910143	-0.9100647	3.5125122	-5.195862
974869263006578	-1.2799683	4.129013	-5.805191
974869268072496	-1.8054962	5.066345	-6.378601
974869273138414	-2.6255035	6.2730255	-6.837082
974869278204332	-3.5257263	7.7430725	-7.3458557
974869283270250	-4.7036743	9.411819	-7.830673
974869288336168	-6.1198425	11.366684	-8.235306
974869293402086	-7.611435	13.592102	-8.615982
974869298468004	-9.700378	15.825897	-9.151077
974869303564440	-12.283722	18.024963	-9.959122
974869308630358	-14.438507	20.131866	-10.568451
974869313696276	-15.957626	21.628235	-10.321854
974869318762193	-16.716583	22.170532	-9.652664
974869323828111	-16.091705	21.3553	-8.827866
974869328894029	-14.493576	19.02095	-7.959961
974869333959947	-11.909027	16.163467	-7.1878357
974869339056383	-9.320892	13.550201	-6.7963867
974869344122301	-7.6066437	11.2816925	-6.4121094
974869349188219	-6.385605	9.231064	-5.966797
974869354254137	-5.262726	7.440201	-5.587311
974869359320055	-4.0560455	5.75708	-5.7644806
974869364385973	-3.097168	4.259506	-6.3762054
974869369451891	-2.0628662	3.2730865	-6.43367
974869374517809	-0.9316101	2.7858734	-5.9392548
974869379614244	0.37921143	2.9391022	-5.2389526
974869384680162	0.907135	3.3353424	-4.876236
974869389746080	0.2798462	4.0512085	-4.6344147
974869394811998	-0.6850128	5.2495117	-4.1507874
974869399877916	-1.2536316	6.7746124	-3.1500092
974869404943834	-1.230896	8.396683	-1.5039978
974869410040270	-0.81669617	9.975662	0.11088562
974869415106188	-0.19778442	11.505554	1.2397461
974869420172106	0.8089752	13.3012085	1.7197876
974869425238024	2.1233826	15.290787	1.0398407
974869430303942	3.0822601	17.293533	0.3754425
974869435369859	3.8544006	19.114334	0.8590698
974869440435777	4.4110413	19.825409	2.1651154
974869445501695	4.892288	18.539719	3.1120148
974869450598131	4.539139	15.339874	2.7181702
974869455664049	2.223938	11.284088	1.7329559
974869460729967	-0.11997986	8.016006	0.6196594
974869465795885	-0.741272	6.5687103	-0.54512024
974869470861803	-0.9100647	6.195221	-1.4477386
974869475927721	-1.3565826	6.25029	-1.8044739
974869480993639	-1.8809204	6.524414	-1.7948914
974869486090074	-2.5297394	6.8189087	-1.4046478
974869491155992	-2.9606934	6.946991	-0.5092163
974869496221910	-3.2360382	6.828476	0.52508545
974869501287828	-3.5927734	6.536392	1.3642578
974869506353746	-3.6562195	6.3556213	2.1770782
974869511419664	-3.5065765	6.2802124	2.9492188
974869516485582	-3.4347534	6.2957764	3.384964
974869521551500	-2.875702	6.480133	3.733307
974869526617418	-2.4866486	6.864395	3.9655457
974869531683336	-2.286728	7.354004	3.9332275
974869536749254	-2.1119537	7.781372	3.7596436
974869541815172	-1.8749237	8.191986	3.5094604
974869546881090	-1.369751	8.667236	3.3358765
974869551977526	-0.780777	9.21431	3.1096191
974869557043443	-0.8226776	9.914612	2.8414764
974869562109361	-1.0357666	10.683151	2.4188995
974869567175279	-1.1039886	11.357117	2.0310364
974869572241197	-1.3482056	11.729416	1.6347961
974869577307115	-1.2105408	11.889832	1.1427917
974869582373033	-0.8669739	11.8311615	0.6567688
974869587438951	-0.7113495	11.530701	0.44248962
974869592535387	-0.5269928	11.003967	0.32756042
974869597601305	-0.7149353	10.253387	0.40177917
974869602667223	-1.033371	9.530334	0.4915619
974869607733141	-1.175827	8.771378	0.37425232
974869612799059	-1.1554718	7.9334106	0.19108582
974869617864977	-1.1099854	7.192398	-0.11416626
974869622930895	-1.2296906	6.7003937	-0.42781067
974869627996813	-1.4750977	6.4657593	-0.614563
974869633093248	-1.4786835	6.299362	-0.5822296
974869638159166	-1.3122864	6.444214	-0.38830566
974869643225084	-1.3996735	6.9254456	-0.17521667
974869648291002	-1.5588989	7.5527344	-0.021987915
974869653356920	-1.5409393	8.14888	0.078567505
974869658422838	-1.4104462	8.603775	0.15997314
974869663488756	-1.393692	8.857574	0.30480957
974869668554674	-1.3865051	8.968903	0.46043396
974869673651109	-1.3410187	8.990448	0.52388
974869678717027	-1.3338318	8.877914	0.86027527
974869683782945	-1.4439697	8.620544	1.3726349
974869688848863	-1.2021637	8.36676	1.5102997
974869693945299	-0.9208374	8.11058	1.3391113
974869699011217	-0.7831726	8.1189575	1.1056824
974869704077135	-0.9507599	8.08783	1.152359
974869709143053	-1.220108	7.99086	1.044632
974869714208971	-1.2979279	7.9286194	0.7968292
974869719274889	-1.2476501	7.994461	0.7154236
974869724340807	-1.4224243	7.9968567	0.5921173
974869729406725	-1.5241852	7.9848785	0.47480774
974869734472643	-1.7192993	7.8927	0.37783813
974869739538561	-2.0520935	7.7550354	0.36108398
974869744604479	-2.0628662	7.6640625	0.13124084
974869749670397	-2.1131592	7.5072327	-0.2925415
