linearaccelerometer_timestamp	linearaccelerometer_x_data	linearaccelerometer_y_data	linearaccelerometer_z_data
1443700720898628428	3.865152	-1.1060686	3.977368
1443700720903663828	4.0805664	-0.44188023	3.87344
1443700720909370615	4.0077314	-0.4304905	3.818548
1443700720913734629	4.3747425	-0.14858627	3.5567358
1443700720918892100	4.292527	-0.14433098	3.4961636
1443700720924263194	4.207892	-0.14072609	3.429613
1443700720928993418	4.574296	-0.3759117	3.2890542
1443700720939094736	4.902208	-1.5958576	3.5375464
1443700720943947031	4.9622355	-3.625022	4.0204206
1443700720949043467	4.7355633	-5.346381	4.4340963
1443700720956855967	4.569964	-5.2501793	4.3011994
1443700720964058115	4.2255235	-6.6635838	4.768682
1443700720969276621	4.0821657	-6.5424185	4.6492863
1443700720974952891	4.4060054	-8.298586	4.5477934
1443700720979194834	4.2740955	-8.147799	4.4460993
1443700720982551768	3.8018408	-9.1245575	3.4919643
1443700720989448740	3.3535912	-8.654109	2.2296882
1443700720994331553	3.2476587	-8.502906	2.190772
1443700720999489024	3.1443439	-8.35464	2.1571846
1443700721004341319	2.436837	-6.940961	1.0162576
1443700721009437754	2.3614686	-6.8237495	1.0199666
1443700721014442637	1.0035427	-4.7290726	0.30518973
1443700721019630625	-0.20427501	-2.0854282	-0.77956486
1443700721025154307	-0.201024	-2.0574684	-0.7092024
1443700721030739024	-1.5896033	0.84786606	-2.5804715
1443700721044807627	-4.100701	3.6586847	-4.306637
1443700721045723154	-4.02563	3.5977392	-4.220959
1443700721049904063	-7.268278	6.3248577	-5.0317984
1443700721054878428	-7.095503	6.220952	-4.865889
1443700721060798838	-9.003647	7.4937706	-3.4590526
1443700721064949229	-8.801739	7.3779573	-3.3412707
1443700721069801524	-6.597419	5.1854277	0.45495296
1443700721074897959	-6.4221506	5.112278	0.49319685
1443700721079902842	-1.1353452	0.14592457	4.748155
1443700721083259776	-1.0813134	0.14889717	4.680385
1443700721089973643	1.5437787	-5.3005247	6.926136
1443700721095009043	1.5361836	-5.215373	6.777551
1443700721100044444	2.397183	-9.055299	6.274611
1443700721105232432	2.353531	-8.91646	6.1187296
1443700721110573008	1.5022525	-10.713297	3.3588605
1443700721115333750	1.4619654	-10.554427	3.268949
1443700721120186045	-0.06662178	-11.740108	0.5680088
1443700721125190928	-0.07425535	-11.572163	0.5681025
1443700721133064463	-0.9599745	-12.428309	-1.4373335
1443700721134041026	-0.9418981	-12.251337	-1.4048814
1443700721140327647	-0.6815088	-12.226385	-2.731504
1443700721145363047	-0.6305034	-12.054132	-2.619075
1443700721150398447	-0.37593627	-10.331611	-3.0671968
1443700721155616953	-0.3060763	-10.182659	-2.9406586
1443700721161354258	0.2602203	-7.7491465	-3.6635022
1443700721165687754	0.32614422	-7.6331043	-3.539387
1443700721170540049	1.6040223	-5.5802507	-3.844818
1443700721175605967	1.678865	-5.4868593	-3.699722
1443700721180610850	1.0716803	-3.3018599	-4.2589297
1443700721183967783	1.128391	-3.2416935	-4.1388836
1443700721190834238	-0.24773836	-1.0156717	-7.226354
1443700721196998789	-0.6693909	1.1506443	-10.971154
1443700721200905039	-0.5572002	1.1678324	-10.751524
1443700721207130625	-1.2920942	3.5440044	-11.918782
1443700721211464121	-1.1558285	3.5431986	-11.67772
1443700721219825938	-0.093871355	4.132001	-7.447866
1443700721226204111	3.5388012	2.2438002	0.7952796
1443700721230934336	3.5906088	2.2577896	0.8445442
1443700721241188242	6.6622252	0.1856556	4.7589655
1443700721246071055	6.3471785	-1.821064	4.530414
1443700721251289561	6.2941437	-1.7865562	4.4995236
1443700721256141856	3.524516	-2.2985878	2.3514075
1443700721261207774	1.1287777	-2.5873928	0.3832928
1443700721266182139	1.1399629	-2.5406466	0.42590296
1443700721271248057	1.1564634	-2.4900637	0.48135412
1443700721277076914	0.46655464	-4.0122223	-0.45353842
1443700721281501963	0.48633838	-3.9433718	-0.37749088
1443700721291542246	-0.10952258	-4.848446	-0.6883974
1443700721296394541	-0.3262925	-3.456666	-1.0489397
1443700721307960703	-0.3208418	-1.9221058	0.45484138
1443700721316566660	-0.9560406	-1.5717335	2.3509016
1443700721321724131	-0.93688774	-1.5383177	2.3761637
1443700721326606944	-0.92292047	-1.0386896	0.6509547
1443700721331794932	-0.89877844	-1.009655	0.6920736
1443700721341896250	0.33132195	-0.3315487	2.062349
1443700721346779063	0.34774685	-0.30624866	2.0919135
1443700721351967051	0.3662796	-0.27955437	2.1230495
1443700721356819346	1.1298513	-0.032813072	2.5264468
1443700721361946299	1.1389728	-0.011218071	2.5453901
1443700721366920664	1.6528263	0.34805393	2.7774408
1443700721371986582	2.4417367	0.5749006	3.064364
1443700721378059580	3.1446433	0.6629772	3.3228135
1443700721383033945	3.1330109	0.6713495	3.312231
1443700721395332529	3.5314136	0.08884239	2.370214
1443700721397133067	3.5009918	0.09202194	2.3517077
1443700721402992442	3.4735615	-0.76938725	1.5253565
1443700721407203867	3.4497452	-0.75309944	1.5232041
1443700721412239268	3.4031954	-1.5450182	0.66866016
1443700721417427256	3.3827872	-1.5181742	0.6819236
1443700721422279551	3.0555387	-2.0119085	0.2522807
1443700721427345469	3.0396817	-1.9795322	0.27202773
1443700721432380869	2.484045	-2.4965925	-0.1400392
1443700721435920908	2.4716427	-2.462144	-0.12207317
1443700721442451670	2.886969	-2.278904	0.49340343
1443700721447487070	2.8796058	-2.2405949	0.51369977
1443700721452491953	2.2223337	-1.9756365	0.6425848
1443700721457679942	2.2254014	-1.9378147	0.66456914
1443700721463173106	1.4443102	-1.3907452	1.0179403
1443700721467750742	1.4565024	-1.3579054	1.0361087
1443700721472694590	0.9692061	-0.7317381	1.4741194
1443700721483802988	1.1670697	0.2654667	2.3697276
1443700721484779551	1.1632981	0.2682991	2.3543081
1443700721487739756	1.1734624	0.28193092	2.3541138
1443700721492775156	2.0358932	1.1367798	2.7757697
1443700721497993662	2.054905	1.1554546	2.789022
1443700721502876475	2.5133533	1.5303993	1.7838364
1443700721508064463	2.5245981	1.5460739	1.8115942
1443700721513801768	2.9848762	1.6570292	0.6907289
1443700721517982676	2.9834638	1.6672344	0.72517157
1443700721523170664	3.4021616	1.4613333	0.18945694
1443700721528907969	3.4068055	1.4835358	0.24352884
1443700721533088877	3.2088623	1.237915	0.14251709
1443700721536598399	3.201786	1.2463894	0.1686356
1443700721543312266	2.720324	1.040514	0.8832078
1443700721549141123	2.7314959	1.057374	0.9031334
1443700721553413584	2.4798155	0.9482403	1.5696309
1443700721559242442	2.0444264	0.8246908	1.4571314
1443700721563331797	2.047391	0.8283644	1.448421
1443700721571296885	2.1225934	0.9788532	1.8119595
1443700721573341563	1.6848106	1.0810547	1.2281106
1443700721578590586	1.6905885	1.0804977	1.2164545
1443700721583412363	1.6931195	1.0784512	1.2047405
1443700721586952403	1.6906714	1.0742826	1.1933973
1443700721593666270	1.9027457	1.3404455	1.110615
1443700721598457529	1.806005	1.4984074	1.0627308
1443700721603737070	1.8077149	1.4932327	1.0532873
1443700721608619883	1.2390175	1.7545557	1.9228153
1443700721613655283	1.2454996	1.7469053	1.9051697
1443700721618690684	1.1056209	1.5258522	2.4123828
1443700721623878672	1.1154523	1.5203943	2.388443
1443700721629219248	1.3818331	1.1912937	2.2386982
1443700721633949473	1.3892937	1.1878757	2.214053
1443700721643989756	1.5585575	1.3662586	1.5664725
1443700721648903086	1.764452	1.9861298	0.980634
1443700721657997324	1.9325728	2.4762087	0.6741414
1443700721664192393	1.9505124	2.4642572	0.64647055
1443700721669014170	2.0373034	2.4952497	0.7150965
1443700721674202158	2.0484672	2.4802399	0.68576694
1443700721680061533	1.5563469	2.3566103	0.078825235
1443700721684272959	2.4654908	2.280488	-0.08596754
1443700721687507822	2.4588103	2.2633953	-0.101018906
1443700721694404795	2.4636984	2.2460318	-0.1341579
1443700721699196055	3.5040674	2.769308	0.16820502
1443700721704445078	3.4848385	2.7430801	0.139997
1443700721709449961	3.7814355	3.2260227	0.27439857
1443700721714393809	3.7486358	3.1906624	0.24312496
1443700721719398692	3.0447178	3.4213285	0.12339687
1443700721725990488	2.7396617	3.004675	-0.32576275
1443700721730385020	2.7066832	2.9666243	-0.35787582
1443700721735481455	2.8323355	1.7869883	-0.5865412
1443700721737831309	2.8020868	1.7632132	-0.60566187
1443700721745735361	2.4051223	0.24362564	-0.57921886
1443700721749580576	2.368555	0.22089577	-0.6256232
1443700721754921153	1.9322019	-1.371767	-0.30948424
1443700721759834483	1.8903947	-1.3930244	-0.39059615
1443700721764717295	1.2266858	-2.3338842	-0.17026019
1443700721769752695	1.186559	-2.3525124	-0.27422643
1443700721774818613	0.89066553	-2.669611	0.576689
1443700721780708506	0.843122	-2.6945677	0.42756724
1443700721784828379	0.37495184	-2.1474905	1.8606828
1443700721794868662	-0.6341851	-1.5126324	2.9869795
1443700721799934580	-1.4414866	-0.82602024	3.7803116
1443700721804969981	-1.4763596	-0.8555708	3.5931215
1443700721810005381	-1.5128329	-0.88299274	3.399624
1443700721815712168	-2.4520457	0.16927147	2.6353369
1443700721820198252	-2.479671	0.14320755	2.4608667
1443700721825111582	-2.920575	0.5763798	0.44361505
1443700721832374766	-2.6292098	0.5482254	-2.0151174
1443700721835182383	-2.6415539	0.5336733	-2.0879428
1443700721845253184	-2.0042381	0.42483425	-2.8549907
1443700721850288584	-2.0519505	0.40600014	-2.957836
1443700721855446055	-0.76997566	0.25090218	-2.1775846
1443700721860481455	-0.830148	0.2345562	-2.2701125
1443700721865944102	0.013060331	0.48400688	-0.86230236
1443700721870582774	0.8022139	0.89872074	-0.8306591
1443700721875465586	0.72970057	0.8804207	-0.91398335
1443700721881050303	0.6463225	0.8609667	-1.0029771
1443700721885658457	1.1607077	0.7423773	-1.2333566
1443700721888893320	1.1055889	0.73006725	-1.276016
1443700721895698740	1.2473476	0.93759346	-2.2376537
1443700721901252940	1.1499865	0.9182644	-2.2973523
1443700721905800059	1.998954	1.0199623	-2.5274153
1443700721911354258	2.9696906	0.4669361	-2.557255
1443700721919716074	2.7898643	0.44215298	-2.6283765
1443700721925941660	2.905332	-0.3683834	-2.2079425
1443700721931038096	2.6952457	-1.3172255	-2.6741347
1443700721936042979	2.5711474	-1.3194847	-2.7029386
1443700721939247324	2.4860718	-1.3169861	-2.7154255
1443700721946144297	2.2259712	-1.977787	-3.5120573
1443700721950996592	1.9103694	-2.607893	-3.1315575
1443700721956184580	1.7936269	-2.5954971	-3.1625323
1443700721961067393	1.2715237	-2.7609148	-2.869679
1443700721967201426	1.150869	-2.7443104	-2.9124286
1443700721971595957	0.9220115	-2.8284464	-3.1836274
1443700721976356699	0.84069264	-2.80863	-3.210122
1443700721981270029	0.18245262	-2.8177843	-3.1472979
1443700721986458018	0.10668588	-2.7961302	-3.1775591
1443700721996498301	-0.7015666	-2.9303598	-2.8001451
1443700722006813242	-1.0936527	-3.2115812	-2.403028
1443700722007728770	-1.0951141	-3.1901236	-2.3964424
1443700722016639903	-1.1295024	-3.4245281	-1.8822697
1443700722021522715	-1.553243	-3.656021	-1.3957893
1443700722026710703	-1.5773631	-3.625205	-1.4328824
1443700722032173350	-1.6806737	-3.8215723	-0.9344506
1443700722036812022	-1.6771046	-4.0279646	-0.67674327
1443700722039985850	-1.6819718	-3.9989405	-0.69488144
1443700722046821787	-1.7007854	-3.9658232	-0.7339871
1443700722051735117	-2.0611553	-3.963498	-0.39998388
1443700722056953623	-2.0662534	-3.9343243	-0.42195606
1443700722061805918	-1.9384463	-4.0612974	-0.13203692
1443700722066810801	-1.9393835	-4.033757	-0.14537215
1443700722071876719	-1.8970488	-4.275095	-0.4060905
1443700722078254893	-1.5453992	-4.650365	-0.951658
1443700722082771494	-1.5431297	-4.622781	-0.94533587
1443700722087654307	-1.5400108	-4.595928	-0.9364884
1443700722094154551	-1.5535966	-4.932562	-0.7766135
1443700722102211192	-1.7262778	-5.1168594	-0.49754453
1443700722107124522	-1.4718719	-5.263178	-0.2531991
1443700722112312510	-1.4618582	-5.2370243	-0.22972417
1443700722117897227	-1.3665301	-5.2871246	0.023351908
1443700722122200205	-1.3542665	-5.2611237	0.04646492
1443700722127235606	-1.339283	-5.236614	0.07630539
1443700722133064463	-1.4785193	-5.0212297	0.3686242
1443700722137336924	-1.645836	-4.4926796	0.34820616
1443700722140693858	-1.6253757	-4.471487	0.37108946
1443700722147407725	-1.5352578	-3.6076956	-0.02395308
1443700722152443125	-1.0858815	-2.4270344	0.01724875
1443700722157448008	-1.0521884	-2.4213467	0.06566453
1443700722162513926	-1.0148187	-2.415677	0.11655009
1443700722168342783	-0.48035163	-0.7704029	0.6067114
1443700722172706797	-0.44522655	-0.77218723	0.6481639
1443700722177589610	0.47187316	1.0685558	1.3512151
1443700722182655528	0.50966585	1.0565033	1.3946344
1443700722187690928	1.4544277	3.2143536	2.3914013
1443700722197731211	1.8156053	5.726038	3.6414943
1443700722202797129	1.8519721	5.6922493	3.6567335
1443700722208015635	2.7208295	8.189412	4.7615957
1443700722212990000	2.752138	8.144508	4.7572236
1443700722218696787	3.837555	10.219454	5.648484
1443700722223121836	4.375751	10.646621	5.0986705
1443700722227974131	4.3832664	10.591844	5.0645957
1443700722233986094	4.384759	10.53893	5.0173364
1443700722241401865	5.0121794	8.716448	2.8591557
1443700722248298838	4.6612554	5.3439875	1.2373016
1443700722253700449	4.220026	1.673708	1.3910774
1443700722258369639	4.149148	1.6674032	1.3483309
1443700722266121104	4.3085737	-1.5552826	2.0500045
1443700722273414805	4.370035	-4.0397587	2.6012616
1443700722278450205	4.282555	-4.012761	2.5464015
1443700722283912852	4.6201205	-5.286497	2.0977912
1443700722288582041	4.5363674	-5.2521772	2.0503123
1443700722293098643	3.479864	-4.958025	0.57352877
1443700722298622324	3.3978095	-4.92591	0.5415654
1443700722303596690	1.4209483	-3.1195745	-1.3121781
1443700722308693125	1.3699282	-3.1019983	-1.3089797
1443700722313545420	-1.6180481	0.1605587	-3.1485693
1443700722318641856	-1.6280178	0.15520859	-3.109933
1443700722323646738	-5.4720335	4.079919	-5.5009484
1443700722328804209	-5.431342	4.049878	-5.4297085
1443700722334114268	-8.843194	7.5645905	-7.588991
1443700722338905528	-8.759292	7.5165186	-7.5012274
1443700722348976328	-11.389634	9.480237	-6.0923767
1443700722353859141	-10.296125	7.6277084	-0.5876154
1443700722359047129	-10.1812725	7.58733	-0.5610709
1443700722363899424	-5.2886415	3.1429396	5.4510922
1443700722368965342	-5.2149234	3.1304722	5.4178715
1443700722374000742	-1.8959818	-1.1703205	9.246769
1443700722379188731	-1.8494558	-1.1563187	9.167442
1443700722384559824	-0.30543655	-4.305629	9.068108
1443700722395088389	-1.5339283	-5.9894943	4.4450474
1443700722404365733	-2.5298269	-7.1798983	0.97240114
1443700722410377695	-2.846964	-7.9575844	-1.1343646
1443700722414436533	-2.8285162	-7.9235725	-1.0987874
1443700722419960215	-2.6985464	-8.000432	-2.9130592
1443700722424354746	-2.6703587	-7.969741	-2.8440173
1443700722430336192	-2.7199311	-7.437871	-4.0616593
1443700722435249522	-2.6797082	-7.410658	-3.9709356
1443700722439552500	-2.6388202	-7.3817387	-3.8870718
1443700722442970469	-2.2894502	-6.0878468	-5.024986
1443700722449531748	-2.1457548	-4.4859495	-6.061078
1443700722454567149	-2.088521	-4.469269	-5.950386
1443700722459602549	-2.034428	-2.7104607	-6.7159605
1443700722464607432	-1.3104588	-1.1654282	-7.9140406
1443700722471077158	-1.2252055	-1.1588125	-7.7716074
1443700722474708750	-1.1730726	-1.1512728	-7.676459
1443700722479774668	-0.5284841	0.28047466	-8.851295
1443700722485573008	-0.44334853	0.28715324	-8.720339
1443700722489784434	-0.654577	2.7045736	-10.122283
1443700722493171885	-0.5990195	2.699029	-10.025042
1443700722499855235	0.50420606	4.9836845	-7.9492292
1443700722504921153	3.147765	5.1080523	-2.7734816
1443700722509956553	3.2084758	5.0986433	-2.7055717
1443700722514991953	3.261858	5.088602	-2.6480596
1443700722523811533	4.004647	3.9421854	1.9615363
1443700722525062754	3.9969406	3.9260473	1.9577857
1443700722530098154	2.331107	2.6998005	2.7271044
1443700722535988047	2.3620422	2.696577	2.7398603
1443700722540199473	1.1782856	1.7660227	1.8190067
1443700722550392344	0.5331454	1.0677061	0.43344975
1443700722555275156	0.5465336	1.0674372	0.47677103
1443700722560493662	0.5230849	0.23630238	-0.7535656
1443700722565468028	0.52365136	0.2378025	-0.69566506
1443700722570259287	0.17337656	-0.57808685	-1.8001788
1443700722575416758	-0.42699528	-1.4355087	-2.2046638
1443700722580421641	-0.43254018	-1.4273157	-2.1342962
1443700722586982920	-0.9498277	-2.339405	-2.1062403
1443700722590706065	-0.9548309	-2.327385	-2.0483031
1443700722593849375	-0.95842505	-2.3153934	-1.9979535
1443700722600593760	-1.2423115	-2.8407307	-1.1499954
1443700722611702158	-1.6294913	-3.1353712	-0.36869764
1443700722620857432	-2.0183892	-3.169467	0.12200844
1443700722625770762	-1.5759838	-2.9993715	0.46382403
1443700722630928233	-1.5649762	-2.9789705	0.5106503
1443700722636177256	-0.92358947	-2.6230526	0.23780489
1443700722641029551	-0.90892243	-2.6032877	0.27875543
1443700722645240977	-0.42371488	-1.9254799	-0.6417134
1443700722651100352	-0.40126514	-1.9054937	-0.5927261
1443700722656013682	-0.13552356	-1.3387241	-1.0775025
1443700722661171153	-0.10889888	-1.3209667	-1.0362794
1443700722666053965	0.21478081	-0.6470871	-1.2997315
1443700722671089365	0.2429111	-0.6316271	-1.2605082
1443700722676094248	0.68925834	-0.167737	-1.0849236
1443700722681327759	0.721612	-0.15261173	-1.0485542
1443700722686912476	0.9176738	0.17480278	-0.39369094
1443700722691245972	0.9582741	0.6975441	-0.02288866
1443700722699729859	1.0156813	0.7191839	0.02226615
1443700722706321656	1.3284848	0.87728596	0.41885352
1443700722711357056	1.3571129	0.88850975	0.44583082
1443700722716575562	1.467103	0.8919058	0.83634484
1443700722722404419	1.1920907	0.74800396	1.3255819
1443700722726493775	1.2098548	0.75661564	1.3461131
1443700722731498658	1.0175881	0.4482622	1.512171
1443700722737358033	1.0418255	0.4625864	1.5438589
1443700722741783081	1.0575459	0.47261238	1.566112
1443700722751701294	1.083283	0.36216164	1.4529618
1443700722756675659	0.85208154	0.28062725	1.0747731
1443700722762809693	0.8829539	0.19668865	0.9234102
1443700722766929566	0.8942239	0.20683193	0.94760346
1443700722772178589	1.1191263	0.105771065	0.63076687
1443700722777030884	1.1315837	0.11871433	0.66252136
1443700722788322388	1.2553122	0.15747452	0.6339519
1443700722795494019	1.4310105	0.16713619	0.7705457
1443700722802024781	1.8405266	0.383811	1.1741619
1443700722807060181	1.8481624	0.3975582	1.2093451
1443700722812095581	1.5663927	0.50436974	1.184638
1443700722817100464	1.575624	0.5178833	1.2188125
1443700722822624146	0.9868696	0.6475935	1.3155079
1443700722827354370	0.9995446	0.66009045	1.344959
1443700722832237183	0.8472588	0.69577694	1.5475903
1443700722837303101	0.86433506	0.7091112	1.5741358
1443700722842307984	0.917588	0.78366375	1.5660949
1443700722845817505	0.92893934	0.7911148	1.5788922
1443700722852378784	0.788692	1.0175686	1.0358636
1443700722857414185	0.80663633	1.0265331	1.0515244
1443700722862449585	0.23613548	1.1352167	0.3563857
1443700722867607056	0.25732946	1.1433973	0.37195086
1443700722876121460	0.87416124	1.1842241	0.07712364
1443700722877586304	0.8771448	1.1825256	0.07938361
1443700722882591187	1.5461717	0.87788105	-0.13312721
1443700722888297974	1.5644162	0.8842859	-0.12860847
1443700722892661988	1.8039081	0.7301111	-0.38616896
1443700722902854859	1.9290717	0.83187294	-0.5644469
1443700722907768189	1.943078	0.83519363	-0.56635404
1443700722912956177	2.5393379	1.0689793	0.12914228
1443700722917991577	2.5522223	1.0716009	0.123435974
1443700722923545777	2.2985687	1.2797298	0.24494553
1443700722927818238	2.3074474	1.280242	0.2403729
1443700722932914673	2.0838797	1.4808178	0.5997622
1443700722938865601	2.0981925	1.482729	0.5951803
1443700722943015991	1.6591632	1.6538877	0.96155477
1443700722946342408	1.6644597	1.651658	0.95719504
1443700722953208863	1.502871	1.7239428	0.90204334
1443700722963584839	1.1156774	1.8946037	0.8116858
1443700722968650757	0.7436533	2.2919521	0.8316262
1443700722973411499	0.7553344	2.2880535	0.82645106
1443700722978263794	0.7676127	2.2840014	0.8198383
1443700722983421265	0.69576	2.6564922	0.9643495
1443700722988822876	0.9437909	2.8616228	0.8467543
1443700722993522583	0.9563508	2.8539658	0.8335693
1443700722997245728	1.3481591	2.935917	0.3885224
1443700723003562866	1.983264	3.0162725	-0.12979865
1443700723008476197	1.9921343	3.006916	-0.14403892
1443700723013664185	2.001021	2.997037	-0.16037655
1443700723018516480	2.007504	2.9861422	-0.17725372
1443700723023612915	2.2773936	3.1217375	-0.0020279884
1443700723028587281	2.904655	3.3396883	0.4499209
1443700723033805786	2.901085	3.3220701	0.41970754
1443700723039604126	3.3006623	3.502884	0.5672586
1443700723043846070	2.964959	3.6071453	0.41267323
1443700723051475464	2.947174	3.5766983	0.3563149
1443700723059013306	2.5945973	3.1968994	0.25043058
1443700723063835083	2.5717716	3.1700602	0.20939803
1443700723068870484	1.9818063	2.2598362	0.33281803
1443700723074668824	1.2784717	1.2410965	0.11614227
1443700723079093872	1.2547984	1.2187452	0.06853461
1443700723083976685	0.55195427	-0.10168362	0.2773993
1443700723088951050	0.5233927	-0.124895096	0.21097708
1443700723095268189	-0.5357933	-1.1839428	0.7535757
1443700723097404419	-0.547379	-1.1911621	0.7163732
1443700723105461060	-1.375463	-1.5417538	1.4456615
1443700723109153687	-1.397326	-1.5581398	1.3668494
1443700723115043579	-2.024964	-1.4946709	2.469188
1443700723119224488	-2.0510693	-1.5154791	2.3588085
1443700723124381958	-2.5103273	-1.2910442	2.8789115
1443700723129325806	-2.5453818	-1.3170938	2.7304845
1443700723140281616	-3.6342318	-0.51022243	2.3339891
1443700723141197144	-3.6301477	-0.5132189	2.297988
1443700723147788941	-4.4288626	0.7721491	1.6372375
1443700723154533325	-4.9049506	1.3609858	0.5165033
1443700723159416138	-4.820367	1.4374428	-0.11819689
1443700723164573609	-4.856475	1.4158678	-0.26159734
1443700723169731079	-4.892885	1.3965206	-0.39690357
1443700723175163208	-3.5049007	1.3473387	-1.1381996
1443700723179832398	-3.5430672	1.3323164	-1.2438675
1443700723184745728	-1.9689426	1.0290041	-2.448415
1443700723189750611	-2.0200593	1.0154676	-2.5406222
1443700723194786011	-0.8086374	0.64565945	-2.4068477
1443700723198265015	-0.84876704	0.63669014	-2.4580824
1443700723204826294	0.011486292	0.5779629	-1.7772431
1443700723209861695	-0.053926468	0.56691456	-1.8471603
1443700723214927613	0.7172575	0.57170963	-1.8444715
1443700723220146118	0.64386725	0.56102276	-1.9098186
1443700723228507935	0.7886448	0.70916843	-1.4538217
1443700723230064331	0.7634144	0.70431423	-1.4684697
1443700723235038697	0.8946748	1.2318888	-1.2969251
1443700723240013062	0.8165089	1.2200356	-1.3483281
1443700723245109497	1.5840714	1.1150055	-0.99971676
1443700723248496949	1.5264497	1.1060791	-1.0278307
1443700723255393921	2.4487307	0.46429634	-1.2151212
1443700723260246216	2.358107	0.45494556	-1.2474009
1443700723265373169	2.6207995	-0.35325336	-1.9476222
1443700723271202027	2.3781412	-1.1681414	-3.149095
1443700723276298462	2.2733278	-1.1713486	-3.1704254
1443700723281303345	1.7333413	-1.8351908	-3.7183309
1443700723291068970	0.80011487	-2.4173555	-3.1151752
1443700723295616089	0.716646	-2.4116888	-3.1317139
1443700723305686890	0.25278252	-2.6386518	-2.8193073
1443700723316062866	-0.36064848	-2.607607	-2.7452142
1443700723320579468	-0.48267105	-2.662243	-2.5513682
1443700723325828491	-0.5454505	-2.648572	-2.5834694
1443700723330741822	-0.59928423	-2.6345692	-2.613007
1443700723335929810	-0.5353378	-2.6745882	-2.3371463
1443700723341239868	-0.52022237	-2.660119	-1.867743
1443700723346000611	-0.558857	-2.6447878	-1.89874
1443700723356071411	-0.41154528	-2.7441711	-1.1868479
1443700723360954224	-0.7473564	-2.9231367	-0.335806
1443700723366142212	-0.77605724	-2.9053907	-0.37375212
1443700723371055542	-1.1416726	-3.117177	0.20842505
1443700723376060425	-1.1610136	-3.099413	0.17363095
1443700723381095825	-1.163379	-3.2729225	0.1963799
1443700723386283814	-1.1785151	-3.2555265	0.16690803
1443700723392112671	-1.7558422	-3.342126	0.6933367
1443700723396354615	-2.1818278	-3.5407705	0.5713477
1443700723403617798	-2.1954007	-3.524228	0.54929066
1443700723411460816	-1.9976498	-3.9084826	-0.0869782
1443700723416343628	-2.0014312	-3.8959064	-0.084902525
1443700723421501099	-1.6877362	-4.207837	-0.6819968
1443700723426902710	-1.6917474	-4.196829	-0.6671953
1443700723431449829	-1.2863488	-4.585746	-0.9156976
1443700723436607300	-0.91448104	-4.926859	-1.0093555
1443700723442130982	-0.9145386	-4.9159546	-0.98311687
1443700723447868286	-0.8072223	-4.933241	-0.8096218
1443700723449912964	-0.803641	-4.9193296	-0.7973676
1443700723457817017	-1.4053077	-4.535328	0.46705174
1443700723461631714	-1.3928883	-4.5250673	0.4857371
1443700723467277466	-1.040455	-4.4276857	0.29069495
1443700723471702515	-1.0224338	-4.4188347	0.3151884
1443700723477378784	-1.1153384	-4.111418	0.24168909
1443700723481803833	-1.091063	-4.104225	0.27034366
1443700723492820679	-1.0999702	-3.3799524	0.2751838
1443700723493766724	-1.0907613	-3.3705416	0.2819997
1443700723500236450	-1.006452	-2.4433022	0.3807696
1443700723507011353	-0.3580727	-1.1928625	0.49330497
1443700723511985718	-0.31663257	-1.196744	0.5392871
1443700723517051636	0.40246302	0.41431332	1.064163
1443700723522209107	0.44641006	0.40579414	1.111357
1443700723527610718	1.5413826	2.4287338	1.9192013
1443700723532310425	1.5784905	2.4158897	1.9556532
1443700723537162720	2.8676233	4.6829395	2.999925
1443700723542900025	2.908369	4.6640406	3.032847
1443700723547264038	3.715571	6.9282007	3.2527072
1443700723550773560	4.399233	9.313775	3.1481528
1443700723557304322	4.436686	9.282331	3.1730342
1443700723562370240	4.458577	9.25226	3.1841168
1443700723567558228	4.925437	9.868271	2.9649568
1443700723572593628	4.9327765	9.837718	2.9630268
1443700723580894409	5.385752	8.948905	2.277454
1443700723582511841	6.0596104	6.354888	1.5429944
1443700723587669312	6.0245633	6.336952	1.5188085
1443700723593009888	5.97259	6.319583	1.4859082
1443700723597831665	5.3901615	2.9964323	0.8485279
1443700723600944458	5.3362703	2.9891672	0.8225858
1443700723607841431	4.428743	-0.31703377	0.85277057
1443700723613792359	3.948521	-3.1497755	0.63508046
1443700723617912232	3.8765178	-3.135151	0.59921837
1443700723623802124	4.0154467	-5.3839865	0.6316432
1443700723628471314	3.94101	-5.361019	0.5950738
1443700723633628784	3.5269957	-6.4754877	0.83460546
1443700723638053833	3.4677632	-6.4501333	0.807377
1443700723643333374	1.9429028	-5.873811	0.3443569
1443700723648155152	1.9001331	-5.852111	0.3296088
1443700723658195435	0.20235056	-3.8834	-1.0675442
1443700723663047730	-1.959366	-1.3418055	-2.1548698
1443700723668266236	-1.9640467	-1.340414	-2.1320105
1443700723673118531	-4.1381016	0.99902153	-3.205309
1443700723678214966	-4.116273	0.98867416	-3.15784
1443700723683219849	-7.0646987	3.8872051	-3.827672
1443700723688377320	-7.010741	3.8651037	-3.7617407
1443700723693687378	-9.790315	7.5400047	-3.8003855
1443700723698448120	-9.707621	7.507534	-3.7321095
1443700723708518921	-11.624036	10.754215	-1.9936763
1443700723713401734	-9.591562	10.193084	2.7123282
1443700723718589722	-9.476097	10.160059	2.738293
1443700723723503052	-4.349569	5.8138676	8.399834
1443700723728538452	-4.2610955	5.8010473	8.365468
1443700723733573853	-1.7025642	2.0328074	9.916269
1443700723738731324	-1.6417859	2.0369225	9.839027
1443700723744590699	-0.40971136	-1.5305109	6.5272865
1443700723748832642	-1.0146286	-3.540019	1.6635352
1443700723752006470	-0.99439085	-3.5234156	1.6289581
1443700723758903443	-0.96817297	-3.5039244	1.5808536
1443700723763755738	-2.0873866	-4.5658636	-1.1249603
1443700723768974243	-2.0786157	-4.5538044	-1.1123255
1443700723773826538	-2.705267	-5.451357	-2.229705
1443700723778892456	-2.6958504	-5.441931	-2.1829457
1443700723783927857	-2.6161592	-6.380802	-3.2916641
1443700723790489136	-2.2831097	-7.2720137	-4.294219
1443700723794700562	-2.267344	-7.257353	-4.2317333
1443700723800010620	-2.3080373	-7.557846	-5.0933943
1443700723802390991	-2.2920804	-7.539091	-5.048025
1443700723809562622	-2.4372983	-6.849353	-5.9919844
1443700723814140259	-2.4024067	-6.8338566	-5.9139524
1443700723819297730	-2.5855725	-5.2239904	-6.5840364
1443700723824180542	-2.5359468	-5.2109585	-6.499192
1443700723829856812	-2.4718258	-5.1963453	-6.404932
1443700723834434449	-2.5260036	-3.1901283	-6.399401
1443700723839317261	-2.70854	-0.69734097	-6.4940195
1443700723844352661	-2.6334872	-0.6902132	-6.4173107
1443700723849388062	-1.829236	1.7425642	-6.882617
1443700723859428345	-0.4028617	3.60497	-7.394813
1443700723864494263	-0.32373655	3.6057205	-7.3254232
1443700723869529663	-0.24687946	3.6071043	-7.256095
1443700723874687134	2.4097881	4.4525948	-4.822658
1443700723880088745	3.7806985	4.2606764	-1.1330014
1443700723884788452	3.8276958	4.259288	-1.0826887
1443700723889640747	3.1297936	3.6241798	0.4845061
1443700723895378052	1.536528	2.5256433	0.6905509
1443700723899711548	1.5711813	2.5268393	0.72835636
1443700723909812866	0.43852925	1.322998	0.20063898
1443700723914817749	0.46943188	1.3271933	0.24453953
1443700723919883667	-0.07993841	0.11846733	-0.32726657
1443700723925071656	-0.058531046	0.124409676	-0.2754801
1443700723930931031	-0.45238996	-0.8960695	-0.8281015
1443700723935172974	-0.7509396	-2.049715	-1.6465144
1443700723939994751	-0.746017	-2.0407572	-1.5875663
1443700723945762574	-0.74513197	-2.031642	-1.5152779
1443700723950096070	-1.9098895	-2.41222	-1.687037
1443700723953605591	-1.907217	-2.4031763	-1.6385901
1443700723960319458	-2.507575	-2.2091293	-1.5862869
1443700723966545044	-2.4752228	-1.8981142	-1.7653259
1443700723970420777	-2.4709954	-1.88902	-1.7117567
1443700723976493775	-2.0894873	-1.5791502	-0.844029
1443700723981010376	-2.0859814	-1.5699024	-0.79033506
1443700723986198365	-2.0691104	-1.3059778	-0.008116484
1443700723997245728	-1.9755769	-0.6327534	0.2653191
1443700723998191773	-1.9697812	-0.6301098	0.2711469
1443700724000419556	-1.9627244	-0.62625504	0.28418958
1443700724010642945	-1.5642958	0.18870926	0.4085722
1443700724015586792	-0.89564824	0.8258982	0.73785067
1443700724020744263	-0.8792856	0.82938766	0.7534801
1443700724025627075	-0.14941192	1.2144098	0.31792545
1443700724030662476	-0.13427067	1.2166586	0.33114254
1443700724035697876	0.85449386	1.2068138	-0.105920434
1443700724040885865	0.86727214	1.2089443	-0.09386909
1443700724046195923	1.3369772	1.0319433	-0.086802244
1443700724050926148	1.3465552	1.0336037	-0.07860172
1443700724060996949	1.7346854	0.6292572	-0.2866119
1443700724065879761	1.9434149	0.18279171	-0.5973301
1443700724071098267	1.9499164	0.18612671	-0.590124
1443700724075981079	1.9311059	-0.13199425	-0.8617643
1443700724081016480	1.9360471	-0.12833214	-0.85475147
1443700724086051880	1.7773278	-0.42778206	-1.0183991
1443700724091239868	1.7829437	-0.42318535	-1.0106132
1443700724096733033	1.4161296	-0.64968777	-1.2227749
1443700724101280152	1.4223402	-0.64449596	-1.2139403
1443700724104484497	1.4260752	-0.6401663	-1.2065575
1443700724111381470	0.9839754	-0.82433033	-1.2333474
1443700724116203247	0.70585585	-0.99975204	-1.0023417
1443700724121482788	0.7195902	-0.9910593	-0.98770034
1443700724126487671	0.40647817	-0.99403095	-0.7450336
1443700724131370484	0.42172337	-0.9845505	-0.7278521
1443700724136405884	0.12480593	-0.76541233	-0.64302135
1443700724142875611	0.111251354	-0.4158516	-0.4953966
1443700724146903931	0.12687182	-0.4073515	-0.4762479
1443700724151939331	0.2891178	-0.10778618	-0.2224617
1443700724154838501	0.30106664	-0.10142422	-0.20735896
1443700724162223755	0.51785016	0.17917824	0.15166473
1443700724166587769	0.536988	0.1891079	0.17639923
1443700724171531616	0.7846241	0.3130684	0.4350109
1443700724176689087	0.807158	0.32548332	0.46629393
1443700724182182251	1.0112607	0.26267815	0.6925492
1443700724186942993	1.0308738	0.2746458	0.72174
1443700724191795288	0.94670606	0.2093172	1.0676587
1443700724196861206	0.96718	0.2222786	1.0974258
1443700724201835572	0.74936175	0.22531796	1.3691777
1443700724211906372	0.77302265	0.22933197	1.5437741
1443700724216941773	0.79229236	0.24139786	1.5676366
1443700724222007691	0.6563549	0.30809593	1.5134372
1443700724227165161	0.6758354	0.31964588	1.5349127
1443700724232902466	0.6424527	0.27263546	1.2953689
1443700724237266480	0.6584294	0.28207397	1.3116531
1443700724242149292	0.8507621	0.22347546	0.8977339
1443700724247215210	1.0112755	0.2728939	0.35866976
1443700724252220093	1.0294938	0.28383827	0.37816143
1443700724262290894	1.1818285	0.39243126	0.01758504
1443700724267326294	1.202079	0.40313816	0.033463
1443700724272544800	1.459336	0.61006165	-0.36220193
1443700724277549683	1.4808104	0.6203222	-0.34843278
1443700724282310425	1.6807647	0.85671043	-0.39879942
1443700724287651001	1.6151946	1.1200218	-0.37771273
1443700724292472779	1.6367712	1.1282692	-0.3686211
1443700724298332154	1.6640704	1.1386967	-0.35936117
1443700724302543579	1.5860546	1.2323923	-0.08855009
1443700724306083618	1.601371	1.2372055	-0.0845685
1443700724312644898	1.4341063	1.2045145	0.32237244
1443700724318382202	1.2343404	1.103138	0.559088
1443700724322868286	1.256119	1.1102304	0.5601311
1443700724330650269	1.5097637	1.053113	0.54737186
1443700724338127075	1.6566978	1.1030579	0.49105334
1443700724342979370	1.6786761	1.1112461	0.4933703
1443700724347923218	1.8273461	1.1972094	0.6366794
1443700724353019654	1.8495846	1.2056875	0.6390202
1443700724356407105	1.8626208	1.2102776	0.64003944
1443700724363090454	1.7959678	1.4334116	0.7732544
1443700724367912232	1.8615935	1.578886	0.8350582
1443700724373191773	1.8835933	1.5863018	0.8355174
1443700724378135620	1.84237	1.786025	0.79717803
1443700724383048950	1.8612828	1.7915363	0.7967303
1443700724388175904	1.8518777	2.0155382	0.7206812
1443700724393302857	1.8705258	2.0202398	0.7194214
1443700724399162232	1.4263012	2.2885208	0.40259767
1443700724403282105	1.4403262	2.2900763	0.40125275
1443700724413474976	1.5600843	2.4602747	0.13356829
1443700724418388306	1.5901775	2.56567	-0.1039145
1443700724423576294	1.602967	2.565011	-0.10918927
1443700724428428589	1.1189737	2.8075676	-0.44169593
1443700724434165894	1.1309528	2.8042889	-0.4510193
1443700724438529908	1.4261286	2.8724566	-0.3617909
1443700724443717896	1.4338863	2.8673573	-0.3722496
1443700724449088990	1.7727811	2.7807512	-0.17824674
1443700724453788697	1.7741027	2.7726135	-0.1928556
1443700724463890015	1.8090854	2.5511923	-0.07048488
1443700724468742310	1.76087	2.3680897	0.05203128
1443700724473869263	1.8490322	2.3519735	0.011816025
1443700724478813111	1.8385744	2.337223	-0.015777826
1443700724485374390	1.8474343	2.3797245	-0.13883352
1443700724489036499	1.8355196	2.3650875	-0.16376615
1443700724495048462	1.5597415	2.0899954	0.053420424
1443700724499534546	1.5432303	2.0715094	0.015838385
1443700724503959595	1.278383	1.6308107	0.1985929
1443700724507316529	1.2641077	1.6156197	0.16603899
1443700724514091431	0.90203977	0.76860523	0.41836655
1443700724519065796	0.66185355	-0.27107048	0.60094607
1443700724524101197	0.6372907	-0.29156017	0.535252
1443700724529136597	0.6106682	-0.31273746	0.46693957
1443700724534782349	-0.039669514	-1.5716858	0.31286037
1443700724541191040	-0.07704806	-1.5981512	0.21307981
1443700724549430786	-0.8953953	-2.6670628	0.1309849
1443700724554344116	-1.1669893	-3.4024363	0.4169966
1443700724564384400	-1.3541775	-3.7291431	0.95305467
1443700724569450318	-1.3851693	-3.7435923	0.8411567
1443700724574485718	-1.7062685	-3.6226768	1.5929136
1443700724579673706	-1.7409976	-3.637086	1.4620862
1443700724585349976	-2.2332785	-2.6285677	2.061437
1443700724589713990	-2.2647421	-2.639946	1.9411973
1443700724594596802	-2.9910748	-0.90588	1.5218488
1443700724599632202	-3.2398524	0.6199503	1.0115955
1443700724604698120	-3.279403	0.60300255	0.87650055
1443700724614738404	-2.2783637	1.6158772	-0.87085444
1443700724619804322	-2.325562	1.600316	-0.9845233
1443700724624961792	-1.761663	2.5495434	-1.3177024
1443700724630027710	-1.8152034	2.5326872	-1.4166925
1443700724635887085	-1.3407793	2.6613855	-2.9952807
1443700724645103394	-0.16021562	2.664382	-2.3195245
1443700724651695191	1.596273	3.1402092	-0.5762085
1443700724655021607	1.5462272	3.1259851	-0.6236826
1443700724658531128	1.4923992	3.1113262	-0.6712587
1443700724671745240	1.9721572	3.0182714	-1.3901176
1443700724672660767	1.952877	3.0091305	-1.3962345
1443700724675163208	1.9082291	2.996131	-1.4159772
1443700724680198609	1.9958556	2.3683672	-1.5896432
1443700724686332642	1.8916978	2.347952	-1.62801
1443700724690208374	1.8236113	2.3328848	-1.6459278
1443700724695426880	1.6960744	1.952611	-2.4124494
1443700724701072632	1.4247153	1.2607698	-2.6997666
1443700724705406128	1.3459978	1.2474298	-2.7103605
1443700724708671509	1.2861375	1.2370567	-2.71624
1443700724715629517	1.312095	0.37931442	-2.5360646
1443700724720481812	1.5246965	-0.48863983	-2.5319848
1443700724725700318	1.433679	-0.49584675	-2.5480752
1443700724730583130	1.7145524	-1.2595434	-2.760364
1443700724735618531	1.6296005	-1.2627602	-2.7749412
1443700724740623413	1.4590297	-1.7362995	-2.5029283
1443700724745872437	0.60128903	-1.8078156	-1.4328774
1443700724751609741	0.51912904	-1.8062792	-1.4584821
1443700724755882202	0.46212864	-1.802886	-1.4788328
1443700724765953003	0.020154595	-1.7819748	-0.6307466
1443700724770866333	-0.2868623	-1.8097029	-0.26896083
1443700724776023804	-0.3343559	-1.8018627	-0.3056239
1443700724780906616	-0.31959224	-1.938343	-0.4051336
1443700724785942017	-0.5097385	-2.014697	-0.5499582
1443700724791007935	-0.54987395	-2.006298	-0.57939816
1443700724799522339	-0.7966877	-1.9215899	-0.6863171
1443700724801414429	-0.80850357	-1.9160614	-0.69356406
1443700724806327759	-0.8393201	-1.9090595	-0.71150875
1443700724816276490	-0.82739204	-2.0794525	-0.5284345
1443700724821220337	-0.98932886	-2.1699333	-0.45606792
1443700724827354370	-1.1216453	-2.2793417	-0.373039
1443700724837089478	-1.0500699	-2.5162945	-0.41496027
1443700724841514527	-1.0669407	-2.5103245	-0.41740775
1443700724847221314	-0.8550209	-2.805254	-0.82084334
1443700724852226197	-0.87359524	-2.799162	-0.8196089
1443700724856559693	-0.71206385	-2.9808826	-1.3248448
1443700724859947144	-0.7232152	-2.9749336	-1.3192923
1443700724866538941	-0.5120257	-2.979601	-1.5286359
1443700724871574341	-0.52697617	-2.9745693	-1.5180795
1443700724876609741	-0.6292511	-2.9386864	-1.384757
1443700724887962281	-0.71100354	-3.0029335	-0.8506688
1443700724888938843	-0.7106975	-2.9966526	-0.84714293
1443700724891685425	-0.71164274	-2.9909515	-0.8407924
1443700724896751343	-0.67467505	-3.163803	-0.37157404
1443700724902580200	-0.8219964	-3.2588549	0.085591555
1443700724906822144	-0.8168004	-3.252984	0.09190154
1443700724910331665	-0.8113399	-3.2469301	0.0972389
1443700724916892945	-0.89520013	-3.2921495	0.35070336
1443700724921897827	-0.88241863	-3.2867413	0.35940766
1443700724926994263	-0.9413519	-3.0666103	0.36533332
1443700724932090699	-0.926417	-3.0620508	0.3761171
1443700724938011109	-0.92015886	-2.714446	0.27548468
1443700724942192017	-0.97221196	-2.341877	0.4294598
1443700724947105347	-0.95350397	-2.3394604	0.44384396
1443700724952110230	-0.9325496	-2.3372154	0.45958924
1443700724957176148	-0.82859313	-1.901721	0.5802045
1443700724960685669	-0.81111765	-1.8996363	0.5917119
1443700724967246949	-0.5053347	-1.1675072	0.8181392
1443700724972373902	0.016862243	-0.07316685	0.91162896
1443700724977470337	0.0452452	-0.07586098	0.9302597
1443700724982505738	0.07460961	-0.0784359	0.94912994
1443700724988029419	0.92799735	0.9324465	1.4514054
1443700724993400513	0.9589323	0.92788124	1.4705458
1443700724997611939	1.8420748	1.9711018	1.949623
1443700725003044068	2.729766	3.0191345	2.4713821
1443700725007682740	2.7499568	3.0113745	2.4810057
1443700725017692505	3.2114425	3.836668	3.09578
1443700725022605835	3.5277843	4.1624146	3.2644248
1443700725027824341	3.542996	4.153389	3.2658265
1443700725032646118	3.553934	4.144799	3.263423
1443700725037773072	3.5918975	4.283498	3.1470683
1443700725042777954	3.314328	4.3075895	2.330803
1443700725047965943	3.3161783	4.299618	2.3217597
1443700725053581177	2.6037097	3.8023872	1.2675833
1443700725057884156	2.055229	2.82121	0.8398347
1443700725062126099	2.0437257	2.816351	0.82901525
1443700725068077027	2.02252	2.8121548	0.81139064
1443700725072959839	1.9991028	2.8079205	0.79378164
1443700725078178345	1.6196007	1.6938763	0.9296882
1443700725083030640	1.5217662	0.44867992	1.1467541
1443700725088127075	1.4865742	0.45057297	1.1207356
1443700725093131958	1.7866484	-0.9191561	1.230662
1443700725098319947	2.1205184	-2.0923443	1.2835737
1443700725104118286	2.0749998	-2.0842514	1.2544303
1443700725108421265	2.0401442	-2.07718	1.2333907
1443700725118461548	2.0857284	-2.7332191	1.1648985
1443700725123344361	1.3675977	-2.2448788	1.3052784
1443700725128501831	1.334127	-2.2374134	1.2868297
1443700725133384644	0.06607615	-0.69388294	1.1451288
1443700725138450562	-1.3522154	1.6376543	0.16186821
1443700725143516480	-1.3627006	1.6355934	0.15458381
1443700725148704468	-1.3656052	1.6327696	0.15128887
1443700725154319702	-2.8629625	3.8604174	-0.8989562
1443700725158683716	-2.8475	3.8512936	-0.89150715
1443700725169761597	-5.8336806	6.602318	-2.8593879
1443700725179466187	-7.5168376	6.3161182	-2.6029134
1443700725183891236	-7.4657307	6.301071	-2.583478
1443700725189018189	-7.5158663	4.2282133	-0.32556355
1443700725193992554	-7.458921	4.2190876	-0.31559873
1443700725199058472	-4.9785895	1.1142483	2.2420707
1443700725203910767	-4.93712	1.1140347	2.2337513
1443700725208946167	-3.3114252	-1.735115	3.94927
1443700725212425171	-3.2916455	-1.7291517	3.932339
1443700725218986450	-2.485269	-4.001458	4.315873
1443700725224052368	-2.472682	-3.9899178	4.292797
1443700725229087769	-2.385882	-5.1146297	3.234859
1443700725234245240	-2.3828375	-5.102827	3.2218919
1443700725239646851	-3.40591	-5.658703	1.33783
1443700725244346558	-3.4015644	-5.6491814	1.3454012
1443700725249259888	-3.4833162	-6.101198	-0.5103662
1443700725254264771	-3.4724317	-6.0941916	-0.47961152
1443700725259300171	-3.593746	-6.159975	-1.667107
1443700725262809693	-3.5764935	-6.152403	-1.6329976
1443700725269370972	-3.0210056	-5.6853724	-3.1514535
1443700725274406372	-2.9904387	-5.6813755	-3.0918808
1443700725279411255	-2.9482276	-4.8833	-4.034136
1443700725284477173	-2.8918357	-3.9375772	-4.846458
1443700725290428101	-2.8414426	-3.9380283	-4.758553
1443700725294700562	-2.8002598	-3.9357243	-4.6887436
1443700725299552857	-2.1354766	-2.4842672	-5.117973
1443700725304649292	-2.080598	-2.4846535	-5.0283365
1443700725309654175	-1.2100285	-0.5556526	-5.5192623
1443700725319847046	-1.0989178	1.8583441	-6.371368
1443700725324760376	-1.0369214	1.8541212	-6.276994
1443700725329948365	-0.5015315	4.26571	-6.9086614
1443700725334709107	-0.43738604	4.2596397	-6.8162146
1443700725340537964	2.0100005	5.0141983	-6.469462
1443700725345939575	5.07308	3.99868	-4.3664384
1443700725350059449	5.1107674	3.995325	-4.300001
1443700725355186402	4.097259	3.174034	-0.67566735
1443700725360160767	4.1323547	3.172966	-0.621583
1443700725370201050	1.9151856	2.60155	1.1932504
1443700725375083863	1.421111	1.4645138	0.4354388
1443700725380332886	1.4495852	1.4665976	0.4651686
1443700725385185181	0.65871763	0.40037918	-0.78007007
1443700725390251099	0.67816234	0.4030714	-0.7437844
1443700725395255982	0.8619002	-0.6936598	-1.4851996
1443700725400443970	0.8687788	-0.6905632	-1.4363658
1443700725405723511	0.26368976	-1.7937632	-2.0205166
1443700725410545288	-1.1667614	-2.4784422	-1.8935019
1443700725413749634	-1.1658508	-2.4729462	-1.8540452
1443700725420616089	-1.1673435	-2.4666624	-1.7718962
1443700725425468384	-2.1656723	-2.7288246	-1.4538691
1443700725430625855	-2.1622832	-2.72093	-1.3874873
1443700725435539185	-2.160015	-2.6811934	-1.1976652
1443700725440574585	-2.1515334	-2.6715498	-1.131733
1443700725445609986	-2.0642834	-2.2407932	-0.29161578
1443700725450767456	-1.6261612	-1.9198618	0.12906206
1443700725456291138	-1.6107888	-1.9087687	0.1943689
1443700725460899292	-1.595071	-1.8981714	0.24707371
1443700725470939575	-1.2256354	-1.5763655	-0.05120772
1443700725475822388	-1.0771321	-1.172986	-0.19851166
1443700725481010376	-1.0482442	-1.1590767	-0.14011574
1443700725485862671	-0.7338804	-0.8415737	-0.37424266
1443700725490928589	-0.62160623	-0.5577984	-0.3702469
1443700725495963990	-0.5866437	-0.5424843	-0.31333673
1443700725501029908	-0.55040264	-0.526495	-0.25720036
1443700725506492554	0.29116273	-0.2725458	-0.40597808
1443700725512229859	0.77065444	-0.22696304	-0.5471971
1443700725514427124	0.7841022	-0.21970272	-0.5236559
1443700725522117554	1.0946109	0.11358261	-0.6360861
1443700725531852661	1.6247337	0.18724918	-0.064935684
1443700725536369263	1.6488395	0.20062923	-0.023863316
1443700725541252075	1.4136865	0.1276331	0.78264046
1443700725549156128	1.4537976	0.1496458	0.8435379
1443700725556541382	0.95854807	0.32767677	1.072756
1443700725561424195	0.79123425	0.41470528	1.166454
1443700725564933716	0.80663896	0.42249012	1.1851707
1443700725571525513	0.8536198	0.54355717	1.1128069
1443700725576530396	0.87398434	0.5539417	1.1377888
1443700725581565796	0.7404537	0.5974512	1.1214689
1443700725586753784	0.75993824	0.6076231	1.1461349
1443700725592399536	0.48856854	0.57946587	1.0046556
1443700725596671997	0.5049958	0.5879183	1.0248127
1443700725601676880	0.8759532	0.49090767	0.9464226
1443700725607231079	0.8980479	0.50333595	0.97452664
1443700725611778199	1.0696282	0.23659801	0.7818942
1443700725615104615	1.0817287	0.24459457	0.7994592
1443700725621848999	1.8521171	0.08432388	0.7335024
1443700725626853882	1.8705802	0.098347664	0.76450825
1443700725631889283	2.243656	0.09042263	0.4145882
1443700725636924683	2.0714588	0.31240654	0.38848662
1443700725642845093	2.0934746	0.33089924	0.43285942
1443700725652122437	1.7069218	0.6913004	0.596287
1443700725657737671	1.7306955	0.70968914	0.6382985
1443700725662101685	1.3671808	1.1021957	0.62724304
1443700725672294556	1.0962427	1.4650869	0.653806
1443700725678062378	0.9274323	1.6702671	0.5866549
1443700725682273804	0.9489052	1.6805773	0.6070154
1443700725688377320	0.41997385	1.965971	0.4297843
1443700725693199097	0.44606638	1.9761333	0.44685793
1443700725698173462	1.2092533	2.3356352	-0.013876915
1443700725702506958	1.2299898	2.342001	-0.0027177334
1443700725707328736	1.8088095	2.5856104	-0.6166103
1443700725712577759	1.8314211	2.5929546	-0.6033721
1443700725719963013	2.5569746	2.3514986	-0.48937726
1443700725727500855	2.481609	1.9881544	0.019067287
1443700725732597290	2.4961448	1.9925995	0.024094582
1443700725737663208	1.7185097	2.005826	0.75904036
1443700725743400513	1.7365241	2.0100193	0.7592447
1443700725747734009	0.6519301	2.292488	1.5616992
1443700725752921997	0.6694689	2.2947073	1.5586653
1443700725758781372	-0.2551155	2.4932013	2.0476184
1443700725762992798	-0.8315208	2.3592348	1.9699297
1443700725766075074	-0.82178783	2.3575315	1.9666097
1443700725773033081	-0.8051677	2.3588476	1.9647131
1443700725777946411	-1.1682003	2.4627151	1.7325344
1443700725783134400	-1.1567116	2.460866	1.7284875
1443700725788017212	-1.2430475	2.827135	1.6941092
1443700725793083130	-1.2297759	2.82304	1.6829457
1443700725798088013	-0.8227427	3.198882	1.3699849
1443700725803276001	-0.8081722	3.192195	1.3502176
1443700725808738648	0.04301977	3.197898	0.5384214
1443700725813346802	0.054198503	3.1903114	0.5189378
1443700725823387085	1.1524386	3.2300138	-0.6079669
1443700725828269898	2.473542	3.4006138	-0.8533709
1443700725833488404	2.4798574	3.390852	-0.87742853
1443700725838340699	3.4786842	3.8277788	-0.7558868
1443700725843467652	3.4794204	3.8140278	-0.78729916
1443700725848442017	4.1172886	4.335616	-0.42481065
1443700725854759156	3.878627	4.5802393	-0.3404789
1443700725859367310	3.869522	4.559559	-0.3822236
1443700725864128052	3.3734734	3.725937	-0.53399205
1443700725874259888	3.1636508	1.9077616	-0.8309083
1443700725878623902	3.1412165	1.8856983	-0.882612
1443700725883872925	2.273241	0.036398888	-0.1563425
1443700725888877808	2.2399437	0.009895325	-0.23168087
1443700725893638550	0.9855006	-1.1165705	1.3787864
1443700725898918091	0.9430032	-1.148324	1.2724948
1443700725903800904	-0.42208457	-1.2695389	2.5253196
1443700725908866822	-0.46577764	-1.3012495	2.4045591
1443700725913902222	-1.6751006	-0.71958923	2.8609548
1443700725923973023	-3.4171872	0.5673723	2.8463624
1443700725928977906	-3.4632478	0.53337	2.6823843
1443700725934013306	-5.1044188	1.7553558	2.1589508
1443700725939201294	-5.15037	1.7235632	1.9833342
1443700725944908081	-5.875214	2.317708	0.29999727
1443700725949150025	-5.3521805	1.6763496	-1.6413224
1443700725954154908	-5.393958	1.6558561	-1.7865086
1443700725959709107	-5.4408274	1.636591	-1.9366946
1443700725964256226	-4.039275	0.67656994	-3.5561526
1443700725967582642	-4.06534	0.6678934	-3.6278558
1443700725974235474	-3.0583	0.23667526	-4.1576014
1443700725979331909	-3.106089	0.22734642	-4.2543745
1443700725984519898	-1.8691998	-0.011583328	-2.9873977
1443700725989433228	-1.2206566	-0.22480392	-0.2967748
1443700725994468628	-1.2721274	-0.23019886	-0.3886289
1443700725999504029	-1.3235352	-0.23455334	-0.4786541
1443700726004661499	-1.0717461	0.23121738	1.1596622
1443700726013664185	-0.2901888	0.6091852	1.2158189
1443700726014671265	-0.30060887	0.607563	1.1961973
1443700726018119751	-0.33841443	0.605114	1.1365342
1443700726024803101	0.2624265	0.6993799	-0.16725242
1443700726030235230	0.62887573	0.74590206	-1.6157961
1443700726034873902	0.5658666	0.74203396	-1.6774538
1443700726040092408	0.62376153	0.92844963	-2.3338141
1443700726044822632	0.5534313	0.9235296	-2.387382
1443700726050102173	1.3858944	0.20066833	-2.156487
1443700726055046021	1.3085711	0.19715595	-2.2048097
1443700726059928833	1.6692926	-0.73148537	-2.4510775
1443700726065116822	1.5845968	-0.7328472	-2.495946
1443700726075157105	1.1748557	-1.4887562	-2.8668094
1443700726079978882	0.78294384	-2.0942469	-2.8229208
1443700726085227906	0.69676375	-2.0899353	-2.8644114
1443700726090171753	0.7103069	-2.4644346	-2.3888378
1443700726095146118	0.63211447	-2.4577007	-2.4267595
1443700726100181519	0.37514842	-2.675808	-2.5118906
1443700726105369507	0.2980495	-2.6670408	-2.549404
1443700726111198365	0.05006218	-3.0993261	-2.3066525
1443700726115470825	-0.0069597363	-3.0897722	-2.3318284
1443700726125572144	-0.39391044	-3.5409346	-1.8360128
1443700726130424439	-0.9279618	-3.0725718	-2.6975904
1443700726135612427	-0.9762864	-3.062523	-2.7159595
1443700726140495240	-1.3717018	-2.6962233	-3.975323
1443700726145530640	-1.4063139	-2.6881847	-3.982161
1443700726150566040	-1.5483115	-3.0973358	-3.6670601
1443700726155754029	-1.5747689	-3.0890646	-3.6701558
1443700726161430298	-1.8713472	-2.5097036	-3.8093336
1443700726165672241	-1.886594	-2.5024529	-3.8113563
1443700726168998658	-2.0290537	-4.027279	-0.38880134
1443700726175956665	-2.0509095	-4.0143137	-0.40846205
1443700726183830200	-1.3264735	-2.8390427	-2.2197545
1443700726191001831	-1.5362825	-2.5028172	-1.7760935
1443700726196830689	-2.3186274	-3.33914	0.37090898
1443700726201072632	-2.3190236	-3.32965	0.36001658
1443700726206657349	-2.2839766	-4.087145	1.0711837
1443700726211021363	-2.2798588	-4.0761576	1.0594351
1443700726216026245	-1.327851	-4.6094027	0.34021235
1443700726226066529	-1.0994569	-4.6841164	0.06626153
1443700726231132447	-1.0964254	-4.6749125	0.06826639
1443700726236198365	-0.95876265	-4.4571238	0.025834322
1443700726241355835	-0.9553125	-4.4512825	0.03894639
1443700726246757447	-0.79683685	-4.296316	-0.06693673
1443700726251426636	-0.7898348	-4.292286	-0.047510147
1443700726256309449	-0.59783024	-4.0826626	-0.17933822
1443700726261344849	-0.5329528	-3.6533813	-0.21422553
1443700726266380249	-0.51999986	-3.6529045	-0.18448925
1443700726276420533	-0.62537736	-2.8020124	0.12138581
1443700726281455933	-0.60495406	-2.8040075	0.15567493
1443700726286521851	-0.4568517	-1.7660713	0.5179188
1443700726291709839	-0.43095708	-1.7701082	0.55319834
1443700726297172486	-0.3431977	-0.31270885	0.99451184
1443700726301750122	-0.1454387	1.9753428	1.7329936
1443700726306632935	-0.11544511	1.9650879	1.7623348
1443700726312431275	-0.076005965	1.9545012	1.7961922
1443700726316703736	1.2503859	4.057209	2.341393
1443700726320213257	1.2764794	4.0460806	2.355866
1443700726326957642	2.6122093	6.320485	4.5999846
1443700726331870972	3.3325615	7.9382715	6.248919
1443700726337028443	3.3723726	7.9221573	6.2481956
1443700726341911255	3.7041264	8.069975	6.3785725
1443700726346916138	3.7398224	8.056529	6.364044
1443700726351982056	3.7724528	8.044072	6.3446665
1443700726357017456	4.048137	7.091158	5.0852175
1443700726363090454	3.6377707	5.491458	3.270058
1443700726367088257	3.641267	5.483078	3.253307
1443700726370597779	3.6382585	5.4740763	3.2371504
1443700726377281128	2.6350095	3.5140657	1.7540493
1443700726382286011	2.3124871	1.7375526	1.2938035
1443700726387382447	2.2819376	1.7348614	1.2781608
1443700726392234741	2.398829	0.058023453	1.1940339
1443700726397300659	2.3629522	0.05859375	1.1790679
1443700726402336060	2.0733135	-0.9675474	1.1176987
1443700726407493531	2.0344641	-0.9647789	1.1028647
1443700726412803589	1.278127	-0.8963928	0.66365504
1443700726417594849	1.243988	-0.8941498	0.6534388
1443700726427635132	0.3150096	0.15120506	-0.43542075
1443700726432517945	-1.5401207	1.6651917	-1.5276167
1443700726437705933	-1.5556781	1.6584253	-1.5136535
1443700726442649781	-4.3265986	2.9342022	-2.7848535
1443700726447624146	-4.3217278	2.922968	-2.7573216
1443700726452659546	-6.8554463	3.6955357	-4.356065
1443700726457725464	-6.828898	3.6817875	-4.317058
1443700726463554322	-8.315038	4.2522793	-4.330904
1443700726467948853	-8.274504	4.238716	-4.293865
1443700726478019654	-9.585704	3.9770832	-2.3405457
1443700726482902466	-8.443429	2.2357893	1.0437081
1443700726488090454	-4.3222556	-0.8627949	5.480566
1443700726492942749	-4.2731004	-0.857954	5.469493
1443700726498680054	-4.2207017	-0.8497114	5.444041
1443700726503044068	-2.1864953	-2.630413	5.948956
1443700726508201538	-2.144006	-2.6155224	5.908428
1443700726513603150	-2.4450154	-3.5748272	3.6408463
1443700726518333374	-2.4151864	-3.5588741	3.6058385
1443700726521476685	-2.4614935	-4.706745	1.2726042
1443700726528129517	-2.203761	-5.4445133	-1.0849135
1443700726533256470	-2.187485	-5.4349003	-1.0692883
1443700726539176880	-1.7696754	-5.709552	-3.0728643
1443700726548973023	-2.0491343	-5.4188547	-4.920502
1443700726553581177	-2.0382926	-5.4185266	-4.853041
1443700726558402954	-2.0519218	-4.737422	-6.0866218
1443700726563468872	-2.0335002	-4.7399044	-5.999544
1443700726568382202	-1.5895787	-3.8197117	-6.735075
1443700726571983277	-1.5711732	-3.8195543	-6.664543
1443700726578575074	-1.1949391	-2.7353792	-7.610614
1443700726583579956	-1.1602308	-2.7376537	-7.513485
1443700726588645874	-1.0953366	-1.7008095	-7.923698
1443700726593803345	-1.0495292	-1.7018614	-7.8250065
1443700726599235474	-0.8020705	-0.37671947	-7.802946
1443700726603904663	-0.7527423	-0.37639904	-7.7174463
1443700726608756958	0.0722276	1.3207979	-6.818555
1443700726613853394	0.13052034	1.3211098	-6.7356353
1443700726618858277	1.133002	2.9837503	-4.2097254
1443700726628929077	1.9033142	4.1172857	-1.1971154
1443700726633933960	1.9561191	4.1159363	-1.144262
1443700726638969361	2.2745683	4.1482363	0.49914777
1443700726644157349	2.3213103	4.147154	0.5439064
1443700726649528443	2.665732	3.3531752	0.5536844
1443700726654228150	1.9464962	2.3885508	0.33390608
1443700726659294068	1.9766221	2.3889446	0.3761145
1443700726665244995	2.0056095	2.3891296	0.4275904
1443700726669212281	0.8935404	1.4174404	0.13255915
1443700726672721802	0.9059291	1.4166851	0.16559795
1443700726681205689	0.4871428	0.2168932	-0.6620909
1443700726689506470	-0.12470651	-0.98276234	-1.014568
1443700726694480835	-0.98827195	-1.5805893	-0.9625459
1443700726699424683	-0.98518777	-1.5766239	-0.8979273
1443700726705406128	-1.0105641	-2.209341	-1.263424
1443700726709648072	-1.0127332	-2.2044926	-1.2074858
1443700726715263306	-1.170991	-2.5574799	-0.53965163
1443700726719535767	-1.1742661	-2.5516405	-0.48888943
1443700726722892700	-1.1765347	-2.5458813	-0.45123634
1443700726729789673	-1.5518005	-2.7409973	0.08152741
1443700726734672486	-1.6532333	-2.5844774	0.4291365
1443700726739860474	-1.6514692	-2.5765839	0.47829217
1443700726744712769	-1.6464629	-2.5679626	0.523924
1443700726749778687	-1.3324902	-2.264552	0.4403361
1443700726754783570	-1.0006099	-1.7196999	0.25019622
1443700726760002075	-0.9870846	-1.7096577	0.30014175
1443700726765800415	-0.82317924	-1.08533	-0.27849907
1443700726770072876	-0.80700827	-1.0761623	-0.23683262
1443700726780143677	-0.32830524	-0.4093132	-0.9401838
1443700726785026490	0.16315222	0.11136341	-1.6151974
1443700726790214478	0.1882708	0.12225628	-1.5650758
1443700726795097290	0.44522738	0.33334732	-1.7901138
1443700726800163208	0.5024142	0.40126514	-1.2116972
1443700726805137574	0.52737117	0.41165257	-1.1701674
1443700726810203491	0.5532119	0.42227077	-1.130519
1443700726816032349	0.7716341	0.1695261	-0.3916334
1443700726820426880	0.7927401	0.1789856	-0.36147082
1443700726830497681	1.1351407	-0.2996168	0.04797387
1443700726835380493	0.96625805	-0.71108246	0.01028192
1443700726840568482	0.73439026	-0.82235336	0.016394734
1443700726851463257	0.77475834	-0.79515076	0.10486424
1443700726860710083	0.375216	-0.54179573	0.14635336
1443700726866386353	0.15024495	-0.079958916	0.22825146
1443700726871696411	-0.03294158	0.29676723	0.36064208
1443700726873985230	-0.02234459	0.3026247	0.37861812
1443700726881797730	0.04581523	0.5488281	0.58390546
1443700726891502320	0.7710118	0.7750244	0.704229
1443700726895927368	0.790215	0.78617287	0.73502123
1443700726901237427	1.4131937	0.88466644	0.67110157
1443700726906028687	1.4314213	0.8965759	0.7042949
1443700726910880982	1.8357122	0.9837551	0.47529387
1443700726915977417	1.8526907	0.99619293	0.510973
1443700726920982300	2.2463555	1.2279444	0.26557636
1443700726924339234	2.255382	1.234724	0.2872541
1443700726931022583	2.1005871	1.524869	0.27471614
1443700726938499390	2.1278186	1.5412903	0.31470966
1443700726941093384	1.7702942	1.7714148	0.5341537
1443700726946250855	1.7885783	1.7798672	0.55423975
1443700726951896607	1.2952213	2.0404835	0.82932496
1443700726956352173	1.3108523	2.0452614	0.84019876
1443700726961265503	0.822772	2.231597	0.930634
1443700726966300904	0.8406868	2.2355509	0.9374757
1443700726971366822	0.53220844	2.1553974	0.8494706
1443700726974845825	0.5442219	2.1563072	0.85194016
1443700726981407105	0.52174973	1.8739128	0.61509705
1443700726986442505	0.5384741	1.8772764	0.6189816
1443700726991447388	0.64699197	1.6847267	0.4469447
1443700726996635376	0.66399884	1.6885405	0.45036936
1443700727002494751	0.6650369	1.6921902	0.48206758
1443700727006706177	0.6796582	1.6946745	0.48309946
1443700727011619507	0.9695351	1.7159548	0.671983
1443700727016624390	0.98750305	1.7193365	0.6706543
1443700727021720825	1.8309965	1.6330843	1.0203009
1443700727025047241	1.8404124	1.6339464	1.0166893
1443700727031761109	2.1538105	1.5836792	1.0724001
1443700727036796509	2.1681902	1.5860434	1.0660949
1443700727041831909	2.2897503	1.7731562	0.78652334
1443700727046867310	2.3037047	1.7744579	0.77808905
1443700727052390991	2.0199046	2.3105078	0.5979245
1443700727057823120	2.0476365	2.908928	0.6441152
1443700727062126099	2.05835	2.9049187	0.6290767
1443700727067222534	1.7798362	3.3713722	0.5231068
1443700727072166382	1.7890196	3.363555	0.49933743
1443700727075370728	1.7926753	3.3554726	0.48257732
1443700727082237183	1.7127275	3.5464306	0.16404748
1443700727087150513	1.7133677	3.5335388	0.13341331
1443700727092338501	1.7609351	3.4070225	-0.04390025
1443700727097221314	2.0311234	3.3004265	-0.1394558
1443700727103202759	2.0192604	3.279852	-0.18911791
1443700727107292115	2.086234	3.406042	0.20828581
1443700727112327515	2.0667078	3.3823414	0.15404809
1443700727117973267	1.7064126	3.2693415	0.38479936
1443700727122581421	1.6816308	3.2433472	0.32295763
1443700727132591187	1.3311155	2.4855003	-0.30954993
1443700727137473999	0.6183326	1.6022034	-1.0053034
1443700727142692505	0.5831492	1.5721903	-1.1022846
1443700727147575318	-0.42184806	0.2413435	-1.1016811
1443700727152610718	-1.2474148	-0.65375614	-0.90632534
1443700727157646118	-1.276514	-0.67701054	-1.0256081
1443700727162651001	-1.3045895	-0.6988888	-1.1517138
1443700727168540894	-1.9991848	-0.78501797	-0.99138844
1443700727172904908	-2.0218198	-0.8007641	-1.1105171
1443700727182945191	-3.3822637	-0.34305763	-0.5325878
1443700727187828003	-4.4426126	0.764904	0.29256663
1443700727193077027	-4.9271526	1.7988977	0.66091275
1443700727197929322	-4.950102	1.7853613	0.5306318
1443700727202873169	-4.974376	1.7732792	0.4042294
1443700727208030640	-5.287916	2.0403576	0.59240246
1443700727213157593	-5.315892	2.029663	0.47496086
1443700727218711792	-4.651215	1.5689955	0.6404724
1443700727224235474	-3.0740552	0.82071686	-0.32119942
1443700727230674683	-3.1300826	0.8115511	-0.44241875
1443700727238365113	-2.5510008	0.48561096	-1.1859622
1443700727243522583	-1.789937	0.6214886	-0.23033768
1443700727248435913	-1.8473785	0.6126251	-0.29982924
1443700727254173218	0.10147953	0.5855074	-0.1494739
1443700727258354126	0.043616295	0.5773535	-0.20224798
1443700727263420044	0.5592768	0.54921055	-0.5458884
1443700727269248902	-0.29469633	0.8188286	-1.6549459
1443700727273429810	-0.3607049	0.80901814	-1.692888
1443700727276786743	-0.41408455	0.8009205	-1.7209486
1443700727283500611	0.76887023	0.7106161	-2.8094678
1443700727288566529	0.6862347	0.70043755	-2.8439283
1443700727293632447	1.6601979	0.4255333	-2.7220006
1443700727298759400	1.575695	0.41619682	-2.7475371
1443700727304191529	2.5191483	-0.52015877	-2.5304046
1443700727308860718	2.4373481	-0.5267143	-2.5471437
1443700727313713013	2.1077092	-1.5766754	-2.5720153
1443700727318778931	2.0179157	-1.580492	-2.5899458
1443700727323814331	1.3044666	-2.4427166	-2.742014
1443700727333854615	0.8214543	-2.7653503	-3.313416
1443700727338920533	0.7396395	-2.7614841	-3.3380454
1443700727343955933	0.074035645	-2.7195015	-3.7414591
1443700727348960816	0.0012755394	-2.7136831	-3.7652826
1443700727354667603	-0.6687685	-2.907339	-3.301662
1443700727359214722	-0.72490007	-2.899335	-3.3243294
1443700727364067017	-0.97903025	-4.1688566	-1.0917381
1443700727369163452	-1.0305398	-4.155759	-1.1264412
1443700727374168335	-1.267664	-2.4453144	-3.8658404
1443700727384361206	-1.5947914	-1.0444155	-5.0058107
1443700727390434204	-1.486739	-2.9925833	-1.7674012
1443700727402336060	-1.1345142	-1.3048592	-1.7526858
1443700727405235230	-1.1421437	-1.2969322	-1.7737894
1443700727409873902	-1.094917	-2.5413256	-1.0102129
1443700727414604126	-1.1041878	-2.5261507	-1.0525143
1443700727419609009	-2.2500927	-3.3899355	1.0620334
1443700727424705445	-2.251769	-3.3716536	1.0123508
1443700727434715210	-1.8080612	-3.7478943	1.5881016
1443700727439506470	-1.8031032	-3.7306118	1.5477276
1443700727444816529	-1.2716107	-3.770874	1.541213
1443700727449699341	-1.1411201	-3.691558	1.176225
1443700727454765259	-1.135918	-3.6785278	1.1540179
1443700727459770142	-0.945947	-3.7105923	0.8008342
1443700727464927613	-0.9384301	-3.7016153	0.79507303
1443700727471214234	-0.8127939	-3.7401571	0.51816654
1443700727474876343	-0.80461335	-3.7335215	0.52201724
1443700727485069214	-0.64376605	-3.774969	0.1655047
1443700727489952027	-0.67320466	-3.6372414	-0.18954802
1443700727495140015	-0.658935	-3.6361675	-0.16299295
1443700727500053345	-0.718109	-3.4123898	-0.5076089
1443700727505027710	-0.70133394	-3.4131384	-0.47399378
1443700727510124146	-0.6642984	-3.2188282	-0.94515324
1443700727515312134	-0.6426305	-3.2213116	-0.9031658
1443700727520713745	-0.43496168	-3.0394402	-1.3212442
1443700727525382935	-0.41135198	-3.0418224	-1.2779262
1443700727535453736	-0.26547503	-2.4952059	-0.9950907
1443700727540336548	-0.054260075	-1.7223768	-0.14803195
1443700727545524536	0.12084007	-0.67634296	1.0728672
1443700727550529419	0.15849614	-0.68196297	1.1142627
1443700727556053101	0.20261282	-0.68721867	1.1577061
1443700727560478150	0.7231213	0.70541763	1.8345832
1443700727565452515	0.7654003	0.69983196	1.8672376
1443700727571525513	1.5688965	2.7815151	2.362111
1443700727576530396	2.2705073	5.1758146	3.2419047
1443700727578941284	2.2889533	5.1643305	3.249343
1443700727586692749	2.8106863	7.438567	4.5992155
1443700727596061646	3.1164422	8.699518	5.22967
1443700727600913941	3.1548853	8.68467	5.226984
1443700727605827271	3.6017294	8.669689	4.4707646
1443700727610984741	3.6275535	8.656772	4.4542313
1443700727615867554	3.9333339	7.6766977	2.9522657
1443700727621574341	3.9310095	7.6663485	2.9203362
1443700727625938355	3.7089705	5.0718346	1.9812908
1443700727629417359	3.6826713	5.063998	1.9529184
1443700727636009156	3.2823808	1.8084469	1.9449486
1443700727641014038	3.226685	1.808528	1.8986293
1443700727646049439	3.1264553	-0.790081	1.6664188
1443700727651267945	3.0624056	-0.78336716	1.6164267
1443700727657066284	2.7365112	-2.740694	1.3904574
1443700727661338745	2.6864274	-2.7302084	1.3521478
1443700727666221558	2.396639	-3.6050253	0.6124122
1443700727671317993	2.3453438	-3.5922432	0.5764489
1443700727676292359	1.2317274	-2.9086647	-1.0433352
1443700727679801880	1.1998749	-2.8991995	-1.061667
1443700727686363159	-1.2416275	-1.2035437	-2.003924
1443700727691368042	-4.1265597	0.427413	-2.9747725
1443700727696403443	-4.1416993	0.42709446	-2.9751346
1443700727701469361	-4.148825	0.42495537	-2.9667087
1443700727707450806	-6.993081	1.5620127	-3.943779
1443700727711662232	-6.975952	1.555151	-3.9204266
1443700727716575562	-9.270219	2.6772833	-4.1364756
1443700727721641480	-9.229855	2.66566	-4.098044
1443700727726646363	-9.081702	3.359829	-2.1595685
1443700727736869751	-6.16984	2.4516516	2.179764
1443700727742668091	-3.2413945	0.9087868	5.39948
1443700727753074585	-1.8177162	-0.045633316	5.3485484
1443700727757499634	-1.7848139	-0.039841652	5.322852
1443700727762138306	-1.7728679	-1.2902107	2.9279215
1443700727767051636	-1.7429156	-1.2810316	2.9040215
1443700727771903931	-2.303526	-2.6372547	0.14093876
1443700727777000366	-2.0719843	-3.5738373	-2.2064059
1443700727780357300	-2.0568514	-3.5653286	-2.201884
1443700727787193238	-2.0363498	-3.5602646	-2.1806276
1443700727792015015	-2.023388	-3.557516	-2.1525116
1443700727797294556	-1.6980674	-4.0295324	-3.6984546
1443700727802177368	-1.6206641	-4.165162	-4.9194584
1443700727807243286	-1.6064839	-4.167203	-4.8553405
1443700727812248169	-1.2652667	-3.9524689	-6.1212378
1443700727817375122	-1.2433518	-3.9558535	-6.04145
1443700727822929322	-0.9745319	-3.1610947	-6.7632904
1443700727827506958	-0.9464284	-3.16403	-6.6820498
1443700727837577759	-1.2601798	-1.9719095	-7.305992
1443700727842460572	-1.2548863	-0.97408867	-7.7495933
1443700727847648560	-1.201016	-0.9773207	-7.6526012
1443700727852531372	-0.9981928	0.09987736	-6.860435
1443700727857566773	-0.93922246	0.09872818	-6.7759037
1443700727862602173	-0.28759432	1.1777048	-4.9083776
1443700727867790161	-0.22579336	1.178194	-4.83981
1443700727873374878	0.8897011	2.0652246	-2.656159
1443700727877860962	0.94074094	2.0655508	-2.607697
1443700727887901245	1.763346	2.4720573	-0.72131604
1443700727892814575	1.6312103	2.5377607	-0.16118532
1443700727898033081	1.6800188	2.5393038	-0.122143865
1443700727902885376	1.5387574	2.2979755	-0.2636314
1443700727907981812	1.5814819	2.2997303	-0.22673035
1443700727912925659	1.0399741	2.096919	-0.87579125
1443700727919120728	0.43618512	1.5159693	-2.047476
1443700727923515259	0.46716356	1.5175085	-2.007896
1443700727928825318	0.68226075	0.31106853	-1.7187965
1443700727938926636	-0.07031131	-0.4418726	-1.0497503
1443700727943138062	-0.054061174	-0.43903732	-1.0039897
1443700727948081909	-0.038979292	-0.43650627	-0.94950444
1443700727953361450	-0.57298446	-1.0610905	-1.2921683
1443700727958946167	-0.93118405	-1.5543537	-0.7238819
1443700727963279663	-0.9227271	-1.5503187	-0.67751294
1443700727968437134	-1.1632094	-1.8304081	0.081394866
1443700727974967896	-1.1548567	-1.82549	0.14525402
1443700727982566773	-1.1773331	-1.9561481	0.3247347
1443700727988487183	-1.0754321	-1.8810673	0.2760467
1443700727993583618	-1.0679231	-1.8751526	0.3244297
1443700727998557984	-0.7740195	-1.6777067	-0.53077626
1443700728003745972	-0.43116975	-1.4297104	-1.0912309
1443700728009544312	-0.4191444	-1.4220505	-1.0273745
1443700728013847290	-0.4081633	-1.4148407	-0.9785805
1443700728018669068	-8.275509E-4	-1.0385075	-1.3837034
1443700728023796021	0.016418219	-1.0293255	-1.3255036
1443700728028770386	0.36878037	-0.61587524	-1.502789
1443700728032096802	0.3817091	-0.6090145	-1.4646497
1443700728038810669	0.6151824	-0.18008518	-1.2325947
1443700728043846070	0.9707947	0.14177799	-0.89386296
1443700728049095093	0.9956641	0.15208912	-0.8459095
1443700728053947388	1.0187256	0.16169071	-0.8043827
1443700728059013306	1.5118072	0.38539886	-0.56780964
1443700728064170777	1.5344698	0.39502048	-0.5286942
1443700728069023072	1.5647542	0.55448246	-0.28740877
1443700728074119507	1.5862567	0.56371117	-0.25086415
1443700728079124390	1.4108543	0.5010185	0.06690115
1443700728089286743	1.0120604	0.27940464	0.19971108
1443700728095085083	0.6494534	-0.07467461	0.14374053
1443700728099418579	0.6674242	-0.06560993	0.17152762
1443700728111106812	0.40110278	-0.32868576	0.031197429
1443700728119560181	0.05850649	-0.38220882	-0.25589287
1443700728125083863	-0.22486329	-0.17156315	-0.38362145
1443700728129630982	-0.2043922	-0.16010666	-0.34794307
1443700728132835327	-0.18967652	-0.15172005	-0.32228827
1443700728139549195	-0.69006777	0.12895203	-0.032113194
1443700728144584595	-0.3467033	0.41493893	0.19389796
1443700728149772583	-0.31894803	0.42898655	0.23283637
1443700728154685913	0.3296237	0.7839737	0.41977847
1443700728159690796	0.35504913	0.7972126	0.4566579
1443700728164726197	0.42322874	1.2333508	0.5775182
1443700728169914185	0.44890833	1.2466202	0.61580217
1443700728175285279	0.5148704	1.5961552	0.9500742
1443700728179984986	0.53823686	1.6076202	0.98300934
1443700728190055786	0.61688256	1.7485781	1.2291499
1443700728194908081	0.51517487	1.7961655	0.99613655
1443700728200096070	0.5436003	1.8086147	1.0229925
1443700728204978882	1.3247435	1.8064995	0.734671
1443700728209983765	1.3500779	1.8172693	0.7548251
1443700728215049683	1.7704337	1.7869301	0.37338376
1443700728220176636	1.7947016	1.7967997	0.38885427
1443700728225761353	2.0672636	1.764307	0.18299675
1443700728230186402	2.3235502	1.6855497	0.1761862
1443700728233512818	2.3370242	1.6900749	0.1816082
1443700728240379273	2.3697145	1.7023897	0.18960845
1443700728245262085	2.5355115	1.5385056	0.23807657
1443700728250480591	2.5577009	1.5457544	0.23782039
1443700728255332886	2.6630409	1.3964653	0.41873157
1443700728260337769	2.6826975	1.402708	0.41550374
1443700728265403687	2.803675	1.3503008	0.46293628
1443700728271354615	2.722798	1.3691292	0.3497982
1443700728276206909	2.7391298	1.3737364	0.34384453
1443700728280998169	2.9293957	1.5057888	0.012245178
1443700728290855347	2.3023202	2.0425253	-0.54286873
1443700728295616089	2.3175633	2.0439625	-0.5524219
1443700728300651490	2.4492843	2.7924948	-0.7619201
1443700728305839478	2.464975	2.791479	-0.7770599
1443700728311424195	1.946183	3.6732855	-0.5875846
1443700728315757691	1.3492944	4.1846905	-0.71734166
1443700728320793091	1.3610837	4.1768646	-0.7402009
1443700728326560913	1.3713579	4.1672783	-0.7691568
1443700728330894409	1.3849113	4.000059	-1.1801184
1443700728334342896	1.3861034	3.98944	-1.1975229
1443700728340965210	1.7448304	3.4141588	-1.257054
1443700728345970093	1.7364471	3.3986607	-1.2881608
1443700728351005493	2.0350866	2.902193	-1.0784969
1443700728356040894	1.9172854	2.5574312	-0.6894473
1443700728361808716	1.8944609	2.535328	-0.7402344
1443700728366111695	1.8752058	2.5169249	-0.7797923
1443700728371147095	1.6123846	2.077897	-0.53786767
1443700728376853882	1.5856504	2.0541563	-0.60139155
1443700728381339966	1.2521899	1.3711109	-0.7479315
1443700728384696900	1.233711	1.3555593	-0.79151094
1443700728391410767	0.64640117	0.3724823	-0.7413919
1443700728396324097	-0.22140431	-0.6950598	-0.43061364
1443700728403404175	-0.26284194	-0.72240543	-0.54217374
1443700728411521851	-1.4784536	-1.6428232	0.18293399
1443700728416496216	-1.5093043	-1.6601868	0.08725315
1443700728421623169	-2.701295	-1.9737787	0.8449161
1443700728427024781	-2.733954	-1.9907961	0.7278137
1443700728431571900	-3.7396042	-1.6834087	1.239162
1443700728441734253	-4.8546	-0.78635216	1.4375609
1443700728447227417	-4.8831053	-0.7997179	1.3096474
1443700728451835572	-5.368394	-0.0068264008	1.4549841
1443700728457267700	-5.3964815	0.65150833	1.1121898
1443700728462333618	-5.421361	0.6407404	1.0004969
1443700728467002808	-4.586956	0.83588123	0.20041806
1443700728471946656	-4.6146717	0.82688904	0.09493482
1443700728477256714	-3.4197302	0.8465719	-1.0720487
1443700728481925904	-3.4518785	0.83861256	-1.1610205
1443700728485465943	-3.4762418	0.8320837	-1.2250031
1443700728493278443	-2.2167237	0.95836353	-1.5144837
1443700728497062622	-1.1929679	1.2476006	-0.90574896
1443700728502067505	-1.2417197	1.2386656	-0.9871403
1443700728507072388	-0.24334955	1.21451	-0.0015081167
1443700728512870728	-0.3049047	1.2054243	-0.09086478
1443700728517204224	0.5821798	1.0072479	0.09234393
1443700728522361695	0.5233977	0.9996481	0.019467711
1443700728528098999	1.7406013	0.52442074	-0.5855522
1443700728532310425	1.6861019	0.5182457	-0.6362307
1443700728535575806	2.32232	0.63726425	-1.108508
1443700728542503296	2.6360211	0.24764156	-1.5893015
1443700728547386109	2.56225	0.23886585	-1.6310138
1443700728552421509	2.4835486	0.22920322	-1.6695441
1443700728557456909	2.5118551	-0.22576332	-1.5024707
1443700728563285767	2.4197621	-0.23613739	-1.538212
1443700728567558228	2.0006156	-0.40734768	-1.683715
1443700728572563111	1.9243361	-0.41575527	-1.7037361
1443700728578422486	1.7114513	-0.72278786	-1.7918106
1443700728582817017	1.6696948	-0.9486513	-2.156085
1443700728586021363	1.622657	-0.95213413	-2.1608253
1443700728592948853	1.5255421	-0.9614506	-2.1746182
1443700728597770630	1.2170067	-0.99303436	-2.6697829
1443700728602958618	1.1441745	-0.9982176	-2.6781664
1443700728607841431	0.7098172	-0.8876505	-3.1231825
1443700728613853394	0.40291238	-0.93296814	-3.295032
1443700728617881714	0.35152674	-0.93477345	-3.2998247
1443700728623405396	-0.022863984	-1.1853638	-3.2938232
1443700728629081665	-0.085971475	-1.1861086	-3.304709
1443700728633598267	-0.2505747	-1.5817089	-3.3355975
1443700728636375366	-0.27695066	-1.5791655	-3.3379736
1443700728643333374	-0.7725394	-1.9215832	-2.899446
1443700728648124634	-0.8090805	-1.916956	-2.913059
1443700728653160034	-1.3879926	-2.0896091	-1.3910397
1443700728658348023	-1.4189736	-2.0834742	-1.4101828
1443700728663688599	-1.22556	-2.3595486	-0.5363507
1443700728668418824	-1.2489078	-2.3517475	-0.5582874
1443700728673301636	-0.77871954	-2.3255167	-0.37269437
1443700728678337036	-0.8005541	-2.3169966	-0.39676404
1443700728683372437	-0.9967413	-2.256136	0.13847518
1443700728686881958	-1.0093923	-2.2492971	0.12397003
1443700728693473755	-1.5576797	-2.782012	0.14861584
1443700728704002320	-1.5551772	-3.2330027	0.02676797
1443700728708702027	-1.5643834	-3.2252665	0.01904583
1443700728713584839	-1.4030895	-3.3769312	-0.048071623
1443700728718772827	-1.4140773	-3.370164	-0.050227165
1443700728723655640	-1.3457901	-3.3747568	-0.042393923
1443700728728691040	-1.3567489	-3.3691654	-0.039212704
1443700728733726441	-1.2821707	-3.3986902	-0.27717686
1443700728737205445	-1.2883849	-3.3931093	-0.27198815
1443700728743797241	-1.3381745	-3.4622755	-0.47796512
1443700728748802124	-1.3433666	-3.4583235	-0.46414542
1443700728753868042	-1.1718031	-3.4116478	-0.7870436
1443700728759025513	-1.1767412	-3.408307	-0.769923
1443700728764762818	-1.0836722	-3.3165321	-1.0586481
1443700728769157349	-1.0842474	-3.3136778	-1.0382782
1443700728774009644	-1.1599249	-3.1239052	-1.0403697
1443700728779106079	-1.1581874	-3.122383	-1.0147051
1443700728784080445	-1.3813859	-2.855751	-0.63521516
1443700728787589966	-1.3762081	-2.8532562	-0.61654675
1443700728794334351	-1.3852997	-2.4442902	-0.25077534
1443700728799491822	-1.3747513	-2.444025	-0.22409868
1443700728804344116	-1.4270139	-1.90732	0.0605793
1443700728809379517	-1.2819118	-1.2023249	0.19365525
1443700728814292847	-1.2652228	-1.2042608	0.22057426
1443700728819389283	-1.0103471	-0.22368336	0.39029336
1443700728824363648	-0.98911625	-0.22748089	0.41870654
1443700728833213745	-0.68001485	0.9526663	0.6280128
1443700728837791382	-0.6561576	0.94738865	0.653831
1443700728844627320	-0.14826024	2.0600853	1.1821183
1443700728849540650	0.7736585	3.0145464	1.8050663
1443700728854759156	1.4614707	3.9170713	2.174881
1443700728859611450	1.4903183	3.907342	2.1954312
1443700728865318238	1.5249815	3.8978567	2.2186084
1443700728869651734	1.5499947	3.8890343	2.2336392
1443700728874839722	1.859915	4.590782	2.866849
1443700728880210816	2.4826174	4.9785223	3.107195
1443700728884910523	2.5032072	4.968112	3.116734
1443700728894981324	2.7690876	4.7729626	3.6008954
1443700728899894654	2.630802	4.4874125	3.5318475
1443700728905082642	2.6303024	4.4782677	3.5264072
1443700728909965454	2.5929816	3.8935833	2.5743012
1443700728915031372	2.5756886	3.8853664	2.5620487
1443700728920036255	2.1608574	2.6901064	1.8340881
1443700728925224243	2.1270967	2.6837778	1.8176519
1443700728930717408	1.9241903	1.2230568	1.5273172
1443700728935295044	1.7184289	-0.27384472	1.4678262
1443700728938499390	1.687539	-0.27372932	1.4540927
1443700728945396363	1.6223612	-0.27388	1.4273349
1443700728950218140	1.6771064	-1.6811981	1.3406345
1443700728961784302	1.4654562	-2.5065556	1.2496831
1443700728967063843	1.0005349	-1.9941788	0.83018696
1443700728970542847	0.9742855	-1.9902048	0.82261527
1443700728975883423	-0.1492644	-0.3913374	-0.11847818
1443700728980644165	-0.17316195	-0.39117718	-0.12043393
1443700728985710083	-1.5567104	1.7276888	-1.0968058
1443700728988822876	-1.5592973	1.7230701	-1.0899806
1443700728995750366	-3.3437147	3.6662483	-2.0403395
1443700729000572144	-3.3279955	3.6562357	-2.0199833
1443700729005668579	-6.042639	5.2564716	-3.0130649
1443700729010826050	-6.0028424	5.242716	-2.9819145
1443700729016349732	-7.9187074	5.843857	-3.2150035
1443700729020866333	-7.867537	5.8297577	-3.1834059
1443700729025779663	-8.432986	4.964842	-1.5029033
1443700729030784546	-8.375064	4.953682	-1.4758798
1443700729035850464	-6.3484573	2.4085407	1.1506286
1443700729039329468	-6.3123164	2.4036837	1.1595119
1443700729048942505	-3.6739256	-0.04072666	3.067263
1443700729050956665	-3.660178	-0.040387154	3.0628052
1443700729055992066	-2.4929018	-1.8986654	4.2608886
1443700729061180054	-2.4864078	-1.8943348	4.250225
1443700729066551148	-1.9342768	-3.6010838	3.8149724
1443700729071250855	-1.9393559	-3.5935087	3.8009884
1443700729076164185	-2.3492901	-4.6140146	2.1649878
1443700729081199585	-2.3614583	-5.7126617	0.024078488
1443700729086204468	-2.3673947	-5.7015314	0.022803187
1443700729096244751	-1.9562429	-6.5014257	-1.8328731
1443700729101310669	-1.9517534	-6.4905787	-1.8106203
1443700729106529175	-1.9864106	-6.3906946	-3.3266218
1443700729111503540	-1.9718204	-6.3806143	-3.29039
1443700729116447388	-1.9873564	-5.6220064	-4.1387596
1443700729121452271	-1.9057112	-4.493622	-4.8147902
1443700729126457154	-1.8729779	-4.4873285	-4.7589803
1443700729137016236	-1.4500694	-2.781003	-6.092573
1443700729137931763	-1.4393383	-2.775611	-6.0687075
1443700729146781861	-0.63715124	-0.63466644	-9.234672
1443700729152366577	-0.78091514	1.9351835	-11.456151
1443700729156822144	-0.72804344	1.9324875	-11.367721
1443700729161765991	-0.40063477	4.3419523	-9.424112
1443700729166801392	-0.333714	4.3378963	-9.334692
1443700729171806275	1.6459054	5.570342	-4.630928
1443700729176811158	1.714252	5.5673094	-4.5649433
1443700729182487427	3.742773	5.410198	-0.15692645
1443700729187065064	3.7951694	5.407812	-0.117813945
1443700729191337525	3.9148486	4.21035	2.266321
1443700729197074829	3.9642482	4.210763	2.3043406
1443700729202018677	2.720121	2.8262472	2.1107152
1443700729207206665	2.2003255	1.1346054	0.9540461
1443700729212058960	2.2235	1.1369543	0.98959213
1443700729217765747	2.2445462	1.139041	1.0330253
1443700729225456177	1.073207	0.35081387	0.063326545
1443700729227165161	1.0742692	0.35071754	0.07825306
1443700729232200562	1.0074736	-0.8419161	-0.72569495
1443700729237174927	1.0035223	-0.84011745	-0.6736483
1443700729240592896	0.11258459	-1.807951	-0.90669245
1443700729247459351	0.10384178	-1.8043957	-0.828689
1443700729252372681	-1.2065465	-2.1625834	-1.2865679
1443700729257560669	-1.2145414	-2.1580048	-1.2201383
1443700729262443482	-2.0273714	-2.4620829	-1.688087
1443700729267478882	-2.0313737	-2.4554853	-1.6198021
1443700729272483765	-2.4977539	-2.7620869	-1.3865974
1443700729277702271	-2.4967594	-2.7531633	-1.3189704
1443700729283500611	-2.936507	-2.8051624	0.049018145
1443700729287773072	-2.6215062	-2.7394695	0.7674524
1443700729290946900	-2.6134677	-2.730649	0.7987978
1443700729297874390	-2.598075	-2.7173185	0.8644517
1443700729302696167	-1.9561343	-2.4382687	0.094210505
1443700729307701050	-1.9392371	-2.4263277	0.13914591
1443700729312766968	-1.8295217	-1.8403912	-0.7280096
1443700729318473755	-1.4521135	-1.2140903	-0.88340616
1443700729322990357	-1.4272556	-1.2026138	-0.84172094
1443700729328544556	-0.95092237	-0.5849495	-0.76572657
1443700729332908570	-0.92096734	-0.5733261	-0.72770476
1443700729338035523	-0.25658393	0.13683414	-0.5444293
1443700729341453491	-0.23161483	0.14542389	-0.5166042
1443700729348106324	0.42387652	0.63327026	-0.5186945
1443700729353111206	0.46064234	0.64565086	-0.481627
1443700729358085572	1.0048325	0.8300333	-0.35431433
1443700729363273560	1.0417228	0.84277725	-0.31868494
1443700729368980347	1.7654519	0.90464973	-0.036957026
1443700729373374878	1.7926686	0.9147825	-0.008806348
1443700729378227173	1.8582771	0.8051443	0.32190394
1443700729383293091	1.8860946	0.81633663	0.35088074
1443700729388297974	1.6727252	0.5796051	0.7884197
1443700729398368775	1.5097303	0.23933125	1.187671
1443700729403404175	1.5313613	0.24935627	1.2077267
1443700729408470093	1.2100036	0.032084465	1.0860542
1443700729413627564	1.229574	0.04186821	1.1053499
1443700729419364868	0.9838588	-0.10043049	0.78759956
1443700729423576294	0.9979849	-0.092577934	0.80327976
1443700729428581177	1.004914	-0.23257256	0.6327548
1443700729434440552	1.1814694	-0.25001144	0.32162726
1443700729438682495	1.1938217	-0.24160194	0.34039414
1443700729448753296	1.2642996	-0.15330696	-0.14957893
1443700729453788697	1.279151	-0.14231873	-0.12104547
1443700729458976685	1.4610493	-0.014431953	-0.37826228
1443700729463981568	1.5413318	0.12434292	-0.54816234
1443700729468864380	1.5575175	0.13674355	-0.5141082
1443700729477806031	1.4216571	0.19109154	-0.50731266
1443700729485130249	1.3082023	0.333807	-0.43489385
1443700729492362915	1.339586	0.3546543	-0.38581395
1443700729499198853	0.6703794	0.5941496	-0.44827843
1443700729504234253	0.703537	0.80137825	0.32836485
1443700729509300171	0.7288439	0.81449795	0.35340714
1443700729514091431	-0.07957268	1.2023573	0.64774084
1443700729519187866	-0.052877903	1.2135916	0.66694117
1443700729524284302	-0.3382249	1.2960119	0.39305973
1443700729529472290	-0.3112135	1.306675	0.41049552
1443700729534812866	-0.42485094	1.276969	-0.010207653
1443700729539512574	-0.40129876	1.2861166	0.0058124065
1443700729549583374	0.02083683	1.2554636	-0.19288373
1443700729554496704	0.3443489	1.2761898	-0.44150066
1443700729559684693	0.36536574	1.2849121	-0.42647123
1443700729564567505	0.5791304	1.3292856	-0.304497
1443700729569572388	0.59817195	1.3361664	-0.29479146
1443700729574607788	1.145026	1.344883	0.089734316
1443700729579826294	1.1636186	1.3509169	0.09422231
1443700729585411011	1.1341491	1.3521614	0.4709742
1443700729589897095	1.1487722	1.35602	0.47171378
1443700729599967896	0.90478945	1.4484854	0.8968384
1443700729604850708	0.7184112	1.6012297	1.2475402
1443700729610038697	0.7351024	1.6045961	1.2445934
1443700729614921509	0.62143826	1.7672558	1.2516437
1443700729619926392	0.636971	1.769413	1.247143
1443700729624961792	0.5162089	2.0339775	1.0842338
1443700729630180298	0.53246045	2.035266	1.0779834
1443700729635978638	0.61073947	2.5072803	0.95248175
1443700729640281616	0.62462187	2.5063124	0.9446137
1443700729650291382	0.78576493	2.870946	0.81066275
1443700729655204712	1.2373319	2.8153114	0.34144115
1443700729661338745	1.5841858	2.712616	-0.34406924
1443700729670951783	1.9341884	2.711382	-0.4097376
1443700729675346314	1.941812	2.7072525	-0.42083263
1443700729680778443	1.950166	2.7021933	-0.4367864
1443700729688041626	2.6279726	2.8993864	-0.26719213
1443700729693962036	3.0338335	3.077735	-0.2513368
1443700729700523316	3.1018999	3.3064947	-0.37033796
1443700729705528199	3.0910728	3.291318	-0.3962903
1443700729710563599	2.9178245	3.0736818	-0.2776785
1443700729715629517	2.900124	3.055152	-0.30894065
1443700729721427857	2.8767104	3.0327072	-0.3482988
1443700729725791870	2.9512384	2.5755625	-0.8728411
1443700729730705200	2.1473386	1.8827238	-0.46771717
1443700729735679566	2.119241	1.8599854	-0.51205885
1443700729740776001	2.0281794	0.9954119	0.17476368
1443700729750846802	0.9642205	0.16375732	0.7496784
1443700729755912720	0.9284296	0.13685226	0.6722952
1443700729760917603	0.023411512	-0.54850674	1.5147128
1443700729766105591	-0.017115831	-0.5787735	1.4093211
1443700729775413452	-1.2974391	-1.1567707	2.402009
1443700729776328980	-1.3027115	-1.1603222	2.3727891
1443700729781089722	-2.4988768	-0.9940214	2.9382052
1443700729786094605	-3.4074552	-0.60070515	2.424419
1443700729791160523	-3.447971	-0.629405	2.2604456
1443700729801231324	-4.5349207	0.1771326	0.3649753
1443700729806266724	-4.576544	0.15510559	0.20813999
1443700729811424195	-4.6726866	0.87927914	-1.3625593
1443700729816490113	-4.7157097	0.861001	-1.502421
1443700729822074829	-4.575902	1.4823313	-1.9187276
1443700729826499878	-3.6122184	1.7073565	-1.7815588
1443700729831565796	-3.6571946	1.6931944	-1.8955811
1443700729838096558	-2.1057181	1.802289	-2.103266
1443700729841484009	-2.135648	1.7933884	-2.1681027
1443700729845024048	-2.1668224	1.7847395	-2.2325397
1443700729851737915	-1.0947335	1.8239651	-2.0383298
1443700729856895386	0.11894369	1.6913443	-1.3968716
1443700729863639771	0.051070213	1.6798477	-1.4861265
1443700729871910034	1.3417249	1.1976271	-0.9081547
1443700729876792847	1.8962433	1.5512819	-0.9417821
1443700729881950318	1.8269782	1.5401096	-0.99555385
1443700729887321411	2.1176367	2.0616636	-1.8836097
1443700729892021118	2.0427718	2.0491514	-1.9283156
1443700729902061402	2.6802096	2.184105	-1.9125803
1443700729906944214	2.8227878	1.3086901	-1.3550886
1443700729912132202	2.7251768	1.2968826	-1.3951926
1443700729917045533	2.1794524	0.02891922	-1.5938531
1443700729922050415	2.0858474	0.021359444	-1.6271156
1443700729927116333	1.7592324	-1.1411333	-2.000575
1443700729932304322	1.6650435	-1.1447248	-2.0311751
1443700729937797486	1.4494624	-2.0741596	-2.692875
1443700729942375122	0.7606717	-2.6788483	-2.9473622
1443700729951560913	0.6072545	-2.678585	-2.9954128
1443700729957328736	-0.035363376	-2.7800226	-3.0093412
1443700729962364136	-0.109891176	-2.7749434	-3.030426
1443700729967399536	-0.37635684	-2.6865635	-3.1779559
1443700729973655640	-0.4559543	-2.6795712	-3.205226
1443700729982658325	-0.56590086	-2.6570225	-3.6088667
1443700729988487183	-0.46842763	-2.632493	-3.5158544
1443700729995902954	-0.14567503	-2.593996	-3.436726
1443700730002677857	-0.20254007	-2.5819807	-3.4716372
1443700730007652222	-0.56972843	-2.4273643	-1.2410817
1443700730013725220	-0.5405357	-2.5249872	-0.03587079
1443700730023368775	-0.38142082	-2.7495842	0.38115215
1443700730027976929	-0.4013561	-2.7366028	0.3455608
1443700730033683716	-0.7003557	-2.9875278	0.6254723
1443700730040580689	-0.7266255	-2.9722414	0.5829768
1443700730042930542	-0.8803398	-3.2079525	0.089072466
1443700730046470581	-0.8927125	-3.1973686	0.0716877
1443700730052940308	-1.2878035	-3.3069134	-0.4993887
1443700730058006226	-1.517403	-3.3495188	-0.9338753
1443700730063072144	-1.5320714	-3.340804	-0.9390743
1443700730068077027	-1.5453862	-3.333271	-0.939204
1443700730073631226	-1.8201298	-3.3445845	-1.0582733
1443700730078330933	-1.8283039	-3.3384924	-1.051945
1443700730083183228	-2.053067	-3.384141	-0.7371807
1443700730088279663	-2.0570157	-3.3786068	-0.7288158
1443700730093284546	-2.0335615	-3.4806204	-0.25575066
1443700730103355347	-1.7285161	-3.541356	-0.027226448
1443700730108390747	-1.7250575	-3.5360222	-0.018270016
1443700730113426148	-1.6851329	-3.4366922	0.098234415
1443700730118583618	-1.6780161	-3.4323158	0.11011696
1443700730124015747	-1.589903	-3.176588	-0.0330925
1443700730128684937	-1.5796907	-3.1730452	-0.019558191
1443700730133567749	-1.4906111	-2.849866	-0.14300871
1443700730138603150	-1.5651933	-2.4967794	-0.23531318
1443700730143608033	-1.5503286	-2.4957438	-0.21600938
1443700730153861939	-1.4761982	-1.9959602	-0.2217567
1443700730158744751	-1.455607	-1.9964132	-0.1993748
1443700730163932740	-1.2100236	-1.4216852	-0.01512742
1443700730168937622	-1.1859741	-1.4233637	0.008066773
1443700730174522339	-0.9937824	-0.6445608	0.33941162
1443700730178825318	-0.48735005	0.16378689	0.71406114
1443700730184043824	-0.45725465	0.15923595	0.735978
1443700730190391480	-0.032568514	1.5259542	1.2662098
1443700730194145142	-0.008541301	1.5201921	1.2796837
1443700730197318970	0.01236406	1.5149498	1.2905072
1443700730204215943	0.85653293	2.9356956	2.1159205
1443700730209159790	1.9853911	4.1008606	2.867848
1443700730214286743	2.0171554	4.090373	2.8792715
1443700730219169556	2.8831391	5.0965033	3.2066286
1443700730224204956	2.9100242	5.084673	3.2141023
1443700730229240357	3.7575045	5.8563023	3.313797
1443700730234428345	3.781964	5.843526	3.3185182
1443700730239768921	3.9737132	5.8729057	3.3335547
1443700730244499146	3.9906716	5.8607397	3.333535
1443700730254539429	4.025801	5.455388	2.7454123
1443700730259452759	3.8060265	4.433384	1.8824271
1443700730264610230	3.8011343	4.424721	1.8763223
1443700730269523560	3.1621745	2.9055595	1.3935962
1443700730274558960	3.1418407	2.8996391	1.3859279
1443700730279594361	2.8983154	1.4034891	1.2559808
1443700730284629761	2.975481	-0.11719704	1.3947922
1443700730290611206	2.9326372	-0.117388725	1.3854715
1443700730294883667	2.89794	-0.11745548	1.3780752
1443700730304893433	3.196198	-1.6697693	1.4234512
1443700730309806763	3.2086582	-2.9045124	1.1212517
1443700730314994751	3.1692598	-2.8986473	1.1157247
1443700730319847046	2.5308158	-2.9861412	0.6625663
1443700730325553833	2.501055	-2.9809284	0.66424763
1443700730329917847	1.5238913	-1.9143257	0.07356727
1443700730335136353	1.5063764	-1.9119186	0.0807513
1443700730340812622	-0.18101777	-0.19970036	-0.75701153
1443700730345207154	-0.17598079	-0.20212936	-0.7400117
1443700730355003296	-2.0818515	1.9668207	-2.2422042
1443700730360130249	-3.8626866	4.1045084	-3.2749836
1443700730366050659	-7.097712	6.19806	-3.4164834
1443700730375816284	-11.069261	7.390917	-2.8714027
1443700730380454956	-10.976475	7.3707275	-2.812426
1443700730385520874	-11.455703	6.113144	-2.2055693
1443700730390342652	-11.354485	6.0975122	-2.1421132
1443700730395408570	-5.546875	2.4506626	-0.4879552
1443700730398918091	-5.484564	2.4444246	-0.4431789
1443700730405448853	-3.2368085	-0.10965061	2.3310118
1443700730410514771	-3.1917553	-0.112176895	2.3845592
1443700730415580689	-2.1470516	-1.7816143	3.6365047
1443700730420707642	-2.1255817	-1.7807655	3.6739743
1443700730426139771	-1.6064492	-3.4129972	3.1268811
1443700730430778443	-1.5949434	-3.4079485	3.150731
1443700730435661255	-1.246435	-4.931094	1.8880993
1443700730440727173	-1.2380153	-4.922761	1.9121525
1443700730445732056	-1.2984072	-6.0461617	0.4089828
1443700730449272095	-1.291801	-6.034794	0.42713916
1443700730455833374	-1.555809	-6.572277	-1.1076057
1443700730460838257	-1.5435067	-6.559849	-1.0768739
1443700730465934693	-1.687045	-6.747672	-2.002205
1443700730471092163	-1.667807	-6.7340603	-1.9666378
1443700730476615845	-2.4820557	-6.1479244	-2.0092196
1443700730481162964	-2.6286063	-4.8948812	-2.3368769
1443700730486015259	-2.5928447	-4.8826723	-2.3013597
1443700730491691529	-2.5440464	-4.868746	-2.2608988
1443700730496116577	-2.3016858	-3.060051	-3.5644617
1443700730499626099	-2.2626877	-3.0498323	-3.5354242
1443700730506156861	-2.4147382	-0.4447565	-6.3984303
1443700730511222779	-2.1336813	2.0870342	-8.349044
1443700730516410767	-2.0558705	2.0940323	-8.30592
1443700730521415650	-1.9761758	2.1022196	-8.26578
1443700730527091919	-0.64302135	4.1171446	-7.5836296
1443700730532707154	1.4069296	5.1069784	-4.610254
1443700730538963257	1.5000474	5.1158752	-4.5912223
1443700730541831909	1.5402794	5.1143255	-4.576083
1443700730546592652	3.440432	5.0995636	-1.3765821
1443700730556663452	4.6733704	4.072713	0.39869088
1443700730561485230	4.7297487	2.647726	0.54449666
1443700730566764771	4.765622	2.652854	0.5681841
1443700730571525513	4.789735	2.6552687	0.5961048
1443700730576682984	3.562881	1.2203703	0.2278947
1443700730581718384	2.4912415	0.043530464	-0.28405997
1443700730586875855	2.5023296	0.047504425	-0.23115845
1443700730592521607	1.9538188	-1.0849514	-0.28336206
1443700730596824585	1.0857661	-1.6257896	-0.27420104
1443700730600944458	1.0836422	-1.6214838	-0.22338662
1443700730607047974	1.0753694	-1.6177397	-0.14600876
1443700730611930786	1.061723	-1.6151838	-0.08186698
1443700730617088257	0.5714965	-2.1538382	-0.43964788
1443700730621971070	-6.239414E-4	-2.6398306	-1.2674352
1443700730626975952	-0.017719746	-2.6350956	-1.2004654
1443700730632041870	-0.62848854	-2.7938194	-1.1062014
1443700730637260376	-1.7233639	-2.402667	-0.07020551
1443700730643058716	-1.7397201	-2.397359	-0.0020991564
1443700730647331177	-1.7485287	-2.3915367	0.04467404
1443700730657371460	-1.8113146	-1.9008532	0.6270588
1443700730662254273	-1.0303614	-1.4408369	0.6792182
1443700730667503296	-1.0270162	-1.433034	0.72230655
1443700730672355591	-0.87014127	-0.91962814	0.30822068
1443700730677421509	-0.6659777	-0.5934334	0.26894498
1443700730682426392	-0.65351105	-0.5843935	0.3127612
1443700730687644898	-0.63700557	-0.5737705	0.35953736
1443700730693260132	-0.3999002	-0.5945959	0.34877992
1443700730697563111	-0.38187814	-0.5837679	0.3886124
1443700730709037720	-0.48257232	-0.440773	0.7320777
1443700730718345581	-0.18785477	-0.60710144	0.77723694
1443700730722831665	-0.16556287	-0.59347343	0.817343
1443700730727897583	-0.63150907	-0.710804	0.47940397
1443700730732932984	-0.60750055	-0.6956768	0.5231972
1443700730737968384	-0.19526076	-0.82046413	0.18582726
1443700730742851197	-0.17434001	-0.8058462	0.22621715
1443700730747856079	-0.36947894	-0.78509235	0.108523965
1443700730751365601	-0.35447383	-0.7743912	0.13545346
1443700730757926880	-0.6302376	-0.7177162	0.09054327
1443700730762962281	-0.60768414	-0.7031174	0.12609994
1443700730767997681	-0.93251085	-0.8075743	-0.08426559
1443700730773124634	-0.90596795	-0.79161644	-0.049566984
1443700730778526245	-0.44529748	-0.8124018	0.0056482553
1443700730783256470	-0.4184804	-0.7961807	0.037300825
1443700730788139283	0.10600376	-0.37875557	0.10396922
1443700730793144165	0.13585997	-0.36089706	0.1389991
1443700730798240601	0.48979974	0.18352509	0.31563234
1443700730801750122	0.5107939	0.19619846	0.34154367
1443700730808280884	0.8455951	0.75263786	0.4359932
1443700730813316284	0.87880373	0.77179146	0.4740665
1443700730818382202	1.4697404	1.4553461	0.21077204
1443700730823539673	1.5034981	1.4745913	0.2502749
1443700730829276978	1.979007	2.0229397	-0.051383972
1443700730833579956	2.5239992	2.4994125	-0.20989585
1443700730838615357	2.5527878	2.515808	-0.17242193
1443700730844383179	2.5845907	2.5346308	-0.13112402
1443700730848564087	2.6558714	2.7275467	-0.14319086
1443700730858756958	1.9937515	2.6877565	0.016890287
1443700730863670288	2.014252	2.6985893	0.042915106
1443700730868827759	1.8482862	2.6134768	0.44446754
1443700730873710572	1.8660953	2.6219416	0.4637506
1443700730879753052	1.8736389	2.3980026	0.50712085
1443700730884544312	1.8872616	2.403985	0.5209236
1443700730888999878	1.6782553	2.3889523	0.5544951
1443700730894187866	1.4718091	2.350441	1.0129929
1443700730899070679	1.4826632	2.3535862	1.0200546
1443700730915855347	1.153621	2.5937138	2.022824
1443700730924064575	1.0521135	2.9257793	1.8101974
1443700730929923950	1.0682292	2.9256105	1.8024323
1443700730934165894	0.96728015	3.6433353	1.6519647
1443700730939323365	0.9819796	3.6399374	1.6406229
1443700730944694458	0.5830486	4.4514036	1.6370246
1443700730949455200	0.43794417	4.5589323	1.5912733
1443700730952781616	0.44663048	4.550006	1.5769765
1443700730959526001	0.46248436	4.5393486	1.5467758
1443700730964317261	0.7239413	4.480673	0.36574435
1443700730969596802	0.7291572	4.4662294	0.3376329
1443700730974479615	1.2650971	4.1944513	0.2535057
1443700730979515015	1.2612686	4.175844	0.2190268
1443700730984550415	1.6486921	4.1231976	0.40305185
1443700730989738404	2.1789534	3.7983294	-0.055649996
1443700730995231568	2.1596158	3.7694101	-0.11434603
1443700730999809204	2.1388245	3.7415037	-0.16874719
1443700731009880005	2.5602899	3.3271465	-1.0648468
1443700731014762818	3.1003785	2.6505098	-1.387021
1443700731019950806	3.060226	2.616602	-1.4571223
1443700731024833618	2.4816766	1.7876568	-1.0503775
1443700731029869019	1.1707366	0.60083675	0.21670115
1443700731034904419	1.1238966	0.5670414	0.12708163
1443700731040092408	1.0740094	0.5310383	0.023623705
1443700731045371949	-0.47121	-0.22861862	1.0184149
1443700731051322876	-1.8665974	-0.71919155	1.3845959
1443700731053367554	-1.882524	-0.73181057	1.326401
1443700731061332642	-3.1058562	-0.42949772	1.65084
1443700731070518433	-4.56018	0.42955208	0.88686407
1443700731075309693	-4.6016693	0.4026165	0.7276882
1443700731080223023	-5.561134	1.1805315	-0.41082782
1443700731085411011	-5.6036506	1.1568985	-0.5770924
1443700731090293824	-5.8922024	1.2836561	-1.4981511
1443700731095359741	-5.9297333	1.267003	-1.643054
1443700731100334107	-5.112466	1.2031012	-2.1015666
1443700731103691040	-5.1336403	1.194252	-2.1859255
1443700731110435425	-3.5886438	1.248189	-1.9676973
1443700731115348755	-3.627312	1.2398233	-2.0800896
1443700731120506226	-2.2530875	1.4186392	-1.1835439
1443700731125694214	-2.2968285	1.4118118	-1.2889078
1443700731131065308	-1.5484982	1.80686	0.32896835
1443700731135612427	-1.5882721	1.8009882	0.24382049
1443700731140617310	-0.23388791	1.8000822	1.2544259
1443700731146537720	-0.29284525	1.7943029	1.1520169
1443700731150718628	0.6419544	1.6994047	0.2896055
1443700731154228150	0.5995765	1.6939497	0.23518836
1443700731160789429	0.3416072	1.600913	-0.4670782
1443700731165824829	0.26964188	1.5931921	-0.53485394
1443700731170829712	1.1834124	1.1309328	-1.728929
1443700731175895630	1.1612296	0.47880363	-2.2299833
1443700731181693970	1.0578717	0.46964264	-2.2842402
1443700731185966431	0.97743726	0.46203804	-2.3177335
1443700731191154419	0.96131325	-0.55507374	-2.9642565
1443700731197135865	0.84207976	-0.5634594	-3.0012572
1443700731201072632	0.72249615	-1.6342621	-2.6077247
1443700731208457886	1.1159122	-2.6573114	-2.8086128
1443700731216270386	1.1922042	-3.3234873	-3.2184763
1443700731221244751	1.0911176	-3.318945	-3.247564
1443700731227714478	0.83860976	-3.5144958	-2.981421
1443700731231742798	0.7620136	-3.506404	-3.0057716
1443700731237235962	0.49827003	-3.689003	-2.4989972
1443700731241325318	0.42762166	-3.6785173	-2.5252023
1443700731246513306	0.50768185	-3.953762	-3.054579
1443700731251609741	0.43373132	-3.9396257	-3.0882487
1443700731261619507	0.34879947	-4.1539297	-3.110686
1443700731266532837	0.21640188	-4.3121223	-3.1625972
1443700731271720825	0.1659554	-4.29494	-3.1940541
1443700731276634156	-0.15383497	-4.447481	-2.7584133
1443700731281639038	-0.18887383	-4.4297714	-2.7885127
1443700731286643921	-0.803486	-4.7950964	-1.7093909
1443700731291801392	-0.8252723	-4.77588	-1.7429953
1443700731297660767	-1.0623578	-4.454302	-1.547878
1443700731301902710	-1.263099	-3.5500956	-1.598975
1443700731305198609	-1.2671772	-3.536625	-1.6189973
1443700731312004029	-1.2753705	-3.5168648	-1.6626124
1443700731316856324	-1.8703794	-3.2660131	-0.45099258
1443700731322074829	-1.8673556	-3.2509022	-0.48078752
1443700731326927124	-1.8656179	-3.8661976	0.028957844
1443700731337974488	-1.7751546	-4.3421526	0.1793139
1443700731347099243	-1.7401974	-4.561906	0.79296446
1443700731352134644	-1.72477	-4.550254	0.7837219
1443700731362327515	-1.1363096	-4.7295685	0.44482112
1443700731367240845	-0.925866	-4.521408	-0.09956789
1443700731372459351	-0.90773314	-4.515918	-0.085282564
1443700731377281128	-1.1482166	-4.212926	-0.3623259
1443700731382408081	-1.1284754	-4.2104845	-0.33848047
1443700731387412964	-1.2035226	-3.591504	-0.2639773
1443700731392417847	-1.181599	-3.5917292	-0.23448443
1443700731398399292	-1.1665483	-2.4478636	-0.49500203
1443700731403343140	-1.1501943	-1.0650187	-0.73814344
1443700731405815064	-1.1373618	-1.0670242	-0.71981907
1443700731413658081	-1.0160043	0.6221771	-0.5751138
1443700731423271118	-0.97062486	0.6057234	-0.50928926
1443700731427818238	-0.7732166	2.2038984	0.4119463
1443700731432701050	-0.39587155	3.6166697	2.2285545
1443700731437919556	-0.37283522	3.6043892	2.24687
1443700731442771851	0.733083	4.8272896	3.797704
1443700731447868286	0.75073886	4.815752	3.7992616
1443700731452812134	1.9936326	5.1173096	5.45261
1443700731462913452	3.0867794	4.6502953	6.734063
1443700731467948853	3.0856946	4.643605	6.7087126
1443700731472984253	3.1823957	4.2197304	6.8964963
1443700731478172241	3.1772442	4.215193	6.865324
1443700731483543335	2.6808467	4.148941	5.2521176
1443700731488090454	1.4506446	4.093979	2.8121572
1443700731493125855	1.4468799	4.0893326	2.7910972
1443700731498649536	1.4405379	4.0845785	2.770245
1443700731503196656	0.77781343	3.8199005	0.65001416
1443700731506523072	0.7708372	3.8139563	0.64017296
1443700731513236939	0.8417255	3.2510223	-0.15007114
1443700731518241822	0.82430077	3.24716	-0.16293192
1443700731523338257	1.5124903	1.9723539	0.39113045
1443700731528373658	2.5171196	0.16859818	1.191452
1443700731534324585	2.4813876	0.1747446	1.1618023
1443700731538597046	2.4541247	0.17999363	1.1368973
1443700731543479859	3.4175303	-1.7902269	1.8943624
1443700731548545777	3.3892913	-1.7783337	1.8600059
1443700731553550659	3.6404533	-2.9471645	2.7898078
1443700731563774048	2.5350623	-3.0696602	3.8022563
1443700731569633423	0.73450196	-2.089672	2.3655376
1443700731580039917	-1.816445	-0.49680042	0.7783406
1443700731584678589	-1.8062197	-0.4961748	0.7783704
1443700731589469849	-4.545211	1.222434	-0.63022566
1443700731593803345	-4.5285115	1.2129383	-0.60533
1443700731598838745	-6.9019775	3.475028	-2.7255604
1443700731604057251	-6.8773875	3.4563532	-2.6798472
1443700731614097534	-9.442742	6.2856026	-3.7961378
1443700731619010865	-9.387642	6.2591324	-3.7348864
1443700731624198853	-11.986895	8.397102	-2.3207524
1443700731629081665	-12.484443	7.966174	0.8457849
1443700731634147583	-12.396474	7.944771	0.87649035
1443700731639152466	-6.8362393	3.868928	3.1813004
1443700731644309937	-6.7554398	3.8655138	3.1756153
1443700731649803101	-1.8288444	-0.9501591	2.010879
1443700731654380738	-1.7791387	-0.9397211	1.9893541
1443700731664482056	-0.7821287	-3.8072376	-0.014150143
1443700731669364868	-0.8686074	-5.26565	-1.975014
1443700731674522339	-0.84900576	-5.2564707	-1.9569232
1443700731679405152	-0.7318503	-6.0089836	-3.6768858
1443700731684471070	-0.7117367	-6.0050297	-3.6273327
1443700731689506470	-0.4927529	-5.847842	-5.3116636
1443700731694694458	-0.46499813	-5.8475046	-5.23846
1443700731700035034	-0.21409202	-5.482319	-6.7659254
1443700731704734741	-0.18262184	-5.4812784	-6.6884513
1443700731714836060	0.43628728	-4.9836817	-7.6249976
1443700731719718872	0.80961275	-3.6768417	-8.10422
1443700731724906861	0.8595215	-3.6770983	-8.00708
1443700731729759156	0.79200506	-2.0902462	-8.198535
1443700731734825074	0.84653974	-2.0913267	-8.098736
1443700731739829956	-0.08342993	-0.73596954	-7.563567
1443700731746299683	-1.3096932	0.537488	-5.89839
1443700731755790650	-1.3317859	1.5230627	-3.45709
1443700731765464722	-0.113814116	2.389268	-1.7045918
1443700731770042359	-0.047325253	2.3898392	-1.6221526
1443700731775352417	0.9089838	2.88064	-0.92110354
1443700731780265747	0.97339535	2.882142	-0.8326719
1443700731785148560	1.331677	2.6368008	-0.22400236
1443700731793662964	1.4286938	2.6459713	-0.07409063
1443700731800437866	1.050767	1.1033316	0.10810873
1443700731805351197	1.0961704	1.1101913	0.19221243
1443700731808647095	1.1220124	1.1136379	0.24844033
1443700731815421997	1.2521689	-0.02512741	-0.068480805
1443700731820396363	1.2783415	-0.017731667	0.022707857
1443700731825431763	-0.012504101	-0.802742	0.4468211
1443700731830650269	0.0023770332	-0.7950802	0.5480727
1443700731836448609	-1.0876667	-1.2170191	0.5528101
1443700731840690552	-1.3686583	-1.9801416	0.97924745
1443700731845573365	-1.3653657	-1.9711123	1.0687056
1443700731851219116	-1.3655808	-1.9615736	1.1662443
1443700731855674683	-2.129516	-2.2102718	0.8474925
1443700731859184204	-2.1306913	-2.203043	0.8980899
1443700731865745484	-1.4220788	-2.0902233	0.24179363
1443700731870780884	-1.193228	-1.3901758	0.45200282
1443700731875785767	-1.198916	-1.38416	0.50364757
1443700731880821167	-0.52449274	-0.6892109	0.72373545
1443700731886802613	-0.5274892	-0.6837921	0.7680845
1443700731895957886	0.144279	-0.16597939	0.68209183
1443700731901725708	0.68533015	0.22084904	0.47572887
1443700731906028687	0.6890049	0.22379112	0.49158764
1443700731909538208	0.6925888	0.22618675	0.5030165
1443700731916252075	1.0948935	0.33426094	-0.0212003
1443700731921958863	1.4559147	0.1694727	-0.64273715
1443700731926322876	1.4633887	0.17367649	-0.62778735
1443700731931755005	1.4791675	-0.21208763	-0.9862815
1443700731936241089	1.4881687	-0.20606518	-0.96675324
1443700731941398560	1.4108355	-0.7084789	-1.1374741
1443700731946433960	1.4216664	-0.6996546	-1.1092032
1443700731952079712	1.4316227	-1.1286383	-1.0307527
1443700731956382691	1.4401648	-1.1189547	-1.0002201
1443700731966575562	1.3493745	-1.4421253	-0.5591626
1443700731972740113	1.3361819	-1.6586962	-0.48667455
1443700731976676880	1.3470564	-1.6461601	-0.4539603
1443700731981590210	1.5185323	-1.8407545	-0.2583369
1443700731986625611	1.5371778	-1.8237257	-0.21784866
1443700731991661011	1.0973613	-1.5531034	0.23639691
1443700731996818482	1.1199758	-1.5352707	0.27586782
1443700732002220093	0.19971299	-1.15411	1.0480179
1443700732006919800	0.22704363	-1.1367826	1.0802933
1443700732016990601	-0.29568648	-0.81661797	1.4554315
1443700732021842896	0.117566586	-0.34063244	0.618286
1443700732027091919	0.34450746	0.1869936	-0.7047299
1443700732031883179	0.3781259	0.20641994	-0.6623839
1443700732036857544	0.4113915	0.22757149	-0.6134603
1443700732041953980	1.1658835	0.78874683	-1.6385946
1443700732047111450	1.1951675	0.8115959	-1.5760019
1443700732052787720	1.1210368	1.4621716	-1.7936828
1443700732057060181	1.1431334	1.480403	-1.7384872
1443700732060417115	0.99141407	2.0601006	-1.0679479
1443700732067314087	1.028023	2.0899887	-0.98760486
1443700732072196900	0.5982218	2.5469894	0.23056674
1443700732077415406	0.6261184	2.5652351	0.2771492
1443700732082237183	-0.11866212	2.8500986	1.5394127
1443700732087333618	-0.090809345	2.8641853	1.5706718
1443700732092338501	0.057319164	2.8951464	2.089859
1443700732098716675	0.59937024	2.4315796	1.7897339
1443700732103233277	0.61803746	2.4403515	1.807188
1443700732108146607	1.236965	1.8861399	1.1921394
1443700732118308960	2.2931914	1.7461214	0.1248641
1443700732129203736	2.1248775	2.0982418	-0.63022614
1443700732130149781	2.1235888	2.0958176	-0.6266084
1443700732132591187	2.1271625	2.096305	-0.6197829
1443700732137626587	1.6705837	2.5672836	0.61971045
1443700732142692505	1.6857266	2.5711021	0.62428
1443700732147727906	1.1585987	3.2725725	2.112665
1443700732153190552	1.1777577	3.2738762	2.1068795
1443700732157829224	0.07079506	3.726799	3.0829606
1443700732161155640	0.08314228	3.7230883	3.0735188
1443700732167900025	0.8428676	3.6836023	2.4731467
1443700732172874390	0.85637164	3.6809692	2.46437
1443700732177909790	0.6638286	4.1375465	0.58766127
1443700732183128296	0.6767905	4.132943	0.5805545
1443700732188590943	0.9006622	4.841465	0.12182498
1443700732193229615	0.91267085	4.8335676	0.110182285
1443700732198081909	0.52206945	5.3037586	0.9903395
1443700732203147827	0.5358832	5.292303	0.96666
1443700732208152710	0.26447892	5.0970078	-0.21596861
1443700732211662232	0.27232337	5.082698	-0.23974156
1443700732218254029	1.2521243	4.28018	-1.0415008
1443700732223258911	2.5709698	4.0897007	-0.5693531
1443700732228446900	2.5671866	4.068674	-0.6152768
1443700732233329712	2.5584502	4.045603	-0.6623268
1443700732239036499	3.3691428	3.8922548	0.24615812
1443700732243553101	3.3493178	3.8648434	0.19102407
1443700732248435913	3.0183022	3.4892836	0.50651836
1443700732253532349	2.9888778	3.4549713	0.43154097
1443700732258506714	3.0690684	2.3449984	0.07902861
1443700732262016236	3.0435035	2.3197908	0.021152139
1443700732268730103	2.1123226	0.9626131	-0.22252464
1443700732274406372	-0.080914974	-0.31707287	1.119709
1443700732278800904	-0.11292291	-0.34762383	1.0128242
1443700732284324585	-2.0089495	-0.5724993	2.687707
1443700732289482056	-2.0453825	-0.6094036	2.5269732
1443700732293998658	-2.9012258	-0.63430977	3.10717
1443700732298881470	-2.93603	-0.6660881	2.9383082
1443700732305046021	-3.8304243	-0.3130455	1.1777551
1443700732308860718	-3.8593104	-0.33524323	1.0345296
1443700732319053589	-4.5685086	0.064227104	-1.7587719
1443700732323936402	-4.2011175	0.1652689	-4.089973
1443700732329154908	-4.247792	0.14741421	-4.2460165
1443700732334007202	-3.7100813	0.2037754	-5.134837
1443700732339103638	-3.014642	0.38552284	-4.477772
1443700732344108521	-3.0607944	0.37420177	-4.5918107
1443700732349143921	-3.1067924	0.36431694	-4.6992254
1443700732354637085	-2.7965906	0.844718	-3.0844836
1443700732359306275	-2.8388329	0.83715916	-3.1798325
1443700732369407593	-1.7986724	1.3168736	-1.4165374
1443700732374320923	0.09401727	1.4197102	-0.4627936
1443700732380577027	0.024630785	1.4132938	-0.5820888
1443700732389610230	1.4830322	1.6327438	0.4454491
1443700732394462525	1.8087251	2.154562	0.41057622
1443700732399681031	1.7338047	2.1466103	0.32660794
1443700732404960572	2.2553322	1.8869772	0.2468785
1443700732409751831	2.263135	1.7393608	-0.8167722
1443700732412895142	2.2075093	1.7313318	-0.84983313
1443700732419792115	1.9402659	1.0354624	-1.9245286
1443700732424644409	1.8458848	1.0241098	-1.9612082
1443700732429893433	1.7366158	1.0113811	-1.9983343
1443700732434715210	0.92370343	-0.16210938	-3.3459837
1443700732440910279	0.13102949	-1.4411745	-4.1145887
1443700732444816529	0.040335894	-1.4443092	-4.137526
1443700732450340210	0.031836987	-2.687357	-3.2733972
1443700732456046997	-0.097942114	-2.6861906	-3.3154936
1443700732460411011	0.34180456	-3.1048079	-3.160866
1443700732463249146	0.28016663	-3.0985928	-3.1793091
1443700732471061646	0.46925515	-3.2607536	-2.9415781
1443700732474998413	0.38978928	-3.2514362	-2.9703896
1443700732480094849	0.2184614	-3.2427053	-2.794891
1443700732485221802	0.12782529	-3.230444	-2.8317091
1443700732490653931	-0.11919448	-3.0805197	-2.7999256
1443700732495323120	-0.1879456	-3.067381	-2.8309302
1443700732500175415	-0.60461885	-2.850689	-2.6730368
1443700732505271851	-0.66718984	-2.836772	-2.7040381
1443700732510276734	-1.0768057	-2.986536	-2.5853775
1443700732513786255	-1.1102755	-2.974907	-2.60212
1443700732520378052	-1.5468307	-3.3909101	-1.469336
1443700732525382935	-1.5848346	-3.376422	-1.4941072
1443700732530418335	-1.725148	-4.133438	-1.0074773
1443700732535606324	-1.7563698	-4.1177616	-1.0303657
1443700732541435181	-1.7261138	-4.7645855	-0.6578424
1443700732551933228	-1.4429039	-5.3383875	-1.0461361
1443700732553092896	-1.4453038	-5.3265257	-1.0462155
1443700732555564820	-1.4529867	-5.3142424	-1.047471
1443700732560661255	-1.5495266	-5.1829042	-1.1543286
1443700732570671021	-1.4455479	-4.743479	-1.9828968
1443700732575706421	-1.4480011	-4.7366924	-1.9669776
1443700732580772339	-1.6113272	-4.0427504	-1.725961
1443700732585960327	-1.6103373	-4.0384436	-1.7069728
1443700732591270386	-1.4947689	-3.7997646	-1.8679073
1443700732596031128	-1.487804	-3.7966967	-1.8462355
1443700732600913941	-1.9520488	-3.6782131	-1.546216
1443700732606986939	-1.9365654	-3.6772947	-1.5182922
1443700732614341675	-2.0710206	-3.7174482	-1.1439579
1443700732621177613	-2.42285	-3.459734	-0.804157
1443700732626609741	-2.3978007	-3.4588394	-0.7787056
1443700732631278931	-2.3294733	-2.9198895	-0.44674754
1443700732636314331	-2.2014627	-2.1546412	0.03775239
1443700732641227661	-2.172329	-2.156351	0.062300682
1443700732646232544	-2.1416502	-1.1650038	0.5505831
1443700732651451050	-1.76334	-0.24176788	1.0963306
1443700732657005249	-1.7232603	-0.24859047	1.1257529
1443700732661491333	-1.687438	-0.25388336	1.1495049
1443700732671531616	-1.0557909	0.75440025	1.868012
1443700732676412725	-0.1442616	1.9630966	2.237355
1443700732681600713	-0.09735793	1.9540443	2.2606614
1443700732686483526	1.0026557	3.6187334	3.018077
1443700732691549444	1.911636	5.8215	3.9166276
1443700732696554327	1.9540012	5.807127	3.927594
1443700732701589727	1.9962047	5.7938128	3.9347935
1443700732707113409	2.6625013	7.7432766	4.4219527
1443700732711874151	2.6978245	7.728256	4.417787
1443700732721914434	3.1566675	8.618508	4.328257
1443700732726797246	3.6224272	8.124184	3.706466
1443700732731985235	3.2665281	6.354722	2.9879754
1443700732736868047	3.2638946	6.3479137	2.9538105
1443700732743093633	3.2464697	6.343382	2.9059544
1443700732746908330	3.563155	3.4570313	3.2899415
1443700732752126836	3.5242925	3.4571629	3.2437646
1443700732762289190	5.449953	-1.401597	3.4004495
1443700732764089727	5.4229083	-1.3963099	3.380829
1443700732765371465	5.400665	-1.3916655	3.3648853
1443700732772298955	5.328374	-1.3801289	3.3143682
1443700732777151250	4.5464478	-1.6987906	3.1048324
1443700732782247686	4.4926414	-1.6896496	3.0725183
1443700732787191534	3.367625	-1.9624681	0.82163095
1443700732793081426	3.318305	-1.9554443	0.8065343
1443700732797292852	2.0760343	-1.5107174	-1.5175145
1443700732803426885	-0.25062644	-0.019618034	-2.6872592
1443700732807974004	-3.2481136	1.982378	-3.7600925
1443700732813070440	-3.2549045	1.969984	-3.7206068
1443700732815725469	-3.2509859	1.9604664	-3.6917224
1443700732822591924	-5.7831254	3.7932968	-5.29603
1443700732827505254	-5.757376	3.7730255	-5.233534
1443700732832540655	-8.374479	5.44382	-5.8116093
1443700732837698125	-8.324117	5.419198	-5.738763
1443700732843099737	-9.211278	6.084977	-3.9607797
1443700732847799444	-9.153184	6.062318	-3.9002228
1443700732852682256	-6.6615424	5.0204124	-0.46884274
1443700732857748174	-6.6087275	5.0034285	-0.42757094
1443700732862753057	-3.2465389	2.4733047	3.1882548
1443700732866262579	-3.2190363	2.4660997	3.1972742
1443700732872854375	-1.5508721	-0.6980982	5.0157313
1443700732877859258	-1.5307082	-0.6955414	5.004201
1443700732882894659	-1.010089	-3.1433258	3.6987958
1443700732888052129	-0.9968036	-3.1336775	3.678479
1443700732893453741	-1.6085937	-4.9252377	1.4207356
1443700732898122930	-1.5972056	-4.9125977	1.4082593
1443700732903036260	-1.8408866	-6.1106815	-0.6099682
1443700732908071661	-1.8209119	-6.0983486	-0.60170007
1443700732913076543	-1.874207	-6.838249	-1.6939389
1443700732923147344	-2.5590909	-6.2105045	-3.2906196
1443700732928182745	-2.5044239	-6.200246	-3.2497358
1443700732933401250	-2.8558998	-4.885023	-4.824339
1443700732938375616	-2.7859712	-4.87724	-4.768831
1443700732943990850	-2.5801308	-3.493044	-6.490119
1443700732948354864	-2.9266002	-2.128954	-9.030064
1443700732953512334	-2.848777	-2.1265287	-8.946848
1443700732959829473	-2.7574396	-2.1238956	-8.845354
1443700732967001104	-2.6582928	-2.1201868	-8.730984
1443700732975362920	-1.4883258	0.53109074	-5.929458
1443700732983755254	-0.08901453	1.3747225	-3.7058094
1443700732988729620	0.9647528	2.4010906	-2.6266031
1443700732993673467	1.0136182	2.3987818	-2.559006
1443700732998617315	2.1022696	3.3422241	-1.5145571
1443700733003927373	2.1476061	3.3384686	-1.4407139
1443700733009328985	2.3548365	3.537939	-0.43347824
1443700733013967657	2.3889797	3.5336561	-0.3673023
1443700733018270635	2.2698643	2.7411995	-0.17228943
1443700733024007940	2.3072395	2.7394495	-0.08799952
1443700733028921270	1.777131	1.452611	-0.49042585
1443700733034109258	1.80586	1.4533968	-0.40909642
1443700733038961553	2.1373842	-0.16021538	-0.97788614
1443700733044057989	2.1576877	-0.15615654	-0.89241135
1443700733049062871	1.4091175	-1.3318768	-0.5887934
1443700733054250860	1.4226964	-1.3254919	-0.5008332
1443700733062734746	-0.1253612	-2.1997633	-0.8855131
1443700733067526006	-1.9999275	-2.7198782	0.1467165
1443700733074392461	-1.982151	-2.7074423	0.2540536
1443700733079275274	-1.7969689	-3.5310373	0.95019704
1443700733084463262	-1.7844307	-3.5178232	1.0223174
1443700733089346075	-1.6342864	-4.1114845	-0.8127068
1443700733094381475	-1.6258619	-4.0972614	-0.74407053
1443700733099416875	-2.145141	-4.0733147	-0.61279273
1443700733104574346	-2.135998	-4.0581617	-0.543673
1443700733110067510	-1.7558312	-3.6796865	-0.6420354
1443700733114706182	-1.3240466	-3.0264082	-1.2281933
1443700733117880010	-1.3118889	-3.0139446	-1.1870489
1443700733124776983	-1.2838683	-2.9928026	-1.1033117
1443700733129629278	-1.528547	-1.8335238	-1.6180834
1443700733134603643	-1.4996378	-1.8164206	-1.5577937
1443700733139700079	-1.1162834	-0.33261967	-1.9726794
1443700733150350713	-0.39085984	0.61098576	-2.0847962
1443700733151296758	-0.38303876	0.61309814	-2.0698326
1443700733155477666	0.027551651	1.087903	-1.3254509
1443700733159994268	0.062093496	1.1023731	-1.2746216
1443700733164938116	0.8268182	1.2915068	0.38252747
1443700733168386602	0.85121274	1.3016195	0.4154929
1443700733174978399	1.0715103	1.1478004	1.6744965
1443700733179952764	1.104511	1.1632347	1.7149268
1443700733184896612	0.82583714	0.97120476	1.7977209
1443700733190023565	0.8559041	0.9860239	1.834398
1443700733195516729	0.5766959	0.55484295	1.896113
1443700733200307989	0.6013789	0.5682974	1.9271926
1443700733205129766	0.6241555	0.58111286	1.9568956
1443700733210256719	0.84415674	-0.05445957	2.3806703
1443700733215231084	1.2443533	-0.42150402	2.3097508
1443700733225271368	0.7873986	-0.17638016	1.372582
1443700733230337286	0.4515388	0.080462456	-0.15041566
1443700733235372686	0.46862364	0.09292221	-0.11884308
1443700733240377569	0.48744392	0.10667133	-0.084760666
1443700733245901250	1.2095971	0.30609894	-0.7755463
1443700733250661993	1.227994	0.3212824	-0.7355578
1443700733255514287	1.0950968	0.583622	-1.2854605
1443700733260580205	1.1149833	0.6010895	-1.2366772
1443700733265585088	0.79481006	0.84953594	-0.96649027
1443700733275777959	0.17052126	1.3330841	-0.122140884
1443700733280691289	0.19524813	1.3508415	-0.07774043
1443700733285879278	-0.39256	1.675415	0.42735338
1443700733290914678	-0.36188388	1.6926823	0.46319866
1443700733296468877	-0.5209582	1.9740276	1.0891442
1443700733301992559	-0.30399227	1.9744186	1.2343438
1443700733305990362	-0.27762818	1.9849463	1.2499979
1443700733311605596	0.64635706	2.1138058	0.3627894
1443700733315939092	0.67082477	2.1237879	0.37830687
1443700733319448614	0.6891506	2.1304607	0.39003825
1443700733326070928	1.4798453	2.5531034	0.0998981
1443700733331136846	2.488481	2.7496328	-0.017365217
1443700733336172246	2.5074625	2.7571049	-0.004379511
1443700733341085577	2.8660793	3.0745573	-0.18813443
1443700733346059942	2.8815684	3.0784807	-0.18113184
1443700733351156377	2.0440333	3.2735834	0.5060203
1443700733356313848	2.060113	3.2751408	0.50644255
1443700733362051153	1.3075356	3.3387861	1.6283758
1443700733366445684	1.3206272	3.337637	1.6236665
1443700733376455450	0.43764663	3.2648706	2.4136329
1443700733381368780	0.31868744	3.104413	1.6842351
1443700733386556768	0.331285	3.1028404	1.6794045
1443700733391439580	0.6146805	3.407323	0.82763696
1443700733396413946	0.62291217	3.4037657	0.8249912
1443700733401540899	0.22365546	3.479455	0.2759266
1443700733406728887	0.23267055	3.4739838	0.26868582
1443700733412069463	1.03898	3.7085104	-0.28695488
1443700733416769170	1.0464966	3.700098	-0.30149817
1443700733426870489	1.5319498	3.8650427	-0.22469258
1443700733431722784	2.0764084	3.6207485	0.5366535
1443700733436941289	2.078618	3.604621	0.49687338
1443700733441824102	2.3019938	3.3956585	0.71494937
1443700733446828985	2.2967334	3.3752956	0.66657853
1443700733451925420	2.00071	3.2983322	0.89571834
1443700733457052373	1.9876685	3.272541	0.8359754
1443700733462606573	1.9516497	2.9224424	1.0111074
1443700733467214727	2.0349905	2.1251907	0.6415527
1443700733470358037	2.0189786	2.1056223	0.5966592
1443700733477163457	1.9860306	2.065999	0.4917674
1443700733486074590	1.2356827	1.1017876	0.27561593
1443700733487997198	0.1575849	0.16449165	1.0027783
1443700733497854375	-1.4578743	-0.7361603	2.277469
1443700733502248907	-1.4874654	-0.76467323	2.165659
1443700733507925176	-2.660488	-0.4271307	2.4727154
1443700733512807989	-2.69418	-0.45901966	2.329951
1443700733517385625	-2.725939	-0.48764515	2.1887684
1443700733520864629	-2.9279404	0.0937376	1.2722609
1443700733527395391	-3.330199	0.7168894	-0.5276839
1443700733532461309	-3.3665342	0.69007015	-0.68234503
