accelerometer_timestamp	accelerometer_x_data	accelerometer_y_data	accelerometer_z_data
1443700720432960703	-2.4498596	13.375092	0.3876953
1443700720441353037	-2.9333344	15.011063	0.23355103
1443700720449745371	-2.9128265	15.353455	0.50242615
1443700720458137705	-2.819641	14.944763	0.91241455
1443700720466530039	-3.0421753	14.15625	1.4256744
1443700720474922373	-4.0493164	12.780853	1.7974396
1443700720483314707	-5.038269	12.137558	1.9103851
1443700720491707041	-5.2780914	11.854782	2.0143738
1443700720500099375	-5.0120544	11.532837	1.7303467
1443700720508491709	-3.9035034	10.670792	1.4200897
1443700720516884043	-3.0799103	10.288147	0.89245605
1443700720525276377	-2.3665924	10.714508	0.34265137
1443700720533668711	-2.234497	10.947281	0.31282043
1443700720542061045	-2.1987	11.127396	0.35699463
1443700720550453379	-1.9461212	10.783539	-0.87368774
1443700720558845713	-0.49526978	9.875626	-1.9952545
1443700720567238047	0.69903564	9.107086	-2.2554169
1443700720575630381	1.0820465	8.814713	-1.9791107
1443700720584022715	1.1936035	8.426987	-1.2559357
1443700720592415049	0.5254669	8.530624	0.2945404
1443700720600807383	-0.7292938	9.060455	1.2155609
1443700720609199717	-1.674942	8.981232	1.4882507
1443700720617592051	-2.201233	8.839859	1.765213
1443700720625984385	-3.0100403	8.157547	1.5695343
1443700720634376719	-2.9793396	7.445404	1.2179871
1443700720642769053	-2.5732727	7.5082855	2.2256775
1443700720651161387	-3.2522125	7.4120026	2.056717
1443700720659553721	-3.8838654	7.2410583	1.7280579
1443700720667946055	-0.5309906	6.2248383	1.6430206
1443700720676338389	1.7881775	6.485977	3.4048767
1443700720684730723	0.63298035	6.614685	2.549469
1443700720693123057	0.44084167	6.4270477	1.8130493
1443700720701515391	0.31384277	5.860428	1.1276398
1443700720709907725	0.30297852	4.889389	1.0861664
1443700720718300059	0.31155396	4.38356	1.8173676
1443700720726692393	0.250885	4.3235474	2.168457
1443700720735084727	0.13970947	4.4289246	2.1973724
1443700720743477061	0.21031189	5.0199738	1.7119751
1443700720751869395	0.0064697266	5.303482	2.7512054
1443700720760261729	-0.11012268	5.5815887	2.8355408
1443700720768654063	-0.19882202	5.877365	2.7125702
1443700720777046397	0.014312744	6.1723633	2.7675629
1443700720785438731	0.702652	6.1857605	3.2286835
1443700720793831065	1.1721344	6.337219	3.489151
1443700720802223399	1.2665863	6.539627	3.5739746
1443700720810615733	1.3318176	6.927231	3.628418
1443700720819008067	1.2414703	7.6552124	3.5225067
1443700720827400401	0.90353394	8.450165	3.2826385
1443700720835792735	0.43571472	9.339737	3.1634216
1443700720844185069	0.16235352	9.94809	3.2554016
1443700720852577403	0.011993408	10.378632	3.4205627
1443700720860969736	0.056869507	11.226288	3.89682
1443700720869362070	0.3222046	12.225204	4.2793274
1443700720877754404	0.5184326	12.694229	4.3399506
1443700720886146738	0.7099457	13.123779	4.364792
1443700720894539072	1.0278015	13.901749	4.2659454
1443700720902931406	1.3703766	14.529053	4.1957245
1443700720911323740	1.7957306	14.719681	4.0225525
1443700720919716074	2.0444183	14.589233	3.9846344
1443700720928108408	2.3873749	13.987473	4.106003
1443700720936500742	2.745819	12.227631	4.5951843
1443700720944893076	2.7883453	10.129913	5.191803
1443700720953285410	2.6900177	8.848175	5.6146393
1443700720961677744	2.592987	8.023712	5.939148
1443700720970070078	2.9438934	6.299103	6.035675
1443700720978462412	2.7316437	4.9091797	5.281372
1443700720986854746	2.3893433	5.0500336	4.0308685
1443700720995247080	2.053894	5.7240906	3.3823547
1443700721003639414	1.6320953	6.5365143	2.7587433
1443700721012031748	0.23605347	8.798996	1.8977203
1443700721020424082	-1.1055603	11.680649	0.47323608
1443700721028816416	-2.6105652	14.368103	-1.3554535
1443700721037208750	-4.042282	15.920624	-2.4343872
1443700721045601084	-6.4194183	18.108002	-3.4950104
1443700721053993418	-9.39827	20.386765	-3.3537598
1443700721062385752	-9.169968	19.758118	-0.5019684
1443700721070778086	-6.600876	17.233307	2.4381714
1443700721079170420	-3.8042603	14.562637	4.7521973
1443700721087562754	-1.0096283	9.36351	7.250992
1443700721095955088	0.24061584	4.8186035	7.33786
1443700721104347422	-0.46461487	2.5159912	4.717453
1443700721112739756	-1.2787781	1.756607	3.2505188
1443700721121132090	-2.1114807	0.98321533	1.7197113
1443700721129524424	-2.8696747	0.051498413	-0.40093994
1443700721137916758	-2.6445313	0.36418152	-1.7172089
1443700721146309092	-2.417328	1.9107666	-2.2830353
1443700721154701426	-2.1557922	3.1548462	-2.7502136
1443700721163093760	-1.4131927	4.7977905	-3.2224426
1443700721171486094	-1.1989899	6.9949036	-3.8533783
1443700721179878428	-2.489853	9.30571	-6.299637
1443700721188270762	-3.2483063	10.845932	-8.9236145
1443700721196663096	-3.5644684	11.993622	-11.081467
1443700721205055430	-4.4253235	14.264938	-12.752747
1443700721213447764	-3.763916	15.097031	-9.196655
1443700721221840098	-0.1693573	13.186386	-0.77822876
1443700721230232432	1.4487152	12.040634	1.3108826
1443700721238624766	2.7749176	10.734207	3.0485382
1443700721247017100	1.8928986	8.892853	2.3720703
1443700721255409434	-0.9484253	8.369705	0.11201477
1443700721263801768	-2.7395782	7.8322144	-1.4612732
1443700721272194102	-3.12706	6.9743347	-2.0113373
1443700721280586436	-3.660843	6.0040894	-2.5505219
1443700721288978770	-4.0963135	6.345978	-3.0576172
1443700721297371104	-4.1914215	7.869171	-2.3315735
1443700721305763438	-4.43985	8.449249	-1.2261047
1443700721314155772	-4.788788	8.613113	-0.25256348
1443700721322548106	-4.8498535	9.067032	-1.6985168
1443700721330940440	-4.7648926	9.554749	-1.8685303
1443700721339332774	-3.6310883	9.751587	-0.5636444
1443700721347725108	-3.2256012	9.872391	-0.35801697
1443700721356117442	-2.7930145	10.0401	-0.14630127
1443700721364509776	-2.165924	10.373123	0.10870361
1443700721372902110	-1.343277	10.553955	0.40405273
1443700721381294444	-0.8002014	10.47139	0.36505127
1443700721389686778	-0.5907135	10.141739	-0.1541748
1443700721398079111	-0.498703	9.481979	-0.87194824
1443700721406471445	-0.5198364	8.575897	-1.7858734
1443700721414863779	-0.753006	7.9086456	-2.41333
1443700721423256113	-1.0568085	7.541794	-2.7114105
1443700721431648447	-1.3504791	7.243622	-2.9459686
1443700721440040781	-0.98986816	7.3413086	-2.4176788
1443700721448433115	-1.6405487	7.5875397	-2.2701263
1443700721456825449	-2.4445038	8.117523	-1.9255066
1443700721465217783	-2.7182617	8.4375305	-1.6999664
1443700721473610117	-2.899292	8.913437	-1.3209839
1443700721482002451	-2.535019	9.891968	-0.5519562
1443700721490394785	-1.7828064	10.605606	-0.6728821
1443700721498787119	-1.405304	10.8471985	-1.5705414
1443700721507179453	-1.1630554	10.896683	-2.1977234
1443700721515571787	-0.8030243	10.779968	-2.8263702
1443700721523964121	-0.7756195	10.514496	-3.1476746
1443700721532356455	-1.2165985	10.257477	-2.6730347
1443700721540748789	-1.4419861	10.153458	-2.2325745
1443700721549141123	-1.5788574	10.090485	-1.8746338
1443700721557533457	-2.0331268	9.952133	-1.9542389
1443700721565925791	-2.0092316	10.097504	-1.6126862
1443700721574318125	-2.4021606	10.216675	-2.156952
1443700721582710459	-2.291626	10.360611	-2.1955109
1443700721591102793	-2.2373047	10.51297	-2.2347412
1443700721599495127	-2.5110931	10.726471	-1.947113
1443700721607887461	-2.9131012	10.853699	-1.2618408
1443700721616279795	-2.9927979	10.738022	-0.97717285
1443700721624672129	-2.8808746	10.495789	-0.91833496
1443700721633064463	-2.6818237	10.472717	-1.374054
1443700721641456797	-2.4901428	10.991089	-2.000702
1443700721649849131	-2.3259888	11.561722	-2.3761292
1443700721658241465	-2.2650757	11.680771	-2.3896027
1443700721666633799	-2.2239532	11.7052	-2.3388367
1443700721675026133	-2.7091522	11.596069	-2.917694
1443700721683418467	-1.7169647	11.591049	-3.0270538
1443700721691810801	-0.73690796	12.128738	-2.717163
1443700721700203135	-0.56277466	12.405685	-2.6291351
1443700721708595469	-0.65592957	12.686676	-2.5949402
1443700721716987803	-1.2191467	12.72319	-2.8130188
1443700721725380137	-1.3437195	12.228531	-3.1018982
1443700721733772471	-1.2556763	11.612915	-3.202774
1443700721742164805	-1.4308777	10.438339	-3.1755524
1443700721750557139	-1.8349457	8.786118	-2.8590698
1443700721758949473	-2.4354706	7.593292	-2.4981537
1443700721767341807	-2.6896362	7.250931	-2.0170135
1443700721775734141	-2.8271637	7.0902863	-1.495224
1443700721784126475	-3.2685547	7.6331635	0.08126831
1443700721792518809	-4.256424	8.383316	1.5852509
1443700721800911143	-5.0437164	9.130722	2.4608154
1443700721809303477	-5.527603	9.715485	2.166504
1443700721817695811	-6.000046	10.276718	1.4242401
1443700721826088145	-6.166992	10.609421	-0.69685364
1443700721834480479	-5.6200256	10.58342	-2.3470001
1443700721842872813	-4.8590393	10.508499	-2.410141
1443700721851265147	-4.1380463	10.434601	-1.9358978
1443700721859657481	-3.256073	10.581726	-0.7581787
1443700721868049815	-2.3144379	10.990204	-0.15315247
1443700721876442149	-1.6095581	11.024139	-0.25280762
1443700721884834483	-1.3825989	11.104996	-0.66996765
1443700721893226817	-1.2457275	11.228378	-1.1409912
1443700721901619151	-0.27079773	11.338745	-1.3513184
1443700721910011485	0.8148804	10.736481	-1.2876434
1443700721918403819	1.0438995	9.9375305	-0.9068146
1443700721926796153	0.99827576	9.429871	-1.1413574
1443700721935188486	0.93421936	8.860535	-1.549118
1443700721943580820	0.78656006	8.15712	-1.8951111
1443700721951973154	0.4670105	7.685959	-1.4970093
1443700721960365488	0.20594788	7.562561	-1.3943787
1443700721968757822	0.12690735	7.5072937	-1.5274048
1443700721977150156	-0.3060913	7.4670105	-1.5110931
1443700721985542490	-1.0111694	7.332672	-1.1326141
1443700721993934824	-1.4154816	7.0296936	-0.62275696
1443700722002327158	-1.4468231	6.856964	-0.27871704
1443700722010719492	-1.4300995	6.712372	0.03614807
1443700722019111826	-1.8338013	6.434143	0.59703064
1443700722027504160	-1.9072266	6.187317	1.1403809
1443700722035896494	-1.9298553	5.979767	1.4277496
1443700722044288828	-2.1200562	5.964981	1.6205292
1443700722052681162	-2.1985626	5.898697	1.8598175
1443700722061073496	-2.0972137	5.681885	1.9446259
1443700722069465830	-1.8924408	5.323532	1.5227814
1443700722077858164	-1.7244263	5.0195313	1.2987976
1443700722086250498	-1.7334137	4.824188	1.3765564
1443700722094642832	-1.8671722	4.608612	1.5865479
1443700722103035166	-1.7152405	4.412735	1.8354797
1443700722111427500	-1.5941467	4.312973	2.0781555
1443700722119819834	-1.6604614	4.3968964	2.2271729
1443700722128212168	-1.7493134	4.513855	2.359146
1443700722136604502	-1.9255981	5.0964203	2.2641754
1443700722144996836	-1.8022003	6.0706024	1.8609161
1443700722153389170	-1.3962708	7.243805	1.911972
1443700722161781504	-1.1321564	8.129959	2.1445923
1443700722170173838	-0.6121979	9.429855	2.5558014
1443700722178566172	0.3486786	11.5768585	3.4089203
1443700722186958506	0.98075867	14.123413	4.565445
1443700722195350840	1.3685608	16.064133	5.442032
1443700722203743174	1.8171082	17.430298	6.0332336
1443700722212135508	2.75885	19.459946	6.900177
1443700722220527842	3.444168	20.352158	6.660431
1443700722228920176	4.1199493	18.783524	4.640335
1443700722237312510	4.0202637	16.976501	3.6941528
1443700722245704844	3.8424988	15.037918	2.9203796
1443700722254097178	3.5328522	11.163223	3.2189484
1443700722262489512	3.805954	7.8450775	4.0164795
1443700722270881846	4.0075684	5.6904755	4.4459686
1443700722279274180	4.2395477	4.9874725	4.235199
1443700722287666514	3.942627	4.6889954	3.4741364
1443700722296058848	2.4050598	5.7563934	1.7169037
1443700722304451182	-0.27331543	8.54744	-0.276886
1443700722312843516	-2.7744904	11.199112	-1.8562622
1443700722321235850	-4.8526764	13.322266	-3.1736145
1443700722329628184	-8.19165	16.735397	-5.3220825
1443700722338020518	-11.3246155	19.201843	-4.607605
1443700722346412852	-10.698624	17.693253	0.7892761
1443700722354805186	-8.169739	15.329559	4.1268005
1443700722363197520	-5.490967	12.720673	7.4641876
1443700722371589854	-2.302414	8.296371	10.928055
1443700722379982188	-1.3880615	5.252533	9.758728
1443700722388374522	-2.4887543	3.7621765	5.838501
1443700722396766856	-3.0304718	3.100296	3.9916534
1443700722405159190	-3.4891205	2.343567	1.9464874
1443700722413551524	-3.6035461	1.8618317	-0.20770264
1443700722421943858	-3.6136322	2.133438	-1.8778229
1443700722430336192	-3.536316	2.7679596	-2.794464
1443700722438728526	-3.3673096	3.449768	-3.4467163
1443700722447120860	-3.2630005	4.9440765	-4.5762634
1443700722455513194	-3.2575684	6.7992554	-5.564789
1443700722463905528	-2.5964813	8.470062	-6.9486084
1443700722472297861	-2.2880402	9.23732	-7.6451874
1443700722480690195	-2.0634155	10.258194	-8.470154
1443700722489082529	-2.0773468	12.831436	-9.325546
1443700722497474863	-0.5353546	14.652206	-6.2985992
1443700722505867197	1.4009094	14.53331	-1.865509
1443700722514259531	1.7582092	13.916412	0.5885925
1443700722522651865	1.0613098	12.962631	2.2498627
1443700722531044199	-0.46914673	11.823898	2.0595245
1443700722539436533	-1.4213257	10.97522	0.70573425
1443700722547828867	-1.6628723	10.431381	-0.25624084
1443700722556221201	-1.6795654	9.98349	-0.9476776
1443700722564613535	-1.9935608	9.17598	-2.1047516
1443700722573005869	-2.6101074	8.250458	-2.6894684
1443700722581398203	-3.1437988	7.2845917	-2.7559814
1443700722589790537	-3.2903137	6.9934845	-2.3505096
1443700722598182871	-3.4807892	6.693756	-1.8955536
1443700722606575205	-3.8835754	6.4211273	-1.2727509
1443700722614967539	-4.023468	6.429367	-0.8868103
1443700722623359873	-3.6052094	6.598419	-0.7568817
1443700722631752207	-3.2671967	6.7789917	-0.92845154
1443700722640144541	-2.8416443	7.2352448	-1.5461273
1443700722648536875	-2.479126	7.8755493	-2.3022614
1443700722656929209	-2.1788788	8.543716	-2.7095642
1443700722665321543	-1.9284973	8.912582	-2.7440338
1443700722673713877	-1.7042236	9.15419	-2.6694946
1443700722682121216	-1.5250092	9.47702	-2.0821838
1443700722690513550	-1.4995117	10.012787	-1.690155
1443700722698905884	-1.2257538	10.154266	-1.3148804
1443700722707298218	-1.1814117	10.14978	-1.1201782
1443700722715690552	-1.2155457	10.110458	-0.86273193
1443700722724082886	-1.5159302	9.891861	-0.46620178
1443700722732475220	-1.6676941	9.642303	-0.40063477
1443700722740867554	-1.6734772	9.569687	-0.49316406
1443700722749259888	-1.8054504	9.483612	-0.75354004
1443700722757652222	-1.9157562	9.3798065	-1.060379
1443700722766044556	-1.7694702	9.26268	-1.3719482
1443700722774436890	-1.6664581	9.227661	-1.5280457
1443700722782829224	-1.6176147	9.231522	-1.5871582
1443700722791221558	-1.467102	9.222534	-1.5221252
1443700722799613892	-1.0655365	9.413803	-1.167923
1443700722808006226	-1.3567963	9.515793	-1.2153015
1443700722816398560	-1.6806641	9.577484	-1.1831818
1443700722824790894	-1.9788971	9.632538	-1.1233368
1443700722833183228	-2.1047974	9.667435	-0.99035645
1443700722841575562	-2.134552	9.785095	-1.2071533
1443700722849967896	-2.3659058	9.945694	-1.7312622
1443700722858360230	-2.6833496	9.999664	-2.113617
1443700722866752564	-2.5068207	10.040192	-2.4727478
1443700722875144898	-1.8359985	9.853638	-2.7505646
1443700722883537232	-1.4362183	9.628357	-3.0151215
1443700722891929566	-1.3349457	9.618408	-3.1592102
1443700722900321900	-1.2867432	9.667252	-3.2536774
1443700722908714234	-0.73646545	9.889221	-2.6115112
1443700722917106568	-0.96881104	10.111893	-2.434082
1443700722925498902	-1.2210236	10.3172	-2.0568237
1443700722933891236	-1.4613495	10.409729	-1.857605
1443700722942283570	-1.6912079	10.498688	-1.7129974
1443700722950675904	-1.9541626	10.603668	-1.7795563
1443700722959068238	-2.386673	10.87117	-1.8320465
1443700722967460572	-2.6447144	11.205765	-1.7822266
1443700722975852906	-2.690979	11.408829	-1.6993256
1443700722984245240	-2.5709991	11.625565	-1.726181
1443700722992637574	-2.2185059	11.771378	-2.0616302
1443700723001029908	-1.6282959	11.867264	-2.5783997
1443700723009422241	-1.3636017	11.950531	-2.6228638
1443700723017814575	-1.220932	12.030228	-2.5174713
1443700723026206909	-0.59651184	12.264664	-2.0431976
1443700723034599243	-0.18655396	12.479126	-1.8505402
1443700723042991577	-0.51542664	12.577866	-1.9718933
1443700723051383911	-0.69151306	12.39151	-1.9963074
1443700723059776245	-0.9762573	12.01329	-1.9691315
1443700723068168579	-1.623291	11.025223	-1.9010162
1443700723076560913	-2.350708	9.830475	-1.8942108
1443700723084953247	-2.996872	8.82045	-1.5812988
1443700723093345581	-3.5469513	8.26651	-1.2387848
1443700723101737915	-4.267166	7.8444214	-0.5372009
1443700723110130249	-4.968277	7.8006287	0.66656494
1443700723118522583	-5.4716034	8.026779	1.546524
1443700723126914917	-5.99086	8.454941	1.6581726
1443700723135307251	-6.5254974	8.921478	1.6221924
1443700723143699585	-7.3093414	10.276749	1.1546478
1443700723152091919	-7.7190094	10.900131	0.20036316
1443700723160484253	-7.4970703	10.988403	-0.3022461
1443700723168876587	-6.7272186	10.971695	-0.6293335
1443700723177268921	-5.677902	10.870438	-1.203598
1443700723185661255	-4.0702667	10.53331	-1.8841248
1443700723194053589	-2.8553925	10.292297	-1.3924866
1443700723202445923	-2.1194305	10.272385	-0.9505005
1443700723210838257	-1.6676941	10.280746	-0.9132385
1443700723219230591	-1.3212433	10.395218	-0.51815796
1443700723227622925	-1.0792236	10.854507	-0.16705322
1443700723236015259	-0.32255554	10.910034	0.21781921
1443700723244407593	0.29455566	10.610062	0.22618103
1443700723252799927	0.8548889	10.272049	0.15484619
1443700723261192261	1.2207947	9.421951	-0.57748413
1443700723269584595	1.0455475	8.570099	-1.7578125
1443700723277976929	0.58673096	7.931183	-2.1567535
1443700723286369263	0.1844635	7.618881	-1.8071747
1443700723294761597	-0.19076538	7.326126	-1.442627
1443700723303153931	-0.57914734	7.180725	-1.1426697
1443700723311546265	-0.877594	7.157852	-0.95184326
1443700723319938599	-0.87646484	7.1083984	-0.75289917
1443700723328330933	-0.81411743	7.078842	-0.5871124
1443700723336723267	-0.74790955	7.0681915	-0.1693573
1443700723345115601	-0.5536194	6.9701385	0.5968933
1443700723353507935	-0.77212524	6.774475	1.5297241
1443700723361900269	-0.9742737	6.6402893	1.9387665
1443700723370292603	-1.1557922	6.5157013	2.2670288
1443700723378684937	-1.192276	6.317932	2.37117
1443700723387077271	-1.7740631	6.1880646	2.860443
1443700723395469605	-2.100006	5.961426	2.6987457
1443700723403861939	-1.986908	5.7467957	2.36203
1443700723412254273	-1.7914581	5.4840546	1.9119415
1443700723420646607	-1.4082336	5.100464	1.417511
1443700723429038941	-0.98791504	4.695526	1.2122345
1443700723437431275	-0.78211975	4.5230865	1.2023926
1443700723445823609	-0.72621155	4.508301	1.2801514
1443700723454215943	-1.1766815	4.790451	2.2323608
1443700723462608277	-1.0471649	4.9566803	2.3422241
1443700723471000611	-1.0993195	5.24498	2.2068634
1443700723479392945	-1.1463165	5.631027	2.1586456
1443700723487785279	-1.181427	6.053894	2.1214294
1443700723496177613	-1.0684357	7.094757	2.1699066
1443700723504569947	-0.4118805	8.5191345	2.3119202
1443700723512962281	0.27357483	10.092575	2.7989655
1443700723521354615	0.8384247	11.186935	3.2082977
1443700723529746949	1.7137604	12.820999	3.886856
1443700723538139283	2.825653	15.278229	4.5686493
1443700723546531616	3.6009216	17.810349	4.601227
1443700723554923950	4.031906	19.04921	4.4783783
1443700723563316284	4.27417	19.39685	4.3575745
1443700723571708618	4.70282	18.799225	3.7924805
1443700723580100952	5.401642	16.38121	3.024826
1443700723588493286	4.999283	12.914246	2.3613586
1443700723596885620	4.5634155	11.044083	2.3735046
1443700723605277954	4.1358337	9.152939	2.4013214
1443700723613670288	3.8293457	6.189514	2.264267
1443700723622062622	3.983307	4.159958	2.3654327
1443700723630454956	3.8008118	3.5469055	2.5138702
1443700723638847290	3.1107635	3.3727112	2.4368134
1443700723647239624	1.4535522	4.617157	1.5235748
1443700723655631958	-0.58192444	7.029999	0.18815613
1443700723664024292	-2.9129028	9.639252	-0.9982605
1443700723672416626	-4.785965	11.550507	-1.6772156
1443700723680808960	-6.3918304	13.118469	-2.0679169
1443700723689201294	-9.135345	16.566666	-2.247589
1443700723697593628	-11.509491	20.175125	-0.7925415
1443700723705985962	-9.803818	19.954239	3.948349
1443700723714378296	-7.1096497	17.654282	7.0242004
1443700723722770630	-4.4101105	15.115524	9.908722
1443700723731162964	-2.0083923	11.104233	10.637222
1443700723739555298	-1.2500763	7.6911926	6.720703
1443700723747947632	-1.9089355	6.041168	2.7808685
1443700723756339966	-2.5174713	5.4621887	1.3318024
1443700723764732300	-3.1606903	4.6966095	-0.01689148
1443700723773124634	-3.4364166	3.6963348	-1.2623596
1443700723781516968	-3.3042297	3.0013428	-2.1096954
1443700723789909302	-3.1339417	2.5168152	-2.6938171
1443700723798301636	-3.141388	2.14151	-3.5974731
1443700723806693970	-3.3183746	2.6723938	-4.708618
1443700723815086304	-3.5587616	4.2744293	-5.5605316
1443700723823478638	-3.6285248	5.3767853	-5.635788
1443700723831870972	-3.7086792	6.594116	-5.6876526
1443700723840263306	-3.8112335	9.256393	-5.9360657
1443700723848655640	-2.894287	11.726028	-6.5399323
1443700723857047974	-1.5190277	13.259567	-6.6385956
1443700723865440308	-0.12843323	13.713882	-5.3662415
1443700723873832642	1.2688904	13.879669	-2.946457
1443700723882224976	1.5608215	13.432388	-0.19113159
1443700723890617310	0.20521545	12.461227	0.5983734
1443700723899009644	-0.8431549	11.617905	0.443573
1443700723907401978	-1.4928284	10.96373	0.11198425
1443700723915794312	-2.1188812	9.800125	-0.48085022
1443700723924186646	-2.5874481	8.6649475	-1.1432953
1443700723932578980	-2.9266815	7.4272614	-2.0558472
1443700723940971314	-3.5506287	7.206421	-2.1880798
1443700723949363648	-4.1800995	7.0486298	-2.3009949
1443700723957755982	-4.6920166	7.269989	-2.3898163
1443700723966148316	-4.559326	7.5922394	-2.372589
1443700723974540650	-4.285843	7.851837	-1.6754913
1443700723982932984	-4.278778	7.9887085	-1.2841492
1443700723991325318	-4.2300873	8.3962555	-0.9860687
1443700723999717652	-3.9664764	9.189941	-0.8532715
1443700724008109986	-3.3789825	9.942612	-0.6168518
1443700724016502320	-2.8927002	10.300415	-0.67381287
1443700724024894654	-2.5084229	10.5060425	-0.91542053
1443700724033286988	-1.5805054	10.532913	-1.3547363
1443700724041679322	-1.0255432	10.360428	-1.4126282
1443700724050071656	-0.6351929	9.93428	-1.6408844
1443700724058463990	-0.52659607	9.692673	-1.8118134
1443700724066856324	-0.43997192	9.434021	-2.0037842
1443700724075248658	-0.5006714	9.092789	-2.2763214
1443700724083640991	-0.7450104	8.789612	-2.4763947
1443700724092033325	-1.0891266	8.594391	-2.634079
1443700724100425659	-1.33461	8.490936	-2.6559296
1443700724108817993	-1.6134491	8.340042	-2.5469055
1443700724117210327	-1.9482422	8.249664	-2.3065033
1443700724125602661	-2.2912445	8.390717	-2.1746216
1443700724133994995	-2.4018402	8.58432	-2.1080933
1443700724142387329	-2.4223938	8.765533	-2.0431824
1443700724150779663	-2.2947083	9.057663	-1.8228607
1443700724159171997	-2.1002197	9.343765	-1.4870758
1443700724167564331	-1.8666534	9.4557495	-1.2484741
1443700724175956665	-1.7696228	9.414627	-1.1450195
1443700724184348999	-1.7143555	9.3650055	-0.99412537
1443700724192741333	-1.864914	9.301178	-0.6746521
1443700724201133667	-2.0406952	9.28656	-0.45811462
1443700724209526001	-2.0861359	9.284897	-0.39944458
1443700724217918335	-2.1696777	9.314453	-0.44056702
1443700724226310669	-2.2398987	9.292831	-0.6134796
1443700724234703003	-2.1473694	9.222244	-1.0083771
1443700724243095337	-1.9834595	9.226776	-1.5667572
1443700724251487671	-1.90065	9.271774	-1.8760834
1443700724259880005	-1.8408966	9.318054	-2.0894318
1443700724268272339	-1.6088104	9.5108795	-2.5065918
1443700724276664673	-1.4220123	9.754547	-2.5861816
1443700724285057007	-1.5140533	10.004868	-2.562912
1443700724293449341	-1.5661163	10.051788	-2.4202423
1443700724301841675	-1.6565857	10.07637	-2.2092285
1443700724310234009	-1.8806305	10.006821	-1.832367
1443700724318626343	-1.9480133	9.903183	-1.681076
1443700724327018677	-1.7937927	9.868835	-1.7046356
1443700724335411011	-1.7346802	9.888107	-1.7367554
1443700724343803345	-1.6306763	9.944778	-1.6619568
1443700724352195679	-1.6508789	10.122009	-1.5178223
1443700724360588013	-1.644867	10.293045	-1.4314117
1443700724368980347	-1.6604309	10.406631	-1.4338226
1443700724377372681	-1.6932068	10.510727	-1.4543762
1443700724385765015	-1.7241821	10.736389	-1.5309448
1443700724394157349	-2.185028	11.011734	-1.8656921
1443700724402549683	-2.1059418	11.168396	-2.1284485
1443700724410942017	-2.096939	11.224945	-2.2543945
1443700724419334351	-2.2355194	11.337921	-2.4416962
1443700724427726685	-2.4798431	11.538132	-2.6370392
1443700724436119019	-2.1500397	11.548935	-2.4838257
1443700724444511353	-1.9543304	11.45079	-2.3258972
1443700724452903687	-1.9350586	11.339615	-2.2391357
1443700724461296021	-1.9555054	11.183563	-2.1098938
1443700724469688355	-1.8980255	11.124329	-2.0718536
1443700724478080689	-1.8532104	11.17424	-2.142685
1443700724486473023	-1.9627838	11.073456	-2.0414734
1443700724494865357	-2.100937	10.937225	-1.9000854
1443700724503257691	-2.365387	10.481094	-1.6598206
1443700724511650025	-2.7124176	9.577576	-1.3204346
1443700724520042359	-2.9632568	8.5550995	-1.1108398
1443700724528434693	-3.2961273	7.8906555	-1.1500397
1443700724536827027	-3.7815247	7.087555	-1.1592407
1443700724545219361	-4.394058	6.1028748	-0.97161865
1443700724553611695	-4.5980377	5.5367126	-0.3970337
1443700724562004029	-4.742981	5.424408	0.22650146
1443700724570396363	-4.8984985	5.4970245	0.69496155
1443700724578788697	-5.2702026	6.243881	1.3842468
1443700724587181031	-5.941086	7.9092407	1.3855896
1443700724595573365	-6.274109	9.614258	1.0043182
1443700724603965699	-5.7986298	10.326447	0.25387573
1443700724612358033	-5.2106323	10.88681	-0.55259705
1443700724620750366	-4.554352	11.864426	-0.8869934
1443700724629142700	-3.861557	12.0047455	-2.1292572
1443700724637535034	-2.5534058	12.08345	-1.2155304
1443700724645927368	-1.5605927	12.350143	-0.2233429
1443700724654319702	-0.6385803	12.57576	0.2462616
1443700724662712036	-0.1965332	12.5759735	-0.0914917
1443700724671104370	-0.13027954	12.151459	-0.20288086
1443700724679496704	-0.05758667	11.750671	-0.4898224
1443700724687889038	-0.07687378	11.555969	-0.891449
1443700724696281372	-0.20980835	10.994965	-1.2162781
1443700724704673706	-0.13084412	10.133362	-1.1209106
1443700724713066040	0.16429138	9.212601	-1.066742
1443700724721458374	0.37316895	8.751999	-1.1604614
1443700724729850708	0.5585785	8.340332	-1.2519836
1443700724738243042	0.3854065	7.8780823	-0.85131836
1443700724746635376	-0.33477783	7.8157654	0.20169067
1443700724755027710	-0.51020813	7.823471	0.6913452
1443700724763420044	-0.71759033	7.8171234	1.1609039
1443700724771812378	-0.8656616	7.7346954	1.3968964
1443700724780204712	-0.90364075	7.6081696	1.3036194
1443700724788597046	-1.0312653	7.585083	1.2282562
1443700724796989380	-1.1295776	7.6249237	1.1948242
1443700724805381714	-1.1141205	7.5116577	1.3339844
1443700724813774048	-1.2012787	7.383377	1.4608612
1443700724822166382	-1.3204346	7.262909	1.5587616
1443700724830558716	-1.2826385	7.132675	1.557785
1443700724838951050	-1.2208862	7.0008698	1.539566
1443700724847343384	-0.9734802	6.685898	1.0993195
1443700724855735718	-0.774704	6.511261	0.595932
1443700724864128052	-0.5871124	6.506668	0.42315674
1443700724872520386	-0.6352997	6.5233917	0.48869324
1443700724880912720	-0.68955994	6.50914	0.7238312
1443700724889305054	-0.71102905	6.3871765	1.2515411
1443700724897697388	-0.769516	6.236389	1.7400818
1443700724906089722	-0.86994934	6.173477	2.026474
1443700724914482056	-0.9213562	6.1464996	2.1569214
1443700724922874390	-0.9915161	6.2989197	2.1940918
1443700724931266724	-1.0218201	6.636261	2.0979767
1443700724939659058	-1.0854034	7.0288696	2.204483
1443700724948051392	-1.0531921	7.2782288	2.2699127
1443700724956443726	-0.9995117	7.533676	2.3323212
1443700724964836060	-0.68040466	8.3641205	2.5358124
1443700724973228394	-0.08581543	9.527084	2.694641
1443700724981620728	0.6931915	10.487778	3.1464844
1443700724990013062	1.1558685	11.051331	3.3970947
1443700724998405396	1.7968903	11.835098	3.7611542
1443700725006797730	2.5060883	12.861862	4.3498993
1443700725015190064	2.8899536	13.477631	4.748947
1443700725023582398	3.0310059	13.671051	4.78627
1443700725031974732	3.0464172	13.750092	4.7265015
1443700725040367066	2.827942	13.796722	4.074478
1443700725048759400	2.1562958	13.382111	3.0028687
1443700725057151734	1.5503693	12.401688	2.4650574
1443700725065544068	1.337738	11.776184	2.5168304
1443700725073936402	1.1583405	11.121918	2.6148987
1443700725082328736	1.1495514	9.762741	2.856964
1443700725090721070	1.5205231	8.330704	2.990509
1443700725099113404	1.8265533	7.3202972	3.0478363
1443700725107505738	1.8895264	6.961731	3.0324097
1443700725115898072	1.6158447	6.972336	3.0955963
1443700725124290406	0.5860748	8.047348	3.115738
1443700725132682740	-0.8442688	10.178589	2.4706573
1443700725141075074	-1.9114227	11.863693	1.7269592
1443700725149467408	-2.720459	13.064728	1.1608276
1443700725157859741	-3.9875488	14.762253	0.16722107
1443700725166252075	-5.7794647	16.00737	-0.87435913
1443700725174644409	-7.672455	15.853256	-0.75720215
1443700725183036743	-7.7776947	14.766281	0.42303467
1443700725191429077	-7.535187	13.407501	1.8019867
1443700725199821411	-5.0869904	10.122055	4.389801
1443700725208213745	-3.5927734	7.208084	5.8954163
1443700725216606079	-3.007431	5.343277	6.0164795
1443700725224998413	-2.9643707	4.7321625	5.4580536
1443700725233390747	-3.446289	4.121933	4.2286377
1443700725241783081	-4.0177155	3.573059	2.2091064
1443700725250175415	-4.1442566	3.3273468	0.6080322
1443700725258567749	-4.0064087	3.4678955	-0.40141296
1443700725266960083	-3.724945	3.7178802	-1.2547913
1443700725275352417	-3.6634674	4.4537964	-2.2920227
1443700725283744751	-3.6467896	5.4486694	-3.2586365
1443700725292137085	-3.024826	6.9714966	-3.8293762
1443700725300529419	-2.587204	8.009308	-4.142334
1443700725308921753	-2.2161713	9.2803955	-4.5737915
1443700725317314087	-2.1135712	11.882111	-5.6115265
1443700725325706421	-1.0229034	13.968704	-6.0979156
1443700725334098755	1.1932831	14.300018	-5.546463
1443700725342491089	2.8068695	13.755737	-4.4656067
1443700725350883423	3.0605927	13.044617	-2.0283966
1443700725359275757	1.1797943	12.31073	0.6911316
1443700725367668091	-0.078063965	11.309067	0.84095764
1443700725376060425	-0.5526581	10.541046	0.10758972
1443700725384452759	-0.99028015	9.966553	-0.5780792
1443700725392845093	-0.9059143	8.881439	-1.3948975
1443700725401237427	-1.4827423	7.692032	-2.0964966
1443700725409629761	-2.954483	6.9689026	-2.0331879
1443700725418022095	-3.4916992	6.8243103	-1.8950348
1443700725426414429	-3.930008	6.7127533	-1.7574615
1443700725434806763	-3.9119415	6.8527985	-1.4445496
1443700725443199097	-3.7082214	7.2669373	-0.7560272
1443700725451591431	-3.3604736	7.5334473	-0.6094818
1443700725459983765	-3.1824799	7.695389	-0.83055115
1443700725468376099	-3.0280151	7.9944763	-1.0495605
1443700725476768433	-2.791031	8.358444	-1.3230438
1443700725485160767	-2.6330566	8.659958	-1.4646606
1443700725493553101	-2.2920837	8.82959	-1.5623474
1443700725501945435	-1.8602448	8.956818	-1.6741638
1443700725510337769	-1.3912506	8.998459	-1.8783264
1443700725518730103	-1.095993	9.310623	-2.0729218
1443700725527122437	-0.6424866	9.3502655	-1.5674286
1443700725535514771	-0.7825775	9.303375	-1.1561737
1443700725543907105	-1.0181732	9.304779	-0.7933655
1443700725552299439	-1.482254	9.449539	-0.6364746
1443700725560691773	-1.6060944	9.5425415	-0.63371277
1443700725569084107	-1.6303864	9.615555	-0.7091217
1443700725577476441	-1.7126465	9.633545	-0.7309723
1443700725585868775	-1.9268646	9.617279	-0.84321594
1443700725594261109	-1.8009033	9.528244	-0.9794464
1443700725602653443	-1.5726471	9.283844	-1.1761017
1443700725611045777	-1.2256775	9.142456	-1.2723541
1443700725619438111	-0.82598877	9.046707	-1.3289032
1443700725627830445	-0.44270325	9.0160675	-1.7103882
1443700725636222779	-0.649292	9.240662	-1.7750549
1443700725644615113	-1.0765991	9.577255	-1.6906738
1443700725653007447	-1.2822266	9.78096	-1.7131653
1443700725661399781	-1.5243683	10.023651	-1.740799
1443700725669792115	-1.8276215	10.328735	-1.804245
1443700725678184449	-2.1958313	10.566437	-1.9552307
1443700725686576783	-2.3341675	10.809341	-2.1910706
1443700725694969116	-1.9376984	10.99762	-2.4468231
1443700725703361450	-1.4190063	11.225845	-2.954712
1443700725711753784	-0.7198181	11.126709	-3.1024933
1443700725720146118	-0.56721497	10.907974	-2.8758392
1443700725728538452	-0.62184143	10.707474	-2.6078796
1443700725736930786	-1.3782349	10.692459	-1.8824158
1443700725745323120	-2.539566	10.977982	-1.0275116
1443700725753715454	-3.5216827	11.157791	-0.5511627
1443700725762107788	-4.0887604	11.045197	-0.63768005
1443700725770500122	-4.2898865	11.101746	-0.76104736
1443700725778892456	-4.4628296	11.258606	-0.85679626
1443700725787284790	-4.376129	11.660416	-0.99198914
1443700725795677124	-3.7469635	11.899109	-1.5405731
1443700725804069458	-3.008545	11.919373	-2.2559662
1443700725812461792	-2.4302063	11.945709	-2.8394318
1443700725820854126	-1.3180542	12.078583	-3.204132
1443700725829246460	-0.14802551	12.47641	-3.162323
1443700725837638794	0.3574829	12.80835	-2.9607391
1443700725846031128	0.7019348	13.097519	-2.7467499
1443700725854423462	0.5010681	13.384323	-2.5945892
1443700725862815796	0.0023040771	12.471893	-2.7086792
1443700725871208130	-0.22346497	10.675919	-2.831482
1443700725879600464	-0.67393494	9.695938	-2.4035034
1443700725887992798	-1.3496857	8.662979	-1.6107788
1443700725896385132	-2.697586	7.8395233	0.09170532
1443700725904777466	-4.0524445	8.045166	1.2226868
1443700725913169800	-5.1327972	8.738022	1.6296234
1443700725921562134	-6.0176697	9.467377	1.7799835
1443700725929954468	-7.4071198	10.573303	1.608017
1443700725938346802	-8.452667	11.464661	0.39744568
1443700725946739136	-8.19072	11.138535	-1.4623108
1443700725955131470	-7.4494324	10.6002655	-2.4837494
1443700725963523804	-6.6757355	10.091324	-3.2947083
1443700725971916138	-5.538162	9.644302	-3.6923218
1443700725980308472	-4.211609	9.398605	-2.0897827
1443700725988700806	-3.5549164	9.252243	0.5701752
1443700725997093140	-3.3910522	9.504776	1.5006714
1443700726005485474	-2.9943848	9.805023	2.22229
1443700726013877808	-2.1285858	10.104767	1.8948975
1443700726022270142	-1.5129852	10.187729	0.5263519
1443700726030662476	-1.245575	10.266388	-0.36280823
1443700726039054810	-1.1742401	10.369202	-0.6809082
1443700726047447144	-0.51683044	9.908691	-0.59573364
1443700726055839478	0.10139465	8.976913	-0.66192627
1443700726064231812	-6.713867E-4	8.125549	-0.94644165
1443700726072624146	-0.18193054	7.7263336	-0.9539337
1443700726081016480	-0.34899902	7.399246	-0.9095917
1443700726089408814	-0.26878357	7.0010834	-0.3976593
1443700726097801148	-0.46073914	6.7285767	-0.4039154
1443700726106193482	-0.6311493	6.2972107	-0.101486206
1443700726114585816	-0.77316284	6.0466003	0.19732666
1443700726122978150	-1.0413666	6.04451	0.09390259
1443700726131370484	-1.5056152	6.493164	-0.986496
1443700726139762818	-1.7646637	6.483734	-1.5317383
1443700726148155152	-1.8990479	6.4446564	-1.4138641
1443700726156547486	-2.0449219	6.751831	-1.4864807
1443700726164939820	-2.188614	5.7288513	0.9958801
1443700726173332154	-1.6236572	6.2509003	0.48110962
1443700726181724488	-1.6492462	6.7640533	0.53871155
1443700726190116822	-2.0428925	6.3997803	1.6256256
1443700726198509156	-2.44841	5.935364	2.7777405
1443700726206901490	-2.3194733	5.1316833	3.4121704
1443700726215293824	-1.4277496	4.62619	2.7295685
1443700726223686158	-1.2264404	4.5805206	2.5063477
1443700726232078491	-1.1538239	4.693619	2.4793549
1443700726240470825	-1.0471344	4.824829	2.412796
1443700726248863159	-0.86849976	5.0133514	2.2644348
1443700726257255493	-0.7425232	5.35672	2.1483917
1443700726265647827	-0.760849	5.8179474	2.1952515
1443700726274040161	-0.8347473	6.2799835	2.325058
1443700726282432495	-0.7590332	7.2129364	2.6141357
1443700726290824829	-0.68162537	8.688705	3.0318909
1443700726299217163	-0.5155945	11.027283	3.7476501
1443700726307609497	0.14181519	12.2651825	4.065918
1443700726316001831	0.8805084	13.483215	4.4775085
1443700726324394165	2.1739502	15.852188	6.7828674
1443700726332786499	2.824524	17.292648	8.225403
1443700726341178833	3.0926971	17.28415	8.155212
1443700726349571167	3.227005	16.777771	7.4894714
1443700726357963501	3.1171265	15.780426	6.309723
1443700726366355835	2.3653564	13.883026	4.552124
1443700726374748169	1.7045288	11.88826	3.5774689
1443700726383140503	1.6299438	10.599945	3.3702698
1443700726391532837	1.710907	9.699005	3.3330078
1443700726399925171	1.5258331	8.644257	3.2860565
1443700726408317505	0.8435669	8.505417	2.901123
1443700726416709839	-0.07296753	9.515015	1.8149872
1443700726425102173	-1.0566711	10.343445	1.2015228
1443700726433494507	-2.2376251	11.215073	0.532547
1443700726441886841	-5.1726837	12.506805	-0.9180298
1443700726450279175	-7.653702	13.300461	-2.2738495
1443700726458671509	-9.0225525	13.697418	-2.0075684
1443700726467063843	-9.77504	13.565033	-0.98968506
1443700726475456177	-9.676559	12.664078	1.182785
1443700726483848511	-6.8674316	10.046707	5.3936462
1443700726492240845	-3.7915497	7.5322113	7.7256775
1443700726500633179	-3.1615448	6.5179596	7.149582
1443700726509025513	-3.34404	5.992935	5.9543457
1443700726517417847	-3.4372864	4.897476	3.736847
1443700726525810181	-3.2331696	4.0267487	1.213028
1443700726534202515	-2.8122253	3.689087	-1.0075989
1443700726542594849	-2.9694366	3.8474274	-2.0598602
1443700726550987183	-3.1113281	4.0846405	-3.1566315
1443700726559379517	-3.0424805	4.871109	-4.4599915
1443700726567771851	-2.6129913	5.9123535	-5.4175873
1443700726576164185	-2.3681488	6.874695	-6.2654724
1443700726584556519	-2.35466	7.4331055	-6.538574
1443700726592948853	-2.247696	8.407639	-6.720703
1443700726601341187	-1.697937	10.052399	-6.2777863
1443700726609733521	-0.75328064	11.854355	-4.314102
1443700726618125855	-0.19418335	12.830338	-2.4205475
1443700726626518189	0.15731812	13.436951	-0.8648071
1443700726634910523	0.45736694	13.57254	0.8230133
1443700726643302857	0.7775879	12.8129425	0.9705963
1443700726651695191	0.016983032	11.799332	0.70500183
1443700726660087525	-0.5890045	11.277542	0.5269928
1443700726668479859	-1.173111	10.623962	0.21138
1443700726676872193	-1.6974792	9.331039	-0.65211487
1443700726685264527	-2.4493866	8.237946	-0.99086
1443700726693656861	-3.0344543	7.706436	-1.0892487
1443700726702049195	-3.0473022	7.363922	-1.3283081
1443700726710441529	-3.1391296	6.999176	-1.1121063
1443700726718833863	-3.4403534	6.7121887	-0.55526733
1443700726727226197	-3.6482086	6.7423096	-0.17274475
1443700726735618531	-3.5590057	6.9010925	-0.1347351
1443700726744010865	-3.3944855	7.0591736	-0.20541382
1443700726752403199	-3.0738068	7.5772247	-0.4356079
1443700726760795533	-2.9039612	8.230774	-1.0885773
1443700726769187866	-2.4498749	8.896988	-1.917038
1443700726777580200	-2.1979675	9.171371	-2.3058167
1443700726785972534	-1.9463348	9.433655	-2.674469
1443700726794364868	-1.7553864	9.606949	-2.7271729
1443700726802757202	-1.6625214	9.548752	-2.0931396
1443700726811149536	-1.4775848	9.270111	-1.5782928
1443700726819541870	-1.318222	9.0008545	-1.394516
1443700726827934204	-1.3584747	8.628952	-1.3549347
1443700726836326538	-1.6026001	8.373779	-1.4056702
1443700726844718872	-2.0092316	8.502075	-1.444809
1443700726853111206	-2.2230988	8.743149	-1.4409943
1443700726861503540	-2.3567657	8.982834	-1.4230194
1443700726869895874	-2.5700684	9.35701	-1.3357544
1443700726878288208	-2.5329742	9.598572	-1.1868896
1443700726886680542	-2.1679688	9.705902	-1.1598969
1443700726895072876	-1.7538452	9.81041	-1.1566925
1443700726903465210	-1.1634369	9.899155	-1.3082123
1443700726911857544	-0.75024414	10.028748	-1.5965881
1443700726920249878	-0.5357361	10.231369	-1.7932892
1443700726928642212	-0.631485	10.379166	-1.8215637
1443700726937034546	-0.88127136	10.577087	-1.7188568
1443700726945426880	-1.3679047	10.837189	-1.4641876
1443700726953819214	-1.9146271	11.058456	-1.3122101
1443700726962211548	-2.1904755	11.07901	-1.3248291
1443700726970603882	-2.3659058	11.034027	-1.3749542
1443700726978996216	-2.431778	10.759918	-1.6074829
1443700726987388550	-2.3429108	10.5434265	-1.8003235
1443700726995780884	-2.3513336	10.542938	-1.7643433
1443700727004173218	-2.2048187	10.552582	-1.6628113
1443700727012565552	-1.9019012	10.539856	-1.5027313
1443700727020957886	-1.1746826	10.453903	-1.211029
1443700727029350220	-0.9301758	10.484955	-1.2698212
1443700727037742554	-0.9303436	10.721252	-1.4782104
1443700727046134888	-1.091629	11.00914	-1.5688171
1443700727054527222	-1.1560364	11.495804	-1.5725403
1443700727062919556	-1.3465576	12.054962	-1.605072
1443700727071311890	-1.5071106	12.361786	-1.8418121
1443700727079704224	-1.5091705	12.367294	-1.9717865
1443700727088096558	-1.4828186	12.306885	-2.0488892
1443700727096488892	-1.2124939	12.212875	-2.1144257
1443700727104881226	-1.1381073	12.3511505	-1.666748
1443700727113273560	-1.4757996	12.2285	-1.4086151
1443700727121665894	-1.6325989	11.849365	-1.6663055
1443700727130058228	-1.9314423	11.336746	-2.0229797
1443700727138450562	-2.7623596	10.264938	-2.4390717
1443700727146842896	-3.7346954	9.042603	-2.246704
1443700727155235230	-4.362686	8.517075	-1.9898376
1443700727163627564	-4.718689	8.483658	-1.8195496
1443700727172019898	-5.6932526	8.783142	-1.2024689
1443700727180412232	-6.904022	9.760468	-0.20526123
1443700727188804566	-7.5645905	10.909973	0.47706604
1443700727197196900	-7.786667	11.255432	0.72229004
1443700727205589234	-7.9409027	11.405167	0.89064026
1443700727213981568	-7.2378845	10.957581	1.1803589
1443700727222373902	-5.5778046	10.196991	0.28590393
1443700727230766236	-4.9098206	9.919449	-0.19784546
1443700727239158570	-4.470276	9.997208	0.35736084
1443700727247550904	-3.53862	10.047806	0.8243561
1443700727255943238	-1.907135	10.029358	0.874527
1443700727264335572	-1.8864746	10.146149	0.222229
1443700727272727906	-1.9635468	10.280365	-0.62446594
1443700727281120240	-1.2688904	10.239243	-1.1803131
1443700727289512574	-0.29652405	10.04451	-1.2837982
1443700727297904908	0.8234558	9.262085	-1.054184
1443700727306297241	0.88131714	8.168121	-1.0009613
1443700727314689575	0.5573273	7.597351	-1.062088
1443700727323081909	0.22123718	7.134674	-1.1334229
1443700727331474243	-0.13076782	6.8039856	-1.6746521
1443700727339866577	-0.7636566	6.8150024	-1.9764404
1443700727348258911	-1.3047333	6.513214	-1.3221436
1443700727356651245	-1.4120483	5.8249817	-0.1063385
1443700727365043579	-1.551239	5.941391	-0.2111206
1443700727373435913	-1.7806549	7.6366577	-2.4385376
1443700727381828247	-1.8528595	7.478012	-1.4503784
1443700727390220581	-1.6648102	6.9536133	0.24378967
1443700727398612915	-1.4476166	7.848755	0.29969788
1443700727407005249	-1.3330383	7.2485046	0.89227295
1443700727415397583	-2.2169495	6.1938324	2.8289642
1443700727423789917	-2.074524	5.6576996	3.860794
1443700727432182251	-1.7670746	5.5753326	3.9670563
1443700727440574585	-1.4859467	5.545578	3.9802704
1443700727448966919	-1.3459625	5.605728	3.6188202
1443700727457359253	-1.1591492	5.559082	3.2633972
1443700727465751587	-1.0464325	5.515854	2.983551
1443700727474143921	-0.97187805	5.4927216	2.7785645
1443700727482536255	-0.93992615	5.529587	2.5028076
1443700727490928589	-0.99967957	5.715271	2.0997925
1443700727499320923	-1.030426	5.9409943	1.6257172
1443700727507713257	-0.9665985	6.0891113	1.2459106
1443700727516105591	-0.8682709	6.1887054	0.9959259
1443700727524497925	-0.77220154	6.6405334	1.0639191
1443700727532890259	-0.60180664	7.422333	1.7742462
1443700727541282593	-0.44573975	8.506012	2.9732513
1443700727549674927	-0.19558716	9.291748	3.4035492
1443700727558067261	0.09051514	10.113632	3.757431
1443700727566459595	0.88612366	12.399658	4.2993164
1443700727574851929	1.5530396	14.962143	5.3111877
1443700727583244263	1.9454498	16.970245	6.453598
1443700727591636597	2.0643158	17.655258	6.782608
1443700727600028931	2.3111572	18.070755	6.6669617
1443700727608421265	2.6964874	17.589294	5.4998627
1443700727616813599	2.728119	15.625092	4.2349396
1443700727625205933	2.5303192	13.463623	3.8596497
1443700727633598267	2.3471832	11.714462	3.8853455
1443700727641990601	2.2679138	9.191132	3.7459717
1443700727650382935	2.0366821	6.944153	3.5584412
1443700727658775269	1.7795105	5.8468933	2.8755493
1443700727667167603	1.2236938	6.136322	2.0270233
1443700727675559937	0.48312378	6.618927	1.1620789
1443700727683952271	-2.167694	8.422745	0.17016602
1443700727692344605	-5.240341	10.057449	-0.87168884
1443700727700736939	-7.7754517	11.105713	-1.670639
1443700727709129273	-9.024673	11.714264	-1.8042908
1443700727717521607	-9.690994	12.387604	-1.0037537
1443700727725913941	-8.120026	12.289841	2.317688
1443700727734306275	-5.046753	10.935547	6.270279
1443700727742698609	-3.4596405	10.005692	7.513321
1443700727751090943	-2.734787	9.489685	7.494034
1443700727759483277	-2.5882874	8.325134	5.5177
1443700727767875611	-3.1240692	6.874222	2.6301727
1443700727776267945	-2.9761963	5.815796	0.07817078
1443700727784660279	-2.8068542	5.54805	-0.8066559
1443700727793052613	-2.6502228	5.307251	-1.723175
1443700727801444947	-2.5270386	5.233719	-3.106079
1443700727809837281	-2.2019806	5.6292267	-4.3985596
1443700727818229615	-2.096756	6.419632	-5.126129
1443700727826621949	-2.306244	7.067383	-5.552826
1443700727835014283	-2.4385529	7.9149323	-6.0494995
1443700727843406616	-2.373703	9.036575	-5.913437
1443700727851798950	-2.1185303	9.846848	-5.0319366
1443700727860191284	-1.8004456	10.427109	-4.06868
1443700727868583618	-0.8802948	11.2834015	-2.128662
1443700727876975952	-0.046569824	11.811569	-0.13322449
1443700727885368286	-0.1255951	11.924149	0.5913696
1443700727893760620	-0.22938538	11.803879	0.52963257
1443700727902152954	-0.3742218	11.665634	0.3784485
1443700727910545288	-1.0106964	11.381958	-0.4492798
1443700727918937622	-1.5091705	10.601944	-1.4086914
1443700727927329956	-1.4987488	9.564026	-1.1372681
1443700727935722290	-1.9312134	9.155334	-0.8313751
1443700727944114624	-2.4312744	8.6315155	-0.84472656
1443700727952506958	-2.9244385	8.027084	-0.7864075
1443700727960899292	-3.2480164	7.623047	-0.11894226
1443700727969291626	-3.3549347	7.466049	0.19151306
1443700727977683960	-3.371643	7.3927765	0.24934387
1443700727986076294	-3.296341	7.43454	0.1751709
1443700727994468628	-3.020584	7.6201477	-0.66622925
1443700728002860962	-2.6663055	7.875244	-1.354126
1443700728011253296	-2.4527588	8.074066	-1.607544
1443700728019645630	-2.2231445	8.301224	-1.8553467
1443700728028037964	-1.8913269	8.738113	-2.024231
1443700728036430298	-1.6355438	9.156082	-1.8147278
1443700728044822632	-1.3129272	9.418579	-1.5717468
1443700728053214966	-1.060379	9.5336	-1.4663544
1443700728061607300	-0.9214783	9.670639	-1.3067169
1443700728069999634	-1.0301666	9.703918	-1.0406952
1443700728078391968	-1.4024963	9.515991	-0.87815857
1443700728086784302	-1.6976166	9.298965	-0.8891754
1443700728095176636	-1.9058228	9.102325	-0.93930054
1443700728103568970	-2.22081	8.813583	-1.1401672
1443700728111961304	-2.619156	8.708252	-1.4980164
1443700728120353638	-2.9520874	8.905045	-1.6828003
1443700728128745972	-3.2386932	9.046417	-1.5549164
1443700728137138306	-3.424942	9.212051	-1.4152222
1443700728145530640	-3.0089874	9.522156	-1.2225647
1443700728153922974	-2.5252686	9.915787	-1.0820923
1443700728162315308	-2.488205	10.269974	-0.96687317
1443700728170707642	-2.4669952	10.450546	-0.80815125
1443700728179099976	-2.442871	10.600906	-0.6322174
1443700728187492310	-2.5103912	10.674454	-0.7111664
1443700728195884644	-2.0366058	10.679108	-1.0260925
1443700728204276978	-1.6516571	10.65947	-1.2750549
1443700728212669312	-1.4389648	10.637619	-1.4896698
1443700728221061646	-1.1819763	10.594986	-1.7229004
1443700728229453980	-0.92666626	10.506165	-1.7571869
1443700728237846314	-0.7764435	10.329208	-1.7050018
1443700728246238648	-0.73017883	10.2456665	-1.6066742
1443700728254630982	-0.67155457	10.166168	-1.5167999
1443700728263023316	-0.620636	10.123322	-1.5069275
1443700728271415650	-0.63142395	10.177872	-1.7008362
1443700728279807984	-0.66374207	10.374268	-2.026291
1443700728288200318	-1.0210114	10.657654	-2.316101
1443700728296592652	-1.1171722	11.223419	-2.563797
1443700728304984986	-1.4204254	12.117462	-2.5088959
1443700728313377320	-2.0494995	12.800217	-2.5190887
1443700728321769654	-2.2097778	12.876785	-2.705841
1443700728330161988	-2.2046356	12.792603	-2.914688
1443700728338554322	-1.8608246	12.248291	-2.9587402
1443700728346946656	-1.5344391	11.733307	-2.7039795
1443700728355338990	-1.6443939	11.394348	-2.2725525
1443700728363731324	-1.7735596	11.169449	-2.1157684
1443700728372123658	-1.9504242	10.830872	-2.0184937
1443700728380515991	-2.3625488	10.022934	-2.0406494
1443700728388908325	-3.0703888	8.958862	-1.7897949
1443700728397300659	-3.8520203	8.11731	-1.353775
1443700728405692993	-4.4785614	7.639221	-0.8878937
1443700728414085327	-5.464386	7.2532654	-0.15486145
1443700728422477661	-6.5867157	7.363785	0.60002136
1443700728430869995	-7.695816	8.175934	1.1197662
1443700728439262329	-8.134308	8.72908	1.3258057
1443700728447654663	-8.383636	9.160904	1.4613953
1443700728456046997	-8.403854	9.859833	1.2533264
1443700728464439331	-7.4631653	10.071548	0.48242188
1443700728472831665	-6.2214813	10.108124	-0.5189972
1443700728481223999	-5.507538	10.182678	-0.6006012
1443700728489616333	-4.679657	10.322922	-0.4658966
1443700728498008667	-3.545288	10.5282135	0.39938354
1443700728506401001	-2.4671173	10.434555	1.1864777
1443700728514793335	-1.6114655	10.207199	1.1901703
1443700728523185669	-0.9200287	9.955933	0.9055023
1443700728531578003	-0.20332336	9.941223	0.5082855
1443700728539970337	0.32980347	9.705002	0.059783936
1443700728548362671	0.5258789	9.243408	0.114593506
1443700728556755005	0.3912201	9.085648	0.097839355
1443700728565147339	0.20230103	8.997604	0.03036499
1443700728573539673	0.06982422	8.689301	-0.051589966
1443700728581932007	0.066482544	8.473267	-0.44613647
1443700728590324341	-0.18162537	8.460037	-0.9221344
1443700728598716675	-0.37890625	8.5217285	-1.1573181
1443700728607109009	-0.59051514	8.551224	-1.3736725
1443700728615501343	-0.8674469	8.423767	-1.4759369
1443700728623893677	-1.0801392	8.180389	-1.4720612
1443700728632286011	-1.143753	7.967041	-1.4842682
1443700728640678345	-1.441803	7.661728	-1.2029877
1443700728649070679	-1.986969	7.407425	0.04548645
1443700728657463013	-1.9783783	7.134491	1.2026367
1443700728665855347	-1.5098724	7.0854645	1.5834198
1443700728674247681	-1.5158386	7.1124725	1.8728485
1443700728682640015	-1.6103058	7.140747	2.172943
1443700728691032349	-2.1347961	6.566391	2.2152557
1443700728699424683	-2.092392	6.1255493	2.122879
1443700728707817017	-2.0005035	6.040085	2.0894623
1443700728716209351	-1.9105377	5.974777	2.0672607
1443700728724601685	-1.8235168	5.954422	1.982727
1443700728732994019	-1.7866669	5.9002533	1.7316284
1443700728741386353	-1.7624054	5.87059	1.522049
1443700728749778687	-1.6672974	5.8937225	1.3401794
1443700728758171021	-1.5674286	5.962143	1.063385
1443700728766563355	-1.5909271	6.130966	0.9399414
1443700728774955689	-1.7953339	6.395935	1.2210999
1443700728783348023	-1.8464508	6.6276703	1.434433
1443700728791740357	-1.8567352	6.8480835	1.6124268
1443700728800132691	-1.9171295	7.418152	1.8822784
1443700728808525025	-1.7655182	8.208054	2.0004425
1443700728816917359	-1.530899	9.194183	2.140686
1443700728825309693	-1.3863068	9.8329315	2.2255096
1443700728833702027	-1.1306915	10.646469	2.4473877
1443700728842094361	-0.45483398	11.786545	3.0193481
1443700728850486695	0.39068604	12.796997	3.5413666
1443700728858879029	0.809906	13.468674	3.892212
1443700728867271363	0.96092224	13.851028	4.2238007
1443700728875663697	1.4320068	14.263245	4.497345
1443700728884056031	1.7874603	14.237366	4.927185
1443700728892448365	1.715332	13.960724	4.972992
1443700728900840699	1.680542	13.652771	4.5259094
1443700728909233033	1.6651306	13.343048	4.0188904
1443700728917625366	1.2631989	12.045654	3.2844849
1443700728926017700	1.090271	10.474411	3.0268402
1443700728934410034	0.9611206	9.042831	2.9837341
1443700728942802368	1.0164032	8.285202	2.9477386
1443700728951194702	1.012619	7.4811707	2.9042053
1443700728959587036	0.7568207	7.185425	2.689209
1443700728967979370	-0.043701172	8.297882	1.9781189
1443700728976371704	-0.9737091	9.69632	1.237915
1443700728984764038	-1.708847	10.836929	0.7109833
1443700728993156372	-3.265335	12.639542	-0.17289734
1443700729001548706	-5.96875	14.460876	-1.256546
1443700729009941040	-8.226761	15.305954	-1.6836548
1443700729018333374	-8.742859	14.9618225	-0.91659546
1443700729026725708	-8.988281	14.421082	0.039871216
1443700729035118042	-6.7962646	11.703293	2.7618713
1443700729043510376	-4.288742	9.185577	4.6671295
1443700729051902710	-3.280136	7.447693	5.5907593
1443700729060295044	-2.982605	6.52684	5.363907
1443700729068687378	-2.9640503	5.53508	4.5572968
1443700729077079712	-3.204193	4.389694	2.5645294
1443700729085472046	-2.9727478	3.3647614	0.4154663
1443700729093864380	-2.8019104	3.0356293	-0.90245056
1443700729102256714	-2.8256989	3.0838318	-1.7339783
1443700729110649048	-2.8602142	3.6830292	-2.6571045
1443700729119041382	-2.8209991	4.8071594	-3.473343
1443700729127433716	-2.4960327	6.555481	-4.9375305
1443700729135826050	-2.1123352	7.750412	-6.6954193
1443700729144218384	-1.7715759	9.018066	-8.51915
1443700729152610718	-1.9217529	11.758484	-10.378738
1443700729161003052	-1.2621613	14.086334	-7.7588196
1443700729169395386	0.5116577	15.019577	-3.5231323
1443700729177787720	1.5623169	14.935394	-1.1853333
1443700729186180054	2.2085419	14.348953	1.233078
1443700729194572388	1.5812836	12.964798	2.4122162
1443700729202964722	0.6415863	11.291336	1.5908356
1443700729211357056	0.018554688	10.343155	0.76316833
1443700729219749390	-0.62275696	9.917755	0.20796204
1443700729228141724	-0.83029175	8.836761	-0.6230316
1443700729236534058	-1.6366577	7.75296	-1.0192413
1443700729244926392	-2.9936218	7.2993317	-1.5497589
1443700729253318726	-3.4555206	7.126404	-1.8442078
1443700729261711060	-3.8964996	6.9412537	-2.0800476
1443700729270103394	-4.3923187	6.6515656	-1.6845398
1443700729278495728	-4.669235	6.6161957	-0.45533752
1443700729286888062	-4.3358154	6.7030334	-0.1000061
1443700729295280396	-3.9984436	6.8469696	-0.5376129
1443700729303672730	-3.7706146	7.205887	-1.222641
1443700729312065064	-3.5268555	7.845001	-1.8074799
1443700729320457398	-3.0911102	8.498215	-1.8817902
1443700729328849732	-2.707016	8.965652	-1.8220367
1443700729337242066	-2.3696442	9.340286	-1.7462006
1443700729345634400	-1.7798615	9.8203125	-1.7773132
1443700729354026734	-1.2196808	10.047455	-1.6988678
1443700729362419068	-0.5002289	10.106277	-1.4475098
1443700729370811402	-0.4803009	10.041367	-1.2855835
1443700729379203736	-0.5006714	9.947205	-1.0828857
1443700729387596070	-0.7519226	9.654694	-0.65457153
1443700729395988404	-1.0209808	9.306473	-0.42689514
1443700729404380738	-1.3094482	9.1194	-0.58943176
1443700729412773072	-1.4527435	9.037155	-0.77194214
1443700729421165406	-1.5307465	8.916412	-0.9651642
1443700729429557740	-1.4402618	8.828445	-1.2573242
1443700729437950074	-1.351471	8.863098	-1.7567139
1443700729446342408	-1.2766876	8.928726	-2.040619
1443700729454734741	-1.1873627	8.991058	-2.1961365
1443700729463127075	-1.1147156	9.115189	-2.4043121
1443700729471519409	-1.2745667	9.157181	-2.47966
1443700729479911743	-1.43927	9.285187	-2.4633179
1443700729488304077	-1.8164825	9.403427	-2.519867
1443700729496696411	-2.1234589	9.53801	-2.4198608
1443700729505088745	-2.3414917	9.795563	-1.7433472
1443700729513481079	-3.0579681	10.095535	-1.6435547
1443700729521873413	-3.292389	10.134125	-1.9268951
1443700729530265747	-3.3682098	10.112274	-2.162735
1443700729538658081	-3.1912842	10.072144	-2.4056854
1443700729547050415	-2.8344727	10.056992	-2.675705
1443700729555442749	-2.5862885	10.087799	-2.692047
1443700729563835083	-2.322052	10.099304	-2.5115051
1443700729572227417	-2.038025	10.100601	-2.3084412
1443700729580619751	-2.0478668	10.096268	-1.9315186
1443700729589012085	-2.3308716	10.178207	-1.4813232
1443700729597404419	-2.4394684	10.25853	-1.2917633
1443700729605796753	-2.5525818	10.352554	-1.1287231
1443700729614189087	-2.6930542	10.548889	-1.1566925
1443700729622581421	-2.7790222	10.895889	-1.313797
1443700729630973755	-2.7133942	11.290955	-1.4168396
1443700729639366089	-2.645279	11.485031	-1.4785309
1443700729647758423	-2.3788605	11.55452	-1.7531433
1443700729656150757	-1.9749451	11.467712	-2.3750458
1443700729664543091	-1.6247711	11.426773	-2.6696014
1443700729672935425	-1.2683563	11.5035095	-2.6098785
1443700729681327759	-0.9085083	11.613388	-2.5051422
1443700729689720093	-0.48387146	11.801544	-2.4516754
1443700729698112427	-0.37052917	12.058365	-2.5329895
1443700729706504761	-0.52542114	11.851959	-2.4003906
1443700729714897095	-0.4733734	11.61676	-2.6651459
1443700729723289429	-0.585907	11.291473	-2.7919006
1443700729731681763	-1.2253418	10.523697	-2.233017
1443700729740074097	-1.6182251	9.63887	-1.4546356
1443700729748466431	-2.4554749	8.988083	-0.8022461
1443700729756858765	-2.921997	8.634659	-0.30166626
1443700729765251099	-3.8272705	8.172043	0.62709045
1443700729773643433	-5.0916595	8.074112	1.6040955
1443700729782035767	-6.1289215	8.447845	1.5966187
1443700729790428101	-6.768692	8.907547	0.8714142
1443700729798820435	-7.3039856	9.368942	0.025756836
1443700729807212769	-7.4197235	10.12767	-1.4157257
1443700729815605103	-7.218109	10.81517	-1.7667236
1443700729823997437	-6.158676	11.056305	-1.5296936
1443700729832389771	-5.291809	11.123123	-1.5682373
1443700729840782105	-4.34639	11.187393	-1.5246887
1443700729849174439	-3.085434	11.18808	-1.0644989
1443700729857566773	-1.6816406	10.921982	-0.30838013
1443700729865959107	-0.69244385	10.718185	0.10986328
1443700729874351441	-0.3621521	10.913528	0.12013245
1443700729882743775	0.0060577393	11.323959	-0.3842926
1443700729891136109	0.7025299	11.640823	-0.6360779
1443700729899528443	1.1348419	11.036194	-0.14830017
1443700729907920777	1.0027161	10.302887	-0.0716095
1443700729916313111	0.7591553	9.626221	-0.15965271
1443700729924705445	0.50917053	8.431656	-0.50283813
1443700729933097779	0.35406494	7.447464	-1.1539001
1443700729941490113	-0.25715637	6.867264	-1.3725433
1443700729949882447	-0.55340576	6.8107147	-1.3661194
1443700729958274781	-0.8278961	6.7916565	-1.3965302
1443700729966667115	-0.9730835	6.855942	-1.6156311
1443700729975059449	-0.91101074	6.8710938	-1.800766
1443700729983451783	-0.7229004	6.886902	-1.7050323
1443700729991844116	-0.51213074	6.9016876	-1.6439819
1443700730000236450	-0.64349365	7.000641	-0.15275574
1443700730008628784	-0.71157837	6.970703	1.5461273
1443700730017021118	-0.52615356	6.7444	2.2856903
1443700730025413452	-0.6040039	6.578888	2.525467
1443700730033805786	-0.7524414	6.4362335	2.6976776
1443700730042198120	-0.9132385	6.18132	2.2147827
1443700730050590454	-1.2993164	6.0567474	1.6378174
1443700730058982788	-1.5154114	6.007538	1.2436523
1443700730067375122	-1.6561279	5.9978943	1.177475
1443700730075767456	-1.8246918	5.974823	1.2280579
1443700730084159790	-1.9645386	5.897583	1.6200409
1443700730092552124	-1.8062897	5.8019257	2.0026398
1443700730100944458	-1.6324005	5.7928314	2.1453094
1443700730109336792	-1.6137543	5.8435974	2.2024994
1443700730117729126	-1.5527649	6.035431	2.1145172
1443700730126121460	-1.4688568	6.358551	1.9594574
1443700730134513794	-1.5233307	6.729004	1.8343658
1443700730142906128	-1.5191498	7.016464	1.7939911
1443700730151298462	-1.4972992	7.2876434	1.7676544
1443700730159690796	-1.2648468	7.9141083	1.9455261
1443700730168083130	-1.046341	8.758606	2.2812195
1443700730176475464	-0.5871887	9.605377	2.6426544
1443700730184867798	-0.3796234	10.3437195	2.9138184
1443700730193260132	0.04335022	11.34639	3.3802185
1443700730201652466	1.0303802	12.774002	4.214569
1443700730210044800	2.0793762	13.957779	4.797226
1443700730218437134	2.7333832	14.689743	4.982666
1443700730226829468	3.1754913	15.111298	5.032791
1443700730235221802	3.4411316	15.278152	5.0577087
1443700730243614136	3.4901428	14.973434	4.5886536
1443700730252006470	3.2961426	14.008087	3.719513
1443700730260398804	2.9707794	13.163116	3.3861237
1443700730268791138	2.636322	12.332962	3.1330872
1443700730277183472	2.435608	10.726334	3.0282898
1443700730285575806	2.599289	9.086868	3.1711578
1443700730293968140	2.9158783	7.6462097	3.1833344
1443700730302360474	2.9441528	6.979828	3.0246124
1443700730310752808	2.7227325	6.5213776	2.746231
1443700730319145142	1.90625	6.96344	2.1944122
1443700730327537476	0.4837799	8.459381	1.4153595
1443700730335929810	-0.88793945	9.916367	0.5440521
1443700730344322144	-1.9373016	11.088486	-0.2939148
1443700730352714478	-3.639328	13.07309	-1.3599548
1443700730361106812	-6.847336	15.353012	-1.7814178
1443700730369499146	-9.259964	16.249329	-1.6134796
1443700730377891480	-11.472458	16.904785	-1.3782806
1443700730386283814	-11.723007	15.443787	-0.73435974
1443700730394676148	-6.065689	11.682877	1.1253052
1443700730403068482	-4.0902863	9.303665	3.582718
1443700730411460816	-3.5453491	8.406601	4.2310944
1443700730419853150	-3.0017242	7.221451	4.4540405
1443700730428245484	-2.5322266	5.5089417	3.5236206
1443700730436637818	-2.3750916	4.0655823	2.017334
1443700730445030152	-2.4890747	3.3475342	0.8069153
1443700730453422486	-2.6375122	3.0525665	-0.038101196
1443700730461814820	-2.8012543	2.8113708	-1.0094147
1443700730470207154	-3.5209503	3.218338	-1.3334961
1443700730478599488	-3.838745	4.421768	-1.6669617
1443700730486991822	-3.7658234	5.4291077	-2.3487244
1443700730495384156	-3.6687622	6.4413147	-3.1292114
1443700730503776490	-3.870819	9.222	-6.167938
1443700730512168824	-3.4631195	11.845093	-7.848175
1443700730520561158	-2.1929932	13.622696	-6.9456177
1443700730528953491	-1.1378479	14.150925	-5.359665
1443700730537345825	0.2581482	14.475586	-3.092041
1443700730545738159	1.8912354	13.969269	-0.34513855
1443700730554130493	2.4890442	12.634689	0.6517334
1443700730562522827	2.1087494	11.539337	0.5845032
1443700730570915161	1.4378662	10.766281	0.36602783
1443700730579307495	0.40977478	9.63739	-0.12498474
1443700730587699829	-0.30955505	8.404953	-0.35139465
1443700730596092163	-1.193634	7.726364	-0.40907288
1443700730604484497	-1.4999237	7.4127502	-0.62390137
1443700730612876831	-1.7756042	7.107071	-0.8978729
1443700730621269165	-2.3784332	6.626068	-1.7283783
1443700730629661499	-3.1202545	6.5682373	-1.4960022
1443700730638053833	-3.9746552	6.94133	-0.66304016
1443700730646446167	-4.001007	7.200302	-0.4021454
1443700730654838501	-3.67482	7.552185	-0.24279785
1443700730663230835	-3.1582336	8.066223	-0.4693756
1443700730671623169	-2.9703522	8.499802	-0.73973083
1443700730680015503	-2.8181305	8.620514	-0.79444885
1443700730688407837	-2.7018127	8.602524	-0.8278656
1443700730696800171	-3.0783997	8.72287	-0.88256836
1443700730705192505	-2.8669891	8.716492	-0.635849
1443700730713584839	-2.5868988	8.52739	-0.6428528
1443700730721977173	-2.8296967	8.450638	-0.8421173
1443700730730369507	-3.0267487	8.371536	-1.067688
1443700730738761841	-2.716751	8.247406	-1.4363861
1443700730747154175	-2.9715424	8.262039	-1.5896301
1443700730755546509	-3.2556	8.270966	-1.6995087
1443700730763938843	-3.4432373	8.206711	-1.8312378
1443700730772331177	-3.3417969	8.15271	-1.895401
1443700730780723511	-2.84227	8.353424	-1.8669434
1443700730789115845	-2.417328	8.862473	-1.7644043
1443700730797508179	-2.1937103	9.246017	-1.6960144
1443700730805900513	-2.0362701	9.531982	-1.6715851
1443700730814292847	-1.5294647	10.156158	-1.9230194
1443700730822685181	-1.039566	10.743881	-2.2878876
1443700730831077515	-0.48686218	11.246307	-2.5055695
1443700730839469849	-0.45729065	11.345428	-2.5280914
1443700730847862183	-0.53660583	11.419601	-2.5328217
1443700730856254517	-1.1884613	11.33725	-2.3661957
1443700730864646851	-1.3381195	11.193771	-2.0641632
1443700730873039185	-1.3878479	11.02446	-2.04393
1443700730881431519	-1.5060883	11.014191	-2.031723
1443700730889823853	-1.6804657	10.986633	-1.7940369
1443700730898216187	-1.9954071	11.032806	-1.2245636
1443700730906608521	-2.154953	11.151733	-0.7167206
1443700730915000855	-2.2081146	11.309753	-0.6600952
1443700730923393189	-2.2749481	11.486465	-0.77127075
1443700730931785523	-2.3863525	12.157028	-0.9169159
1443700730940177857	-2.7980194	13.023987	-0.922699
1443700730948570191	-2.9688873	13.169937	-0.97254944
1443700730956962525	-2.8326569	13.144867	-1.5945892
1443700730965354859	-2.6213074	13.077087	-2.1204224
1443700730973747193	-2.0816193	12.860046	-2.1073608
1443700730982139527	-1.6069641	12.737244	-2.0766754
1443700730990531861	-1.1466217	12.464233	-2.5060883
1443700730998924195	-0.89086914	12.272736	-2.9167023
1443700731007316529	-0.44796753	11.822418	-3.2579803
1443700731015708863	-0.529541	11.034149	-3.0722961
1443700731024101197	-1.619751	9.926666	-1.9470978
1443700731032493531	-2.5776215	9.302582	-1.1134186
1443700731040885865	-3.3815155	8.913803	-0.51449585
1443700731049278199	-4.7353363	8.442505	0.04675293
1443700731057670533	-5.9847107	8.764374	0.64501953
1443700731066062866	-7.386322	9.710663	0.13496399
1443700731074455200	-7.879837	10.142487	-0.3900299
1443700731082847534	-8.327011	10.517303	-0.978302
1443700731091239868	-8.268707	10.61586	-1.6760712
1443700731099632202	-7.073578	10.605392	-1.7623138
1443700731108024536	-5.750412	10.689087	-1.2947083
1443700731116416870	-4.988922	10.789322	-0.753006
1443700731124809204	-4.175934	11.072845	0.51293945
1443700731133201538	-2.916092	11.239349	1.9493561
1443700731141593872	-1.7223969	11.174347	1.7256165
1443700731149986206	-1.5397949	11.116531	1.2727051
1443700731158378540	-1.6323242	11.070908	0.94625854
1443700731166770874	-0.6836395	10.627609	-0.18130493
1443700731175163208	-0.58200073	9.927322	-0.69252014
1443700731183555542	-0.50260925	8.896484	-1.256485
1443700731191947876	-0.52381897	8.322632	-1.0335083
1443700731200340210	-0.39738464	7.621826	-0.90586853
1443700731208732544	0.08369446	6.6453857	-1.1433563
1443700731217124878	0.21444702	6.161392	-1.3207855
1443700731225517212	0.14697266	6.0527954	-1.1549988
1443700731233909546	0.023025513	5.8930664	-0.7720032
1443700731242301880	0.053634644	5.62558	-0.84568787
1443700731250694214	0.14213562	5.3522186	-0.99287415
1443700731259086548	0.09237671	5.146347	-0.9953308
1443700731267478882	-0.044143677	5.0354767	-0.80096436
1443700731275871216	-0.19386292	4.944229	-0.5509949
1443700731284263550	-0.79196167	4.5553894	0.5777588
1443700731292655884	-1.0251007	4.9251404	0.8094635
1443700731301048218	-1.2479706	5.7625885	0.8819885
1443700731309440552	-1.567337	5.8891754	1.5490112
1443700731317832886	-1.7987213	5.79068	2.1904907
1443700731326225220	-1.7756042	5.162735	2.6406403
1443700731334617554	-1.7287903	4.797699	2.9105682
1443700731343009888	-1.7223663	4.670471	3.2556458
1443700731351402222	-1.3855896	4.5010376	3.2063751
1443700731359794556	-1.0305634	4.560028	2.6987762
1443700731368186890	-1.1597748	4.8491364	2.296936
1443700731376579224	-1.2646484	5.178787	2.2415314
1443700731384971558	-1.3160706	5.511017	2.2672272
1443700731393363892	-1.3327026	6.656296	1.9799957
1443700731401756226	-1.3365936	8.154419	1.6969299
1443700731410148560	-1.2449951	9.879196	1.8351746
1443700731418540894	-1.150528	10.7435	2.3152008
1443700731426933228	-0.9850464	11.772888	3.1532288
1443700731435325562	-0.35450745	13.240204	4.9956512
1443700731443717896	0.8731842	14.185394	6.7026215
1443700731452110230	1.8577118	14.255905	7.9950104
1443700731460502564	2.4367065	14.008499	8.696091
1443700731468894898	2.736496	13.641129	9.119507
1443700731477287232	2.4234314	13.444763	8.0720215
1443700731485679566	1.3174896	13.387329	5.7147217
1443700731494071900	0.77204895	13.264984	4.289688
1443700731502464234	0.41989136	13.125534	3.1580505
1443700731510856568	0.49102783	12.547043	2.3184814
1443700731519248902	1.282135	11.1345215	2.9521332
1443700731527641236	2.3087006	9.320251	3.7683258
1443700731536033570	2.8427124	8.2561035	4.192444
1443700731544425904	3.3090973	7.133255	4.790451
1443700731552818238	3.0901642	6.2556763	5.8693237
1443700731561210572	1.6028595	6.6043396	5.90036
1443700731569602906	-0.05656433	7.5513306	4.720215
1443700731577995240	-1.4336548	8.40213	3.882248
1443700731586387574	-3.8064423	9.883591	2.609314
1443700731594779908	-6.4961853	12.152313	0.5280762
1443700731603172241	-9.263428	15.086777	-1.0196075
1443700731611564575	-10.926025	16.564957	-0.62561035
1443700731619956909	-12.360962	17.729355	0.10246277
1443700731628349243	-12.717255	17.16272	3.353592
1443700731636741577	-6.905197	12.701172	5.4017944
1443700731645133911	-2.5455322	8.177124	4.200485
1443700731653526245	-2.0481567	6.625229	3.1395416
1443700731661918579	-1.7473755	5.064102	1.7428131
1443700731670310913	-1.7773132	3.7808228	-0.27998352
1443700731678703247	-1.6229401	3.4151917	-2.1618652
1443700731687095581	-1.4616394	3.5978546	-3.50589
1443700731695487915	-1.344696	3.7944946	-4.3714905
1443700731703880249	-0.9181366	4.2229004	-5.443619
1443700731712272583	-0.50302124	5.399399	-6.205139
1443700731720664917	-0.5345917	7.0468597	-6.572113
1443700731729057251	-1.013855	7.9006042	-6.407074
1443700731737449585	-1.554184	8.636978	-6.1576385
1443700731745841919	-2.8593903	9.984695	-4.438492
1443700731754234253	-2.823059	11.026352	-2.1106415
1443700731762626587	-1.8122559	11.809158	-0.71121216
1443700731771018921	-1.338028	12.071976	-0.3854065
1443700731779411255	-0.9182892	12.146332	0.023971558
1443700731787803589	-0.87420654	11.746887	0.4536438
1443700731796195923	-1.1161499	10.915558	0.49072266
1443700731804588257	-1.1569824	10.092468	0.27833557
1443700731812980591	-1.1119995	9.47493	0.043777466
1443700731821372925	-2.0880585	8.69278	0.22187805
1443700731829765259	-3.3235474	8.140884	0.21269226
1443700731838157593	-3.7720337	7.370529	0.50598145
1443700731846549927	-4.1727905	7.169586	0.3493042
1443700731854942261	-4.526932	7.0432434	0.11192322
1443700731863334595	-3.8160858	7.228775	-0.57562256
1443700731871726929	-3.4744568	7.97348	-0.4086609
1443700731880119263	-2.8383636	8.59613	-0.28729248
1443700731888511597	-2.4772186	8.870514	-0.36376953
1443700731896903931	-2.0307617	9.198669	-0.5086365
1443700731905296265	-1.5248413	9.471054	-0.9141693
1443700731913688599	-1.1264954	9.42601	-1.5541229
1443700731922080933	-0.97380066	9.226532	-1.9513702
1443700731930473267	-0.9712372	9.015762	-2.155075
1443700731938865601	-1.0407715	8.555481	-2.3639984
1443700731947257935	-1.0611725	8.067917	-2.3672638
1443700731955650269	-1.1718597	7.6839294	-2.018036
1443700731964042603	-1.193924	7.5451965	-1.9851074
1443700731972434937	-1.1946869	7.4114532	-1.9599457
1443700731980827271	-1.1286926	7.261429	-1.7502747
1443700731989219605	-1.7398071	7.5598297	-1.2284851
1443700731997611939	-2.55484	7.8802643	-0.62197876
1443700732006004273	-2.872284	8.032562	-0.45747375
1443700732014396607	-2.8792572	8.33017	-0.76501465
1443700732022788941	-2.5742798	8.848007	-1.9650879
1443700732031181275	-2.0453339	9.412613	-3.2594452
1443700732039573609	-1.7985687	9.837265	-3.7813568
1443700732047965943	-1.8551178	10.173355	-3.9368744
1443700732056358277	-2.0082245	10.720963	-3.4493103
1443700732064750611	-2.4496613	11.214142	-2.2845001
1443700732073142945	-3.2490234	11.520401	-0.9713745
1443700732081535279	-3.2003632	11.535156	-0.6874542
1443700732089927613	-3.0773926	11.481628	-0.49719238
1443700732098319947	-2.510376	10.947968	-0.9146881
1443700732106712281	-1.890091	10.47525	-1.5736084
1443700732115104615	-1.3413086	10.387207	-2.1686554
1443700732123496949	-1.0956268	10.475174	-2.8645782
1443700732131889283	-1.4461365	10.898773	-2.7031403
1443700732140281616	-1.9938202	11.533966	-1.2315826
1443700732148673950	-2.5902252	11.97937	-0.27722168
1443700732157066284	-3.194275	12.223572	0.25228882
1443700732165458618	-2.7619781	12.255142	-0.08103943
1443700732173850952	-2.7912903	12.648361	-1.8308258
1443700732182243286	-2.6187744	13.384064	-2.4961548
1443700732190635620	-2.8134003	13.66777	-2.063263
1443700732199027954	-3.03833	13.88591	-1.7316132
1443700732207420288	-3.1334229	13.589478	-2.9043121
1443700732215812622	-2.0067902	12.895721	-3.4061432
1443700732224204956	-0.87667847	12.745483	-2.8634949
1443700732232597290	-0.43199158	12.67865	-2.3417053
1443700732240989624	-0.32211304	12.480576	-1.8683014
1443700732249381958	-0.42539978	11.715729	-1.8117371
1443700732257774292	-0.91651917	10.413773	-2.0135956
1443700732266166626	-1.999176	9.478851	-1.5582733
1443700732274558960	-3.1558685	8.811829	-0.7723694
1443700732282951294	-4.965637	8.50885	0.93115234
1443700732291343628	-6.02182	8.483871	1.8965912
1443700732299735962	-6.9286346	8.870712	0.4477234
1443700732308128296	-7.2667084	9.115585	-0.86183167
1443700732316520630	-7.501114	9.343933	-2.293747
1443700732324912964	-7.0248566	9.463333	-4.3359375
1443700732333305298	-6.354828	9.574158	-4.7170258
1443700732341697632	-5.756592	9.801498	-3.8460846
1443700732350089966	-5.5625305	10.064972	-2.9162292
1443700732358482300	-4.8837585	10.452637	-1.4272156
1443700732366874634	-3.1922607	10.759506	0.16137695
1443700732375266968	-1.3483582	10.953735	1.383667
1443700732383659302	-0.66093445	11.224869	1.8161774
1443700732392051636	-0.45080566	11.508896	1.8425293
1443700732400443970	0.11578369	11.341751	1.8453217
1443700732408836304	0.2729187	11.178589	0.8922119
1443700732417228638	0.12542725	10.475952	-0.18756104
1443700732425620972	-0.25434875	9.850708	-0.8950653
1443700732434013306	-0.6854248	9.107101	-1.6146088
1443700732442405640	-1.1959534	7.749283	-1.995697
1443700732450797974	-0.9336853	6.677368	-1.2549133
1443700732459190308	-0.498703	6.3557434	-1.0685883
1443700732467582642	-0.30848694	6.263855	-0.9066467
1443700732475974976	-0.25601196	6.217102	-0.71092224
1443700732484367310	-0.3892212	6.3002014	-0.5700226
1443700732492759644	-0.6924896	6.4930267	-0.41230774
1443700732501151978	-0.9366913	6.493042	-0.2976532
1443700732509544312	-1.1275635	6.405014	-0.21861267
1443700732517936646	-1.5026855	5.9960175	0.86161804
1443700732526328980	-1.6405029	5.1949615	1.4669495
1443700732534721314	-1.5690613	4.5033264	1.857727
1443700732543113648	-1.3891449	4.1839447	1.6649628
1443700732551505982	-1.2617035	3.9525146	1.48732
1443700732559898316	-1.2904205	4.1700897	1.1618347
1443700732568290650	-1.2599487	4.726486	0.6392822
1443700732576682984	-1.3400726	5.219055	0.7429352
1443700732585075318	-1.280304	5.345642	0.64460754
1443700732593467652	-1.5293732	5.4711914	0.7611084
1443700732601859986	-1.8315277	5.4937897	1.1008911
1443700732610252320	-2.162857	5.668991	1.4435883
1443700732618644654	-2.2472687	5.955261	1.6514587
1443700732627036988	-2.2234955	6.2444305	1.8178864
1443700732635429322	-2.1250153	7.0079956	2.2756653
1443700732643821656	-2.1121216	8.064758	2.774475
1443700732652213990	-1.7502594	9.0208435	3.3132935
1443700732660606324	-1.4552917	9.569626	3.6705933
1443700732668998658	-1.0118256	10.295181	4.0314636
1443700732677389287	-0.017486572	11.75209	4.5314026
1443700732685781621	1.0423584	13.768616	5.3833466
1443700732694173955	1.7104645	15.567505	6.029724
1443700732702566289	2.0446167	16.623306	6.289978
1443700732710958623	2.429306	17.628952	6.355179
1443700732719350957	2.8891144	17.635513	5.911209
1443700732727743291	2.7437286	16.132446	5.1982574
1443700732736135625	2.8026886	14.509369	5.216095
1443700732744527959	2.9851837	12.9600525	5.4410095
1443700732752920293	4.526886	9.520325	5.6896667
1443700732761312627	4.9678955	7.9445953	5.6845856
1443700732769704961	4.2118683	7.6187744	5.3636017
1443700732778097295	3.6328888	7.4677734	4.1657867
1443700732786489629	2.8593597	7.485016	2.617981
1443700732794881963	1.1636658	8.341721	0.53330994
1443700732803274297	-1.60466	10.17308	-0.70339966
1443700732811666631	-3.9367523	11.779449	-1.7516632
1443700732820058965	-5.306137	12.776764	-2.6538696
1443700732828451299	-7.5889587	14.280365	-3.4289246
1443700732836843633	-9.188263	15.364334	-2.395996
1443700732845235967	-7.469345	14.720886	0.7920532
1443700732853628301	-5.536331	13.412384	3.0258636
1443700732862020635	-3.7518158	12.058411	4.956238
1443700732870412969	-2.0303955	8.762985	6.808029
1443700732878805303	-1.6083069	6.1931	5.3200836
1443700732887197637	-2.1901855	4.4692383	3.1353912
1443700732895589971	-2.3289948	3.818283	2.0519562
1443700732903982305	-2.4516907	3.1192322	0.9347687
1443700732912374639	-2.8121948	2.862976	-0.47773743
1443700732920766973	-3.4666595	3.8565521	-2.2415009
1443700732929159307	-3.6512756	4.920929	-3.5864563
1443700732937551641	-3.5850983	5.66185	-4.549713
1443700732945943975	-3.8514404	6.8724976	-6.7105103
1443700732954336309	-3.5641632	8.307312	-6.458969
1443700732962728643	-2.9922485	9.731308	-5.0195313
1443700732971120977	-2.3105927	10.322052	-3.843155
1443700732979513311	-1.6107941	10.775101	-2.7102356
1443700732987905645	-0.53341675	11.872269	-1.6264191
1443700732996297979	0.4494629	12.767914	-0.65034485
1443700733004690313	0.53749084	12.8771515	-0.14974976
1443700733013082647	0.5580597	12.7252655	0.2532196
1443700733021474981	0.24757385	11.694275	0.17182922
1443700733029867315	0.02949524	10.165634	-0.41648865
1443700733038259649	0.004501343	8.957336	-0.7222595
1443700733046651983	-0.40675354	8.322433	-0.60466003
1443700733055044317	-1.6061554	7.492096	-0.91012573
1443700733063436651	-3.528183	6.8033752	-0.38250732
1443700733071828985	-3.8826294	5.9851837	0.37478638
1443700733080221319	-3.788269	5.558914	-0.35205078
1443700733088613653	-3.713089	5.2324677	-1.3744354
1443700733097005987	-4.225006	5.24292	-1.3542175
1443700733105398321	-3.8236694	5.662567	-1.5900726
1443700733113790655	-3.4754333	6.336563	-2.2192535
1443700733122182989	-3.6200256	6.950897	-2.52771
1443700733130575323	-3.6035156	7.8627625	-2.8993225
1443700733138967657	-3.10495	9.212723	-3.3144226
1443700733147359991	-2.5362854	9.974487	-3.1210938
1443700733155752325	-2.1371765	10.262543	-2.3139954
1443700733164144659	-1.7458344	10.355713	-1.4503326
1443700733172536993	-1.4886627	10.264236	-0.3082428
1443700733180929327	-1.6780396	10.051132	0.083358765
1443700733189321661	-2.01091	9.624008	0.113861084
1443700733197713995	-1.9649811	9.256866	0.3001709
1443700733206106329	-1.8582916	8.907944	0.5122223
1443700733214498662	-1.5118561	8.543915	0.34161377
1443700733222890996	-2.0181885	8.785217	-0.80822754
1443700733231283330	-2.2396698	9.014465	-2.2122955
1443700733239675664	-1.8631134	9.112778	-2.6062164
1443700733248067998	-1.6730194	9.268585	-3.0847168
1443700733256460332	-1.9204102	9.526413	-3.3601074
1443700733264852666	-2.4588776	9.885727	-2.8482208
1443700733273245000	-2.96521	10.190491	-2.3509216
1443700733281637334	-3.2967987	10.354996	-2.102234
1443700733290029668	-3.5440216	10.601196	-1.5849304
1443700733298422002	-3.4468079	10.65538	-1.3352509
1443700733306814336	-2.6208649	10.75354	-2.1233215
1443700733315206670	-2.1575775	10.962784	-2.373413
1443700733323599004	-1.7263794	11.181274	-2.5402222
1443700733331991338	-0.7379761	11.397156	-2.6897888
1443700733340383672	-0.5947418	11.710159	-2.7333374
1443700733348776006	-1.3897858	11.874802	-2.0299835
1443700733357168340	-1.8042755	11.908218	-1.425293
1443700733365560674	-2.4358826	11.896988	-0.72369385
1443700733373953008	-3.0400696	11.774033	-0.60289
1443700733382345342	-2.9555054	11.863754	-1.4506073
1443700733390737676	-2.9636536	12.024841	-1.9981842
1443700733399130010	-3.182785	12.067886	-2.291214
1443700733407522344	-2.61911	12.268433	-2.7964172
1443700733415914678	-2.043335	12.474838	-2.8090515
1443700733424307012	-1.4727936	12.286102	-2.0536194
1443700733432699346	-1.3218689	12.173767	-1.8669281
1443700733441091680	-1.2322845	12.074234	-1.7148743
1443700733449484014	-1.4997253	11.975739	-1.4159393
1443700733457876348	-1.4916229	11.529129	-1.2766876
1443700733466268682	-1.5171204	10.795532	-1.5233154
1443700733474661016	-1.892395	10.307144	-1.5548096
1443700733483053350	-2.5896149	9.607544	-1.2286224
1443700733491445684	-3.9896088	8.659805	-0.024673462
1443700733499838018	-5.407547	8.485214	0.9629059
1443700733508230352	-5.924164	8.838928	0.8778229
1443700733516622686	-6.0205536	9.162796	0.4447174
1443700733525015020	-6.333847	9.782074	-0.96788025
1443700733533407354	-6.3750153	10.000488	-2.3497162
1443700733541799688	-6.329468	10.078293	-2.9690704
1443700733550192022	-6.217041	10.041748	-3.0529022
1443700733558584356	-6.005493	10.020554	-3.1074524
1443700733566976690	-5.012146	10.157822	-2.8809052
1443700733575369024	-4.1921387	10.387497	-1.7812347
1443700733583761358	-3.7381287	10.758957	-0.43411255
1443700733592153692	-3.2889557	11.016632	0.39421082
1443700733600546026	-2.6414337	11.26059	1.4938812
1443700733608938360	-2.064148	11.346756	2.2643585
1443700733617330694	-1.9432373	11.086472	1.7398376
1443700733625723028	-1.7293243	10.726242	1.1052399
1443700733634115362	-1.4060974	10.391449	0.6599121
1443700733642507696	-1.4627686	9.863876	0.10508728
1443700733650900030	-1.2748718	8.837967	-0.6837616
1443700733659292364	-0.88253784	8.004135	-0.8469696
1443700733667684698	-0.7861328	7.604431	-1.3494873
1443700733676077032	-0.7063751	7.199875	-1.8325653
1443700733684469366	-0.7307129	6.787445	-1.9124451
1443700733692861700	-0.7505646	6.5509644	-1.2059631
1443700733701254034	-0.7852173	6.5776367	-1.1165009
1443700733709646368	-0.9754181	6.622635	-0.900589
1443700733718038702	-1.2716217	6.620285	-0.45880127
1443700733726431036	-1.5359802	6.4249268	0.14093018
1443700733734823370	-1.4423218	6.006531	0.4519043
1443700733743215704	-1.2790985	5.747177	0.537796
1443700733751608037	-1.1486359	5.5845947	0.58470154
1443700733760000371	-1.095047	5.2817383	1.2781677
1443700733768392705	-0.7539215	4.971222	1.4709015
1443700733776785039	-0.38861084	4.6332397	1.5641022
1443700733785177373	-0.35006714	4.607544	1.3501129
1443700733793569707	-0.28556824	4.568985	1.2346344
1443700733801962041	-0.1778717	4.5187073	1.5504303
1443700733810354375	-0.21401978	4.6204987	1.5554657
1443700733818746709	-0.22061157	4.746872	1.200119
1443700733827139043	-0.4333191	4.8638153	1.1968994
1443700733835531377	-0.51828	5.030243	1.3627625
1443700733843923711	-0.7163696	5.3099976	1.818161
1443700733852316045	-0.9111481	5.56546	1.9547272
1443700733860708379	-1.0268097	5.7852173	1.8840332
1443700733869100713	-0.9885864	6.4759674	1.6759796
1443700733877493047	-1.0036163	7.4982605	2.2845612
1443700733885885381	-0.5941162	9.104706	3.0308228
1443700733894277715	-0.19506836	10.2517395	3.3746185
1443700733902670049	0.30314636	11.723663	3.868927
1443700733911062383	1.3044891	15.1128845	5.3209534
1443700733919454717	2.1538544	18.440933	6.8224335
1443700733927847051	2.9553528	20.265121	7.1635895
1443700733936239385	3.3428497	20.660324	6.7722473
1443700733944631719	3.8501434	20.009659	5.764694
1443700733953024053	3.9539948	16.934006	4.5221405
1443700733961416387	3.5417175	12.550705	4.2796783
1443700733969808721	3.3985748	9.834824	4.3226166
1443700733978201055	3.3966522	7.8909454	4.3155518
1443700733986593389	3.2732544	5.6690674	4.601593
1443700733994985723	2.2937012	5.7999268	4.6022797
1443700734003378057	1.5485077	7.691696	3.223816
1443700734011770391	0.80244446	8.638901	2.500885
1443700734020162725	-0.28053284	9.777969	1.703949
1443700734028555059	-3.0473785	11.704788	0.30715942
1443700734036947393	-6.171219	13.458603	-1.7118073
1443700734045339727	-8.129791	14.6754	-2.4804993
1443700734053732061	-9.064774	15.100815	-1.9060211
1443700734062124395	-8.936356	14.964661	0.045410156
1443700734070516729	-6.0893555	13.094681	3.2866974
1443700734078909063	-3.0246582	9.90773	5.553528
1443700734087301397	-1.8751678	7.9499207	5.8475494
1443700734095693731	-1.2351379	6.514328	5.621338
1443700734104086065	-0.9690399	4.7003326	3.424118
1443700734112478399	-1.5958252	3.7591553	0.32962036
1443700734120870733	-2.0967255	3.4360046	-2.7058105
1443700734129263067	-2.1295013	3.641632	-3.2886505
1443700734137655401	-2.1552887	3.9749908	-3.786972
1443700734146047735	-2.2900543	4.7638702	-4.0713806
1443700734154440069	-3.111969	5.746338	-4.858383
1443700734162832403	-4.0614777	6.796234	-5.662201
1443700734171224737	-4.324951	7.5210876	-5.775955
1443700734179617071	-3.876114	8.513519	-5.3126373
1443700734188009405	-2.475006	9.691238	-3.9936676
1443700734196401739	-1.1793213	10.934357	-2.0401611
1443700734204794073	-0.42140198	11.440796	-1.4518585
1443700734213186407	0.22120667	11.723541	-1.3091888
1443700734221578741	1.1253967	11.713028	-0.88150024
1443700734229971075	1.7077332	11.143799	-0.5486603
1443700734238363409	0.70632935	10.616135	-1.0714417
1443700734246755743	0.18388367	10.045502	-1.1678162
1443700734255148077	-0.55041504	9.4075165	-0.9914551
1443700734263540411	-1.6490784	8.527618	-0.4751587
1443700734271932745	-2.470581	7.6873474	-0.5352936
1443700734280325079	-3.2308807	7.2838135	-0.25886536
1443700734288717412	-3.5271149	7.1385803	-0.18302917
1443700734297109746	-3.4482574	6.9949036	-0.559494
1443700734305502080	-3.313324	7.1341095	-1.4655304
1443700734313894414	-3.4177246	7.641144	-1.6447601
1443700734322286748	-3.5018463	8.070068	-1.4821625
1443700734330679082	-3.5693207	8.462067	-1.3080139
1443700734339071416	-3.2728577	8.818771	-1.1725159
1443700734347463750	-2.7994995	8.848267	-1.1969299
1443700734355856084	-2.6600342	8.853043	-1.3279419
1443700734364248418	-2.5308685	8.800339	-1.2366943
1443700734372640752	-2.4128723	8.723434	-1.1939087
1443700734381033086	-2.3562164	8.602966	-1.2475281
1443700734389425420	-2.4568481	8.5017395	-1.3635712
1443700734397817754	-2.5733948	8.444748	-1.5639038
1443700734406210088	-2.5798187	8.439606	-1.7220001
1443700734414602422	-2.4867249	8.473114	-2.0396423
1443700734422994756	-2.4005127	8.647766	-2.5190582
1443700734431387090	-2.4861298	8.91539	-2.7239532
1443700734439779424	-2.4843292	9.102478	-2.654358
1443700734448171758	-2.459259	9.272766	-2.5509033
1443700734456564092	-2.67128	9.750687	-2.362503
1443700734464956426	-2.9657898	10.15004	-2.1756744
1443700734473348760	-2.632843	10.358337	-1.8237305
1443700734481741094	-2.3372345	10.540192	-1.6341553
1443700734490133428	-2.0509949	10.884308	-1.3780365
1443700734498525762	-1.8242798	11.486557	-0.94825745
1443700734506918096	-1.5180206	11.848877	-0.67149353
1443700734515310430	-1.0877075	11.904129	-0.89186096
1443700734523702764	-0.6873779	11.827011	-1.3333435
1443700734532095098	-0.17967224	11.616898	-2.1116486
1443700734540487432	-0.35353088	11.508896	-2.1754608
1443700734548879766	-1.1670685	11.308838	-1.291214
1443700734557272100	-1.7302856	11.249817	-1.0019073
1443700734565664434	-2.259201	11.211563	-0.804245
1443700734574056768	-3.228836	11.088654	-0.3986969
1443700734582449102	-3.9437866	11.220367	-0.6838684
1443700734590841436	-4.3529053	11.77684	-1.0012665
1443700734599233770	-4.2487946	12.29863	-1.3617706
1443700734607626104	-4.2626953	12.799652	-1.9382172
1443700734616018438	-4.0682526	13.066925	-2.8923187
1443700734624410772	-3.4161682	13.023926	-3.4736328
1443700734632803106	-3.1470337	12.913132	-3.5472412
1443700734641195440	-3.1078491	12.791687	-3.5202637
1443700734649587774	-3.15979	12.119263	-3.9164581
1443700734657980108	-3.56398	10.674118	-4.4038696
1443700734666372442	-4.335083	9.041428	-3.624588
1443700734674764776	-4.9108734	8.552658	-2.5663757
1443700734683157110	-5.4894104	8.19249	-1.4658966
1443700734691549444	-6.4393616	8.412094	0.12322998
1443700734699941778	-7.1255035	9.310532	0.7931824
1443700734708334112	-7.1955414	9.709579	0.78611755
1443700734716726446	-7.2322693	10.085205	0.57502747
1443700734725118780	-7.122299	10.108154	-0.0662384
1443700734733511114	-7.032654	9.869064	-0.94647217
1443700734741903448	-6.9443054	9.871323	-1.6300049
1443700734750295782	-6.72583	9.898315	-1.9558105
1443700734758688116	-6.2259216	9.980347	-2.1133728
1443700734767080450	-5.424164	10.097946	-1.6728668
1443700734775472784	-4.486786	10.072586	-0.48544312
1443700734783865118	-4.054718	9.95488	0.25061035
1443700734792257452	-3.6852722	9.823029	0.9253998
1443700734800649786	-3.1307678	9.421555	1.966919
1443700734809042120	-2.218811	8.895157	1.8559418
1443700734817434454	-1.5031128	8.620651	0.99871826
1443700734825826787	-1.1438904	8.301285	0.5906677
1443700734834219121	-1.0418549	7.958786	-0.121292114
1443700734842611455	-1.0904388	7.526184	-0.99635315
1443700734851003789	-1.0143738	7.072647	-1.1521759
1443700734859396123	-1.0872345	6.8371124	-1.1649323
1443700734867788457	-1.1007385	6.7297974	-1.2639008
1443700734876180791	-1.2767181	6.609131	-1.2671051
1443700734884573125	-1.6190186	6.4357452	-0.8851471
1443700734892965459	-2.0682373	6.3065033	-0.97065735
1443700734901357793	-2.2638245	6.3276367	-0.97914124
1443700734909750127	-2.4103851	6.350525	-0.9393158
1443700734918142461	-2.1943054	6.20932	-0.35995483
1443700734926534795	-2.2164154	5.977463	0.23510742
1443700734934927129	-1.9907684	5.7605896	0.24391174
1443700734943319463	-1.829483	5.562027	0.1404419
1443700734951711797	-1.6370392	5.3951263	0.03149414
1443700734960104131	-1.3992767	5.327591	0.2830963
1443700734968496465	-1.0949097	5.0830383	1.1171875
1443700734976888799	-0.8760376	4.963272	1.5774231
1443700734985281133	-0.7455902	5.0448914	1.710434
1443700734993673467	-0.4560089	5.2150116	2.0858002
1443700735002065801	-0.321167	5.537796	2.0517273
1443700735010458135	-0.2953186	5.89653	1.9505768
1443700735018850469	-0.3260498	6.063919	1.9294434
1443700735027242803	-0.36180115	6.231613	1.8976898
1443700735035635137	-0.34674072	6.473648	1.6463165
1443700735044027471	0.0024414063	6.7113647	1.3590851
1443700735052419805	0.15005493	7.01445	2.249176
1443700735060812139	0.23872375	7.419281	2.667511
1443700735069204473	0.35134888	8.241486	3.1368713
1443700735077596807	0.43667603	9.911316	3.4811249
1443700735085989141	0.31349182	12.384277	3.9529572
1443700735094381475	0.19168091	14.304504	4.5595093
1443700735102773809	0.12998962	15.737503	5.119858
1443700735111166143	0.29951477	17.834793	6.028061
1443700735119558477	0.9720459	19.186432	6.3476257
1443700735127950811	1.525589	18.84224	5.4950867
1443700735136343145	1.6722412	17.389069	5.047989
1443700735144735479	1.7766724	15.57045	4.6004944
1443700735153127813	1.790802	11.43483	4.224167
1443700735161520147	2.6665955	7.6100616	4.097748
1443700735169912481	3.686081	5.3032227	3.9060364
1443700735178304815	4.015747	4.533386	4.0133514
1443700735186697149	3.557312	4.5982056	4.347992
1443700735195089483	2.0884552	6.0626526	4.2782593
1443700735203481817	0.065093994	7.9188232	3.3524323
1443700735211874151	-1.5588379	9.277649	2.5061188
1443700735220266485	-2.8813171	10.414413	1.7863922
1443700735228658819	-5.5882416	12.434357	0.14689636
1443700735237051153	-7.9245453	14.185791	-2.0595856
1443700735245443487	-8.312897	15.363464	-2.5448303
1443700735253835821	-8.201721	15.573608	-1.199234
1443700735262228155	-7.441147	15.494125	0.5404358
1443700735270620489	-3.8482666	13.464996	3.873413
1443700735279012823	-1.803482	9.839203	5.417755
1443700735287405157	-1.33992	7.2917633	4.8690186
1443700735295797491	-1.4877167	6.045746	3.7476654
1443700735304189825	-2.0005035	4.87175	1.6743469
1443700735312582159	-2.898819	4.3610992	-0.5878601
1443700735320974493	-3.3729248	4.629944	-2.2615967
1443700735329366827	-3.367813	5.011673	-3.3484497
1443700735337759161	-3.271408	5.3644714	-4.2294464
1443700735346151495	-3.2359467	6.264969	-5.708023
1443700735354543829	-2.87883	7.272461	-5.8718414
1443700735362936162	-3.0556183	8.397598	-4.477646
1443700735371328496	-2.8956146	8.9592285	-3.4160614
1443700735379720830	-2.4493713	9.623428	-2.2644348
1443700735388113164	-0.9879608	10.636169	-0.88993835
1443700735396505498	0.11680603	11.3089905	-0.21620178
1443700735404897832	0.94062805	11.554474	-0.26760864
1443700735413290166	1.4493103	11.740265	-0.20091248
1443700735421682500	1.3210449	11.562592	0.23551941
1443700735430074834	0.7218628	11.096771	0.4759369
1443700735438467168	0.15020752	10.588165	-0.24468994
1443700735446859502	-0.22361755	10.199768	-0.6260376
1443700735455251836	-0.55841064	9.851486	-0.7982483
1443700735463644170	-1.236618	8.720535	-0.91044617
1443700735472036504	-2.381485	7.6844025	-0.68133545
1443700735480428838	-3.3356018	6.6990814	-0.89183044
1443700735488821172	-3.367096	6.1972046	-0.7620239
1443700735497213506	-3.447586	5.697052	-0.6506958
1443700735505605840	-3.662918	5.347351	-0.75105286
1443700735513998174	-3.7374725	5.396988	-1.1329346
1443700735522390508	-3.645584	5.5769043	-1.421463
1443700735530782842	-3.5520172	5.9513245	-1.8379822
1443700735539175176	-3.268402	6.7301025	-2.4498444
1443700735547567510	-2.793213	7.746933	-3.0453796
1443700735555959844	-2.5284576	8.503113	-3.0782013
1443700735564352178	-2.354309	9.145706	-2.9136963
1443700735572744512	-2.188507	9.879517	-2.137436
1443700735581136846	-2.1972504	10.118912	-1.1856384
1443700735589529180	-2.2633514	10.163498	-0.59957886
1443700735597921514	-1.9105682	10.055542	-0.3740387
1443700735606313848	-1.6522369	9.934845	-0.19606018
1443700735614706182	-1.63974	9.808228	-0.16906738
1443700735623098516	-1.4250488	9.738693	-0.24719238
1443700735631490850	-1.4129028	9.5781555	-0.6485901
1443700735639883184	-1.4893799	9.421371	-1.0470123
1443700735648275518	-1.0792542	9.312485	-1.6864014
1443700735656667852	-0.75782776	9.27475	-2.6441345
1443700735665060186	-0.69773865	9.271942	-3.2819977
1443700735673452520	-0.8272705	9.339584	-3.2969666
1443700735681844854	-1.018753	9.426971	-3.172943
1443700735690237188	-1.950882	9.822662	-2.2207947
1443700735698629522	-2.7093048	10.355179	-1.5506744
1443700735707021856	-3.1525269	10.876709	-0.99554443
1443700735715414190	-3.4789886	11.102264	-0.9762573
1443700735723806524	-3.5460968	11.306381	-1.1695862
1443700735732198858	-2.9039154	11.3463745	-1.884491
1443700735740591192	-2.6527863	11.161972	-2.3526459
1443700735748983526	-2.6078033	11.059494	-2.6450348
1443700735757375860	-2.3931732	11.076202	-2.6790924
1443700735765768194	-2.0604706	11.377823	-2.270172
1443700735774160528	-2.4487152	11.7994995	-1.3842163
1443700735782552862	-2.7809143	12.03595	-0.54811096
1443700735790945196	-2.9143066	12.131561	-0.32525635
1443700735799337530	-3.0409088	12.20546	-0.24301147
1443700735807729864	-2.956543	12.555679	-0.86712646
1443700735816122198	-2.7485046	13.173431	-1.4717407
1443700735824514532	-2.1465454	13.464966	-1.6239777
1443700735832906866	-1.7757568	13.4232025	-1.8174133
1443700735841299200	-1.4853516	13.328033	-1.9566956
1443700735849691534	-1.0892487	12.962433	-1.8618011
1443700735858083868	-0.40093994	12.35733	-1.8466492
1443700735866476202	-0.26844788	11.855392	-2.2553558
1443700735874868536	-0.3224182	11.447327	-2.736023
1443700735883260870	-0.4693756	10.490692	-2.985443
1443700735891653204	-0.99957275	9.293182	-2.2362366
1443700735900045537	-2.8422394	8.666809	-0.31451416
1443700735908437871	-4.0677032	8.788666	1.0683136
1443700735916830205	-5.102951	9.0251465	2.2982635
1443700735925222539	-6.062805	10.13884	2.8695831
1443700735933614873	-6.9601746	11.36496	1.1337128
1443700735942007207	-8.01265	11.937332	-1.332016
1443700735950399541	-8.34166	11.615402	-2.5458984
1443700735958791875	-8.398407	11.002075	-3.7583313
1443700735967184209	-7.533081	10.0155945	-4.419647
1443700735975576543	-5.926956	9.681564	-3.9884338
1443700735983968877	-4.6457977	9.745972	-3.0449982
1443700735992361211	-3.8695374	9.885422	-1.8883057
1443700736000753545	-2.9743958	10.309235	0.40499878
1443700736009145879	-2.3451843	11.078033	2.3691254
1443700736017538213	-1.2490845	11.2547	2.1094055
1443700736025930547	-0.85754395	11.366974	1.2226257
1443700736034322881	-0.59106445	11.48674	0.31748962
1443700736042715215	-0.40837097	10.947006	-0.0069122314
1443700736051107549	0.21002197	9.841415	0.3927307
1443700736059499883	-0.049316406	8.312424	-0.88098145
1443700736067892217	-0.2247467	7.480255	-1.9200745
1443700736076284551	-0.29919434	6.7165527	-2.709793
1443700736084676885	-0.24809265	6.2257996	-2.478775
1443700736093069219	-0.14985657	5.9709473	-1.7350159
1443700736101461553	0.018188477	5.871048	-1.4307251
1443700736109853887	0.14221191	5.863983	-1.2630157
1443700736118246221	0.1557312	5.8438263	-1.181427
1443700736126638555	0.20454407	5.6655426	-0.910553
1443700736135030889	0.2616272	5.3145294	-0.69236755
1443700736143423223	0.20227051	5.128525	-0.47833252
1443700736151815557	0.13018799	4.955261	-0.2359314
1443700736160207891	-0.03765869	4.6653137	0.53300476
1443700736168600225	-0.6165619	4.47406	1.1515656
1443700736176992559	-0.7463684	4.4419403	1.3539734
1443700736185384893	-1.0400696	4.4439087	1.732132
1443700736193777227	-1.3935852	4.3869476	2.0081482
1443700736202169561	-1.2673035	4.092407	1.6022491
1443700736210561895	-1.2625122	3.7802582	1.2475281
1443700736218954229	-1.4699402	3.6690826	1.0582275
1443700736227346563	-1.7179718	3.6774292	0.979187
1443700736235738897	-1.8768463	3.7754364	1.1577148
1443700736244131231	-2.104721	4.084732	1.9754181
1443700736252523565	-2.2738495	4.3388977	2.4412842
1443700736260915899	-2.4279785	4.5915527	2.8385468
1443700736269308233	-2.3453674	5.7229004	3.2081757
1443700736277700567	-2.06781	7.443329	3.6623993
1443700736286092901	-1.4870911	9.63681	4.1798553
1443700736294485235	-0.816864	11.423248	4.5332947
1443700736302877569	0.11038208	14.511642	5.3914948
1443700736311269903	1.6004486	20.29573	7.716751
1443700736319662237	3.6750793	25.276825	10.226929
1443700736328054571	5.419464	26.277313	10.529694
1443700736336446905	6.5710144	25.247849	9.588928
1443700736344839239	5.445938	20.93631	5.8130493
1443700736353231573	2.8039246	15.211609	3.064331
1443700736361623907	1.3968048	10.409058	2.9259796
1443700736370016241	1.5852051	8.025528	3.5322418
1443700736378408575	1.9808044	5.7711334	4.191925
1443700736386800909	3.6827698	2.120224	5.2213287
1443700736395193243	3.974121	0.6086426	6.154663
1443700736403585577	3.567276	1.9164124	4.914795
1443700736411977911	2.7743073	2.9972687	3.2549438
1443700736420370245	1.2095795	4.640518	2.0405731
1443700736428762579	-1.423996	7.4638824	1.1564789
1443700736437154912	-3.656372	10.914459	-0.9985504
1443700736445547246	-5.0116577	13.890137	-2.7740173
1443700736453939580	-5.9505005	16.407867	-3.802185
1443700736462331914	-9.93782	21.395813	-3.584259
1443700736470724248	-13.978317	23.84285	1.0651703
1443700736479116582	-7.9736633	18.42601	7.8648834
1443700736487508916	-4.853546	14.145416	8.392715
1443700736495901250	-2.0053864	9.788834	8.088989
1443700736504293584	-0.13208008	4.0367584	2.9111176
1443700736512685918	-1.0774994	1.8780212	-0.38505554
1443700736521078252	-2.1946564	1.5492096	-0.8509979
1443700736529470586	-2.6907349	1.6764374	-0.6537323
1443700736537862920	-3.3998413	2.0044403	-0.52345276
1443700736546255254	-3.4252625	2.6433563	-0.95314026
1443700736554647588	-2.562271	3.4125671	-2.854538
1443700736563039922	-2.2057037	4.0902863	-4.116806
1443700736571432256	-2.1054688	4.681488	-4.5955505
1443700736579824590	-2.5382843	5.68573	-5.0157776
1443700736588216924	-2.486023	7.6897583	-4.747467
1443700736596609258	-3.0503235	10.2625885	-3.0142822
1443700736605001592	-3.0614014	12.050247	-3.375473
1443700736613393926	-2.9284973	13.950104	-3.9105682
1443700736621786260	-1.6303711	16.24878	-4.9948425
1443700736630178594	0.34358215	15.91835	-3.6782837
1443700736638570928	1.5097198	14.059219	-1.4331512
1443700736646963262	2.193451	12.575439	-0.21478271
1443700736655355596	1.5448303	10.735672	0.5767517
1443700736663747930	-0.85246277	8.694962	0.26338196
1443700736672140264	-2.505661	7.0226746	0.25387573
1443700736680532598	-3.0403748	6.1220093	0.3309021
1443700736688924932	-3.3340454	5.5301666	0.19017029
1443700736697317266	-3.8773804	4.976532	-0.1541748
1443700736705709600	-4.047165	4.7439117	-0.40859985
1443700736714101934	-4.402176	4.9320374	-0.5585327
1443700736722494268	-4.251816	5.250763	-0.50198364
1443700736730886602	-4.0592804	5.6694336	-0.54022217
1443700736739278936	-3.7190552	6.7240753	-1.1833344
1443700736747671270	-3.6092834	8.144806	-2.201645
1443700736756063604	-3.45018	9.236496	-2.8367157
1443700736764455938	-3.2760315	9.795563	-2.7525482
1443700736772848272	-3.0457	10.405945	-2.3088074
1443700736781240606	-2.695404	10.814758	-1.423172
1443700736789632940	-2.18779	10.808792	-0.6395874
1443700736798025274	-1.90094	10.603134	-0.16011047
1443700736806417608	-1.7274475	10.367935	0.2344513
1443700736814809942	-1.4412994	9.730286	0.61260986
1443700736823202276	-1.053833	9.070618	0.36831665
1443700736831594610	-1.0100708	8.6298065	-0.40490723
1443700736839986944	-0.78453064	8.640732	-0.86886597
1443700736848379278	-0.578537	8.738846	-1.4585114
1443700736856771612	-0.49726868	9.163116	-2.496994
1443700736865163946	-0.46917725	9.398346	-3.1177368
1443700736873556280	-0.35165405	9.413391	-3.1843414
1443700736881948614	-0.30923462	9.408905	-3.1271515
1443700736890340948	-0.49871826	9.571182	-2.910141
1443700736898733282	-1.5634308	10.212097	-2.4119568
1443700736907125616	-2.6875153	11.096893	-1.9492188
1443700736915517950	-3.01503	11.442642	-1.9768219
1443700736923910284	-3.134552	11.603302	-2.1483917
1443700736932302618	-2.9188232	11.482285	-2.343338
1443700736940694952	-2.5486145	10.996063	-2.6430817
1443700736949087286	-2.0500336	10.762756	-2.770523
1443700736957479620	-2.17984	10.855286	-2.6291504
1443700736965871954	-2.413437	11.016022	-2.2730255
1443700736974264287	-2.96167	11.378311	-1.2205048
1443700736982656621	-3.3518066	11.737289	-0.46281433
1443700736991048955	-3.5501862	12.115799	-0.35940552
1443700736999441289	-3.7082672	12.41011	-0.51042175
1443700737007833623	-3.676117	12.899857	-0.71307373
1443700737016225957	-2.9969025	13.387436	-0.9509125
1443700737024618291	-2.9107513	13.222549	-1.326416
1443700737033010625	-2.5265503	13.061737	-2.0052948
1443700737041402959	-1.9668579	12.96405	-2.751999
1443700737049795293	-1.1631927	12.928101	-2.7662811
1443700737058187627	0.3857727	12.680725	-1.7618713
1443700737066579961	0.8825073	12.456451	-1.9315186
1443700737074972295	0.85601807	12.092468	-2.366684
1443700737083364629	-1.2805786	10.931412	-3.3113098
1443700737091756963	-3.352005	9.207016	-2.48143
1443700737100149297	-4.8258057	8.246368	-1.4552002
1443700737108541631	-5.749237	8.158325	-0.9218445
1443700737116933965	-6.9064484	8.369278	-0.34501648
1443700737125326299	-7.689026	8.956543	-0.04710388
1443700737133718633	-8.222504	9.733398	-0.49336243
1443700737142110967	-8.370163	10.095261	-1.076416
1443700737150503301	-8.374664	10.304092	-1.6213531
1443700737158895635	-7.3560944	10.1185	-2.0151367
1443700737167287969	-5.570694	10.060303	-1.9649506
1443700737175680303	-4.482376	10.384796	-1.948288
1443700737184072637	-3.9985046	10.596848	-1.5897217
1443700737192464971	-3.5360413	10.816803	-0.9012451
1443700737200857305	-3.025772	11.059143	0.52134705
1443700737209249639	-2.3188324	11.346329	0.6404114
1443700737217641973	-1.8482208	11.415283	-0.11151123
1443700737226034307	-1.5288391	11.1017	-0.80552673
1443700737234426641	-1.127594	10.466568	-0.8968506
1443700737242818975	-1.140152	9.583618	-0.75827026
1443700737251211309	-1.1350555	8.796234	-0.58158875
1443700737259603643	-0.79888916	8.216354	-0.66256714
1443700737267995977	-0.40238953	7.681076	-0.82769775
1443700737276388311	-0.5475464	6.619629	-1.4570465
1443700737284780645	-0.4811554	6.0294952	-1.4985504
1443700737293172979	-0.69454956	5.914612	-1.6141663
1443700737301565313	-0.7594452	5.870926	-1.6880646
1443700737309957647	-0.7751007	5.821274	-1.8192749
1443700737318349981	-0.7358856	5.7697754	-2.0984802
1443700737326742315	-0.62942505	5.687271	-2.0119019
1443700737335134649	-0.40283203	5.58934	-1.4253845
1443700737343526983	-0.37904358	5.564926	-0.8508911
1443700737351919317	-0.5749512	5.591339	0.19392395
1443700737360311651	-0.6035614	5.551132	1.268692
1443700737368703985	-0.42918396	5.38855	1.7670288
1443700737377096319	-0.39826965	5.2444	1.9667206
1443700737385488653	-0.40213013	5.1094513	2.1344452
1443700737393880987	-0.5036011	4.8595734	2.0155182
1443700737402273321	-0.70225525	4.807617	1.8287811
1443700737410665655	-0.7891693	4.8735046	2.045456
1443700737419057989	-0.74290466	4.98468	2.0351868
1443700737427450323	-0.73994446	5.2191925	2.0276794
1443700737435842657	-0.94895935	5.6365814	2.2353973
1443700737444234991	-1.0731659	5.7530212	2.448166
1443700737452627325	-1.0214691	5.7459106	2.3082275
1443700737461019659	-1.122345	5.794754	2.229828
1443700737469411993	-1.2152405	6.034546	2.175003
1443700737477804327	-1.060257	6.5871887	2.233963
1443700737486196661	-0.7551575	7.6548157	2.9052124
1443700737494588995	-0.51545715	8.443817	3.6090546
1443700737502981329	-0.28860474	9.169968	4.2940674
1443700737511373662	0.6604004	11.11673	5.2193146
1443700737519765996	2.1305237	13.85788	6.13678
1443700737528158330	2.8676147	17.138168	6.369644
1443700737536550664	3.410614	18.714462	6.1954956
1443700737544942998	3.962265	20.114288	5.6131134
1443700737553335332	4.0156555	20.193558	4.3493958
1443700737561727666	3.490158	17.957657	3.562683
1443700737570120000	3.1502838	15.3329315	3.8197021
1443700737578512334	2.83284	13.190491	4.6216736
1443700737586904668	2.7018585	9.3493805	5.392563
1443700737595297002	2.7842255	5.342209	6.340988
1443700737603689336	2.6199036	6.2397766	5.1601715
1443700737612081670	2.4280243	6.8786316	4.5714874
1443700737620474004	2.2220612	7.406143	4.053192
1443700737628866338	1.3837433	8.692993	2.3617096
1443700737637258672	-1.0995483	10.198578	1.3496399
1443700737645651006	-4.3266907	12.067001	-0.10385132
1443700737654043340	-6.085495	13.336136	-0.91867065
1443700737662435674	-8.039841	14.863647	-1.4410248
1443700737670828008	-9.532532	15.913528	-0.34300232
1443700737679220342	-8.170776	14.753662	3.4093323
1443700737687612676	-5.755005	12.715164	6.0063324
1443700737696005010	-3.8316956	10.784149	6.9875793
1443700737704397344	-2.2565613	7.8973846	6.1578674
1443700737712789678	-1.6952515	5.215149	3.517044
1443700737721182012	-1.4398956	3.5233154	0.91822815
1443700737729574346	-1.4972687	3.1683655	-0.063430786
1443700737737966680	-1.5949249	2.9250793	-0.9744568
1443700737746359014	-1.9107361	3.0962524	-2.3194427
1443700737754751348	-1.9269257	3.767105	-3.6074677
1443700737763143682	-1.729538	4.6844788	-5.548294
1443700737771536016	-2.2738342	5.3335114	-6.012268
1443700737779928350	-2.7968903	6.505478	-6.490738
1443700737788320684	-3.0705872	8.331116	-6.356262
1443700737796713018	-3.1573334	9.802994	-4.855545
1443700737805105352	-2.995285	10.689041	-3.6000671
1443700737813497686	-2.6630554	11.356064	-2.8257294
1443700737821890020	-1.1722412	12.130066	-2.278595
1443700737830282354	-0.43373108	12.60112	-2.6879272
1443700737838674688	0.043395996	12.324326	-2.629715
1443700737847067022	-0.11691284	11.907959	-1.6439362
1443700737855459356	-0.36231995	11.419449	-0.63526917
1443700737863851690	-1.125824	10.307022	0.124694824
1443700737872244024	-1.8353882	8.980164	-0.16758728
1443700737880636358	-2.5538483	7.955948	-0.43276978
1443700737889028692	-2.9863129	7.454071	-0.5683594
1443700737897421026	-3.7397919	6.832733	-0.431427
1443700737905813360	-4.3360596	6.238968	0.050704956
1443700737914205694	-4.1364594	5.9309845	0.24617004
1443700737922598028	-3.8570557	6.0097656	-0.030776978
1443700737930990362	-3.6430664	6.2404633	-0.442688
1443700737939382696	-3.1941528	6.818161	-1.057663
1443700737947775030	-2.6027222	7.484848	-1.7915344
1443700737956167364	-2.3811035	8.539139	-2.822586
1443700737964559698	-2.2120972	8.9908905	-3.0436401
1443700737972952032	-2.048233	9.411896	-3.1996307
1443700737981344366	-1.9032593	9.5742035	-2.8587494
1443700737989736700	-1.7099915	9.411072	-2.0129547
1443700737998129034	-1.5860138	9.179794	-1.1772919
1443700738006521368	-1.6213531	9.007584	-0.7538147
1443700738014913702	-1.7762604	8.818954	-0.32939148
1443700738023306036	-1.9184113	8.61908	-0.08824158
1443700738031698370	-1.9474487	8.500137	-0.08805847
1443700738040090704	-1.9731445	8.426239	-0.14460754
1443700738048483037	-2.344986	8.372543	-0.37371826
1443700738056875371	-2.3509827	8.48732	-0.87553406
1443700738065267705	-2.2462463	8.843292	-1.5298615
1443700738073660039	-2.0932465	9.104034	-1.8079529
1443700738082052373	-1.9136658	9.413361	-2.073227
1443700738090444707	-1.6644592	10.119171	-2.250122
1443700738098837041	-1.8657532	10.809769	-2.0332336
1443700738107229375	-1.8133545	11.407288	-1.6964111
1443700738115621709	-2.0729675	11.6167755	-1.6816254
1443700738124014043	-2.1046906	11.817429	-1.8820801
1443700738132406377	-1.8344116	12.057098	-2.1195068
1443700738140798711	-1.0842896	12.33577	-1.9342957
1443700738149191045	-0.71803284	12.557785	-1.8203583
1443700738157583379	-0.69810486	12.753143	-1.8197174
1443700738165975713	-0.9740906	12.723328	-1.9507446
1443700738174368047	-1.3123016	12.294159	-1.970398
1443700738182760381	-1.346756	11.797592	-1.7786713
1443700738191152715	-2.0529785	11.716629	-1.5377045
1443700738199545049	-2.7914886	11.608444	-1.2165375
1443700738207937383	-3.6542664	11.280762	-0.647995
1443700738216329717	-4.179062	10.793121	-1.0224609
1443700738224722051	-4.3152466	10.694336	-1.6564026
1443700738233114385	-4.300461	10.983505	-1.9102173
1443700738241506719	-3.9866333	11.666748	-2.2832184
1443700738249899053	-3.303421	12.18483	-2.8113556
1443700738258291387	-2.3545532	11.602921	-3.2124023
1443700738266683721	-1.3784332	11.087814	-3.324463
1443700738275076055	-0.4440918	10.763947	-3.3514557
1443700738283468389	0.24519348	10.558838	-3.0794067
1443700738291860723	-0.5948639	10.123962	-2.28656
1443700738300253057	-1.4077759	9.273087	-1.3104706
1443700738308645391	-2.2540894	8.8476715	-0.58818054
1443700738317037725	-3.427765	8.60199	0.22325134
1443700738325430059	-5.894058	9.307556	1.1559906
1443700738333822393	-7.613861	10.462845	0.81736755
1443700738342214727	-8.327438	11.193573	-0.26116943
1443700738350607061	-8.522797	11.347168	-0.9326935
1443700738358999395	-8.69017	11.293671	-1.6011505
1443700738367391729	-8.354736	11.172852	-2.0895233
1443700738375784063	-7.726364	11.243515	-2.0150757
1443700738384176397	-7.432358	11.331863	-1.5741882
1443700738392568731	-7.252426	11.406403	-1.0813141
1443700738400961065	-6.503723	11.4449005	-0.6036377
1443700738409353399	-5.4493866	11.054367	0.25917053
1443700738417745733	-3.5448303	10.380981	1.1169891
1443700738426138067	-2.8103333	10.398331	1.0238037
1443700738434530401	-2.0192566	10.363358	0.59324646
1443700738442922735	-1.0341187	10.207321	-0.71813965
1443700738451315069	-0.2038269	10.003586	-1.0359344
1443700738459707403	0.16578674	9.466583	-0.759079
1443700738468099737	0.26283264	8.958923	-0.29512024
1443700738476492071	0.551239	8.112976	-0.05935669
1443700738484884405	0.829422	7.3001404	-0.8049011
1443700738493276739	0.56048584	6.611084	-1.6889496
1443700738501669073	0.121276855	6.327286	-1.849411
1443700738510061407	-0.3118286	6.166626	-1.8384857
1443700738518453741	-0.90448	6.007141	-1.7906036
1443700738526846075	-1.6204071	5.742859	-2.315445
1443700738535238409	-2.1202087	5.2470245	-1.988678
1443700738543630743	-1.9499207	4.988693	-1.7727661
1443700738552023077	-1.7250519	4.7021637	-1.4825287
1443700738560415411	-1.5031738	4.240814	-0.7057495
1443700738568807745	-1.5808258	3.6177063	0.47984314
1443700738577200079	-1.5307922	3.2680511	1.0685425
1443700738585592412	-1.3849182	3.1780853	1.238205
1443700738593984746	-1.2084045	3.4581757	2.023056
1443700738602377080	-1.0783386	3.98732	2.480423
1443700738610769414	-1.2981415	4.1675873	2.6343842
1443700738619161748	-1.4288483	4.0857697	2.926468
1443700738627554082	-1.5130463	3.9713898	3.2464905
1443700738635946416	-1.5854034	3.8314972	3.2246552
1443700738644338750	-1.779068	4.2431793	3.1574554
1443700738652731084	-1.3637238	4.8606415	3.009552
1443700738661123418	-1.2384338	5.4049377	3.027542
1443700738669515752	-1.1276855	6.3067627	3.1927948
1443700738677908086	-0.98924255	8.312622	3.8411255
1443700738686300420	-0.75177	11.018326	4.834427
1443700738694692754	-0.56521606	13.529266	5.610962
1443700738703085088	-0.41549683	15.500122	6.020294
1443700738711477422	-0.029296875	18.79979	6.704773
1443700738719869756	0.5218353	21.346863	7.4537964
1443700738728262090	1.1390381	20.633194	7.735733
1443700738736654424	1.7708282	19.031006	7.180237
1443700738745046758	2.4024963	17.404587	6.495865
1443700738753439092	3.5361938	13.5972595	4.250366
1443700738761831426	3.7222595	10.32074	3.1405182
1443700738770223760	3.3638153	8.075989	3.217041
1443700738778616094	2.946762	7.459076	3.7433472
1443700738787008428	2.3844757	7.208359	3.9763947
1443700738795400762	1.4118347	8.134476	3.4206696
1443700738803793096	0.070617676	9.814758	2.3179474
1443700738812185430	-1.368927	10.98027	0.7308197
1443700738820577764	-2.704895	11.607452	-1.026062
1443700738828970098	-4.894058	12.472809	-3.671341
1443700738837362432	-7.783676	13.566147	-4.0974426
1443700738845754766	-10.119812	14.303757	-0.520874
1443700738854147100	-9.155792	13.615967	3.008484
1443700738862539434	-7.7033844	12.680359	6.4335175
1443700738870931768	-3.246048	8.676361	9.072754
1443700738879324102	-1.98172	6.41716	6.0915375
1443700738887716436	-2.4254608	5.240921	3.1868744
1443700738896108770	-2.5719757	4.708206	2.0983124
1443700738904501104	-2.6377716	4.1611023	0.6769562
1443700738912893438	-2.5364838	3.7372437	-1.4988403
1443700738921285772	-2.5470734	3.78331	-3.8325958
1443700738929678106	-2.8144531	4.1219635	-5.1320496
1443700738938070440	-3.1646729	4.475403	-5.720688
1443700738946462774	-3.287262	5.3976746	-6.609741
1443700738954855108	-3.1362457	6.9501343	-7.484268
1443700738963247442	-3.2516022	8.850693	-6.442154
1443700738971639776	-3.0695953	9.867416	-4.8136597
1443700738980032110	-2.7570343	10.858765	-3.1172333
1443700738988424444	-0.8282623	12.655548	-0.93382263
1443700738996816778	0.9139099	13.65239	-0.5858154
1443700739005209112	1.9015961	13.789902	-0.71240234
1443700739013601446	2.4535065	13.730499	-0.92692566
1443700739021993780	1.7485352	13.050629	-1.0512543
1443700739030386114	0.46839905	11.922775	-0.74505615
1443700739038778448	-0.36611938	10.9292145	-0.6068268
1443700739047170782	-0.8249359	10.152954	-0.64730835
1443700739055563116	-1.5940094	8.8671875	-0.44613647
1443700739063955450	-2.124939	7.5004883	-0.4172058
1443700739072347784	-2.783783	6.4299164	-0.37887573
1443700739080740118	-3.174652	6.079834	-0.18205261
1443700739089132452	-3.5197144	5.819214	0.03224182
1443700739097524786	-3.689865	5.746155	0.1973114
1443700739105917120	-3.8141632	5.7592163	-0.26774597
1443700739114309454	-3.7748108	5.9767456	-0.87158203
1443700739122701787	-3.6353607	6.2800446	-1.1781006
1443700739131094121	-3.4046173	6.8250275	-1.7975769
1443700739139486455	-3.3046417	7.710388	-2.7142792
1443700739147878789	-3.1722565	8.412338	-2.96669
1443700739156271123	-2.729889	8.765335	-2.7696838
1443700739164663457	-2.3398285	8.930496	-2.503006
1443700739173055791	-2.1030579	9.136612	-1.633728
1443700739181448125	-2.1086884	9.271133	-0.625824
1443700739189840459	-2.4560852	9.346512	-0.1877594
1443700739198232793	-2.5303345	9.345886	-0.06817627
1443700739206625127	-2.581314	9.340332	0.020996094
1443700739215017461	-2.720459	9.369904	-0.1317749
1443700739223409795	-2.9494934	9.530563	-0.6512604
1443700739231802129	-2.5663452	9.614777	-0.9640045
1443700739240194463	-2.1653748	9.644974	-1.3547058
1443700739248586797	-1.7596741	9.649796	-2.0207367
1443700739256979131	-1.4371185	9.608475	-2.8352203
1443700739265371465	-1.3214569	9.550064	-3.1270752
1443700739273763799	-1.319046	9.608231	-3.1362762
1443700739282156133	-1.331253	9.743179	-3.0964355
1443700739290548467	-1.7067261	10.218643	-2.5970764
1443700739298940801	-2.7623749	11.022507	-1.6626434
1443700739307333135	-3.0682678	11.566452	-1.3547516
1443700739315725469	-2.8695831	11.521927	-1.6382141
1443700739324117803	-2.57312	11.390167	-2.0398407
1443700739332510137	-1.554245	10.762695	-3.191742
1443700739340902471	-0.8145447	10.763321	-3.394287
1443700739349294805	-0.641922	11.172028	-2.807953
1443700739357687139	-0.5648041	11.361603	-2.2444
1443700739366079473	-0.73913574	11.522934	-1.4365234
1443700739374471807	-1.4390106	11.620544	-0.5172882
1443700739382864141	-2.2623749	11.809387	-0.09825134
1443700739391256475	-2.5725098	12.0768585	-0.19909668
1443700739399648809	-2.6367645	12.340973	-0.45742798
1443700739408041143	-2.9200897	12.784088	-0.7958679
1443700739416433477	-3.286209	12.540466	-1.3740997
1443700739424825811	-2.8078308	12.384033	-2.3435822
1443700739433218145	-2.4332275	12.49556	-2.5623322
1443700739441610479	-2.042282	12.598938	-2.6878052
1443700739450002813	-1.5965118	12.574829	-2.2608795
1443700739458395147	-1.2546539	12.221634	-2.0828094
1443700739466787481	-0.69496155	11.66835	-2.3264465
1443700739475179815	-0.27020264	11.032181	-2.6927185
1443700739483572149	-0.42131042	10.042511	-2.95784
1443700739491964483	-1.7149811	8.8329315	-2.4090576
1443700739500356817	-3.5863342	8.086136	-0.96095276
1443700739508749151	-4.647812	8.050812	-0.09498596
1443700739517141485	-5.2981415	8.246811	0.4158783
1443700739525533819	-6.021652	9.040619	0.98350525
1443700739533926153	-6.4536743	9.981506	0.9537964
1443700739542318487	-6.4644623	10.392624	-0.26817322
1443700739550710821	-6.244705	10.2808075	-1.0097351
1443700739559103155	-5.833618	10.097382	-1.7335205
1443700739567495489	-4.5292816	9.705078	-2.2895508
1443700739575887823	-3.5267944	9.909851	-2.3775635
1443700739584280157	-3.0937347	10.355438	-1.9248962
1443700739592672491	-2.8932495	10.614395	-1.355545
1443700739601064825	-2.408722	10.856445	-0.38072205
1443700739609457159	-2.1389618	10.956238	0.85124207
1443700739617849493	-2.3938751	10.789017	1.284668
1443700739626241827	-2.5125885	10.59462	0.6952057
1443700739634634161	-2.54216	10.425613	-0.14146423
1443700739643026495	-2.9782104	9.859528	-0.6524811
1443700739651418829	-2.0736542	9.039551	-0.598053
1443700739659811162	-1.9095612	8.598694	-0.54888916
1443700739668203496	-1.8202362	8.296036	-0.7551575
1443700739676595830	-1.6109009	7.9455414	-0.95251465
1443700739684988164	-1.0995941	7.4899597	-1.2169647
1443700739693380498	-0.98069763	7.2957764	-1.6168213
1443700739701772832	-0.7633362	7.3276367	-1.697525
1443700739710165166	-0.45681763	7.5242767	-1.6743927
1443700739718557500	-0.61309814	7.75856	-1.9936676
1443700739726949834	-0.82421875	7.7667847	-1.9890137
1443700739735342168	-1.163269	7.351715	-0.7229309
1443700739743734502	-1.1918182	7.085678	-0.14021301
1443700739752126836	-1.0767975	6.9044647	0.100112915
1443700739760519170	-0.7557068	6.5039215	0.5944061
1443700739768911504	-1.0730286	6.1557465	0.931015
1443700739777303838	-1.0647888	5.8187714	0.73872375
1443700739785696172	-1.0847015	5.795624	0.8556671
1443700739794088506	-1.2297211	5.778137	1.0039368
1443700739802480840	-1.5114899	5.754013	1.126831
1443700739810873174	-1.2820129	5.7166443	0.9008179
1443700739819265508	-1.266983	5.739868	0.8471527
1443700739827657842	-1.4308472	5.7585144	1.1600952
1443700739836050176	-1.6162872	5.6079407	1.6066742
1443700739844442510	-1.9927216	5.3562317	2.1481628
1443700739852834844	-2.3567963	5.0796814	2.5634003
1443700739861227178	-2.5514526	4.985489	2.650528
1443700739869619512	-2.7127533	4.941162	2.6659393
1443700739878011846	-2.5746613	5.192978	2.5874786
1443700739886404180	-2.4832153	6.1768646	2.7899933
1443700739894796514	-2.2481842	7.392288	3.1582336
1443700739903188848	-1.9519501	8.16983	3.2816162
1443700739911581182	-1.5245361	9.22879	3.503952
1443700739919973516	-0.5718689	10.927475	4.002304
1443700739928365850	0.40698242	12.10614	4.437088
1443700739936758184	0.9345703	12.778946	4.727539
1443700739945150518	1.6491241	14.152863	5.321884
1443700739953542852	2.6663208	15.567337	6.1167603
1443700739961935186	3.5353394	16.258926	6.3403015
1443700739970327520	3.745224	16.28334	5.889801
1443700739978719854	3.7837677	16.157394	5.305023
1443700739987112188	3.8362427	14.787827	4.505844
1443700739995504522	4.0472565	12.509537	3.999298
1443700740003896856	4.06662	10.479752	3.5941162
1443700740012289190	3.740158	9.621887	3.3961945
1443700740020681524	3.1095886	8.743515	3.2434082
1443700740029073858	1.5930481	8.117447	2.9462128
1443700740037466192	0.26515198	8.651459	1.7721405
1443700740045858526	-0.83148193	9.880707	0.62145996
1443700740054250860	-1.8467865	11.025818	0.011627197
1443700740062643194	-4.2911987	12.918228	-1.5949707
1443700740071035528	-7.9233856	14.945648	-3.7053375
1443700740079427862	-11.0182495	16.310883	-3.6254883
1443700740087820196	-11.08046	16.110397	-1.6891937
1443700740096212530	-10.443634	15.561615	0.5181427
1443700740104604864	-6.3172607	12.288406	5.7624817
1443700740112997198	-2.349472	8.222641	9.176804
1443700740121389532	-2.3158112	5.9921722	7.4279633
1443700740129781866	-2.771408	5.366287	5.4243164
1443700740138174200	-3.1991272	4.4356384	3.2041626
1443700740146566534	-3.4598541	2.9393005	0.69732666
1443700740154958868	-3.373169	2.1322937	-0.78448486
1443700740163351202	-3.02034	1.9361877	-1.6678162
1443700740171743536	-2.6334991	1.9259033	-2.708847
1443700740180135870	-2.460083	2.5381775	-4.015854
1443700740188528204	-2.7418518	4.397766	-5.258072
1443700740196920537	-2.4037018	6.925827	-5.588974
