gyroscope_timestamp	gyroscope_x_data	gyroscope_y_data	gyroscope_z_data
84656962189522	-0.22520447	-0.16415405	-0.049728394
84656968811837	-0.2484436	-0.10673523	-0.022842407
84656974213448	-0.24232483	-0.100616455	-8.8500977E-4
84656978913155	-0.19100952	-0.08717346	0.0040130615
84656982361641	-0.095718384	-0.063964844	-0.0082092285
84656989014473	0.014221191	-0.040756226	-0.01675415
84656993988838	0.09484863	-0.032211304	0.0015563965
84656999024239	0.1278534	-0.049316406	0.04310608
84657004090157	0.1278534	-0.07496643	0.0821991
84657009400215	0.124176025	-0.08961487	0.09686279
84657014130440	0.1278534	-0.08596802	0.0846405
84657019196358	0.13882446	-0.072525024	0.06265259
84657024475899	0.14738464	-0.060302734	0.041885376
84657029236641	0.15350342	-0.051757813	0.028442383
84657032624092	0.15962219	-0.044418335	0.019897461
84657039368477	0.17059326	-0.035873413	0.011352539
84657044342842	0.18159485	-0.027313232	0.0027923584
84657049439278	0.18647766	-0.024871826	-0.0057678223
84657054383126	0.1803894	-0.028549194	-0.014297485
84657060120430	0.16082764	-0.04319763	-0.01675415
84657064484444	0.1327362	-0.06640625	-0.013092041
84657069519844	0.098526	-0.10185242	-0.002090454
84657074890938	0.064315796	-0.14706421	0.016235352
84657079590645	0.038650513	-0.19958496	0.037002563
84657082978096	0.038650513	-0.25456238	0.037002563
84657089691963	0.026443481	-0.25456238	0.05899048
84657094696846	0.027664185	-0.3095398	0.07975769
84657099732247	0.038650513	-0.357193	0.09686279
84657104798165	0.055755615	-0.3914032	0.10908508
84657110260811	0.07775879	-0.40361023	0.11274719
84657114838448	0.10096741	-0.3914032	0.11152649
84657119843331	0.1278534	-0.35107422	0.105407715
84657125397530	0.15106201	-0.28877258	0.09564209
84657130005684	0.16694641	-0.2130127	0.07975769
84657133301583	0.17427063	-0.13362122	0.05899048
84657140015450	0.17303467	-0.057861328	0.0357666
84657145081368	0.1620636	0.013000488	0.010116577
84657150086251	0.14126587	0.07896423	-0.013092041
84657155121651	0.111968994	0.13638306	-0.031402588
84657160614815	0.08140564	0.17424011	-0.041168213
84657165253487	0.05819702	0.1852417	-0.04484558
84657170258370	0.047210693	0.1681366	-0.04360962
84657176117745	0.0496521	0.12294006	-0.0362854
84657180359688	0.067977905	0.059417725	-0.025283813
84657183686104	0.067977905	-0.015106201	-0.025283813
84657190369454	0.1437378	-0.015106201	0.01499939
84657195374337	0.18771362	-0.17391968	0.038223267
84657200440254	0.22557068	-0.24967957	0.057769775
84657205506172	0.25245667	-0.3144226	0.06997681
84657210785713	0.26345825	-0.3596344	0.07487488
84657215576973	0.25978088	-0.38160706	0.07121277
84657220581856	0.24145508	-0.37672424	0.06387329
84657225922432	0.20848083	-0.35107422	0.056549072
84657230652657	0.20848083	-0.3095398	0.056549072
84657234040108	0.164505	-0.3095398	0.050445557
84657240723458	0.1144104	-0.2582245	0.049209595
84657245728340	0.060638428	-0.20080566	0.049209595
84657250824776	0.010559082	-0.14215088	0.049209595
84657255829659	-0.032211304	-0.084732056	0.04676819
84657261658516	-0.067611694	-0.027313232	0.03944397
84657265900460	-0.09693909	0.026443481	0.026000977
84657270935860	-0.11526489	0.07406616	0.008911133
84657276276436	-0.12382507	0.11193848	-0.010650635
84657280976143	-0.116485596	0.13638306	-0.026519775
84657284394112	-0.092056274	0.14248657	-0.03262329
84657291046944	-0.048095703	0.12904358	-0.02407837
84657296112862	0.011779785	0.09484863	-0.0057678223
84657301148262	0.07775879	0.043533325	0.018676758
84657306183663	0.13882446	-0.019989014	0.041885376
84657311707344	0.18891907	-0.08352661	0.06265259
84657316254463	0.22436523	-0.13850403	0.0821991
84657321320381	0.24635315	-0.17880249	0.098083496
84657326783028	0.25733948	-0.20568848	0.10418701
84657331391182	0.25733948	-0.21791077	0.10296631
84657334717598	0.25733948	-0.21424866	0.10296631
84657341461983	0.22802734	-0.21424866	0.07487488
84657346466866	0.20115662	-0.16783142	0.054107666
84657351502266	0.16571045	-0.12994385	0.033325195
84657356568184	0.12541199	-0.08717346	0.017440796
84657362000313	0.07652283	-0.044418335	0.0040130615
84657366608467	0.022766113	-4.4250488E-4	-0.0082092285
84657371674385	-0.032211304	0.04597473	-0.021636963
84657376984444	-0.076171875	0.091171265	-0.037521362
84657381714669	-0.076171875	0.13392639	-0.037521362
84657385071602	-0.104263306	0.13392639	-0.054611206
84657391785469	-0.11404419	0.1681366	-0.066833496
84657396820870	-0.11038208	0.19256592	-0.07171631
84657401856270	-0.09449768	0.2035675	-0.06561279
84657406922188	-0.068847656	0.1999054	-0.053390503
84657412201729	-0.033416748	0.18157959	-0.037521362
84657416992989	0.014221191	0.1559143	-0.020401001
84657421997872	0.0667572	0.12782288	-8.8500977E-4
84657427307930	0.115615845	0.09729004	0.019897461
84657432068672	0.15106201	0.06185913	0.041885376
84657435456124	0.17059326	0.022766113	0.06387329
84657442139473	0.1803894	-0.011444092	0.0821991
84657447174874	0.18403625	-0.035873413	0.09686279
84657452240792	0.18771362	-0.049316406	0.10664368
84657457276192	0.1962738	-0.055419922	0.11152649
84657462708321	0.20968628	-0.060302734	0.11274719
84657467346993	0.22192383	-0.065200806	0.11274719
84657472351876	0.21336365	-0.07374573	0.11152649
84657477692452	0.16815186	-0.08229065	0.10418701
84657482422676	0.08508301	-0.08352661	0.089538574
84657485749092	0.08508301	-0.063964844	0.089538574
84657492523995	-0.1177063	-0.063964844	0.04310608
84657497528878	-0.19345093	0.05821228	0.022338867
84657502564278	-0.23864746	0.12904358	0.008911133
84657507569161	-0.25453186	0.1852417	0.0027923584
84657513001290	-0.24597168	0.22189331	3.5095215E-4
84657517853585	-0.22032166	0.24511719	0.0027923584
84657522950020	-0.184906	0.25364685	0.0064697266
84657528199044	-0.14459229	0.24632263	0.011352539
84657532807198	-0.14459229	0.22679138	0.011352539
84657536164131	-0.09938049	0.22679138	0.01499939
84657542847481	-0.048095703	0.1999054	0.017440796
84657547852364	0.010559082	0.17301941	0.021118164
84657552948799	0.07408142	0.14736938	0.024780273
84657557953682	0.13517761	0.12049866	0.028442383
84657563263741	0.18403625	0.08872986	0.03211975
84657567993965	0.21214294	0.052093506	0.037002563
84657573090401	0.21214294	0.011764526	0.04310608
84657578308907	0.18403625	-0.02609253	0.049209595
84657583161202	0.14006042	-0.05053711	0.051651
84657586487618	0.09364319	-0.055419922	0.04800415
84657593201485	0.05819702	-0.040756226	0.03944397
84657598236885	0.044769287	-0.012664795	0.027236938
84657603272286	0.05697632	0.020324707	0.01499939
84657608277169	0.09364319	0.05329895	0.0040130615
84657613556710	0.14126587	0.07652283	-0.003326416
84657618409004	0.19015503	0.091171265	-0.009414673
84657623413887	0.23046875	0.10093689	-0.009414673
84657628632393	0.25611877	0.10949707	0.0040130615
84657633484688	0.25978088	0.119262695	0.03211975
84657636872139	0.25978088	0.12538147	0.03211975
84657643555489	0.18283081	0.12538147	0.1151886
84657648590889	0.115615845	0.1375885	0.15306091
84657653626290	0.041107178	0.14981079	0.17871094
84657658692208	-0.045654297	0.15835571	0.19094849
84657664063301	-0.15557861	0.16081238	0.18971252
84657668732491	-0.15557861	0.1681366	0.18971252
84657673737374	-0.27529907	0.1681366	0.17626953
84657679108467	-0.3791504	0.19502258	0.15673828
84657683838692	-0.43901062	0.24021912	0.1347351
84657687195626	-0.4463501	0.28053284	0.11274719
84657693909493	-0.40603638	0.29273987	0.09075928
84657698944893	-0.3302765	0.27441406	0.0675354
84657703980294	-0.23620605	0.23776245	0.050445557
84657708985176	-0.1360321	0.19746399	0.040664673
84657714417305	-0.040740967	0.15835571	0.03944397
84657719086495	0.044769287	0.12294006	0.040664673
84657724152413	0.124176025	0.091171265	0.03944397
84657729492989	0.1962738	0.0655365	0.034561157
84657734192696	0.26345825	0.04232788	0.028442383
84657737549629	0.32087708	0.022766113	0.026000977
84657744294014	0.3636322	0.0044403076	0.024780273
84657749268379	0.38563538	-0.012664795	0.026000977
84657754303780	0.38807678	-0.02243042	0.024780273
84657759339180	0.368515	-0.023651123	0.018676758
84657764588204	0.32209778	-0.013885498	0.0052337646
84657769440499	0.24879456	0.010559082	-0.0069732666
84657774475899	0.15470886	0.044769287	-0.011856079
84657779694405	0.0496521	0.08872986	-0.011856079
84657784546700	-0.055419922	0.1375885	-0.0155181885
84657787903633	-0.055419922	0.18890381	-0.0155181885
84657794922676	-0.2325592	0.18890381	-0.054611206
84657799591866	-0.30218506	0.3135376	-0.08149719
84657804718819	-0.35472107	0.38560486	-0.1010437
84657809723702	-0.35472107	0.45280457	-0.1010437
84657815613594	-0.40847778	0.45280457	-0.098587036
84657819794503	-0.40847778	0.5383148	-0.098587036
84657824829903	-0.40847778	0.5383148	-0.079055786
84657830078926	-0.39015198	0.5554352	-0.054611206
84657834900704	-0.35472107	0.560318	-0.030166626
84657838227120	-0.30342102	0.5566406	-0.0069732666
84657844971504	-0.24232483	0.54563904	0.01499939
84657849976387	-0.17878723	0.52731323	0.034561157
84657855042305	-0.11526489	0.5053406	0.054107666
84657860077706	-0.059066772	0.4833374	0.073654175
84657865479317	-0.008987427	0.4625702	0.09320068
84657870117989	0.032546997	0.44424438	0.11274719
84657875183907	0.06187439	0.42713928	0.1298523
84657880524483	0.07531738	0.41125488	0.14694214
84657885254708	0.0667572	0.40026855	0.16282654
84657888672676	0.034988403	0.39537048	0.1775055
84657895325508	-0.017532349	0.40026855	0.18603516
84657900330391	-0.084732056	0.41859436	0.18847656
84657905396309	-0.15802002	0.4491272	0.1823883
84657910401192	-0.23010254	0.48701477	0.17138672
84657915863838	-0.29118347	0.5248718	0.15917969
84657920502510	-0.33761597	0.5578766	0.1457367
84657925568428	-0.36816406	0.5835266	0.1347351
84657930817452	-0.3828125	0.6006317	0.12861633
84657935608712	-0.3828125	0.60795593	0.12496948
84657938965645	-0.3828125	0.6042938	0.12496948
84657945679512	-0.3461609	0.6042938	0.121292114
84657950684395	-0.3461609	0.5517578	0.1164093
84657955780831	-0.3143921	0.506546	0.1164093
84657960755196	-0.27529907	0.506546	0.10908508
84657966034737	-0.23132324	0.45768738	0.10418701
84657970887032	-0.184906	0.40881348	0.10418701
84657975861397	-0.13969421	0.36239624	0.10664368
84657981140938	-0.095718384	0.31962585	0.110305786
84657985962715	-0.059066772	0.2866516	0.1151886
84657989380684	-0.030975342	0.26953125	0.122528076
84657996002999	-0.013885498	0.27320862	0.1347351
84658003235665	-0.01876831	0.3000946	0.1665039
84658006104317	-0.01876831	0.42347717	0.1665039
84658011139717	-0.039535522	0.42347717	0.18727112
84658016541329	-0.07249451	0.51634216	0.21292114
84658021210518	-0.11282349	0.6226196	0.24468994
84658026245919	-0.15802002	0.73991394	0.27767944
84658031464424	-0.20199585	0.8559723	0.30822754
84658036316719	-0.24353027	0.9634857	0.33143616
84658039948311	-0.27774048	1.0502319	0.34732056
84658046387520	-0.30586243	1.1088562	0.35586548
84658051422921	-0.32783508	1.1381836	0.35464478
84658056458321	-0.34739685	1.1369629	0.34854126
84658061463204	-0.36816406	1.1137543	0.33998108
84658066925850	-0.39137268	1.0783234	0.33021545
84658071564522	-0.4145813	1.0416718	0.31921387
84658076599922	-0.4341278	1.009903	0.30455017
84658082062569	-0.4512329	0.9842529	0.28501892
84658086670723	-0.47201538	0.9512634	0.25689697
84658090851631	-0.47201538	0.9036102	0.25689697
84658096772042	-0.5025482	0.9036102	0.20071411
84658101776924	-0.5379944	0.7545624	0.20071411
84658106812325	-0.56973267	0.7545624	0.19947815
84658111878243	-0.58561707	0.67637634	0.22880554
84658117554512	-0.58073425	0.612854	0.27523804
84658121918526	-0.5587616	0.55908203	0.32043457
84658126953926	-0.51719666	0.50289917	0.35098267
84658132294503	-0.45733643	0.43814087	0.36442566
84658137085762	-0.3779297	0.36972046	0.36808777
84658140625801	-0.28997803	0.30618286	0.36442566
84658147126046	-0.20323181	0.2524414	0.35464478
84658152130928	-0.12870789	0.2035675	0.33631897
84658157196846	-0.07128906	0.16569519	0.31188965
84658162293282	-0.033416748	0.14614868	0.28134155
84658167542305	-0.017532349	0.1534729	0.24957275
84658172333565	-0.023651123	0.19378662	0.22392273
84658177338448	-0.05053711	0.26464844	0.2141571
84658182984200	-0.08717346	0.35507202	0.21903992
84658187378731	-0.12503052	0.45280457	0.23492432
84658191101876	-0.15802002	0.54319763	0.25080872
84658197419014	-0.18000793	0.62384033	0.26179504
84658202484932	-0.19345093	0.68981934	0.26789856
84658207550850	-0.2007904	0.7484436	0.27157593
84658212586251	-0.20567322	0.8022156	0.27523804
84658218354073	-0.20933533	0.8486328	0.28012085
84658222626534	-0.21177673	0.8767395	0.27890015
84658227661934	-0.21177673	0.8779602	0.27033997
84658233124581	-0.20689392	0.8535156	0.25201416
84658237732735	-0.2007904	0.81077576	0.22392273
84658242035713	-0.2007904	0.752121	0.22392273
84658247803536	-0.19345093	0.752121	0.19094849
84658252838936	-0.18734741	0.67637634	0.15917969
84658257965889	-0.18367004	0.585968	0.1322937
84658262940254	-0.18122864	0.48213196	0.11152649
84658268708077	-0.17878723	0.37216187	0.09564209
84658272980538	-0.17634583	0.26220703	0.0834198
84658278046456	-0.17024231	0.1559143	0.07609558
84658283325997	-0.16046143	0.059417725	0.07243347
84658288086739	-0.14459229	-0.024871826	0.07121277
84658292237129	-0.12382507	-0.08596802	0.073654175
84658298157540	-0.10549927	-0.11038208	0.0834198
84658303192940	-0.1018219	-0.08717346	0.101745605
84658308258858	-0.11282349	-0.017547607	0.12861633
84658313263741	-0.12136841	0.08016968	0.16282654
84658318604317	-0.095718384	0.1669159	0.20071411
84658323395577	-0.024871826	0.21090698	0.23492432
84658328369942	0.0667572	0.22555542	0.26057434
84658333710518	0.1327362	0.2548828	0.27890015
84658338440743	0.14250183	0.32330322	0.29234314
84658342499581	0.10707092	0.41003418	0.30578613
84658348511544	0.055755615	0.49189758	0.32899475
84658353546944	0.0044403076	0.57984924	0.36930847
84658358551827	-0.044418335	0.71424866	0.4316101
84658363678780	-0.09082031	0.9072876	0.5146942
84658369019356	-0.1335907	1.1174164	0.6014404
84658373688546	-0.15679932	1.2799225	0.6686249
84658378723946	-0.14579773	1.3544312	0.69062805
84658384003487	-0.09326172	1.3495483	0.6527405
84658388794747	-0.09326172	1.3092194	0.6527405
84658392945137	-0.01020813	1.3092194	0.55378723
84658398865547	0.07775879	1.2676849	0.4096222
84658410004463	0.17059326	1.2224731	-0.074157715
84658413971749	0.17059326	0.9586029	-0.074157715
84658419007149	0.14126587	0.9586029	-0.20976257
84658424073067	0.09364319	0.8742981	-0.32217407
84658429077950	0.036209106	0.8095398	-0.4028015
84658434540596	-0.024871826	0.7667694	-0.4480133
84658439179268	-0.084732056	0.750885	-0.4590149
84658443848458	-0.14459229	0.77412415	-0.4455719
84658449250069	-0.20567322	0.8351898	-0.42236328
84658454254952	-0.2642975	0.92193604	-0.4028015
84658459290352	-0.31562805	1.0209045	-0.3844757
84658464325753	-0.35105896	1.114975	-0.3527069
84658469818917	-0.36938477	1.1907196	-0.29530334
84658474396553	-0.3644867	1.2310333	-0.22076416
84658479462471	-0.32174683	1.2347107	-0.15846252
84658484742012	-0.21788025	1.2029419	-0.13035583
84658489502754	-0.040740967	1.1357422	-0.13157654
84658493409004	0.19259644	1.0270233	-0.13157654
84658499573555	0.4430542	0.8926239	-0.11203003
84658504608956	0.65930176	0.7838898	-0.0839386
84658509644356	0.797348	0.7618866	-0.07293701
84658514679756	0.83399963	0.8584137	-0.08882141
84658520050850	0.771698	1.048996	-0.11936951
84658525635567	0.65197754	1.2701263	-0.12425232
84658529755440	0.65197754	1.469284	-0.0521698
84658534851876	0.55667114	1.469284	-0.0521698
84658539856758	0.5896454	1.6280975	0.14450073
84658543793526	0.80589294	1.753952	0.45726013
84658549927559	1.1883087	1.840683	0.8274536
84658554962960	1.6586609	1.8333435	1.1756592
84658559998360	2.1388092	1.6867371	1.4480896
84658565064278	2.5615082	1.4680481	1.6386871
84658570526924	2.8730621	1.3483276	1.7632904
84658575135079	3.044098	1.4375153	1.8439331
84658580139962	3.091751	1.6732941	1.8927917
84658585450020	3.0636597	1.9029846	1.9025574
84658590210762	2.9964447	2.0434875	1.8622589
84658595063057	2.8865051	2.1082458	1.7706299
84658600281563	2.7178955	2.1314545	1.6276855
84658605439034	2.4808807	2.1167908	1.4285583
84658610382881	2.179123	2.076477	1.1634216
84658615387764	1.8296967	2.0385895	0.8543396
84658620911446	1.4607391	2.036148	0.55622864
84658625489083	1.1150055	2.0825806	0.32655334
84658630524483	0.8254547	2.1607666	0.19215393
84658635895577	0.6030884	2.2328644	0.13961792
84658640564766	0.4271698	2.269516	0.13841248
84658645447579	0.27078247	2.2792816	0.16770935
84658650666085	0.1144104	2.2902832	0.2276001
84658655762520	-0.04685974	2.3391418	0.32899475
84658660736885	-0.20567322	2.44664	0.4768219
84658665741768	-0.3461609	2.6152496	0.6576233
84658671479073	-0.45613098	2.8034058	0.8421173
84658675873604	-0.45613098	2.9451141	1.0046082
84658680878487	-0.5379944	3.012329	1.0046082
84658686310616	-0.58807373	3.012329	1.3271332
84658690918770	-0.57341003	3.041626	1.3271332
84658695557442	-0.4524536	3.0843964	1.5470581
84658700989571	-0.22276306	3.1442566	1.7889557
84658706024971	0.055755615	3.1760254	2.010086
84658711090889	0.30743408	3.1418152	2.1799011
84658716126290	0.49435425	3.0538635	2.3057404
84658721436348	0.6214142	2.959793	2.3973846
84658726197090	0.7081604	2.897461	2.451126
84658731232491	0.7619171	2.8815918	2.456009
84658736939278	0.78756714	2.8999176	2.4010315
84658741272774	0.7924652	2.936554	2.2874146
84658746033516	0.78512573	2.9940033	2.132248
84658751374092	0.76802063	3.0758362	1.9587708
84658756409493	0.7423706	3.1699219	1.7950592
84658761414376	0.71183777	3.2542267	1.6667786
84658766510811	0.6812744	3.3079681	1.5995941
84658772370186	0.6421814	3.3238525	1.6105804
84658776551094	0.58110046	3.304306	1.6985474
84658781586495	0.48703003	3.2493439	1.8536987
84658787049141	0.3660736	3.1576996	2.0565033
84658791687813	0.24391174	3.0318604	2.2825317
84658796509590	0.14494324	2.8742523	2.5073242
84658801758614	0.07775879	2.6995392	2.6979065
84658806855049	0.039871216	2.5211792	2.8262024
84658811829415	0.0154418945	2.3513641	2.8836212
84658816803780	-0.017532349	2.2010956	2.8836212
84658822693672	-0.07373047	2.0874786	2.8408508
84658826905098	-0.07373047	2.023941	2.8408508
84658831909981	-0.15802002	2.023941	2.7553406
84658837281075	-0.26309204	2.0068207	2.6197205
84658841980782	-0.37304688	2.0166168	2.4340363
84658846802559	-0.47566223	2.0398254	2.2104492
84658852051583	-0.5636444	2.0715942	1.9758759
84658857117501	-0.6369324	2.11557	1.7510834
84658862122383	-0.69558716	2.164444	1.5543823
84658867188301	-0.74079895	2.2084198	1.397995
84658872498360	-0.77745056	2.2365112	1.2953796
84658877289620	-0.80674744	2.2389526	1.2550507
84658882263985	-0.8250885	2.2084198	1.2758331
84658888031807	-0.8275299	2.1326752	1.346695
84658892334786	-0.8018646	2.0129395	1.4419708
84658897217598	-0.739563	1.8590088	1.5409393
84658902405587	-0.63938904	1.6855164	1.6264496
84658907685128	-0.5111084	1.5059357	1.6936646
84658912506905	-0.36938477	1.3251038	1.7413025
84658917572823	-0.23376465	1.1504059	1.7694092
84658922974434	-0.116485596	0.9903717	1.7828369
84658927582588	-0.021209717	0.8547516	1.7840576
84658932617989	0.05697632	0.74967957	1.7803955
84658937928047	0.13150024	0.66537476	1.7803955
84658942688790	0.20968628	0.5945282	1.7901764
84658947602120	0.2939911	0.52975464	1.8060608
84658952790108	0.3843994	0.47113037	1.8207245
84658957978096	0.47846985	0.41859436	1.8194885
84658962830391	0.573761	0.36605835	1.7987213
84658967896309	0.573761	0.315979	1.7987213
84658973389473	0.7460327	0.315979	1.6704559
84658977906075	0.7460327	0.24021912	1.6704559
84658982971993	0.8095703	0.24021912	1.5519409
84658988404122	0.84866333	0.2182312	1.397995
84658993042794	0.85354614	0.2035675	1.219635
84658997986641	0.81933594	0.19746399	1.0363617
84659003144112	0.7460327	0.2011261	0.8628845
84659008332100	0.64097595	0.21211243	0.7101593
84659013184395	0.51390076	0.22923279	0.57821655
84659018219796	0.3770752	0.24876404	0.46461487
84659023712960	0.24024963	0.2683258	0.36808777
84659028290596	0.115615845	0.2842102	0.28866577
84659033356514	0.010559082	0.2952118	0.2300415
84659038666573	-0.068847656	0.29397583	0.1958313
84659043427315	-0.11526489	0.27320862	0.18971252
84659048401680	-0.12382507	0.22799683	0.21047974
84659053467598	-0.09082031	0.15959167	0.26057434
84659058716622	-0.019973755	0.07406616	0.3424225
84659063538399	0.083862305	-0.021209717	0.45237732
84659068634835	0.20968628	-0.12017822	0.57577515
84659073944893	0.34654236	-0.21791077	0.6967163
84659078705635	0.48336792	-0.3156433	0.8030243
84659083710518	0.6079712	-0.409729	0.88365173
84659089417305	0.70939636	-0.49523926	0.93252563
84659093781319	0.7826843	-0.56365967	0.9520569
84659097138253	0.7826843	-0.61009216	0.9520569
84659103852120	0.8437805	-0.61009216	0.9154053
84659108857003	0.8437805	-0.6320648	0.8751068
84659113922921	0.83277893	-0.6320648	0.8751068
84659118988838	0.7961273	-0.6161804	0.829895
84659124451485	0.7338104	-0.588089	0.7871399
84659128998604	0.65197754	-0.54411316	0.7468109
84659134034004	0.55422974	-0.48423767	0.71383667
84659139313546	0.44670105	-0.41337585	0.6869507
84659144104805	0.33674622	-0.3461914	0.66741943
84659147461739	0.22802734	-0.291214	0.65397644
84659154206124	0.12049866	-0.25334167	0.64297485
84659159272042	0.019104004	-0.22769165	0.6307678
84659164276924	-0.068847656	-0.20568848	0.61242676
84659169281807	-0.13847351	-0.18859863	0.58677673
84659175141182	-0.18612671	-0.17759705	0.56111145
84659179352608	-0.21055603	-0.17880249	0.5428009
84659184418526	-0.21177673	-0.19592285	0.53790283
84659190125313	-0.19345093	-0.22525024	0.5501251
84659194458809	-0.16290283	-0.2594452	0.57577515
84659197815743	-0.12382507	-0.28755188	0.61364746
84659204560128	-0.07861328	-0.30342102	0.66374207
84659209565010	-0.032211304	-0.30465698	0.72727966
84659214600411	0.014221191	-0.2973175	0.8018036
84659219635811	0.05697632	-0.2948761	0.8799896
84659224976387	0.096084595	-0.30221558	0.95573425
84659229767647	0.12905884	-0.316864	1.022934
84659234742012	0.15470886	-0.3278656	1.07547
84659240296212	0.17547607	-0.3278656	1.1072388
84659244843331	0.19259644	-0.3156433	1.1096802
84659248230782	0.19259644	-0.2936554	1.1096802
84659254883614	0.20724487	-0.2936554	1.0290375
84659259949532	0.21704102	-0.264328	1.0290375
84659264984932	0.21948242	-0.22769165	0.96673584
84659270050850	0.21092224	-0.18859863	0.90808105
84659275696602	0.19136047	-0.15438843	0.85798645
84659280060616	0.15838623	-0.12750244	0.8152313
84659285096016	0.111968994	-0.11161804	0.7724762
84659290375557	0.055755615	-0.10429382	0.7284851
84659295166817	-0.0053253174	-0.10185242	0.68574524
84659298584786	-0.063964844	-0.096969604	0.6490936
84659305237618	-0.11526489	-0.084732056	0.62709045
84659310303536	-0.15679932	-0.068847656	0.6209717
84659315338936	-0.1824646	-0.056640625	0.62342834
84659320343819	-0.19345093	-0.051757813	0.62342834
84659325867501	-0.18612671	-0.051757813	0.61242676
84659330414620	-0.15679932	-0.052978516	0.58677673
84659335450020	-0.1018219	-0.04319763	0.5476837
84659340973702	-0.01876831	-0.012664795	0.4975891
84659345581856	0.087524414	0.043533325	0.43772888
84659348847237	0.087524414	0.115615845	0.37174988
84659355683174	0.35386658	0.184021	0.30822754
84659360657540	0.50413513	0.23532104	0.26057434
84659365692940	0.6483002	0.25852966	0.2434845
84659370728340	0.7667999	0.24876404	0.26179504
84659376648751	0.84010315	0.19502258	0.31677246
84659380799141	0.86331177	0.09729004	0.40351868
84659385804024	0.8388977	-0.0309906	0.5110321
84659391358223	0.7826843	-0.16047668	0.62464905
84659395905342	0.7032776	-0.26556396	0.72727966
84659399231758	0.7032776	-0.3413086	0.72727966
84659405976143	0.6152954	-0.3413086	0.8054657
84659410981026	0.52368164	-0.3938446	0.8482208
84659416046944	0.43449402	-0.43049622	0.856781
84659421051827	0.34898376	-0.44514465	0.829895
84659426392403	0.26589966	-0.43782043	0.7712555
84659431183663	0.17915344	-0.41337585	0.6820679
84659436158028	0.08630371	-0.37916565	0.57089233
84659441925850	-0.012649536	-0.33398438	0.4474945
84659446228829	-0.11404419	-0.2741089	0.32533264
84659449616280	-0.21299744	-0.20080566	0.20927429
84659456299629	-0.30218506	-0.12017822	0.10296631
84659461335030	-0.3779297	-0.040756226	0.013793945
84659466400948	-0.43901062	0.031326294	-0.058288574
84659471497383	-0.48054504	0.0899353	-0.11203003
84659476898995	-0.50131226	0.13392639	-0.14990234
84659481507149	-0.49642944	0.16081238	-0.17799377
84659486542549	-0.4634552	0.1669159	-0.19387817
84659492279854	-0.40359497	0.1534729	-0.20487976
84659496582833	-0.32174683	0.1217041	-0.21464539
84659499939766	-0.32174683	0.075286865	-0.21464539
84659506684151	-0.10305786	0.075286865	-0.22076416
84659511719551	0.026443481	-0.048080444	-0.20243835
84659516724434	0.164505	-0.11529541	-0.15846252
84659521790352	0.30743408	-0.17880249	-0.0851593
84659529053536	0.45037842	-0.23989868	0.018676758
84659532227364	0.58843994	-0.2973175	0.13961792
84659536896553	0.71183777	-0.35107422	0.26545715
84659542298165	0.8156738	-0.39872742	0.38275146
84659546967354	0.8156738	-0.43782043	0.38275146
84659550293770	0.8914337	-0.43782043	0.48414612
84659557038155	0.9341736	-0.46835327	0.56111145
84659562043038	0.94029236	-0.48791504	0.61608887
84659567078438	0.9097595	-0.48669434	0.6551819
84659572113838	0.84866333	-0.45980835	0.6869507
84659577637520	0.7667999	-0.41461182	0.71751404
84659582520333	0.6812744	-0.36572266	0.7504883
84659587250557	0.6055298	-0.3290863	0.7785797
84659592560616	0.5493469	-0.3083191	0.8018036
84659597290840	0.5175781	-0.2948761	0.8225708
84659600678292	0.51268005	-0.2789917	0.8494415
84659607392159	0.5334625	-0.25700378	0.88243103
84659612397042	0.57987976	-0.23135376	0.91908264
84659617432442	0.6507416	-0.21057129	0.9545288
84659622773018	0.7387085	-0.20202637	0.9789429
84659628174629	0.83399963	-0.20324707	0.98506165
84659632874337	0.92196655	-0.21057129	0.96061707
84659637604561	0.99038696	-0.21669006	0.895874
84659643433419	1.02948	-0.21791077	0.7810211
84659647644844	1.0319214	-0.21669006	0.6173248
84659651032296	1.0319214	-0.20692444	0.6173248
84659657715645	0.93540955	-0.20692444	0.18482971
84659662751046	0.84498596	-0.13238525	-0.0521698
84659667786446	0.7374878	-0.07130432	-0.2830658
84659673188057	0.62020874	-0.01020813	-0.4932251
84659678315010	0.50657654	0.04597473	-0.6703491
84659683106270	0.40516663	0.09484863	-0.798645
84659687958565	0.40516663	0.13392639	-0.86828613
84659694031563	0.28056335	0.1522522	-0.87072754
84659698029366	0.28056335	0.14126587	-0.87072754
84659701325264	0.26223755	0.14126587	-0.8059845
84659708100167	0.26956177	0.09729004	-0.6886749
84659713135567	0.30499268	0.026443481	-0.53964233
84659718140450	0.3636322	-0.063964844	-0.3783722
84659723297921	0.44181824	-0.16415405	-0.22564697
84659728699532	0.52612305	-0.26678467	-0.09370422
84659733521309	0.60920715	-0.36819458	0.012557983
84659738282051	0.6861725	-0.46591187	0.09197998
84659744507637	0.7545929	-0.5514374	0.14938354
84659748383370	0.8095703	-0.613739	0.1775055
84659751740303	0.8462219	-0.6491852	0.13595581
84659758454171	0.8523102	-0.666275	-0.01675415
84659763489571	0.8156738	-0.67115784	-0.25865173
84659768494454	0.7264862	-0.6467438	-0.4907837
84659773621407	0.58843994	-0.56243896	-0.61294556
84659778870430	0.41860962	-0.40849304	-0.61538696
84659784119454	0.23657227	-0.20812988	-0.55552673
84659788666573	0.07041931	0.008117676	-0.48466492
84659794861641	-0.059066772	0.20967102	-0.42112732
84659798706856	-0.13725281	0.36361694	-0.37226868
84659802063790	-0.13725281	0.44180298	-0.37226868
84659808808174	-0.12258911	0.44180298	-0.3490448
84659813965645	-0.021209717	0.40637207	-0.30262756
84659818878975	0.14982605	0.30374146	-0.17678833
84659824738350	0.38075256	0.11682129	0.0052337646
84659829254952	0.6372986	-0.12750244	0.18115234
84659834137764	0.86698914	-0.3290863	0.31311035
84659838990059	0.86698914	-0.4024048	0.31311035
84659844879952	1.1076508	-0.4024048	0.4426117
84659849091378	1.1076508	-0.2582245	0.4426117
84659852448311	1.1247711	-0.2582245	0.42549133
84659859162178	1.1137695	-0.21913147	0.32533264
84659864411202	1.1015625	-0.26556396	0.14085388
84659869202462	1.0783539	-0.37672424	-0.090042114
84659874482003	1.0209198	-0.49768066	-0.31362915
84659879731026	0.9024048	-0.5856476	-0.48098755
84659885071602	0.7252655	-0.6296234	-0.57141113
84659889344063	0.52124023	-0.6357422	-0.59339905
84659894654122	0.33674622	-0.61009216	-0.57141113
84659899445381	0.21092224	-0.54655457	-0.53352356
84659902802315	0.16082764	-0.44758606	-0.49687195
84659909516182	0.17915344	-0.3254242	-0.4748993
84659914765206	0.24513245	-0.20202637	-0.46998596
84659919586983	0.329422	-0.09451294	-0.47854614
84659924897042	0.40516663	0.0019989014	-0.48954773
84659930146065	0.4589386	0.10093689	-0.48954773
84659935608712	0.48458862	0.2182312	-0.4663391
84659939698067	0.48580933	0.34773254	-0.41256714
84659945404854	0.4772644	0.47113037	-0.330719
84659949799385	0.47846985	0.54563904	-0.24153137
84659953186837	0.47846985	0.5236664	-0.24153137
84659959870186	0.54444885	0.5236664	-0.14501953
84659965180245	0.52978516	0.13026428	-0.13645935
84659969910469	0.4064026	-0.13482666	-0.14746094
84659975861397	0.18527222	-0.3132019	-0.19267273
84659980255928	-0.060302734	-0.32418823	-0.30262756
84659985993233	-0.250885	-0.16171265	-0.4932251
84659990082588	-0.250885	0.10461426	-0.4932251
84659995697823	-0.35594177	0.10461426	-0.9684601
84660000122872	-0.37548828	0.37216187	-0.9684601
84660003540840	-0.31684875	0.5786438	-1.1040802
84660010224190	-0.18978882	0.71546936	-1.108963
84660016114083	-0.021209717	0.803421	-1.0258789
84660020325508	0.14738464	0.8547516	-0.9366913
84660026337471	0.27566528	0.8852844	-0.88905334
84660031250801	0.33674622	0.9023895	-0.87194824
84660036286202	0.3257599	0.8852844	-0.83773804
84660040436592	0.26467896	0.7887726	-0.7485657
84660046143379	0.19503784	0.5896454	-0.59950256
84660050507393	0.15715027	0.31230164	-0.41500854
84660053803292	0.16815186	0.016662598	-0.23420715
84660060578194	0.21704102	-0.24111938	-0.090042114
84660066040840	0.276886	-0.43293762	0.0027923584
84660070648995	0.31477356	-0.561203	0.051651
84660076477852	0.3098755	-0.6479492	0.06877136
84660081543770	0.26467896	-0.71881104	0.06877136
84660087006417	0.19992065	-0.78601074	0.051651
84660090790596	0.14006042	-0.84710693	0.011352539
84660096680489	0.09484863	-0.9057312	-0.06072998
84660100861397	0.059432983	-0.9704895	-0.16212463
84660104187813	0.059432983	-1.0462341	-0.16212463
84660110962715	-0.027313232	-1.0462341	-0.396698
84660116761055	-0.08229065	-1.1903992	-0.4932251
84660120972481	-0.08229065	-1.2307281	-0.54086304
84660126770821	-0.16290283	-1.2270508	-0.50419617
84660131378975	-0.16290283	-1.1769562	-0.37226868
84660137543526	-0.063964844	-1.1769562	-0.17434692
84660141114083	-0.063964844	-0.9680481	-0.17434692
84660147095528	0.07775879	-0.9680481	0.1799469
84660151215401	0.24879456	-0.7090454	0.1799469
84660154541817	0.40396118	-0.7090454	0.26789856
84660161255684	0.48947144	-0.6088562	0.28501892
84660167084542	0.4772644	-0.54777527	0.23492432
84660171357003	0.3795166	-0.51234436	0.1298523
84660177826729	0.25367737	-0.47325134	-0.014297485
84660181641426	0.17059326	-0.42193604	-0.18778992
84660187928047	0.164505	-0.37916565	-0.3685913
84660191498604	0.22436523	-0.36695862	-0.52008057
84660197052803	0.3110962	-0.3889618	-0.6080475
84660201538887	0.38075256	-0.43049622	-0.63249207
84660204895821	0.40272522	-0.48423767	-0.61050415
84660211609688	0.3636322	-0.5502167	-0.55918884
84660217469063	0.26956177	-0.6333008	-0.4956665
84660221680489	0.1327362	-0.7237091	-0.4455719
84660228241768	-0.029769897	-0.80189514	-0.4321289
84660232178536	-0.20443726	-0.8483124	-0.4565735
84660238190499	-0.38404846	-0.84954834	-0.49687195
84660241822090	-0.57341003	-0.82266235	-0.5323181
84660247498360	-0.77500916	-0.8104553	-0.54818726
84660251892891	-0.9887848	-0.8507538	-0.53108215
84660255249825	-0.9887848	-0.93629456	-0.53108215
84660261994210	-1.3821869	-0.93629456	-0.39179993
84660267670479	-1.5068207	-1.0682373	-0.2989502
84660272065010	-1.5068207	-1.0645599	-0.2989502
84660277985421	-1.5251465	-1.0645599	-0.17678833
84660282593575	-1.5251465	-0.9814911	-0.17678833
84660288727608	-1.3553162	-0.9814911	-0.14746094
84660292176094	-1.3553162	-0.9167328	-0.14746094
84660298279610	-1.2636871	-0.9167328	-0.13891602
84660302246895	-1.1793823	-0.90208435	-0.12791443
84660305603829	-1.0975342	-0.89108276	-0.11936951
84660312348213	-1.0205536	-0.87887573	-0.1181488
84660318665352	-0.95336914	-0.8666382	-0.1181488
84660322388497	-0.90571594	-0.8617554	-0.10348511
84660329041329	-0.8788452	-0.86787415	-0.05949402
84660332672921	-0.86906433	-0.88619995	0.018676758
84660339173165	-0.87028503	-0.91308594	0.12373352
84660342560616	-0.8825073	-0.9472809	0.25445557
84660348725167	-0.90937805	-0.9912567	0.40596008
84660352631417	-0.9460449	-1.0474701	0.5660095
84660355957833	-0.9802551	-1.117096	0.7150421
84660362671700	-0.99490356	-1.1855164	0.83721924
84660369232979	-0.9729004	-1.2331696	0.9203186
84660372742501	-0.90449524	-1.235611	0.96061707
84660377777901	-0.79086304	-1.1916351	0.9520569
84660383118477	-0.66015625	-1.1403046	0.89707947
84660389283028	-0.5453186	-1.129303	0.8091278
84660392884102	-0.4585724	-1.1684265	0.6979523
84660397950020	-0.38160706	-1.2136078	0.5672302
84660402985421	-0.2850952	-1.2124023	0.4181671
84660406281319	-0.2850952	-1.1574249	0.4181671
84660413056221	-0.15924072	-1.1574249	0.1151886
84660419525948	0.115615845	-1.0890045	-0.019195557
84660423148425	0.115615845	-1.0242462	-0.019195557
84660429587634	0.35995483	-1.0242462	-0.28674316
84660433615954	0.35995483	-0.990036	-0.28674316
84660438254626	0.45281982	-0.990036	-0.42845154
84660443259509	0.49925232	-0.9448395	-0.57507324
84660448752673	0.47236633	-0.9032898	-0.72288513
84660453330310	0.36730957	-0.9057312	-0.864624
84660456687243	0.20359802	-0.9753876	-0.9965515
84660463431628	0.021560669	-1.0926514	-1.1162872
84660469596179	-0.14579773	-1.2111664	-1.2250366
84660473471911	-0.27774048	-1.2979126	-1.3105469
84660479941638	-0.38160706	-1.3577881	-1.3594208
84660483786853	-0.47201538	-1.4090881	-1.3679657
84660488578113	-0.5538635	-1.4726257	-1.3252106
84660493644031	-0.58807373	-1.5740356	-1.1761475
84660499137195	-0.5135498	-1.7585144	-0.8291931
84660503714831	-0.30342102	-2.0236206	-0.25253296
84660507071765	-0.30342102	-2.2752838	0.45361328
84660513785632	0.24757385	-2.3815918	1.1072388
84660520316394	0.39907837	-2.3034058	1.5763702
84660523825915	0.3978424	-2.144577	1.8353729
84660528861316	0.24024963	-2.0407104	1.9184418
84660534262927	-0.048095703	-2.0236206	1.8512573
84660538962634	-0.4109192	-2.0309448	1.6325684
84660543998034	-0.77989197	-2.012619	1.2648315
84660549338611	-1.1036377	-1.9771881	0.7810211
84660554038318	-1.1036377	-1.9649811	0.24957275
84660557425769	-1.3687592	-1.9979706	0.24957275
84660564109118	-1.5752258	-1.9979706	-0.25985718
84660570853503	-1.8159027	-2.0602722	-1.0258789
84660574179919	-1.8159027	-2.1335754	-1.0258789
84660579245837	-1.8488922	-2.1335754	-1.2433624
84660584708484	-1.8244629	-2.0724792	-1.3569794
84660589286120	-1.7389221	-1.9161072	-1.3887482
84660594321521	-1.5837708	-1.676651	-1.3691864
84660599662097	-1.3614197	-1.3993225	-1.319107
84660604422839	-1.09021	-1.1390991	-1.2458038
84660607779773	-0.81166077	-0.9350586	-1.1541748
84660614493640	-0.5685272	-0.78967285	-1.0503235
84660619559558	-0.3950348	-0.680954	-0.9501343
84660624564441	-0.30462646	-0.588089	-0.86582947
84660629599841	-0.29241943	-0.5172272	-0.8059845
84660635062488	-0.3461609	-0.48547363	-0.7619934
84660639670642	-0.4524536	-0.51112366	-0.72288513
84660644706042	-0.59417725	-0.5929718	-0.6728058
84660650199206	-0.7578888	-0.7102661	-0.6043854
84660654776843	-0.9277191	-0.83854675	-0.5188751
84660658103259	-0.9277191	-0.9497223	-0.5188751
84660664847644	-1.2514801	-0.9497223	-0.34172058
84660669852527	-1.4066315	-1.0731201	-0.27209473
84660674887927	-1.5569	-1.1256561	-0.21588135
84660679984363	-1.6900635	-1.1891937	-0.17190552
84660685263904	-1.7975769	-1.2319336	-0.14257813
84660690024646	-1.8794403	-1.222168	-0.13035583
84660695060046	-1.9515228	-1.1671906	-0.13279724
84660700553210	-2.0260315	-1.1109772	-0.14746094
84660705130847	-2.0260315	-1.0877686	-0.14746094
84660708487781	-2.116455	-1.0877686	-0.17434692
84660715201648	-2.230072	-1.103653	-0.21464539
84660720206531	-2.3656769	-1.1439819	-0.26963806
84660725241931	-2.4976196	-1.1757507	-0.34049988
84660730277331	-2.5746002	-1.1085358	-0.43089294
84660735648425	-2.5428314	-0.80799866	-0.53964233
84660740378650	-2.3864594	-0.21791077	-0.6569214
84660745383532	-2.1298828	0.5407562	-0.7644501
84660750754626	-1.8207855	1.2078247	-0.83773804
84660755454333	-1.5055847	1.5462341	-0.85362244
84660758841784	-1.2148132	1.4729309	-0.7974243
84660765555652	-0.9643707	1.0587769	-0.6630249
84660770621570	-0.7554474	0.44302368	-0.46022034
84660775626452	-0.58561707	-0.21546936	-0.21099854
84660780631335	-0.45733643	-0.78601074	0.049209595
84660786185534	-0.38526917	-1.195282	0.28746033
84660790732654	-0.37182617	-1.4371948	0.4768219
84660795768054	-0.4121399	-1.5605927	0.60020447
84660801657947	-0.49154663	-1.6167755	0.65153503
84660805838855	-0.58561707	-1.6290131	0.6344147
84660809165271	-0.58561707	-1.58992	0.6344147
84660815940173	-0.7444458	-1.58992	0.4902649
84660820945056	-0.7835388	-1.3455505	0.4242859
84660825980456	-0.7945404	-1.1769562	0.39007568
84660830985339	-0.7847748	-1.0022583	0.3790741
84660836509021	-0.75912476	-0.82266235	0.37419128
84660841086657	-0.72612	-0.6308594	0.35464478
84660846091540	-0.72612	-0.43170166	0.30332947
84660851981433	-0.69070435	-0.43170166	0.20559692
84660856192859	-0.69070435	-0.037094116	0.20559692
84660859549792	-0.69314575	-0.037094116	0.04676819
84660866263659	-0.687027	0.12414551	-0.17799377
84660871268542	-0.65771484	0.23043823	-0.43823242
84660876303943	-0.61128235	0.28053284	-0.6789093
84660881369861	-0.56729126	0.29153442	-0.84017944
84660886710437	-0.5379944	0.27197266	-0.9000397
84660891440661	-0.52575684	0.21211243	-0.87438965
84660896476062	-0.51475525	0.11437988	-0.798645
84660901847156	-0.48544312	0.0032196045	-0.7131195
84660906546863	-0.42314148	-0.088409424	-0.6605835
84660909903796	-0.32174683	-0.14706421	-0.6581421
84660916617663	-0.19100952	-0.17880249	-0.69358826
84660921622546	-0.045654297	-0.19224548	-0.72532654
84660926688464	0.09729004	-0.19104004	-0.7167969
84660931693347	0.22312927	-0.18615723	-0.6557007
84660937064441	0.32331848	-0.20812988	-0.55552673
84660941794665	0.3905182	-0.28755188	-0.43945313
84660946799548	0.42837524	-0.43049622	-0.32705688
84660952567370	0.44670105	-0.61253357	-0.22932434
84660956900866	0.45281982	-0.79333496	-0.14135742
84660960257800	0.45281982	-0.9399414	-0.14135742
84660967002185	0.43572998	-0.9399414	0.0846405
84660972068103	0.39663696	-1.0841217	0.2276001
84660977042468	0.3269806	-1.1183319	0.35220337
84660982077868	0.22680664	-1.1720734	0.4267273
84660987937243	0.111968994	-1.2661438	0.4242859
84660992148669	0.111968994	-1.400528	0.4242859
84660997153552	7.9345703E-4	-1.400528	0.33753967
84661002677234	-0.092056274	-1.5495911	-0.03262329
84661007254870	-0.17146301	-1.7609558	-0.03262329
84661010611804	-0.23864746	-1.7609558	-0.23420715
84661017325671	-0.2850952	-1.8012543	-0.37471008
84661022330554	-0.3009796	-1.8244629	-0.4186859
84661027426990	-0.28018188	-1.8440247	-0.3649292
84661032431872	-0.23010254	-1.8537903	-0.251297
84661038321765	-0.15924072	-1.8452606	-0.14501953
84661042502673	-0.0700531	-1.8269348	-0.10348511
84661047538074	0.036209106	-1.8171387	-0.14013672
84661053458484	0.15715027	-1.8415833	-0.22200012
84661057608874	0.29154968	-1.9063263	-0.29774475
84661060965808	0.4381714	-1.999176	-0.33805847
84661067679675	0.58843994	-2.0969238	-0.33927917
84661072684558	0.7301636	-2.1751099	-0.3123932
84661077780993	0.8547821	-2.2203217	-0.27330017
84661082755359	0.9549408	-2.231308	-0.22688293
84661088553699	1.0270233	-2.2178802	-0.18167114
84661092887195	1.0746765	-2.1848907	-0.1352539
84661097922595	1.1040039	-2.1360168	-0.08149719
84661103690417	1.1259766	-2.0749207	-0.002090454
84661107932361	1.1504211	-2.0077362	0.12007141
84661111319812	1.1504211	-1.9454346	0.12007141
84661118033679	1.1895142	-1.9454346	0.46705627
84661123038562	1.1809845	-1.873352	0.61608887
84661128104480	1.1467743	-1.8855591	0.7077179
84661133109363	1.1467743	-1.9332123	0.73828125
84661138633044	1.0380249	-2.0016327	0.7236023
84661143210681	1.0380249	-2.0590363	0.7236023
84661148215564	0.9806061	-2.0590363	0.6820679
84661154013904	0.85842896	-2.0834808	0.5831146
84661158316882	0.85842896	-2.0456085	0.5831146
84661161612781	0.7936859	-2.0456085	0.55867004
84661168387683	0.7277069	-2.0297241	0.5672302
84661173392566	0.66174316	-2.0346222	0.60998535
84661178458484	0.59942627	-2.0480652	0.68330383
84661183493884	0.54689026	-2.0480652	0.77737427
84661188956531	0.50901794	-2.0211792	0.8775482
84661193564685	0.48947144	-1.9686432	0.9728546
84661198569568	0.48947144	-1.9014435	1.0571442
84661204459460	0.50657654	-1.8220215	1.1255646
84661208640368	0.53712463	-1.7255249	1.1817474
84661211997302	0.57743835	-1.6118927	1.2220764
84661218741687	0.6214142	-1.4909515	1.2465057
84661223746570	0.6605072	-1.3736725	1.2501678
84661228781970	0.6849518	-1.2661438	1.2306366
84661233847888	0.6849518	-1.1745148	1.1903076
84661239157947	0.65441895	-1.0950928	1.1304474
84661243888171	0.5920868	-1.0266876	1.048584
84661248954089	0.49803162	-0.964386	0.9471741
84661254447253	0.37219238	-0.90452576	0.8311157
84661259024890	0.21704102	-0.84710693	0.7101593
84661262381824	0.21704102	-0.79577637	0.7101593
84661269065173	-0.1519165	-0.79577637	0.5207977
84661274100574	-0.34495544	-0.7383728	0.48658752
84661279166491	-0.34495544	-0.75424194	0.5012665
84661284201892	-0.53063965	-0.75424194	0.5012665
84661289511950	-0.69802856	-0.80189514	0.55500793
84661294242175	-0.8348694	-0.8690796	0.62586975
84661299308093	-0.93748474	-0.93385315	0.6918335
84661304648669	-1.0034637	-0.976593	0.7394867
84661309348376	-1.0315552	-0.990036	0.7651367
84661312735827	-1.0205536	-0.9814911	0.7798157
84661319449695	-0.970459	-0.964386	0.7981415
84661324485095	-0.88616943	-0.9485016	0.8262329
84661329520495	-0.77745056	-0.9313965	0.8628845
84661334525378	-0.65649414	-0.9081726	0.8983154
84661340049060	-0.5318756	-0.87519836	0.9252014
84661344626697	-0.415802	-0.8348694	0.93740845
84661349631579	-0.31806946	-0.78479004	0.936203
84661355124743	-0.24597168	-0.7224884	0.92396545
84661359702380	-0.20567322	-0.65283203	0.9019928
84661363059314	-0.2007904	-0.5844269	0.8726654
84661369803699	-0.22888184	-0.52090454	0.8421173
84661374869616	-0.28385925	-0.45492554	0.8189087
84661379874499	-0.35838318	-0.3755188	0.8005829
84661384909900	-0.4439087	-0.27288818	0.7688141
84661390372546	-0.5391998	-0.14950562	0.70407104
84661394950183	-0.6381531	-0.028549194	0.60754395
84661400016101	-0.72979736	0.052093506	0.5085907
84661405509265	-0.8006592	0.071624756	0.43893433
84661410056384	-0.83851624	0.04109192	0.4096222
84661413443835	-0.83851624	7.7819824E-4	0.4096222
84661420188220	-0.80430603	7.7819824E-4	0.41452026
84661425162585	-0.80430603	0.00932312	0.41452026
84661430228503	-0.7468872	0.00932312	0.4132843
84661435263904	-0.67481995	0.06185913	0.3998413
84661440604480	-0.59661865	0.13148499	0.38031006
84661445334704	-0.5184326	0.21334839	0.36198425
84661450370105	-0.4475708	0.30374146	0.35098267
84661455710681	-0.39137268	0.40270996	0.35098267
84661460410388	-0.35105896	0.507782	0.35830688
84661463828357	-0.32539368	0.6213989	0.36808777
84661470511706	-0.31195068	0.73747253	0.3766327
84661475486072	-0.30830383	0.8486328	0.38519287
84661480582507	-0.31074524	0.9476013	0.3949585
84661485587390	-0.3143921	1.0270233	0.4096222
84661490927966	-0.31195068	1.088089	0.4267273
84661495688708	-0.29606628	1.1394043	0.4474945
84661500693591	-0.25820923	1.1907196	0.46826172
84661506430896	-0.19467163	1.2469177	0.48414612
84661510764392	-0.1018219	1.3116608	0.49391174
84661514182361	0.013000488	1.3837585	0.4927063
84661520865710	0.14250183	1.4607239	0.48049927
84661526358874	0.28178406	1.5389099	0.4560547
84661530936511	0.42593384	1.6146545	0.42304993
84661535971911	0.56643677	1.687973	0.38519287
84661541495593	0.69595337	1.7588348	0.35342407
84661546073230	0.8071289	1.8296814	0.33265686
84661551108630	0.8938751	1.9029846	0.32655334
84661556906970	0.9476166	1.9726105	0.33265686
84661561148913	0.9683838	2.0251465	0.34854126
84661564475329	0.9683838	2.0483856	0.34854126
84661571219714	0.9622803	2.0483856	0.37297058
84661576224597	0.94273376	2.036148	0.4084015
84661581290515	0.9256439	1.9934082	0.45481873
84661586325915	0.9207306	1.931076	0.50735474
84661592063220	0.93540955	1.866333	0.56111145
84661596396716	0.96961975	1.8138123	0.6209717
84661601432116	1.0196991	1.7820435	0.70895386
84661607291491	1.0771179	1.7637177	0.8408966
84661611502917	1.1345367	1.7417145	1.0033875
84661614829333	1.1907501	1.7087402	1.1560974
84661621543200	1.2432861	1.6647491	1.2611694
84661626578601	1.2933655	1.608551	1.311264
84661631675036	1.3471375	1.5340271	1.3234711
84661636649402	1.4155426	1.4448395	1.3100433
84661642447741	1.509613	1.3495483	1.2880402
84661646720202	1.6354523	1.2615662	1.270935
84661651755603	1.7869415	1.1919403	1.272171
84661657065661	1.9543304	1.1491852	1.2868195
84661661826404	2.1082458	1.1308594	1.306366
84661665213855	2.1082458	1.1296387	1.3173676
84661671927722	2.2499847	1.1296387	1.3222504
84661676902087	2.2133331	1.1467438	1.3210297
84661682029040	2.1241302	1.1479645	1.3185883
84661687033923	2.0019684	1.1345215	1.3100433
84661692984851	1.8565826	1.1003113	1.2929382
84661697135241	1.6953125	1.0465546	1.272171
84661702109607	1.5303802	0.9769287	1.2514038
84661708060534	1.3862305	0.88772583	1.2367249
84661712210925	1.3862305	0.7704468	1.2269592
84661715567859	1.2860413	0.62506104	1.2269592
84661722251208	1.248169	0.62506104	1.2147522
84661727347644	1.2897034	0.47477722	1.192749
84661732352527	1.4253235	0.34651184	1.1622162
84661737357409	1.6696625	0.2475586	1.1304474
84661742881091	2.016632	0.1717987	1.1047821
84661747489245	2.4332428	0.11805725	1.088913
84661752494128	2.8547363	0.09484863	1.0766907
84661758384021	3.2126923	0.11437988	1.0656891
84661762564929	3.4521637	0.17424011	1.0534668
84661765891345	3.5511017	0.26464844	1.0400391
84661772635730	3.5193634	0.35995483	1.0204773
84661777640613	3.3837433	0.4295807	1.000946
84661782676013	3.1772614	0.4625702	0.98750305
84661787741931	2.934143	0.4772339	0.98750305
84661793082507	2.684906	0.5041046	0.99116516
84661797812732	2.4564514	0.5444336	0.9777374
84661802848132	2.274414	0.573761	0.9312897
84661808371814	2.1473694	0.573761	0.843338
84661812918933	2.0715942	0.5541992	0.7236023
84661816245349	2.0715942	0.5407562	0.7236023
84661822959216	1.9983063	0.5407562	0.44137573
84661827994616	1.9482117	0.5627594	0.28990173
84661833030017	1.8541412	0.5762024	0.1347351
84661838095935	1.7026367	0.585968	-0.0045318604
84661843375476	1.5022888	0.6006317	-0.1169281
84661848166736	1.2664948	0.62506104	-0.20487976
84661853171618	1.0087128	0.64460754	-0.2965088
84661858542712	0.7399292	0.65071106	-0.41500854
84661863272937	0.7399292	0.6543884	-0.41500854
84661866629870	0.49191284	0.6543884	-0.56651306
84661873343738	0.30255127	0.67881775	-0.7338867
84661878409656	0.18647766	0.7362366	-0.88905334
84661883414538	0.11685181	0.803421	-1.0075531
84661888449939	0.052093506	0.8278656	-1.0796356
84661893943103	-0.035858154	0.7753296	-1.0991821
84661898490222	-0.1531372	0.6543884	-1.0674286
84661903586657	-0.2850952	0.51387024	-0.99290466
84661909049304	-0.4109192	0.40637207	-0.90127563
84661913596423	-0.4976654	0.36727905	-0.81941223
84661916953357	-0.51231384	0.39660645	-0.7742157
84661923697741	-0.4439087	0.467453	-0.7717743
84661928702624	-0.31074524	0.54319763	-0.798645
84661933738025	-0.1506958	0.612854	-0.84140015
84661938803943	0.0068969727	0.67149353	-0.9073639
84661944114001	0.14982605	0.69348145	-1.0124359
84661948844226	0.26345825	0.6360626	-1.1639404
84661953910144	0.33309937	0.4833374	-1.3447571
84661959433825	0.342865	0.25852966	-1.5267944
84661963950427	0.28056335	-0.011444092	-1.6868286
84661967337878	0.28056335	-0.3156433	-1.6868286
84661974021228	-0.05053711	-0.3156433	-1.909195
84661979087146	-0.27285767	-0.95462036	-1.9690552
84661984153064	-0.48054504	-1.2111664	-1.9947052
84661989127429	-0.64060974	-1.3895569	-1.987381
84661994895251	-0.7420044	-1.4909515	-1.9421692
84661999198230	-0.7896576	-1.523941	-1.8566589
84662004294665	-0.7896576	-1.4946136	-1.7381592
84662009574206	-0.7945404	-1.4946136	-1.6074219
84662014334949	-0.7676544	-1.2869263	-1.6074219
84662017691882	-0.7102356	-1.2869263	-1.4938202
84662024436267	-0.62228394	-1.129303	-1.4204865
84662029410632	-0.50131226	-0.95462036	-1.392395
84662034476550	-0.35716248	-0.78601074	-1.393631
84662039511950	-0.20443726	-0.6357422	-1.3972778
84662044822009	-0.052978516	-0.49645996	-1.3850708
84662049552234	0.09484863	-0.3486328	-1.3545227
84662054587634	0.24269104	-0.19348145	-1.3056641
84662059928210	0.3929596	-0.05908203	-1.2299194
84662064719470	0.53956604	0.028884888	-1.1150665
84662067984851	0.6739502	0.08016968	-0.9635773
84662074790271	0.78756714	0.13148499	-0.7925415
84662079825671	0.88287354	0.2023468	-0.61660767
84662084830554	0.9647217	0.28909302	-0.4345703
84662089865954	1.0368042	0.37339783	-0.24520874
84662095694812	1.0991211	0.4454651	-0.053390503
84662099936755	1.141861	0.49189758	0.1298523
84662105002673	1.1467743	0.5053406	0.29234314
84662110831531	1.0917816	0.4698944	0.41940308
84662115042956	0.963501	0.36849976	0.4963684
84662118338855	0.963501	0.2023468	0.4963684
84662125113757	0.54200745	0.2023468	0.46826172
84662130118640	0.32087708	-0.16539001	0.3815155
84662135154040	0.13761902	-0.26556396	0.26913452
84662140219958	7.9345703E-4	-0.28388977	0.14085388
84662145560534	-0.10305786	-0.23867798	0.010116577
84662150290759	-0.10305786	-0.16171265	0.010116577
84662155356677	-0.184906	-0.16171265	-0.10836792
84662161216052	-0.32051086	-0.072525024	-0.25376892
84662165396960	-0.32051086	0.09605408	-0.25376892
84662168753894	-0.36694336	0.09605408	-0.2806244
84662175467761	-0.3938141	0.1510315	-0.2989502
84662180503161	-0.4109192	0.1681366	-0.32705688
84662185569079	-0.43901062	0.1375885	-0.369812
84662190543445	-0.495224	0.06674194	-0.41256714
84662196280749	-0.57463074	-0.021209717	-0.43333435
84662200644763	-0.64793396	-0.10185242	-0.42112732
84662205680163	-0.67970276	-0.15803528	-0.3759308
84662211356433	-0.65159607	-0.19348145	-0.3123932
84662216391833	-0.5709686	-0.21546936	-0.24276733
84662219138415	-0.46957397	-0.22279358	-0.17922974
84662225821765	-0.37548828	-0.20448303	-0.123031616
84662230887683	-0.30218506	-0.15559387	-0.070495605
84662235862048	-0.25209045	-0.084732056	-0.017959595
84662240927966	-0.22276306	-0.013885498	0.034561157
84662246360095	-0.2142334	0.031326294	0.07975769
84662250998767	-0.22276306	0.0337677	0.10908508
84662256003650	-0.24108887	7.7819824E-4	0.11885071
84662261893542	-0.26309204	-0.045639038	0.110305786
84662266104968	-0.29241943	-0.08961487	0.09075928
84662269431384	-0.29241943	-0.12994385	0.09075928
84662276175769	-0.3962555	-0.12994385	0.054107666
84662281241687	-0.47201538	-0.23867798	0.049209595
84662286216052	-0.55996704	-0.30586243	0.057769775
84662291281970	-0.55996704	-0.3730774	0.085861206
84662296622546	-0.766449	-0.43414307	0.1347351
84662301352771	-0.766449	-0.47813416	0.1347351
84662306357654	-0.8825073	-0.47813416	0.20315552
84662312278064	-1.1170807	-0.47813416	0.34976196
84662316428454	-1.1170807	-0.26678467	0.34976196
84662319815906	-1.2197113	-0.26678467	0.38519287
84662326529773	-1.2991028	-0.07130432	0.37419128
84662331534656	-1.347992	0.12538147	0.31921387
84662336631091	-1.3565369	0.26708984	0.23492432
84662341635974	-1.3174438	0.31106567	0.1335144
84662347434314	-1.2355957	0.24632263	0.024780273
84662351706775	-1.1317444	0.10217285	-0.079055786
84662356742175	-1.0401154	-0.08596802	-0.16090393
84662362296374	-0.98269653	-0.3083191	-0.20976257
84662366812976	-0.9655762	-0.58932495	-0.22444153
84662370169909	-0.97657776	-0.964386	-0.21099854
84662376853259	-1.0071106	-1.4530792	-0.16822815
84662381858142	-1.0535583	-2.0419464	-0.086380005
84662386954577	-1.1231842	-2.6967926	0.04800415
84662391959460	-1.2392426	-3.3528595	0.2434845
84662397300036	-1.4396057	-3.901413	0.4902649
84662402030261	-1.7584839	-4.2129517	0.73583984
84662407065661	-2.1983032	-4.198288	0.88243103
84662412406238	-2.706543	-3.8476563	0.8250122
84662417136462	-3.1793365	-3.2294617	0.53302
84662420523913	-3.1793365	-2.46344	0.53302
84662427268298	-3.6032867	-2.46344	-0.3331604
84662432303699	-3.4640045	-1.1024475	-0.6446991
84662437308581	-3.4640045	-0.7799072	-0.8181915
84662442313464	-3.130478	-0.7799072	-0.8181915
84662447837146	-2.680893	-0.7762451	-0.85728455
84662452384265	-2.1873016	-1.444519	-0.85728455
84662457480700	-1.6851807	-1.444519	-0.7375641
84662462912829	-1.1977081	-1.7914886	-0.5298767
84662467490466	-0.753006	-1.9429779	-0.27941895
84662470847400	-0.3779297	-1.8831177	-0.0692749
84662477561267	-0.06640625	-1.7169647	0.027236938
84662482657702	0.21704102	-1.5666809	-0.01675415
84662487662585	0.51023865	-1.4885101	-0.16212463
84662492697986	0.8144531	-1.4591827	-0.330719
84662498069079	1.0978851	-1.4225311	-0.44677734
84662502738269	1.3104706	-1.3357849	-0.46754456
84662507804187	1.4045563	-1.1928406	-0.3954773
84662513694079	1.3617859	-1.0242462	-0.27574158
84662517874988	1.2053986	-0.8800812	-0.17922974
84662521231921	0.98794556	-0.7970123	-0.16456604
84662528708728	0.75213623	-0.77500916	-0.23788452
84662532950671	0.51390076	-0.78723145	-0.3612671
84662538077624	0.27200317	-0.80311584	-0.4797821
84662543021472	0.031326294	-0.80555725	-0.5542908
84662548789294	-0.18122864	-0.79577637	-0.57995605
84662553122790	-0.33517456	-0.78723145	-0.57629395
84662558127673	-0.4182434	-0.79577637	-0.56529236
84662563498767	-0.442688	-0.82388306	-0.56285095
84662568228991	-0.42436218	-0.8446655	-0.56285095
84662571585925	-0.42436218	-0.82266235	-0.56285095
84662578269275	-0.2826538	-0.82266235	-0.5347595
84662583274157	-0.2826538	-0.5990906	-0.5347595
84662588370593	-0.15557861	-0.5990906	-0.50419617
84662593405993	0.0178833	-0.43414307	-0.4773407
84662598807605	0.23046875	-0.264328	-0.4590149
84662603446277	0.46626282	-0.09573364	-0.44433594
84662608481677	0.7020569	0.06918335	-0.42112732
84662613822253	0.92196655	0.23043823	-0.38815308
84662618582995	1.1223297	0.39292908	-0.3466034
84662621878894	1.2933655	0.5847473	-0.30262756
84662628684314	1.4179993	0.84375	-0.25253296
84662633719714	1.4766235	1.1846161	-0.19999695
84662638724597	1.4595337	1.5804443	-0.15602112
84662643759997	1.3837891	1.9677277	-0.12669373
84662649253161	1.2799225	2.2902832	-0.1181488
84662653830798	1.1834259	2.527298	-0.12913513
84662658896716	1.1125641	2.7019806	-0.17190552
84662664695056	1.0673523	2.853485	-0.24885559
84662668936999	1.0392456	2.998886	-0.3453827
84662672293933	1.0196991	3.1161652	-0.43945313
84662678977282	1.0050354	3.1540375	-0.5091095
84662684012683	0.99160767	3.0660706	-0.54940796
84662689139636	0.9781647	2.8449402	-0.57141113
84662694114001	0.9610596	2.5480652	-0.59217834
84662699546130	0.94273376	2.2743988	-0.6190491
84662704184802	0.93296814	2.1033478	-0.64593506
84662709220202	0.94151306	2.0483856	-0.6667023
84662715079577	0.9806061	2.059372	-0.6837921
84662719291003	1.0673523	2.050827	-0.7057953
84662722647937	1.0673523	1.9530792	-0.7057953
84662729392322	1.2053986	1.9530792	-0.7448883
84662734336169	1.3837891	1.7453918	-0.8023071
84662739463122	1.5804749	1.4399567	-0.8805084
84662744468005	1.7625122	1.0563202	-0.9782257
84662750205310	1.9017944	0.5884094	-1.09552
84662754508288	1.9775391	0.019104004	-1.239685
84662759574206	1.9885254	-0.6467438	-1.407074
84662764884265	1.9494324	-1.3846436	-1.5842133
84662769675525	1.873703	-2.1604614	-1.756485
84662772971423	1.7735138	-2.9460144	-1.9104004
84662779746325	1.6574554	-3.7120514	-2.043579
84662784751208	1.548706	-4.4218597	-2.1572113
84662789786609	1.4644165	-5.0351715	-2.2512817
84662794791491	1.3959961	-5.5324097	-2.3245697
84662800315173	1.3019257	-5.9319153	-2.3746643
84662804892810	1.1272125	-6.2727814	-2.3954315
84662809989245	0.84010315	-6.5769806	-2.3710022
84662815299304	0.44181824	-6.799347	-2.284256
84662824942859	-0.5111084	-6.8042297	-1.7674713
84662830069812	-0.8996124	-5.4994354	-1.2555695
84662835105212	-1.0730896	-4.1213226	-0.6557007
84662840110095	-0.98269653	-2.3950348	-0.16090393
84662845145495	-0.7175598	-0.52700806	0.089538574
84662850455554	-0.4341278	1.1943817	0.10418701
84662855246814	-0.2325592	2.5028534	-0.025283813
84662860251697	-0.10549927	3.3250732	-0.22932434
84662865775378	-0.019973755	3.7868805	-0.4822235
84662870322497	-0.019973755	4.034897	-0.74365234
84662873679431	0.03010559	4.034897	-0.74365234
84662880393298	0.038650513	4.111862	-0.95381165
84662885428699	0.020324707	3.9994812	-1.0637665
84662890464099	-0.0065460205	3.7038116	-1.0588684
84662895499499	-0.016326904	3.2285461	-0.9476929
84662900809558	0.050872803	2.578598	-0.7619934
84662905600818	0.26712036	1.8015747	-0.54452515
84662910605700	0.65686035	0.99157715	-0.33805847
84662916129382	1.1565399	0.2475586	-0.17678833
84662920676501	1.6440125	-0.38284302	-0.070495605
84662924033435	2.016632	-0.89476013	-0.010650635
84662930808337	2.2414246	-1.3040161	0.022338867
84662935752185	2.3440552	-1.6106873	0.03944397
84662940818103	2.3697052	-1.8098145	0.04676819
84662945853503	2.3648224	-1.8977966	0.04800415
84662951163562	2.3538208	-1.886795	0.040664673
84662955954822	2.3452606	-1.8049316	0.026000977
84662960959704	2.3318481	-1.6888733	0.010116577
84662966269763	2.3074036	-1.5691223	0.0027923584
84662971091540	2.2756348	-1.4787292	0.011352539
84662974356921	2.2756348	-1.4518585	0.011352539
84662981131824	2.2121124	-1.4518585	0.06265259
84662986167224	2.1620178	-1.5923615	0.0846405
84662991172107	2.0862732	-1.6228943	0.105407715
84662996238025	2.0019684	-1.5092773	0.13717651
84663001609118	1.9298859	-1.2343903	0.1958313
84663006278308	1.8749084	-0.8422241	0.28501892
84663011344226	1.8284912	-0.39260864	0.4022827
84663016776355	1.7845001	0.06309509	0.54034424
84663021353991	1.7845001	0.48457336	0.54034424
84663024741443	1.7405243	0.48457336	0.6918335
84663031455310	1.7001953	0.8376465	0.8470001
84663036460193	1.6659851	1.1064148	0.9936218
84663041495593	1.6427765	1.2994537	1.1206665
84663046561511	1.6366882	1.4399567	1.219635
84663051871570	1.6574554	1.5633545	1.2831573
84663056632312	1.7038727	1.7014008	1.311264
84663061637195	1.767395	1.8602295	1.3100433
84663067130359	1.8321381	2.0166168	1.2880402
84663071738513	1.8920288	2.14122	1.2562866
84663075125964	1.9494324	2.2181854	1.2232819
84663081809314	2.0141907	2.2475128	1.1903076
84663086814197	2.0838318	2.2450714	1.1573334
84663091880115	2.155899	2.227951	1.1170044
84663096946032	2.221878	2.2096252	1.062027
84663102134021	2.2719727	2.1962128	0.98750305
84663106986316	2.3012848	2.190094	0.8934326
84663111991199	2.2988434	2.1876526	0.7822571
84663117270740	2.2634277	2.1876526	0.6576233
84663122061999	2.204773	2.188858	0.519577
84663125418933	2.204773	2.190094	0.519577
84663132224353	2.0923615	2.190094	0.22515869
84663137168200	2.0606232	2.1974182	0.10784912
84663142234118	2.0398407	2.2108612	0.038223267
84663147269519	2.01297	2.2389526	0.0052337646
84663152640613	1.9763184	2.2792816	-0.0362854
84663157340320	1.9506531	2.3098145	-0.13279724
84663162406238	1.9506531	2.281723	-0.13279724
84663167685779	1.9628754	2.281723	-0.50665283
84663172477038	2.0202942	2.1620026	-0.50665283
84663175772937	2.0935974	1.9542999	-0.6947937
84663182547839	2.143692	1.7075043	-0.82063293
84663187552722	2.1473694	1.4790497	-0.86950684
84663192588122	2.1082458	1.3055725	-0.85850525
84663197654040	2.0447388	1.1956177	-0.812088
84663202933581	1.9738617	1.1479645	-0.7485657
84663207694324	1.9029999	1.1504059	-0.67770386
84663212760241	1.8309326	1.1907196	-0.6043854
84663218161853	1.7515106	1.2566833	-0.5298767
84663222800525	1.6574554	1.3373413	-0.4590149
84663229697497	1.5413818	1.4191895	-0.39424133
84663232871325	1.4033203	1.4851685	-0.33439636
84663237906726	1.248169	1.5132599	-0.27574158
84663243003161	1.0807953	1.4888153	-0.21708679
84663248008044	0.90119934	1.4057465	-0.15846252
84663253348620	0.71183777	1.2676849	-0.102264404
84663258078845	0.51390076	1.0832062	-0.0521698
84663263083728	0.31477356	0.8632965	-0.011856079
84663268851550	0.12173462	0.62506104	0.016235352
84663273154529	-0.060302734	0.39292908	0.034561157
84663276511462	-0.060302734	0.19868469	0.034561157
84663283225329	-0.37182617	0.19868469	0.0663147
84663288230212	-0.49642944	-0.016326904	0.09320068
84663293326648	-0.6027374	-0.037094116	0.12617493
84663298331531	-0.69314575	-0.013885498	0.15794373
84663303641589	-0.77253723	0.047210693	0.18115234
84663308402331	-0.77253723	0.1351471	0.18115234
84663313407214	-0.8470764	0.1351471	0.1958313
84663318686755	-0.9167175	0.23899841	0.19703674
84663323508532	-0.98269653	0.35507202	0.18727112
84663326865466	-1.0425568	0.4784546	0.1665039
84663333609851	-1.0926514	0.60917664	0.13717651
84663338614734	-1.1207428	0.7484436	0.1005249
84663343619616	-1.11586	0.8926239	0.056549072
84663348655017	-1.075531	1.0379944	0.007675171
84663354026111	-0.9961395	1.1711731	-0.041168213
84663358756335	-0.8825073	1.2689209	-0.08760071
84663363822253	-0.7444458	1.3080139	-0.13157654
84663369071277	-0.60150146	1.2652435	-0.17066956
84663373832019	-0.47322083	1.1345215	-0.19511414
84663377219470	-0.37182617	0.9243927	-0.19876099
84663383902820	-0.2985077	0.64582825	-0.18045044
84663388999255	-0.24353027	0.302536	-0.14990234
84663394004138	-0.18978882	-0.09817505	-0.123031616
84663399039538	-0.11526489	-0.51600647	-0.11325073
84663404319079	-0.001663208	-0.89720154	-0.12669373
84663409110339	0.1620636	-1.1879578	-0.17066956
84663414115222	0.36975098	-1.3589935	-0.24520874
84663419638904	0.59576416	-1.3932037	-0.3466034
84663424186023	0.80589294	-1.2869263	-0.46510315
84663427573474	0.80589294	-1.0584564	-0.46510315
84663434256824	1.0978851	-1.0584564	-0.71191406
84663439322741	1.1724243	-0.4414978	-0.83529663
84663444388659	1.18219	-0.16783142	-0.9550171
84663449393542	1.18219	0.03742981	-0.9550171
84663454642566	1.0856781	0.03742981	-1.1602631
84663459464343	0.8437805	0.17424011	-1.1602631
84663464499743	0.44181824	0.26464844	-1.236023
84663469931872	-0.09449768	0.33062744	-1.2958832
84663474570544	-0.712677	0.39048767	-1.3374176
84663477896960	-1.3491974	0.4466858	-1.341095
84663484671863	-1.9515228	0.5041046	-1.2775726
84663489676745	-2.487854	0.5945282	-1.12117
84663494681628	-2.9557648	0.764328	-0.8829498
84663499747546	-3.3552856	1.0477905	-0.6043854
84663504966052	-3.6998138	1.4142914	-0.30873108
84663509787829	-3.9844818	1.7649231	0.037002563
84663514823230	-4.110306	1.9689636	0.5220337
84663520102771	-3.8415222	1.893219	1.2208405
84663526267322	-2.9411163	1.4106293	2.120041
84663535270007	0.36730957	-0.8825226	3.829239
84663540030749	1.8248138	-2.3021698	4.203079
84663545066150	2.5236511	-3.3626251	4.163986
84663550101550	2.3819427	-3.6973877	3.868332
84663555472644	1.6476593	-3.2257996	3.5335693
84663560202868	0.69107056	-2.195877	3.2953491
84663565238269	-0.18367004	-1.0095825	3.1646118
84663570700915	-0.82263184	0.02154541	3.090088
84663575278552	-1.1928253	0.7960968	3.0216675
84663578635486	-1.1928253	1.3471069	3.0216675
84663585318835	-1.2453613	1.3471069	2.8249664
84663590354236	-0.99246216	1.9261932	2.6734924
84663595420154	-0.99246216	1.9542999	2.6734924
84663600486072	-0.6528168	1.9542999	2.4670105
84663605857165	-0.37304688	1.8223572	2.1970215
84663610556872	-0.29118347	1.5841217	1.8683624
84663615561755	-0.45489502	1.2982483	1.4994049
84663621024402	-0.8128662	1.009903	1.1072388
84663625602038	-1.26857	0.750885	0.7162781
84663628989490	-1.7389221	0.54808044	0.3607483
84663635733874	-2.160431	0.41981506	0.06387329
84663640708240	-2.487854	0.34527588	-0.16578674
84663645804675	-2.6833344	0.28785706	-0.33927917
84663650840075	-2.7273102	0.2206726	-0.4663391
84663656058581	-2.618576	0.1400299	-0.5506439
84663660880359	-2.3852234	0.06309509	-0.59217834
84663665915759	-2.0736847	0.0044403076	-0.59217834
84663671195300	-1.7425995	-0.029769897	-0.56040955
84663676017077	-1.4493866	-0.04319763	-0.5054321
84663679343493	-1.2319183	-0.032211304	-0.4504547
84663686087878	-1.1072998	0.0044403076	-0.4113617
84663691092761	-1.0682068	0.06185913	-0.4015808
84663696128161	-1.0950928	0.14126587	-0.41500854
84663701163562	-1.1708221	0.23776245	-0.4455719
84663706534656	-1.2795715	0.35507202	-0.48587036
84663711234363	-1.4102936	0.49310303	-0.53352356
84663716300281	-1.5483551	0.65071106	-0.58117676
84663721518786	-1.670517	0.8205414	-0.61660767
84663726340564	-1.7499237	0.9842529	-0.63371277
84663729697497	-1.7499237	1.1100922	-0.63371277
84663736380847	-1.7694855	1.1100922	-0.61294556
84663741477282	-1.7315979	1.1614075	-0.61294556
84663746482165	-1.6570892	1.1186371	-0.58117676
84663751548083	-1.5764465	0.98913574	-0.54452515
84663757010730	-1.5104675	0.8009796	-0.5091095
84663761618884	-1.4676971	0.5810852	-0.48342896
84663766654284	-1.4432831	0.34773254	-0.47122192
84663772086413	-1.4310608	0.1217041	-0.4724579
84663776664050	-1.4225159	-0.07740784	-0.4822235
84663780051501	-1.4115143	-0.23135376	-0.49931335
84663786765368	-1.3944092	-0.3327484	-0.52375793
84663791770251	-1.3687592	-0.39016724	-0.5530853
84663796836169	-1.333313	-0.41949463	-0.58117676
84663801871570	-1.2954559	-0.4414978	-0.6031647
84663807425769	-1.2588043	-0.47691345	-0.61172485
84663811911853	-1.2294769	-0.53678894	-0.59950256
84663816947253	-1.2135925	-0.62106323	-0.55796814
84663822379382	-1.2160339	-0.73347473	-0.4932251
84663827048572	-1.241684	-0.87887573	-0.4138031
84663830436023	-1.2868958	-1.0535583	-0.330719
84663837119372	-1.3394318	-1.2392731	-0.24641418
84663842124255	-1.3883057	-1.3944397	-0.1670227
84663847190173	-1.4298401	-1.4775085	-0.09370422
84663852225574	-1.4603729	-1.4542999	-0.031402588
84663857505115	-1.4823761	-1.3125763	0.016235352
84663862296374	-1.5055847	-1.0547943	0.044326782
84663867301257	-1.5410309	-0.6956024	0.052886963
84663872641833	-1.5947723	-0.25700378	0.044326782
84663877402575	-1.661972	0.23287964	0.019897461
84663880759509	-1.661972	0.74723816	0.019897461
84663887473376	-1.7303925	0.74723816	-0.0155181885
84663892508777	-1.7816925	1.2579193	-0.055847168
84663897544177	-1.8061371	1.7355957	-0.09492493
84663902579577	-1.8012543	2.1497803	-0.12791443
84663908377917	-1.7633667	2.4698792	-0.1511383
84663912650378	-1.6729584	2.678772	-0.15968323
84663917716296	-1.4958191	2.7618713	-0.15357971
84663923148425	-1.2148132	2.7007751	-0.12669373
84663927726062	-0.8666229	2.4723206	-0.074157715
84663931113513	-0.5404358	2.0703583	0.008911133
84663937827380	-0.33517456	1.5193787	0.11152649
84663942893298	-0.29486084	0.8852844	0.21047974
84663947959216	-0.40359497	0.25976563	0.28012085
84663952933581	-0.60517883	-0.2826538	0.30455017
84663958823474	-0.83851624	-0.6992798	0.29112244
84663963034900	-1.0535583	-0.9875946	0.26179504
84663968039782	-1.2099152	-1.1647491	0.23612976
84663973502429	-1.280777	-1.2563782	0.2276001
84663978110583	-1.2612457	-1.2783661	0.23736572
84663981467517	-1.2612457	-1.2441559	0.23736572
84663988242419	-1.0327911	-1.2441559	0.30210876
84663993186267	-0.89105225	-1.0095825	0.33876038
84663998465808	-0.77253723	-0.81166077	0.36930847
84664003287585	-0.69924927	-0.5722046	0.38885498
84664008353503	-0.6699219	-0.31930542	0.3949585
84664013358386	-0.67481995	-0.088409424	0.38639832
84664018393786	-0.69314575	0.082611084	0.36442566
84664023856433	-0.70658875	0.15959167	0.32777405
84664028617175	-0.70047	0.12414551	0.28378296
84664031791003	-0.70047	-0.016326904	0.28378296
84664038718493	-0.6711426	-0.016326904	0.23612976
84664043570788	-0.62106323	-0.22279358	0.18971252
84664048575671	-0.5636444	-0.43904114	0.14938354
84664053641589	-0.50743103	-0.6064148	0.1164093
84664058982165	-0.45368958	-0.6882782	0.09075928
84664063712390	-0.40237427	-0.67115784	0.07121277
84664068930896	-0.34983826	-0.5648804	0.052886963
84664073996814	-0.29606628	-0.39872742	0.0357666
84664079093249	-0.22888184	-0.21791077	0.02355957
84664082175525	-0.1335907	-0.07130432	0.019897461
84664089164050	0.0044403076	0.0032196045	0.019897461
84664093985827	0.18771362	-0.01020813	0.016235352
84664099082263	0.41004944	-0.09085083	-0.003326416
84664103995593	0.65441895	-0.20202637	-0.050949097
84664110007556	0.9048462	-0.2960968	-0.13157654
84664114066394	1.1467743	-0.3327484	-0.24520874
84664119406970	1.3691101	-0.2899933	-0.3808136
84664124625476	1.562149	-0.17759705	-0.5213165
84664129355700	1.7209778	-0.02243042	-0.64593506
84664132499011	1.7209778	0.14370728	-0.64593506
84664139426501	1.9298859	0.14370728	-0.79130554
84664144248279	1.9836426	0.43569946	-0.78886414
84664149680407	2.011734	0.51142883	-0.7375641
84664154349597	2.0325012	0.49189758	-0.6471405
84664160361560	2.06427	0.35139465	-0.51031494
84664164420398	2.1204834	0.10949707	-0.3111725
84664169669421	2.2023315	-0.17271423	-0.046051025
84664174887927	2.3061676	-0.42681885	0.25325012
84664179679187	2.3061676	-0.61253357	0.25325012
84664182883532	2.4197998	-0.61253357	0.53302
84664189933093	2.5212097	-0.73469543	0.74316406
84664194632800	2.5859528	-0.82510376	0.8592224
84664200034411	2.594513	-0.92285156	0.8909912
84664204703601	2.5444183	-1.0474701	0.8592224
84664210746081	2.4454498	-1.2014008	0.790802
84664214804919	2.323288	-1.3699951	0.7003937
84664219901355	2.194992	-1.532486	0.59776306
84664225180896	2.0752716	-1.6705475	0.48414612
84664230429919	1.9628754	-1.7829285	0.3631897
84664233268054	1.8578186	-1.8721161	0.24713135
84664240805896	1.7625122	-1.9417725	0.14938354
84664244986804	1.6867676	-1.986969	0.07609558
84664250724109	1.6440125	-1.999176	0.022338867
84664255057605	1.641571	-1.973526	-0.0155181885
84664260489734	1.6904297	-1.9063263	-0.033843994
84664265158923	1.7881622	-1.7976074	-0.019195557
84664271018298	1.9225616	-1.6534271	0.0357666
84664275504382	2.065506	-1.4897308	0.12861633
84664280478747	2.1876678	-1.3321075	0.25201416
84664283561023	2.1876678	-1.2050629	0.25201416
84664291037829	2.3061676	-1.2050629	0.53302
84664295371325	2.3012848	-1.0731201	0.66130066
84664301139148	2.260971	-1.0499115	0.7651367
84664305442126	2.1876678	-1.0254669	0.83721924
84664311087878	2.0887146	-0.9729309	0.87875366
84664315512927	2.0887146	-0.8690796	0.895874
84664321463855	1.8541412	-0.70536804	0.8885498
84664326010974	1.7466278	-0.49157715	0.8592224
84664330924304	1.7466278	-0.25212097	0.8592224
84664333945544	1.6611023	-0.25212097	0.8213501
84664341574939	1.6073608	-0.01876831	0.7724762
84664345694812	1.589035	0.17913818	0.7724762
84664351706775	1.6036835	0.32086182	0.7578125
84664355765613	1.6513367	0.38438416	0.7236023
84664361411365	1.7295227	0.34895325	0.65153503
84664365836413	1.8248138	0.2011261	0.54400635
84664371238025	1.9152374	-0.045639038	0.40716553
84664376395495	1.9640961	-0.3461914	0.24468994
84664381919177	1.9494324	-0.64430237	0.065093994
84664392020495	1.7380829	-1.0816803	-0.28186035
84664396048816	1.584137	-1.1977234	-0.42356873
84664401908191	1.4314117	-1.247818	-0.53352356
84664406150134	1.3019257	-1.247818	-0.6043854
84664411795886	1.2151794	-1.2209473	-0.6373749
84664416251452	1.1809845	-1.1793976	-0.6471405
84664422202380	1.1980743	-1.1085358	-0.6532593
84664426993640	1.2542725	-0.9839325	-0.6630249
84664432334216	1.3361359	-0.79333496	-0.6764679
84664442405017	1.5267181	-0.5514374	-0.7045593
84664446463855	1.602478	-0.065200806	-0.73023987
84664452353747	1.641571	0.11315918	-0.75709534
84664456504138	1.6366882	0.22923279	-0.77053833
84664462363513	1.5877991	0.28541565	-0.75709534
84664466544421	1.5877991	0.2952118	-0.75709534
84664472983630	1.3874359	0.2952118	-0.6532593
84664477042468	1.3874359	0.24143982	-0.6532593
84664482932361	1.089325	0.24143982	-0.5029907
84664492820056	0.91464233	0.2023468	-0.4248047
84664496787341	0.7338104	0.22555542	-0.344162
84664503257068	0.55545044	0.28297424	-0.26109314
84664506858142	0.38075256	0.36727905	-0.17799377
84664512809070	0.20848083	0.4637909	-0.1010437
84664516928943	0.039871216	0.5529938	-0.037521362
84664524375232	-0.28630066	0.6213989	0.02355957
84664527365954	-0.28630066	0.67393494	0.02355957
84664533927234	-0.44024658	0.67393494	0.017440796
84664543387683	-0.7224579	0.6873779	-0.047286987
84664547110827	-0.8495178	0.72402954	-0.09614563
84664553702624	-0.96313477	0.7985382	-0.15602112
84664557212146	-1.0572052	0.9170532	-0.22200012
84664562827380	-1.1268463	1.075882	-0.28796387
84664567282947	-1.1586151	1.2640381	-0.3514862
84664573172839	-1.1390686	1.4607239	-0.41012573
84664578086169	-1.0535583	1.6317596	-0.4590149
84664583945544	-0.88861084	1.7514801	-0.4981079
84664593772204	-0.3486023	1.7979279	-0.54452515
84664597464831	-0.02243042	1.647644	-0.5530853
84664603965075	0.29032898	1.4619446	-0.54696655
84664607535632	0.29032898	1.2224731	-0.54696655
84664613211902	0.7362671	1.2224731	-0.4296875
84664617636950	0.7362671	0.63238525	-0.4296875
84664624198230	0.8303375	0.63238525	-0.18534851
84664628012927	0.8303375	-0.060302734	-0.18534851
84664634360583	0.6849518	-0.060302734	-0.014297485
84664644187243	0.63853455	-0.6650696	-0.114471436
84664647849353	0.678833	-0.83366394	-0.114471436
84664654319079	0.83154297	-0.83366394	-0.27453613
84664657920154	1.0795593	-0.7444763	-0.46998596
84664664054187	1.3776703	-0.58932495	-0.6508179
84664667960437	1.6562195	-0.40849304	-0.7778778
84664674643786	1.8345795	-0.2288971	-0.84017944
84664678489001	1.8260498	-0.068847656	-0.84140015
84664684623034	1.5645905	0.0655365	-0.7827606
84664694480212	0.3257599	0.23899841	-0.4455719
84664698172839	-0.45489502	0.27685547	-0.16090393
84664704947741	-1.1696167	0.2952118	0.19215393
84664708274157	-1.6778564	0.29397583	0.60388184
84664713309558	-1.8110199	0.19378662	1.0400391
84664718314441	-1.4640503	-0.14706421	1.397995
84664724753650	-0.75665283	-0.7811279	1.5360565
84664728812488	-0.03465271	-1.5153809	1.371109
84664733451159	0.35995483	-1.9649811	0.9777374
84664736777575	0.35995483	-1.8513489	0.9777374
84664743521960	0.048431396	-1.8513489	0.31066895
84664748526843	0.048431396	-0.3596344	0.27033997
84664753562243	-0.29730225	0.41125488	0.27033997
84664758628161	-0.61006165	0.41125488	0.35830688
84664763938220	-0.90205383	0.9427185	0.46461487
84664768668445	-1.2038269	1.2359161	0.5220337
84664775382312	-1.8574371	1.3690948	0.47314453
84664778952868	-1.8574371	1.4631653	0.47314453
84664783805163	-2.1983032	1.4631653	0.40472412
84664787162097	-2.5587158	1.4936981	0.33265686
84664793845447	-2.9582062	1.5108185	0.25935364
84664798911365	-3.410263	1.4961395	0.17015076
84664805533679	-3.9013824	1.4350739	0.04800415
84664808982165	-4.3864136	1.3251038	-0.10958862
84664813987048	-4.804245	1.1784973	-0.28918457
84664819022449	-5.104782	1.0074615	-0.46510315
84664824088366	-5.248947	0.8205414	-0.61416626
84664829398425	-5.2086487	0.6152954	-0.7180023
84664834159167	-4.964279	0.38072205	-0.7668915
84664837455066	-4.5269165	0.10827637	-0.7632141
84664844229968	-3.9502716	-0.19348145	-0.72288513
84664849295886	-3.3186188	-0.47935486	-0.6654663
84664854300769	-2.71875	-0.67115784	-0.6190491
84664859305652	-2.2068634	-0.7114868	-0.60194397
84664864890368	-1.8049011	-0.5954132	-0.6202698
84664869406970	-1.5129089	-0.370636	-0.66181946
84664874442370	-1.3149872	-0.10185242	-0.7082367
84664879935534	-1.1915894	0.16325378	-0.74365234
84664884543689	-1.1219635	0.39416504	-0.75953674
84664887839587	-1.1219635	0.5688782	-0.75953674
84664894583972	-1.0816498	0.5688782	-0.7216797
84664899619372	-1.0535583	0.67515564	-0.7216797
84664904654773	-1.0266724	0.7044678	-0.66426086
84664909690173	-0.9997864	0.66049194	-0.58239746
84664915030749	-0.97169495	0.5517578	-0.47366333
84664919760974	-0.94358826	0.39170837	-0.3478241
84664924796374	-0.9118347	0.19378662	-0.21832275
84664930320056	-0.87150574	-0.01876831	-0.10836792
84664934897693	-0.818985	-0.21180725	-0.031402588
84664938193591	-0.7627716	-0.33642578	0.007675171
84664944907458	-0.7151184	-0.35351563	0.012557983
84664949942859	-0.69314575	-0.24967957	-0.002090454
84664955008777	-0.7077942	-0.055419922	-0.021636963
84664960013659	-0.7505646	0.16325378	-0.038726807
84664965384753	-0.8018646	0.3343048	-0.06072998
84664970084460	-0.8434143	0.41615295	-0.09370422
84664975150378	-0.86906433	0.40148926	-0.13891602
84664980490954	-0.88616943	0.31474304	-0.19023132
84664985221179	-0.90571594	0.1852417	-0.24153137
84664988578113	-0.93504333	0.039871216	-0.28796387
84664995261462	-0.97657776	-0.100616455	-0.3282776
84665000327380	-1.0278778	-0.21913147	-0.3624878
84665005332263	-1.0865326	-0.3009796	-0.3930359
84665010367663	-1.1500549	-0.34375	-0.42236328
84665015891345	-1.2148132	-0.35595703	-0.45533752
84665020468982	-1.2746887	-0.34985352	-0.49198914
84665025534900	-1.3223267	-0.33518982	-0.52742004
84665031058581	-1.3540955	-0.316864	-0.56040955
84665035605700	-1.3687592	-0.2985382	-0.5897217
84665038871081	-1.3687592	-0.2814331	-0.5897217
84665045737536	-1.3687592	-0.2814331	-0.60928345
84665050711902	-1.3577576	-0.26678467	-0.6190491
84665055777820	-1.3369904	-0.25212097	-0.61172485
84665060752185	-1.3137817	-0.23745728	-0.58361816
84665066611560	-1.2893372	-0.22279358	-0.5372009
84665070792468	-1.2710114	-0.21180725	-0.4748993
84665075858386	-1.2636871	-0.20812988	-0.4003601
84665081321032	-1.2771301	-0.20692444	-0.31362915
84665085929187	-1.3088989	-0.19836426	-0.21955872
84665089255603	-1.3540955	-0.17271423	-0.13035583
84665096030505	-1.4041901	-0.11773682	-0.055847168
84665101004870	-1.4554901	-0.0309906	-0.002090454
84665106070788	-1.5129089	0.07772827	0.0357666
84665111075671	-1.5776672	0.1852417	0.06265259
84665116446765	-1.6424103	0.26464844	0.0846405
84665121146472	-1.6925049	0.2976532	0.10784912
84665126212390	-1.7035065	0.2842102	0.14205933
84665131644519	-1.6546326	0.2341156	0.1958313
84665136283191	-1.5336761	0.16203308	0.27033997
84665139609607	-1.5336761	0.07896423	0.27033997
84665146323474	-1.1634979	0.07896423	0.42060852
84665151389392	-1.0034637	-0.13482666	0.45237732
84665156394275	-0.90693665	-0.2789917	0.4499359
84665161429675	-0.87516785	-0.4439392	0.4267273
84665167319568	-0.88616943	-0.6174164	0.3925171
84665171500476	-0.90571594	-0.78845215	0.34732056
84665176535876	-0.91059875	-0.9521637	0.28256226
84665181876452	-0.88861084	-1.1073303	0.20436096
84665186606677	-0.88861084	-1.2465973	0.20436096
84665189994128	-0.84095764	-1.2465973	0.12617493
84665196677478	-0.77745056	-1.3492279	0.057769775
84665201743396	-0.7053528	-1.3895569	3.5095215E-4
84665206778796	-0.63204956	-1.3467865	-0.049728394
84665211814197	-0.56484985	-1.2172852	-0.098587036
84665217673572	-0.51231384	-1.016922	-0.14379883
84665221884997	-0.47201538	-0.77500916	-0.17434692
84665226889880	-0.42314148	-0.52700806	-0.18045044
84665232413562	-0.34007263	-0.30221558	-0.15968323
84665236960681	-0.21299744	-0.13117981	-0.11936951
84665240287097	-0.048095703	-0.035873413	-0.07293701
84665247061999	0.1327362	-0.023651123	-0.025283813
84665252066882	0.31233215	-0.07740784	0.017440796
84665257102282	0.49435425	-0.16659546	0.04676819
84665262137683	0.7008362	-0.26800537	0.05532837
84665267630847	0.95739746	-0.36819458	0.0357666
84665272300036	1.2762604	-0.45858765	-0.014297485
84665277274402	1.6366882	-0.52334595	-0.10348511
84665283133777	1.9848633	-0.5404358	-0.23420715
84665287345202	2.2560883	-0.50624084	-0.396698
84665290763171	2.2560883	-0.43414307	-0.396698
84665297446521	2.4308014	-0.43414307	-0.7241211
84665302451404	2.3721466	-0.23013306	-0.85484314
84665307517322	2.2731934	-0.10185242	-0.9684601
84665312522204	2.170578	0.034988403	-1.0771942
84665318351062	2.0935974	0.1559143	-1.1908264
84665322593005	2.0581665	0.22923279	-1.2983398
84665327628406	2.0581665	0.23776245	-1.3753052
84665332968982	2.131485	0.23776245	-1.3948364
84665337668689	2.131485	0.06674194	-1.3948364
84665341086657	2.235321	0.06674194	-1.3459778
84665347770007	2.3697052	-0.09941101	-1.2421265
84665352774890	2.5102081	-0.31930542	-1.1040802
84665357810290	2.6262817	-0.58932495	-0.94036865
84665362845691	2.694687	-0.8874054	-0.7424469
84665368338855	2.711792	-1.1806335	-0.50175476
84665372916491	2.686142	-1.4396362	-0.21708679
84665377951892	2.6397247	-1.6534271	0.09320068
84665383322986	2.5883942	-1.8256989	0.40472412
84665388053210	2.5444183	-1.9637604	0.69918823
84665391349109	2.5163116	-2.0761566	0.9728546
84665398215564	2.5102081	-2.1629028	1.2232819
84665403281482	2.5309753	-2.2105408	1.437088
84665408194812	2.5725098	-2.2032166	1.5824738
84665413199695	2.6238403	-2.1286926	1.6118011
84665418784411	2.6690216	-1.9857483	1.4871826
84665423301013	2.7044678	-1.7878265	1.207428
84665428305896	2.737442	-1.5569153	0.8421173
84665434165271	2.774109	-1.3235779	0.5012665
84665438376697	2.8144073	-1.1146545	0.27890015
84665441733630	2.8144073	-0.9350586	0.27890015
84665448478015	2.865738	-0.9350586	0.2276001
84665453482898	2.860855	-0.60520935	0.29722595
84665458518298	2.8351746	-0.43049622	0.37174988
84665463584216	2.798523	-0.25334167	0.43893433
84665468894275	2.7631073	-0.084732056	0.49391174
84665473624499	2.7631073	0.059417725	0.5293579
84665478720935	2.7386627	0.059417725	0.5293579
84665484153064	2.728897	0.1669159	0.49391174
84665488761218	2.737442	0.20478821	0.49391174
84665492118152	2.7582245	0.20478821	0.41452026
84665498893054	2.7801971	0.1058197	0.30822754
84665503867419	2.7850952	-0.06764221	0.1933899
84665508902820	2.760666	-0.2789917	0.08708191
84665513938220	2.7130127	-0.47569275	0.0015563965
84665519248279	2.6568146	-0.6027374	-0.066833496
84665523978503	2.6091614	-0.62597656	-0.12059021
84665529044421	2.5773926	-0.5379944	-0.16578674
84665534446032	2.5700684	-0.37184143	-0.19387817
84665539084704	2.5871887	-0.18247986	-0.19631958
84665542502673	2.6226044	-0.01876831	-0.16946411
84665549186023	2.6629333	0.09849548	-0.1169281
84665554190906	2.6995697	0.184021	-0.057052612
84665559226306	2.728897	0.27197266	-0.0082092285
84665564322741	2.7521057	0.39292908	0.013793945
84665569785388	2.774109	0.5541992	0.0040130615
84665574363025	2.7875366	0.73501587	-0.031402588
84665579459460	2.7838745	0.9060669	-0.0839386
84665585288318	2.750885	1.0404358	-0.13891602
84665589438708	2.6800232	1.1345215	-0.18655396
84665592795642	2.6800232	1.193161	-0.18655396
84665599570544	2.3855896	1.193161	-0.25376892
84665604544909	2.1510162	1.2738037	-0.28186035
84665609580310	1.8529053	1.3116608	-0.3123932
84665614646228	1.4900665	1.3324432	-0.344162
84665620169909	1.0649109	1.3104553	-0.3661499
84665624717029	1.0649109	1.2163849	-0.3661499
84665629752429	0.59576416	1.2163849	-0.3673706
84665635215075	0.12049866	1.0379944	-0.3466034
84665639823230	-0.32295227	0.804657	-0.30995178
84665643210681	-0.70658875	0.573761	-0.26841736
84665649985583	-1.0217896	0.41125488	-0.23176575
84665654990466	-1.2734528	0.34527588	-0.20732117
84665659934314	-1.4701691	0.35383606	-0.20243835
84665665000232	-1.6204224	0.39904785	-0.22076416
84665670340808	-1.7340393	0.45280457	-0.26109314
84665675040515	-1.8220215	0.5175476	-0.32095337
84665680106433	-1.8879852	0.60917664	-0.39424133
84665685416491	-1.9356384	0.7301178	-0.4748993
84665690146716	-1.9637299	0.8620758	-0.5530853
84665693534167	-1.9710541	0.9744873	-0.6190491
84665700217517	-1.94664	1.0416718	-0.66426086
84665705252917	-1.867218	1.0465546	-0.6850281
84665710318835	-1.7047119	0.98913574	-0.6764679
84665715323718	-1.4469299	0.8767395	-0.6446991
84665720694812	-1.0975342	0.71791077	-0.59828186
84665725394519	-0.6894684	0.52975464	-0.54208374
84665730429919	-0.27041626	0.32940674	-0.47854614
84665735770495	0.108291626	0.1400299	-0.40402222
84665740500720	0.41249084	-0.017547607	-0.31607056
84665743888171	0.41249084	-0.12750244	-0.31607056
84665750571521	0.7753601	-0.12750244	-0.15846252
84665755637439	0.87187195	-0.16903687	-0.13401794
84665760733874	0.95739746	-0.08961487	-0.16946411
84665765708240	0.95739746	0.0496521	-0.16946411
84665771567615	1.2457275	0.0496521	-0.38935852
84665775748523	1.2457275	0.38072205	-0.38935852
84665780783923	1.49617	0.38072205	-0.52008057
84665786307605	1.7893982	0.49066162	-0.62760925
84665790885241	2.0398407	0.51878357	-0.69358826
84665794242175	2.1339264	0.45646667	-0.7033539
84665800956042	1.9775391	0.32695007	-0.6288147
84665805960925	1.545044	0.18035889	-0.43823242
84665810996325	0.90852356	0.082611084	-0.12547302
84665816031726	0.21336365	0.071624756	0.28866577
84665821555407	-0.3461609	0.119262695	0.7700348
84665826102527	-0.58929443	0.10093689	1.2648315
84665831168445	-0.45489502	-0.12506104	1.66922
84665836631091	-0.09082031	-0.5807648	1.8353729
84665841208728	0.21704102	-1.0755615	1.6655731
84665844596179	0.25001526	-1.313797	1.2171936
84665851279529	0.0032348633	-1.117096	0.6893921
84665856345447	-0.3620453	-0.5404358	0.29478455
84665861380847	-0.7016907	0.19868469	0.12496948
84665866416247	-0.97169495	0.8791809	0.14329529
84665871756824	-1.1867065	1.3519897	0.25325012
84665876456531	-1.3614197	1.5218201	0.3790741
84665881522449	-1.5141449	1.3483276	0.4817047
84665886801990	-1.6864014	0.8669586	0.55744934
84665891654284	-1.9344025	0.2023468	0.61242676
84665894980700	-1.9344025	-0.46835327	0.61242676
84665901633532	-2.7273102	-0.46835327	0.66986084
84665906699450	-2.7273102	-1.2918091	0.64419556
84665911734851	-3.2013397	-1.2918091	0.64419556
84665916770251	-3.6436005	-1.3858795	0.5672302
84665922568591	-4.214142	-1.3577881	0.31433105
84665926810534	-4.214142	-1.3553467	0.31433105
84665931906970	-4.292343	-1.3553467	0.1799469
84665937155993	-4.242264	-1.4946136	0.05899048
84665941947253	-4.088318	-1.7047577	-0.033843994
84665945304187	-3.859848	-1.9173279	-0.09738159
84665952018054	-3.5898438	-2.0480652	-0.13035583
84665957022937	-3.3088531	-2.0224	-0.14135742
84665962088855	-3.042511	-1.7914886	-0.13891602
84665967093738	-2.8030548	-1.3577881	-0.13401794
84665972953113	-2.5941467	-0.7811279	-0.14257813
84665977164538	-2.4157715	-0.15682983	-0.18167114
84665982230456	-2.2642822	0.41859436	-0.25253296
84665987662585	-2.1372223	0.8865204	-0.3453827
84665992270740	-2.0321503	1.2310333	-0.44189453
84665995688708	-1.9478455	1.4668427	-0.52497864
84666002372058	-1.8892059	1.6122131	-0.5860596
84666007376941	-1.8574371	1.6855164	-0.6202698
84666012412341	-1.8476715	1.7014008	-0.63127136
84666017478259	-1.8525543	1.6696472	-0.6202698
84666022788318	-1.8586578	1.5963287	-0.5872803
84666027549060	-1.853775	1.4900513	-0.5372009
84666032584460	-1.8342285	1.3617554	-0.4748993
84666037894519	-1.8000183	1.2298279	-0.4162445
84666042624743	-1.7584839	1.1052094	-0.369812
84666046073230	-1.7584839	0.99645996	-0.369812
84666052726062	-1.714508	0.99645996	-0.330719
84666057730945	-1.6729584	0.90483093	-0.330719
84666062796863	-1.6387482	0.83154297	-0.33439636
84666067801745	-1.6143188	0.7753296	-0.344162
84666073172839	-1.6008759	0.7301178	-0.3502655
84666077903064	-1.6020966	0.68614197	-0.3466034
84666082999499	-1.6167603	0.6311798	-0.3294983
84666088279040	-1.6363068	0.5529938	-0.30384827
84666092978747	-1.6497498	0.4515686	-0.27574158
84666096396716	-1.6497498	0.3343048	-0.25253296
84666103080066	-1.6363068	0.2194519	-0.24153137
84666108115466	-1.6130981	0.12294006	-0.24885559
84666113120349	-1.5898895	0.052093506	-0.26841736
84666118186267	-1.5727844	0.0056610107	-0.2965088
84666123709949	-1.5617981	-0.028549194	-0.3331604
84666128257068	-1.5569	-0.0627594	-0.3771515
84666133261950	-1.5532379	-0.09941101	-0.42601013
84666138755115	-1.5446777	-0.13850403	-0.4748993
84666143332751	-1.5312347	-0.17147827	-0.5188751
84666146689685	-1.5312347	-0.1971283	-0.55552673
84666153434070	-1.4848175	-0.2130127	-0.5860596
84666158469470	-1.4542847	-0.22035217	-0.61416626
84666163474353	-1.4237213	-0.22035217	-0.6373749
84666168540271	-1.3980713	-0.21669006	-0.65448
84666174063952	-1.3834076	-0.20936584	-0.6630249
84666178611072	-1.3797455	-0.1971283	-0.65448
84666183646472	-1.3858643	-0.17271423	-0.62760925
84666189139636	-1.3956299	-0.12626648	-0.57385254
84666193717273	-1.4029541	-0.051757813	-0.49687195
84666197074206	-1.4029541	0.059417725	-0.49687195
84666203849109	-1.4078522	0.059417725	-0.40402222
84666208792956	-1.4090729	0.2023468	-0.30262756
84666213828357	-1.412735	0.36116028	-0.20243835
84666218894275	-1.4176178	0.507782	-0.10714722
84666224204333	-1.4225159	0.61161804	-0.02772522
84666228965075	-1.4212799	0.64704895	0.029678345
84666234000476	-1.4151764	0.6018524	0.05899048
84666239280017	-1.4115143	0.47601318	0.0675354
84666244071277	-1.4151764	0.28541565	0.06265259
84666247397693	-1.4249573	0.052093506	0.057769775
84666254203113	-1.4335022	-0.1971283	0.061431885
84666259177478	-1.4286194	-0.4256134	0.07609558
84666264212878	-1.4029541	-0.5978546	0.1005249
84666269217761	-1.3504333	-0.68704224	0.12861633
84666274558337	-1.280777	-0.6882782	0.15794373
84666279319079	-1.2038269	-0.614975	0.18603516
84666284446032	-1.1317444	-0.49768066	0.20559692
84666289695056	-1.063324	-0.36328125	0.2141571
84666294425281	-0.997345	-0.23257446	0.21047974
84666297782214	-0.997345	-0.112854004	0.21047974
84666304557116	-0.8482971	-0.112854004	0.19703674
84666309500964	-0.753006	0.09239197	0.18847656
84666314536365	-0.64915466	0.16081238	0.17506409
84666319571765	-0.54652405	0.1876831	0.15550232
84666325095447	-0.45489502	0.16447449	0.1322937
84666329642566	-0.3791504	0.09361267	0.110305786
84666334677966	-0.31806946	-0.01020813	0.09075928
84666340171130	-0.2667694	-0.11894226	0.073654175
84666344748767	-0.2667694	-0.20080566	0.073654175
84666348227771	-0.21788025	-0.20080566	0.057769775
84666354850085	-0.16168213	-0.24356079	0.04310608
84666359854968	-0.088378906	-0.24845886	0.03211975
84666364890368	0.013000488	-0.22769165	0.026000977
84666369925769	0.15962219	-0.18859863	0.026000977
84666375449450	0.368515	-0.12994385	0.022338867
84666380027087	0.6470642	-0.057861328	-0.0045318604
84666385031970	0.97450256	0.0019989014	-0.07661438
84666390372546	1.3068085	0.0154418945	-0.19999695
84666395102771	1.5988007	-0.033432007	-0.3624878
84666398459704	1.819931	-0.12138367	-0.54818726
84666405173572	1.9543304	-0.19104004	-0.7400055
84666410178454	1.9946442	-0.18980408	-0.92204285
84666415244372	1.9408875	-0.11038208	-1.0747528
84666420249255	1.819931	0.013000488	-1.173706
84666425589831	1.6843109	0.13392639	-1.2017975
84666430381091	1.602478	0.21699524	-1.1590576
84666435416491	1.6305695	0.25120544	-1.0552063
84666440696032	1.7893982	0.2475586	-0.89027405
84666445487292	2.0618286	0.22433472	-0.6569214
84666448813708	2.0618286	0.20722961	-0.6569214
84666455588611	2.750885	0.20722961	-0.033843994
84666460532458	3.0343323	0.23899841	0.26057434
84666465628894	3.2102509	0.23776245	0.4780426
84666470664294	3.2627869	0.16325378	0.60632324
84666476096423	3.2102509	-0.01020813	0.6661835
84666480704577	3.0868683	-0.27166748	0.68818665
84666485739978	3.0868683	-0.5819702	0.6979523
84666491019519	2.917038	-0.5819702	0.7126007
84666495810779	2.7227936	-0.8959656	0.7126007
84666499259265	2.5212097	-1.1879578	0.7333832
84666505973132	2.335495	-1.4494171	0.7578125
84666510916980	2.1889038	-1.6693115	0.7761383
84666515952380	2.0972748	-1.8367004	0.7920227
84666520987781	2.0630646	-1.9356537	0.8127899
84666528067859	2.1363678	-1.9649811	0.90075684
84666531058581	2.1363678	-1.8721161	0.90075684
84666536093982	2.2121124	-1.8721161	0.95573425
84666541526111	2.2927399	-1.7927246	1.0046082
84666546195300	2.3599396	-1.7084198	1.0437012
84666549643786	2.4075928	-1.6241302	1.07547
84666556266101	2.440567	-1.5447083	1.1023407
84666561240466	2.4772186	-1.47995	1.128006
84666566306384	2.5260925	-1.4347382	1.15242
84666571341784	2.5835114	-1.3993225	1.1744232
84666576651843	2.6287231	-1.3455505	1.192749
84666581412585	2.6433716	-1.2343903	1.206192
84666586447986	2.6226044	-1.0327911	1.2098694
84666591758044	2.579834	-0.7408142	1.1988678
84666596518786	2.5358582	-0.3804016	1.1597748
84666599997790	2.5358582	0.0044403076	1.1597748
84666606681140	2.4955444	0.0044403076	0.9252014
84666611655505	2.5077667	0.5920868	0.72483826
84666616690906	2.532196	0.65805054	0.50491333
84666621695788	2.5505219	0.5224304	0.31188965
84666627433093	2.5444183	0.23287964	0.17262268
84666631797107	2.5444183	-0.10549927	0.17262268
84666636801990	2.5102081	-0.10549927	0.08831787
84666642142566	2.466217	-0.37916565	0.045547485
84666646903308	2.4320068	-0.5379944	0.030883789
84666650412829	2.418579	-0.6186218	0.034561157
84666657035144	2.4161377	-0.68460083	0.041885376
84666662040027	2.4100342	-0.7603607	0.038223267
84666667044909	2.3990326	-0.8263397	0.012557983
84666672110827	2.3929138	-0.84342957	-0.02772522
84666677878650	2.4051514	-0.78845215	-0.07171631
84666682120593	2.4320068	-0.6650696	-0.1169281
84666687247546	2.462555	-0.48913574	-0.17066956
84666692679675	2.47966	-0.2802124	-0.24520874
84666697226794	2.4747772	-0.056640625	-0.33805847
84666701468738	2.436905	0.16203308	-0.4321289
84666707328113	2.3635864	0.36239624	-0.5054321
84666712394031	2.2487488	0.5383148	-0.54330444
84666717398913	2.0935974	0.68981934	-0.54696655
84666722403796	1.8969116	0.8254242	-0.52619934
84666727927478	1.6586609	0.9476013	-0.48954773
84666732505115	1.3764343	1.0526733	-0.43945313
84666737540515	1.0526886	1.1271973	-0.3795929
84666742850574	0.6971588	1.1516266	-0.3123932
84666747580798	0.31721497	1.102768	-0.24276733
84666751273425	0.31721497	0.96836853	-0.24276733
84666757682116	-0.4585724	0.96836853	-0.10714722
84666762686999	-0.8201904	0.5089874	-0.046051025
84666767722400	-1.14151	0.2707672	0.0052337646
84666772757800	-1.14151	0.091171265	0.044326782
84666778098376	-1.6375275	-0.0065460205	0.0663147
84666782828601	-1.6375275	-0.02243042	0.0663147
84666787955554	-1.8171234	-0.02243042	0.07121277
84666793174060	-1.9600525	0.024002075	0.057769775
84666797965320	-2.072464	0.10461426	0.030883789
84666801718982	-2.1555328	0.19746399	-0.002090454
84666808005603	-2.1995392	0.28541565	-0.035079956
84666813041003	-2.1860962	0.36116028	-0.06437683
84666818106921	-2.0920105	0.42347717	-0.09370422
84666823172839	-1.894104	0.4796753	-0.12181091
84666828666003	-1.5813293	0.5285492	-0.13891602
84666833213122	-1.1659393	0.5676422	-0.13157654
84666838309558	-0.69558716	0.6018524	-0.09126282
84666843558581	-0.24108887	0.66171265	-0.026519775
84666848319324	0.14982605	0.78144836	0.034561157
84666852103503	0.4589386	0.97080994	0.07243347
84666858390124	0.6996002	1.1797333	0.09320068
84666863456042	0.8779907	1.3238983	0.11885071
84666868460925	0.9793854	1.3226624	0.16894531
84666873465808	0.97572327	1.1271973	0.24224854
84666879355700	0.8498688	0.73379517	0.31555176
84666883567126	0.6372986	0.19746399	0.35342407
84666888663562	0.43328857	-0.36083984	0.32043457
84666894065173	0.3587494	-0.77745056	0.20559692
84666898673327	0.49803162	-0.92041016	0.03944397
84666903067859	0.49803162	-0.77256775	0.03944397
84666908744128	1.2799225	-0.77256775	-0.22808838
84666913779529	1.641571	-0.11161804	-0.27330017
84666918784411	1.641571	0.06309509	-0.27697754
84666923850329	1.7527313	0.06309509	-0.27697754
84666929862292	0.9341736	0.031326294	-0.20976257
84666933890613	0.9341736	-0.33518982	-0.20976257
84666938956531	0.1486206	-0.33518982	-0.1181488
84666944297107	-0.67726135	-0.46714783	0.029678345
84666949027331	-1.387085	-0.548996	0.22880554
84666953147204	-1.8440094	-0.654068	0.44628906
84666959098132	-1.94664	-0.85931396	0.6148834
84666964103015	-1.6937408	-1.1684265	0.65641785
84666969168933	-1.241684	-1.4689484	0.54034424
84666974173816	-0.8287506	-1.5752411	0.3424225
84666979941638	-0.61738586	-1.3565521	0.20559692
84666984305652	-0.61494446	-0.85687256	0.2300415
84666989371570	-0.738327	-0.25578308	0.39863586
84666994651111	-0.9118347	0.25608826	0.6173248
84666999381335	-1.0999756	0.573761	0.7969055
84667003562243	-1.2978973	0.67759705	0.90319824
84667009421618	-1.5080261	0.59329224	0.95573425
84667014487536	-1.7389221	0.37216187	0.9777374
84667019522937	-1.9954987	0.0874939	0.9777374
84667024619372	-2.2752838	-0.18003845	0.95085144
84667030387195	-2.575821	-0.36695862	0.88731384
84667034629138	-2.8910217	-0.44882202	0.7871399
84667039634021	-3.2196655	-0.44026184	0.6551819
84667044974597	-3.5568695	-0.38160706	0.4927063
84667049735339	-3.886734	-0.31809998	0.29722595
84667053916247	-3.886734	-0.2899933	0.29722595
84667059806140	-4.4084167	-0.2899933	-0.17555237
84667064841540	-4.4084167	-0.41461182	-0.17555237
84667069907458	-4.520813	-0.41461182	-0.43089294
84667074881824	-4.487808	-0.54777527	-0.6837921
84667080771716	-3.991806	-0.6858368	-1.1236115
84667084952624	-3.991806	-0.8287811	-1.1236115
84667090018542	-3.5971832	-0.8287811	-1.275116
84667095389636	-3.170807	-0.7945709	-1.366745
84667100089343	-2.7554016	-0.6882782	-1.4009552
84667104972156	-2.3803406	-0.52090454	-1.3887482
84667110160144	-2.062683	-0.3156433	-1.3386536
84667115317615	-1.8012543	-0.09941101	-1.2568054
84667120200427	-1.5837708	0.09605408	-1.1517334
84667125266345	-1.4066315	0.25852966	-1.0344391
84667130576404	-1.2661285	0.39170837	-0.91226196
84667135398181	-1.1683807	0.51142883	-0.7962036
84667140372546	-1.1109772	0.62750244	-0.6899109
84667145835193	-1.0914154	0.73501587	-0.59950256
84667150443347	-1.1036377	0.82421875	-0.52497864
84667155173572	-1.1402893	0.8914032	-0.4590149
84667160514148	-1.1952667	0.9402771	-0.3954773
84667165519031	-1.2612457	0.9769287	-0.330719
84667170584949	-1.3284302	1.0123444	-0.26597595
84667175589831	-1.3858643	1.0429077	-0.20732117
84667181296618	-1.4261627	1.0575562	-0.16334534
84667185691150	-1.451828	1.0379944	-0.13769531
84667190726550	-1.4652557	0.97203064	-0.13279724
84667196036609	-1.4738159	0.8608551	-0.14624023
84667200766833	-1.4823761	0.71546936	-0.17311096
84667205527575	-1.4823761	0.5493164	-0.17311096
84667210868152	-1.4921417	0.5493164	-0.21220398
84667216117175	-1.5080261	0.37339783	-0.25985718
84667220938952	-1.5300293	0.19868469	-0.31607056
84667226004870	-1.5605621	0.036209106	-0.3771515
84667231833728	-1.5984344	-0.10429382	-0.49687195
84667236014636	-1.6412048	-0.21791077	-0.49687195
84667241141589	-1.6864014	-0.3083191	-0.54696655
84667246482165	-1.7340393	-0.3889618	-0.5872803
84667251151355	-1.7816925	-0.47935486	-0.61538696
84667256369861	-1.828125	-0.5929718	-0.62760925
84667261222156	-1.8684387	-0.732254	-0.6263733
84667266928943	-1.9002075	-0.884964	-0.61172485
84667271262439	-1.9136353	-1.0340271	-0.5860596
84667276297839	-1.9038696	-1.1586304	-0.54818726
84667281760486	-1.8708801	-1.2392731	-0.49443054
84667286368640	-1.8207855	-1.2575989	-0.42356873
84667291404040	-1.7609253	-1.196518	-0.33805847
84667296775134	-1.7010651	-1.0486755	-0.24641418
84667301505359	-1.6509705	-0.81533813	-0.16456604
84667304862292	-1.6509705	-0.50868225	-0.10836792
84667311545642	-1.6216431	-0.50868225	-0.082717896
84667316611560	-1.6546326	0.24632263	-0.08149719
84667321677478	-1.7169495	0.638504	-0.090042114
84667326651843	-1.7890167	1.0025787	-0.09248352
84667332358630	-1.8464508	1.3190155	-0.082717896
84667336783679	-1.8611145	1.5731201	-0.058288574
84667341788562	-1.8159027	1.7453918	-0.021636963
84667347525866	-1.7010651	1.8150177	0.027236938
84667351859363	-1.7010651	1.7612762	0.0846405
84667355216296	-1.5190277	1.5767975	0.0846405
84667361930163	-1.2795715	1.5767975	0.14938354
84667366935046	-1.0144653	1.2664795	0.21780396
84667371970447	-0.7700958	0.84742737	0.28378296
84667377097400	-0.5978546	0.35383606	0.33387756
84667382499011	-0.52211	-0.16659546	0.35708618
84667387107165	-0.5367584	-0.6503906	0.35098267
84667392142566	-0.61372375	-1.051117	0.32043457
84667397452624	-0.71391296	-1.3431091	0.27401733
84667402182849	-0.8092041	-1.519043	0.22515869
84667405570300	-0.8776245	-1.5862427	0.1823883
84667412253650	-0.91059875	-1.5544739	0.15184021
84667417319568	-0.90815735	-1.4420776	0.13595581
84667422354968	-0.87516785	-1.2722626	0.1298523
84667427359851	-0.82263184	-1.0670013	0.122528076
84667433371814	-0.75912476	-0.84342957	0.10908508
84667437430652	-0.69558716	-0.6186218	0.0834198
84667442466052	-0.6381531	-0.4024048	0.04676819
84667447898181	-0.59295654	-0.20692444	0.0015563965
84667452536853	-0.5636444	-0.037094116	-0.04484558
84667455893786	-0.5636444	0.09729004	-0.04484558
84667462668689	-0.5318756	0.09729004	-0.1352539
84667467643054	-0.50987244	0.22311401	-0.17311096
84667472708972	-0.47566223	0.21334839	-0.20243835
84667477713855	-0.42436218	0.1681366	-0.22200012
84667483695300	-0.35350037	0.10461426	-0.23052979
84667487845691	-0.26065063	0.038650513	-0.22688293
84667492881091	-0.14213562	-0.024871826	-0.20611572
84667498465808	0.0056762695	-0.084732056	-0.1670227
84667502921374	0.0056762695	-0.14826965	-0.1670227
84667506278308	0.18403625	-0.14826965	-0.1169281
84667512992175	0.39663696	-0.22035217	-0.06437683
84667517997058	0.6372986	-0.30342102	-0.017959595
84667523032458	0.897522	-0.3889618	0.007675171
84667530051501	1.3972015	-0.462265	-0.0521698
84667533408435	1.3972015	-0.5184479	-0.0521698
84667538199695	1.6098022	-0.5184479	-0.13645935
84667543204577	1.8016052	-0.46958923	-0.23544312
84667548911365	1.9934235	-0.3547516	-0.330719
84667553244861	2.1937866	-0.16659546	-0.4174652
84667556693347	2.3855896	0.08016968	-0.4981079
84667563346179	2.532196	0.35751343	-0.56773376
84667568381579	2.6030731	0.61405945	-0.6214905
84667573386462	2.5883942	0.791214	-0.6508179
84667578482898	2.5053253	0.8510742	-0.6654663
84667583945544	2.3782654	0.791214	-0.67770386
84667588523181	2.2402039	0.64094543	-0.6947937
84667593528064	2.1229248	0.43814087	-0.71191406
84667599417956	2.0483856	0.20845032	-0.70944214
84667603598865	2.0288544	-0.035873413	-0.6813507
84667606955798	2.0288544	-0.2924347	-0.6813507
84667613700183	2.1192474	-0.2924347	-0.55796814
84667618766101	2.2035522	-0.8128967	-0.48098755
84667623740466	2.2988434	-1.0486755	-0.4015808
84667628806384	2.3929138	-1.2502747	-0.31973267
84667634269031	2.4723358	-1.4115295	-0.23664856
84667638877185	2.5248566	-1.5288239	-0.14746094
84667643912585	2.5248566	-1.6058044	-0.14746094
84667649832995	2.5175323	-1.6058044	0.057769775
84667653952868	2.5175323	-1.6827545	0.057769775
84667657309802	2.4637756	-1.6827545	0.1616211
84667664054187	2.3929138	-1.6925354	0.25813293
84667669089587	2.3269348	-1.6839905	0.35586548
84667674094470	2.2878418	-1.6558685	0.46826172
84667679160388	2.2951813	-1.6131287	0.60510254
84667684470447	2.3513794	-1.5581512	0.7578125
84667689414294	2.4454498	-1.5007172	0.91296387
84667694266589	2.5505219	-1.4396362	1.0522461
84667700278552	2.6384888	-1.3687897	1.1695404
84667704337390	2.689804	-1.2734833	1.267273
84667707694324	2.7044678	-1.1403046	1.3503418
84667714408191	2.6885834	-0.9692688	1.411438
84667719443591	2.6555939	-0.77256775	1.4395294
84667724478991	2.6116028	-0.56365967	1.4273224
84667729728015	2.5566254	-0.34251404	1.3906708
84667734854968	2.4955444	-0.10673523	1.3515778
84667739585193	2.4332428	0.13638306	1.3271332
84667744590075	2.3770294	0.36972046	1.3137054
84667750022204	2.3379364	0.5762024	1.2892609
84667754660876	2.323288	0.73501587	1.2355194
84667758017810	2.323288	0.8254242	1.2355194
84667764731677	2.3929138	0.8254242	1.0082703
84667769767077	2.466217	0.71058655	0.8616638
84667774802478	2.5260925	0.4967804	0.7236023
84667780173572	2.540741	0.23899841	0.60266113
84667785361560	2.4918823	0.030090332	0.4902649
84667790122302	2.4002533	-0.060302734	0.38519287
84667794944079	2.4002533	-0.045639038	0.38519287
84667801017077	2.2389832	-0.045639038	0.23857117
84667805014880	2.2389832	-0.07496643	0.23857117
84667808371814	2.2011108	-0.07496643	0.21292114
84667815146716	2.1803436	-0.24234009	0.20315552
84667820151599	2.170578	-0.462265	0.18971252
84667825156482	2.1766663	-0.6430664	0.1665039
84667830222400	2.1998901	-0.71881104	0.1335144
84667835715564	2.2341003	-0.67607117	0.09320068
84667840720447	2.2658691	-0.5404358	0.04800415
84667845298083	2.282959	-0.3486328	-8.8500977E-4
84667850760730	2.2817535	-0.13117981	-0.049728394
84667855399402	2.2585297	0.09239197	-0.09738159
84667858756335	2.208435	0.31106567	-0.13891602
84667865439685	2.1143646	0.51142883	-0.17434692
84667870505603	1.9628754	0.68247986	-0.19511414
84667875510486	1.7490692	0.8181	-0.19023132
84667880637439	1.4803009	0.9109497	-0.15602112
84667885886462	1.168747	0.95248413	-0.09614563
84667891135486	0.82421875	0.9402771	-0.02772522
84667895682605	0.45526123	0.8755188	0.034561157
84667901755603	0.07652283	0.764328	0.085861206
84667905722888	-0.29730225	0.6177368	0.12617493
84667909110339	-0.29730225	0.45280457	0.12617493
84667915824206	-0.95825195	0.45280457	0.17015076
84667921073230	-1.2221527	0.1828003	0.1640625
84667925864490	-1.4347229	0.1217041	0.13595581
84667931754382	-1.5996552	0.119262695	0.08831787
84667936393054	-1.7205963	0.16447449	0.026000977
84667941703113	-1.7988129	0.24021912	-0.04484558
84667946006091	-1.7988129	0.32818604	-0.04484558
84667951255115	-1.8317871	0.32818604	-0.114471436
84667956076892	-1.8159027	0.41371155	-0.17678833
84667959433825	-1.7450409	0.49554443	-0.22564697
84667966178210	-1.604538	0.5786438	-0.25497437
84667971396716	-1.3834076	0.67149353	-0.26229858
84667976218493	-1.0816498	0.77168274	-0.24276733
84667981498034	-0.7187958	0.8779602	-0.19511414
84667986808093	-0.33639526	0.9976959	-0.12181091
84667992057116	0.024002075	1.1418457	-0.037521362
84667996390613	0.3318634	1.3080139	0.0357666
84668002066882	0.55789185	1.4460602	0.08831787
84668006461413	0.68006897	1.4729309	0.12617493
84668009757312	0.6873932	1.3165741	0.15550232
84668016532214	0.600647	0.96713257	0.1665039
84668021750720	0.46992493	0.50045776	0.14205933
84668026572497	0.35751343	0.04597473	0.07243347
84668031943591	0.3269806	-0.2741089	-0.0362854
84668036917956	0.422287	-0.39505005	-0.17434692
84668042594226	0.66539	-0.330307	-0.32461548
84668046714099	1.0282593	-0.14459229	-0.46510315
84668052481921	1.4253235	0.075286865	-0.56895447
84668056815417	1.7270813	0.24632263	-0.6263733
84668060172351	1.7270813	0.3000946	-0.6263733
84668066855700	1.5572662	0.3000946	-0.61782837
84668072226794	1.0233612	0.014221191	-0.54208374
84668076957019	1.0233612	-0.20202637	-0.54208374
84668082938464	-0.53308105	-0.20202637	-0.19267273
84668087302478	-0.53308105	-0.44026184	-0.19267273
84668093039782	-2.0089417	-0.44026184	0.41940308
84668097068103	-2.0089417	-0.47813416	0.41940308
84668102774890	-2.435318	-0.47813416	0.7981415
84668107138904	-2.4719696	-0.59176636	1.1573334
84668110495837	-2.0736847	-0.8617554	1.3869934
84668117240222	-1.4041901	-1.2331696	1.3943481
84668122977527	-0.7700958	-1.4994965	1.1964264
84668127280505	-0.4182434	-1.444519	0.9252014
84668133353503	-0.39015198	-1.0266876	0.7370453
84668137778552	-0.56973267	-0.41949463	0.70162964
84668143271716	-0.8299713	0.14126587	0.7749176
84668147422107	-1.1048584	0.51387024	0.86654663
84668152915271	-1.3699799	0.6873779	0.91296387
84668157492907	-1.6204224	0.71424866	0.8934326
84668160849841	-1.8635559	0.65805054	0.8152313
84668167624743	-2.1066742	0.57496643	0.6918335
84668173117907	-2.3620148	0.51387024	0.5354614
84668177634509	-2.6344604	0.4992218	0.34854126
84668183463366	-2.9301147	0.5261078	0.13841248
84668188224109	-3.24411	0.5713196	-0.09370422
84668194022449	-3.5666351	0.599411	-0.3453827
84668197837146	-3.8720703	0.5896454	-0.60928345
84668203727038	-4.124954	0.5419922	-0.87438965
84668207846911	-4.2825623	0.480896	-1.1236115
84668211203845	-4.2825623	0.4466858	-1.1236115
84668217978747	-4.205612	0.4466858	-1.5170288
84668223746570	-3.9685974	0.5285492	-1.6538544
84668227988513	-3.9685974	0.61650085	-1.6538544
84668233878406	-3.2111053	0.61650085	-1.8053436
84668238395007	-3.2111053	0.73379517	-1.8053436
84668244620593	-2.343689	0.73379517	-1.7320404
84668248160632	-2.343689	0.65927124	-1.7320404
84668254172595	-1.9820557	0.65927124	-1.6000977
84668258200915	-1.7035065	0.5627594	-1.4278412
84668261588366	-1.5068207	0.4625702	-1.2445679
84668268302234	-1.3748627	0.38804626	-1.0710907
84668274344714	-1.2893372	0.34895325	-0.9183655
84668278373034	-1.2343597	0.35017395	-0.7852173
84668284964831	-1.1952667	0.38560486	-0.6667023
84668288749011	-1.1659393	0.44058228	-0.5530853
84668294394763	-1.1439514	0.50045776	-0.44433594
84668298484118	-1.1305237	0.5529938	-0.34294128
84668305625232	-1.1231842	0.599411	-0.25865173
84668308554919	-1.1195221	0.64460754	-0.19999695
84668311911853	-1.1244049	0.70570374	-0.17311096
84668318686755	-1.1476135	0.79000854	-0.18289185
84668324729236	-1.2013855	0.8950653	-0.22688293
84668328696521	-1.2954559	1.0050201	-0.29530334
84668335074695	-1.4261627	1.0990906	-0.37471008
84668339255603	-1.5776672	1.1516266	-0.45166016
84668345328601	-1.7303925	1.1381836	-0.5164337
84668348899157	-1.867218	1.0441132	-0.56651306
84668355033191	-1.9808502	0.8632965	-0.59706116
84668358908923	-2.063919	0.6055145	-0.6031647
84668362265857	-2.063919	0.29397583	-0.6031647
84668369010241	-2.107895	0.29397583	-0.58483887
84668375388415	-2.041916	-0.028549194	-0.4773407
84668379050525	-2.041916	-0.5343323	-0.4773407
84668385428699	-1.7609253	-0.5343323	-0.30873108
84668389426501	-1.7609253	-0.64430237	-0.30873108
84668394156726	-1.5556793	-0.64430237	-0.22200012
84668399192126	-1.3186646	-0.5343323	-0.14746094
84668404715808	-1.0584412	-0.32418823	-0.09248352
84668409293445	-0.7872162	-0.02609253	-0.054611206
84668412650378	-0.5159912	0.34039307	-0.02772522
84668419333728	-0.27041626	0.73747253	-0.0045318604
84668425589831	-0.084732056	1.1076508	0.016235352
84668429435046	0.009338379	1.3813171	0.03211975
84668434439929	-0.0041046143	1.5059357	0.038223267
84668439749988	-0.11038208	1.4558411	0.033325195
84668444510730	-0.28630066	1.2371521	0.013793945
84668449546130	-0.5001068	0.8730774	-0.02407837
84668454825671	-0.7334442	0.39782715	-0.074157715
84668459647449	-0.9729004	-0.14950562	-0.12669373
84668462973865	-0.9729004	-0.7249298	-0.12669373
84668469718249	-1.4029541	-0.7249298	-0.20487976
84668476279529	-1.5556793	-1.7890472	-0.22564697
84668479758532	-1.6460876	-2.2129822	-0.23297119
84668484793933	-1.6644135	-2.5245361	-0.22076416
84668490226062	-1.6106567	-2.695572	-0.17799377
84668494864734	-1.4982605	-2.7016754	-0.09370422
84668499869616	-1.3491974	-2.5208588	0.026000977
84668505179675	-1.1915894	-2.1408997	0.15550232
84668510001452	-1.1915894	-1.5727997	0.26179504
84668513327868	-1.0608826	-1.5727997	0.26179504
84668520072253	-0.98513794	-0.8690796	0.32287598
84668525473865	-0.983902	-0.11894226	0.3424225
84668530112536	-1.0535583	0.5688782	0.33876038
84668535178454	-1.1732788	1.1076508	0.32533264
84668540580066	-1.307663	1.4631653	0.30822754
84668545218738	-1.4200745	1.6537628	0.28622437
84668550254138	-1.4799347	1.7233887	0.26301575
84668555655749	-1.4762573	1.6952972	0.24224854
84668560294421	-1.4102936	1.5682373	0.2276001
84668563651355	-1.29422	1.3153381	0.21780396
84668570395740	-1.1537323	0.92315674	0.21292114
84668575431140	-1.0132294	0.4124756	0.21047974
84668580466540	-0.8959503	-0.14215088	0.21047974
84668585501941	-0.8104248	-0.63694763	0.2117157
84668590750964	-0.7444458	-0.9790497	0.21047974
84668595572741	-0.68336487	-1.1244202	0.20803833
84668600608142	-0.61738586	-1.0853271	0.20559692
84668606101306	-0.54896545	-0.9081726	0.20436096
84668610678943	-0.48910522	-0.6503906	0.1982727
84668614005359	-0.48910522	-0.35839844	0.1982727
84668620749743	-0.43780518	-0.35839844	0.17506409
84668625754626	-0.44024658	0.17546082	0.1640625
84668630820544	-0.4365692	0.36972046	0.15794373
84668635886462	-0.3950348	0.49310303	0.15917969
84668641104968	-0.29730225	0.52731323	0.16770935
84668645926745	-0.14335632	0.45646667	0.18482971
84668650962146	0.055755615	0.2866516	0.20683289
84668656211169	0.28788757	0.06185913	0.21659851
84668661002429	0.28788757	-0.15315247	0.21659851
84668664359363	0.54811096	-0.15315247	0.18359375
84668671103747	0.8278961	-0.30586243	0.08831787
84668676169665	1.1150055	-0.36940002	-0.05949402
84668681205066	1.3911133	-0.34985352	-0.23664856
84668686209949	1.6427765	-0.27044678	-0.4186859
84668691611560	1.8565826	-0.15682983	-0.59339905
84668696280749	2.0202942	-0.027313232	-0.7534485
84668701285632	2.1290436	0.11437988	-0.89393616
84668706717761	2.1913452	0.2683258	-1.0026703
84668711386950	2.2169952	0.42469788	-1.0613098
84668714713366	2.2206573	0.5688782	-1.0637665
84668721488269	2.2108765	0.6702728	-1.0148773
84668726523669	2.2023315	0.69836426	-0.93304443
84668731528552	2.2145538	0.6360626	-0.82307434
84668736563952	2.269516	0.4980011	-0.68014526
84668741965564	2.3831482	0.32450867	-0.4956665
84668746665271	2.5590668	0.1681366	-0.27697754
84668751700671	2.7850952	0.0655365	-0.049728394
84668757163318	3.0208893	0.022766113	0.15184021
84668761771472	3.2126923	0.00932312	0.29966736
84668765097888	3.2126923	-0.021209717	0.29966736
84668771842273	3.2994385	-0.021209717	0.4242859
84668776847156	3.179718	-0.26922607	0.43284607
84668781882556	2.9793549	-0.49035645	0.4291687
84668786917956	2.7313385	-0.7432556	0.42060852
84668792166980	2.4650116	-0.9998169	0.4096222
84668796988757	2.4650116	-1.235611	0.39375305
84668802024157	2.2169952	-1.4359741	0.39375305
84668807456286	2.016632	-1.4359741	0.36198425
84668812094958	1.8920288	-1.6571045	0.36198425
84668815421374	1.8529053	-1.6571045	0.3631897
84668822165759	1.8956757	-1.6473389	0.3912964
84668827201159	2.0019684	-1.5605927	0.45361328
84668832267077	2.142456	-1.4200897	0.54400635
84668837271960	2.2890778	-1.2514954	0.64541626
84668842551501	2.4087982	-1.0682373	0.7468109
84668847312243	2.4821014	-0.8666382	0.8408966
84668852347644	2.502884	-0.6357422	0.92884827
84668857657702	2.4784393	-0.37184143	1.0058289
84668862448962	2.4210205	-0.08352661	1.0705719
84668865775378	2.3403778	0.2157898	1.1182251
84668872519763	2.2499847	0.5102234	1.1463318
84668877524646	2.155899	0.78144836	1.1609802
84668882590564	2.0679474	1.009903	1.1719818
84668887595447	1.9970856	1.1723938	1.1829834
84668892997058	1.9616547	1.240799	1.193985
84668897696765	1.9775391	1.1919403	1.192749
84668902732165	2.0447388	1.0074615	1.1622162
84668908072741	2.1388092	0.6849365	1.0852356
84668912772449	2.2230988	0.2548828	0.96061707
84668916159900	2.2230988	-0.21913147	0.96061707
84668922873767	2.2536469	-0.21913147	0.69062805
84668927878650	2.2023315	-1.0095825	0.59532166
84668932944568	2.1351318	-1.235611	0.5220337
84668937979968	2.0765076	-1.3443451	0.4584961
84668943351062	2.0361786	-1.3651123	0.3998413
84668948050769	2.0361786	-1.3260193	0.3998413
84668953086169	2.0092926	-1.3260193	0.3424225
84668958548816	1.9812012	-1.2331696	0.28012085
84668963156970	1.9543304	-1.0706787	0.20927429
84668966513904	1.9408875	-0.8397522	0.12861633
84668973227771	1.9567719	-0.5697632	0.045547485
84668978232654	1.999527	-0.30465698	-0.046051025
84668983298572	2.050827	-0.076187134	-0.1511383
84668988333972	2.0862732	0.10217285	-0.2671814
84668993582995	2.0923615	0.2316742	-0.383255
84668998404773	2.0715942	0.31962585	-0.48587036
84669003440173	2.0300598	0.38072205	-0.56773376
84669008689197	1.9750977	0.43203735	-0.6263733
84669013510974	1.9017944	0.4796753	-0.6520386
84669016837390	1.806488	0.52731323	-0.64593506
84669023581775	1.6867676	0.573761	-0.61294556
84669028586657	1.545044	0.61650085	-0.56407166
84669033652575	1.3776703	0.64949036	-0.5091095
84669038687976	1.1834259	0.66659546	-0.45166016
84669044089587	0.95739746	0.66537476	-0.3979187
84669048758777	0.7008362	0.64704895	-0.3453827
84669053763659	0.42349243	0.60917664	-0.29774475
84669059073718	0.13394165	0.54563904	-0.25253296
84669063864978	-0.15679932	0.4515686	-0.21343994
84669067221911	-0.15679932	0.3343048	-0.21343994
84669073966296	-0.7016907	0.3343048	-0.18045044
84669079001697	-0.9338074	0.09484863	-0.19755554
84669084006579	-1.1256256	0.010559082	-0.23544312
84669089072497	-1.1256256	-0.0309906	-0.23544312
84669094443591	-1.3638611	-0.0309906	-0.34049988
84669099112781	-1.3638611	0.06185913	-0.34049988
84669104148181	-1.4078522	0.06185913	-0.3930359
84669109580310	-1.4029541	0.18890381	-0.4406891
84669114218982	-1.3455505	0.35017395	-0.48466492
84669117575915	-1.2319183	0.5236664	-0.52619934
84669124289782	-1.0559998	0.69592285	-0.56040955
84669129294665	-0.8141022	0.8584137	-0.58361816
84669134360583	-0.51231384	1.0135803	-0.5872803
84669139395984	-0.17268372	1.1687317	-0.57141113
84669144645007	0.16815186	1.3385468	-0.5298767
84669149466784	0.474823	1.5230255	-0.4663391
84669154502185	0.7252655	1.6977386	-0.3844757
84669159934314	0.9256439	1.8260193	-0.29162598
84669164572986	1.0783539	1.8822174	-0.19387817
84669167960437	1.1675415	1.8577881	-0.09738159
84669174643786	1.1663055	1.7233887	-0.013092041
84669179648669	1.0697937	1.4289551	0.03211975
84669184714587	0.93540955	0.97325134	0.0027923584
84669189749988	0.8621063	0.45524597	-0.123031616
84669194999011	0.93540955	0.0178833	-0.32095337
84669199820788	1.1748657	-0.24601746	-0.52742004
84669204825671	1.5218353	-0.3461914	-0.6654663
84669210135730	1.8614655	-0.36328125	-0.6886749
84669214926990	2.0435028	-0.3730774	-0.59339905
84669218283923	2.0435028	-0.3938446	-0.59339905
84669224997790	1.4546356	-0.3938446	-0.05949402
84669230033191	0.6580658	-0.26556396	0.4108429
84669235038074	0.6580658	-0.112854004	0.4108429
84669240073474	-0.29606628	-0.112854004	1.0082703
84669245475085	-1.1659393	-0.063964844	1.6228027
84669250174792	-1.7315979	-0.26556396	2.0638428
84669255210193	-1.9038696	-0.7469177	2.1554565
84669260611804	-1.7633667	-1.3492279	1.8634644
84669265280993	-1.4750519	-1.7853851	1.3393555
84669268607409	-1.1781616	-1.8000488	0.8274536
84669275351794	-0.9326019	-1.3333435	0.50491333
84669280417712	-0.766449	-0.55755615	0.3912964
84669285392077	-0.712677	0.27441406	0.39863586
84669290457995	-0.78842163	0.9793701	0.42549133
84669295829089	-0.9863434	1.4949341	0.41940308
84669300528796	-1.2734528	1.8040161	0.36686707
84669305533679	-1.6277618	1.8944397	0.26913452
84669311026843	-2.0455933	1.7686005	0.1347351
84669315665515	-2.523285	1.4790497	-0.021636963
84669318961413	-3.043747	1.1088562	-0.18778992
84669325705798	-3.5641937	0.72402954	-0.35516357
84669330710681	-4.0370026	0.34651184	-0.52008057
84669335746081	-4.423065	-0.027313232	-0.6703491
84669340811999	-4.6979675	-0.40116882	-0.79130554
84669346061023	-4.8567657	-0.77012634	-0.864624
84669350882800	-4.900772	-1.117096	-0.8829498
84669355887683	-4.825012	-1.4249725	-0.85728455
84669361380847	-4.624649	-1.6717529	-0.80963135
84669365989001	-4.305786	-1.8281403	-0.7644501
84669369345935	-4.305786	-1.8623505	-0.7644501
84669376059802	-3.8940582	-1.8623505	-0.7497711
84669381064685	-3.4346771	-1.7609558	-0.7497711
84669386100085	-2.9716492	-1.5361481	-0.7962036
84669391166003	-2.5452728	-1.2233887	-0.87683105
84669396384509	-2.1873016	-0.87275696	-0.9819031
84669401236804	-1.9173126	-0.52700806	-1.0942993
84669406241687	-1.7364807	-0.22035217	-1.1895905
84669411490710	-1.631424	0.031326294	-1.2482452
84669416343005	-1.5740051	0.2316742	-1.2628937
84669419699939	-1.5373535	0.39537048	-1.236023
84669426413806	-1.5031433	0.53466797	-1.1761475
84669431479724	-1.4640503	0.64949036	-1.0918579
84669436484607	-1.4212799	0.7362366	-0.99046326
84669441550525	-1.3712006	0.79244995	-0.87805176
84669446921618	-1.3125458	0.81565857	-0.7607727
84669451590808	-1.2465668	0.81321716	-0.64593506
84669456626208	-1.1793823	0.7936554	-0.54086304
84669462058337	-1.1219635	0.764328	-0.4504547
84669466727527	-1.0865326	0.7362366	-0.3808136
84669469992907	-1.0865326	0.72158813	-0.3356018
84669476737292	-1.11586	0.73135376	-0.3148346
84669481772693	-1.1757202	0.764328	-0.317276
84669486838611	-1.2526855	0.804657	-0.33805847
84669491874011	-1.334549	0.82666016	-0.369812
84669497153552	-1.4115143	0.8070984	-0.4089203
84669501944812	-1.4713745	0.73501587	-0.44921875
84669506980212	-1.5104675	0.6152954	-0.48710632
84669512442859	-1.5324707	0.4650116	-0.522522
84669517081531	-1.5434723	0.30130005	-0.55552673
84669520407947	-1.5434723	0.13638306	-0.55552673
84669527152331	-1.5544434	0.13638306	-0.5872803
84669532126697	-1.5703278	-0.02609253	-0.61782837
84669537223132	-1.595993	-0.18615723	-0.6446991
84669542258532	-1.6265411	-0.3461914	-0.66181946
84669547538074	-1.6595306	-0.50990295	-0.6667023
84669552298816	-1.6949463	-0.6772766	-0.6581421
84669557334216	-1.7303925	-0.8422241	-0.6385956
84669562583240	-1.7706909	-0.9912567	-0.6068268
84669567374499	-1.8183441	-1.1085358	-0.56529236
84669570761950	-1.8769836	-1.1793976	-0.5115509
84669577475818	-1.94664	-1.1891937	-0.4480133
84669582480700	-2.0223846	-1.1256561	-0.3759308
84669587577136	-2.0883484	-0.9802704	-0.3013916
84669592551501	-2.1311035	-0.7469177	-0.23544312
84669598044665	-2.1408844	-0.43659973	-0.18411255
