gyroscope_timestamp	gyroscope_x_data	gyroscope_y_data	gyroscope_z_data
1040918803437331	0.0067749023	0.08003235	-0.01210022
1040918807007888	0.0067749023	-0.0066833496	-0.01210022
1040918812134841	0.0104522705	-0.0066833496	-0.016983032
1040918817109206	0.011657715	-0.0066833496	-0.023086548
1040918822114089	0.012893677	-0.0018005371	-0.030410767
1040918827454665	0.012893677	0.0055236816	-0.03529358
1040918832215407	0.009216309	0.015304565	-0.037734985
1040918835541823	0.008010864	0.023864746	-0.037734985
1040918842255690	0.008010864	0.03363037	-0.03895569
1040918847291091	0.0067749023	0.039733887	-0.04017639
1040918852326491	0.005554199	0.044631958	-0.04017639
1040918857361892	0.003112793	0.047073364	-0.036499023
1040918862824538	0.003112793	0.047073364	-0.02796936
1040918867463210	0.004333496	0.043395996	-0.016983032
1040918872498610	0.005554199	0.038513184	-0.007217407
1040918877930739	0.004333496	0.03363037	-0.0010986328
1040918882538894	0.0018920898	0.029953003	0.0050201416
1040918885956862	-0.0017700195	0.028747559	0.01234436
1040918892609694	-0.006668091	0.028747559	0.022109985
1040918897645095	-0.010314941	0.031188965	0.03189087
1040918902680495	-0.016433716	0.034851074	0.041671753
1040918907746413	-0.03843689	0.034851074	0.053878784
1040918913056472	-0.09094238	0.021408081	0.06732178
1040918917817214	-0.16668701	-0.0066833496	0.0770874
1040918922852614	-0.23387146	-0.029907227	0.07952881
1040918928193190	-0.2619934	-0.025009155	0.07342529
1040918932892897	-0.24487305	0.012863159	0.062438965
1040918936249831	-0.24487305	0.06295776	0.062438965
1040918942963698	-0.19967651	0.06295776	0.04899597
1040918947999099	-0.1434784	0.098358154	0.034332275
1040918953034499	-0.08483887	0.106918335	0.018447876
1040918958069899	-0.023757935	0.0947113	0.006225586
1040918963349440	0.03366089	0.0763855	1.373291E-4
1040918968171218	0.083740234	0.0617218	1.373291E-4
1040918973176101	0.12162781	0.054397583	0.0050201416
1040918978486159	0.15216064	0.050720215	0.014785767
1040918983246901	0.17536926	0.045837402	0.030670166
1040918986634353	0.19369507	0.038513184	0.04777527
1040918993317702	0.20469666	0.03363037	0.062438965
1040918998383620	0.20713806	0.031188965	0.06976318
1040919003419021	0.20225525	0.03363037	0.06732178
1040919008423903	0.19004822	0.039733887	0.06488037
1040919013917067	0.16804504	0.04827881	0.06732178
1040919018494704	0.1375122	0.059280396	0.078308105
1040919023530105	0.100860596	0.066604614	0.0917511
1040919028962233	0.06665039	0.067840576	0.10031128
1040919033600905	0.0385437	0.066604614	0.10031128
1040919036927321	0.0385437	0.06295776	0.094192505
1040919043702224	0.026321411	0.06295776	0.08442688
1040919048707106	0.043426514	0.07392883	0.074645996
1040919053742507	0.0703125	0.08491516	0.06854248
1040919058777907	0.100860596	0.09347534	0.06854248
1040919064240554	0.124069214	0.09347534	0.0758667
1040919068848708	0.1191864	0.078826904	0.090530396
1040919073884108	0.07397461	0.044631958	0.10519409
1040919079285720	-0.005432129	-0.0042419434	0.11984253
1040919083954909	-0.005432129	-0.045776367	0.12840271
1040919087342360	-0.08972168	-0.05555725	0.12840271
1040919094025710	-0.1459198	-0.05555725	0.13084412
1040919099061110	-0.1630249	-0.025009155	0.1247406
1040919104065993	-0.1483612	0.022628784	0.11129761
1040919109162429	-0.11048889	0.0617218	0.090530396
1040919114411452	-0.051849365	0.08370972	0.06488037
1040919119263747	0.022659302	0.09715271	0.04043579
1040919124238112	0.10450745	0.10813904	0.022109985
1040919129914382	0.18025208	0.11668396	0.009902954
1040919134308913	0.23646545	0.11791992	0.0050201416
1040919137726882	0.26579285	0.10324097	0.008666992
1040919144379714	0.26579285	0.0763855	0.018447876
1040919149415114	0.24134827	0.047073364	0.034332275
1040919154481032	0.20103455	0.022628784	0.05265808
1040919159546950	0.15704346	0.0067443848	0.06732178
1040919165131667	0.11306763	0.0018615723	0.078308105
1040919169587233	0.072753906	0.0067443848	0.08320618
1040919174653151	0.036102295	0.017745972	0.08198547
1040919180298903	0.004333496	0.03239441	0.074645996
1040919184662917	-0.02255249	0.047073364	0.066101074
1040919188019851	-0.02255249	0.06295776	0.066101074
1040919194764235	-0.059188843	0.06295776	0.04777527
1040919199769118	-0.07015991	0.0947113	0.04043579
1040919204804519	-0.07383728	0.106918335	0.033111572
1040919209839919	-0.07015991	0.11424255	0.026992798
1040919215302565	-0.05795288	0.11668396	0.022109985
1040919219910720	-0.04208374	0.11791992	0.01966858
1040919224946120	-0.02619934	0.11668396	0.020904541
1040919230378249	-0.015213013	0.10935974	0.02822876
1040919235016921	-0.015213013	0.09225464	0.02822876
1040919238404372	-0.01399231	0.09225464	0.04043579
1040919245118239	-0.017654419	0.067840576	0.055099487
1040919250123122	-0.021316528	0.043395996	0.06976318
1040919255189040	-0.024993896	0.022628784	0.0770874
1040919260193923	-0.02619934	0.009185791	0.0770874
1040919265687087	-0.029876709	6.4086914E-4	0.06854248
1040919270264724	-0.037200928	-0.0018005371	0.057540894
1040919275300124	-0.046966553	0.0030822754	0.046554565
1040919280640700	-0.060394287	0.015304565	0.041671753
1040919285370925	-0.07383728	0.028747559	0.042877197
1040919288788894	-0.08604431	0.039733887	0.04899597
1040919295441726	-0.095840454	0.047073364	0.055099487
1040919300477126	-0.10192871	0.05316162	0.057540894
1040919305543044	-0.10316467	0.05807495	0.058761597
1040919310517409	-0.095840454	0.06295776	0.058761597
1040919315888503	-0.079956055	0.066604614	0.0599823
1040919320649245	-0.059188843	0.06904602	0.0599823
1040919325654128	-0.035980225	0.07148743	0.0599823
1040919331360915	-0.010314941	0.07148743	0.061203003
1040919335724929	0.016555786	0.07148743	0.062438965
1040919339081862	0.016555786	0.07148743	0.062438965
1040919345795730	0.06297302	0.07148743	0.06732178
1040919350861647	0.0715332	0.06904602	0.06854248
1040919355866530	0.0715332	0.06295776	0.07342529
1040919360993483	0.06297302	0.050720215	0.08074951
1040919366028884	0.048324585	0.031188965	0.0917511
1040919370942214	0.031219482	0.011627197	0.102752686
1040919376008132	0.031219482	-0.0030212402	0.102752686
1040919381409743	-0.006668091	-0.0030212402	0.11495972
1040919386078933	-0.006668091	-0.0030212402	0.11495972
1040919389588454	-0.023757935	-0.0030212402	0.11619568
1040919396180251	-0.04208374	6.4086914E-4	0.11495972
1040919401215651	-0.060394287	0.0018615723	0.11129761
1040919406220534	-0.07627869	0.0018615723	0.10519409
1040919411255935	-0.08850098	0.0030822754	0.10031128
1040919416749099	-0.09338379	0.0018615723	0.094192505
1040919421326735	-0.09338379	-5.79834E-4	0.08930969
1040919426392653	-0.09094238	-0.007904053	0.08442688
1040919431824782	-0.08604431	-0.014022827	0.08074951
1040919436463454	-0.0811615	-0.01524353	0.078308105
1040919439942458	-0.07751465	-0.011581421	0.078308105
1040919446503737	-0.07627869	-0.0030212402	0.07952881
1040919451508620	-0.07751465	0.0067443848	0.08074951
1040919456574538	-0.079956055	0.010421753	0.0770874
1040919461579421	-0.08239746	0.0055236816	0.06854248
1040919466858962	-0.0811615	-0.009140015	0.053878784
1040919471680739	-0.06651306	-0.027450562	0.03555298
1040919476716140	-0.035980225	-0.04333496	0.014785767
1040919481995681	0.0104522705	-0.056777954	-0.0010986328
1040919486786940	0.060531616	-0.06654358	-0.0096588135
1040919490174392	0.060531616	-0.07266235	-0.0096588135
1040919496857741	0.14727783	-0.07266235	-0.008422852
1040919501862624	0.17660522	-0.08242798	-0.004776001
1040919506959060	0.19125366	-0.084869385	0.0013427734
1040919511963942	0.19369507	-0.08242798	0.011108398
1040919517243483	0.18392944	-0.068984985	0.022109985
1040919522034743	0.18392944	-0.04701233	0.022109985
1040919527070144	0.16316223	-0.04701233	0.037994385
1040919532319167	0.13383484	-0.020126343	0.05632019
1040919537110427	0.09718323	0.0018615723	0.0770874
1040919540650466	0.05809021	0.007980347	0.10151672
1040919547211745	0.018997192	-5.79834E-4	0.1247406
1040919552247146	-0.011550903	-0.022567749	0.14305115
1040919557282546	-0.032318115	-0.05067444	0.15284729
1040919562317946	-0.03843689	-0.08242798	0.15161133
1040919567750075	-0.031082153	-0.12275696	0.1394043
1040919572388747	-0.009109497	-0.17529297	0.12107849
1040919577424147	0.031219482	-0.24369812	0.09541321
1040919582795241	0.08862305	-0.31455994	0.061203003
1040919587494948	0.15460205	-0.37197876	0.018447876
1040919591645339	0.22425842	-0.4000702	-0.026733398
1040919597565749	0.28778076	-0.40374756	-0.06826782
1040919602570632	0.3390808	-0.39398193	-0.09881592
1040919607636550	0.37696838	-0.38542175	-0.11836243
1040919612671950	0.3952942	-0.38542175	-0.12814331
1040919618104079	0.39649963	-0.39030457	-0.1269226
1040919622742751	0.3818512	-0.39274597	-0.11470032
1040919627808669	0.35375977	-0.3866577	-0.093933105
1040919633057692	0.3183136	-0.37197876	-0.065826416
1040919637848952	0.27799988	-0.3524475	-0.034057617
1040919641846755	0.27799988	-0.3341217	-0.034057617
1040919647919753	0.19125366	-0.3341217	0.029434204
1040919652955153	0.1509552	-0.27668762	0.058761597
1040919657990554	0.111846924	-0.2351532	0.08320618
1040919663056472	0.111846924	-0.19482422	0.10397339
1040919668366530	0.04220581	-0.19482422	0.11740112
1040919673157790	0.04220581	-0.14228821	0.11740112
1040919678132155	0.018997192	-0.14228821	0.1235199
1040919683838942	0.009216309	-0.13619995	0.122283936
1040919688202956	0.01411438	-0.1374054	0.11740112
1040919692353347	0.031219482	-0.14472961	0.110076904
1040919698273757	0.05809021	-0.1532898	0.09663391
1040919703339675	0.08985901	-0.16184998	0.0758667
1040919708344558	0.124069214	-0.174057	0.050216675
1040919713440993	0.15583801	-0.19482422	0.022109985
1040919718842605	0.18025208	-0.22538757	-0.002319336
1040919723450759	0.19737244	-0.2657013	-0.025527954
1040919728516677	0.20957947	-0.31211853	-0.04385376
1040919733765700	0.22180176	-0.35733032	-0.057281494
1040919738587478	0.23402405	-0.39030457	-0.06462097
1040919742890456	0.24256897	-0.4000702	-0.06462097
1040919748658278	0.24134827	-0.38542175	-0.057281494
1040919753693679	0.22790527	-0.35121155	-0.03895569
1040919758729079	0.19857788	-0.30967712	-0.01210022
1040919763733962	0.15216064	-0.2657013	0.022109985
1040919769593337	0.09352112	-0.2217102	0.062438965
1040919773804763	0.025100708	-0.17649841	0.102752686
1040919778840163	-0.04576111	-0.13252258	0.14060974
1040919784302810	-0.1129303	-0.09465027	0.1736145
1040919788910964	-0.16912842	-0.061660767	0.19926453
1040919793488601	-0.16912842	-0.033569336	0.21635437
1040919798981765	-0.2253418	-0.033569336	0.22491455
1040919804017165	-0.21678162	-5.79834E-4	0.2237091
1040919809052565	-0.21678162	-5.79834E-4	0.2237091
1040919814087966	-0.18745422	-5.79834E-4	0.21391296
1040919819367507	-0.1434784	-0.007904053	0.19926453
1040919824158767	-0.092163086	-0.016464233	0.18214417
1040919829194167	-0.03843689	-0.022567749	0.16873169
1040919834473708	0.01411438	-0.023788452	0.16137695
1040919839264968	0.059310913	-0.016464233	0.1577301
1040919843690017	0.09352112	-0.0030212402	0.15893555
1040919849335769	0.11306763	0.010421753	0.16381836
1040919854371169	0.120391846	0.018966675	0.1736145
1040919859406569	0.11550903	0.017745972	0.18582153
1040919864503005	0.10450745	0.0067443848	0.19802856
1040919869782546	0.08985901	-0.009140015	0.20903015
1040919874543288	0.07519531	-0.023788452	0.21514893
1040919879578689	0.06175232	-0.027450562	0.21635437
1040919885254958	0.051986694	-0.017684937	0.21270752
1040919889618972	0.044647217	0.0030822754	0.20903015
1040919893769362	0.0385437	0.03239441	0.21147156
1040919899689772	0.032440186	0.06295776	0.2188263
1040919904725173	0.025100708	0.09347534	0.22979736
1040919909760573	0.012893677	0.12036133	0.24079895
1040919914857009	-0.010314941	0.14601135	0.24812317
1040919920319655	-0.040878296	0.16799927	0.25302124
1040919924866774	-0.07383728	0.18266296	0.25424194
1040919929902175	-0.10192871	0.18876648	0.25180054
1040919935364821	-0.12271118	0.18388367	0.24812317
1040919939972976	-0.13491821	0.17532349	0.24447632
1040919943329909	-0.13491821	0.16677856	0.24447632
1040919950074294	-0.1324768	0.16677856	0.24203491
1040919955140212	-0.1324768	0.15821838	0.24203491
1040919960145095	-0.12149048	0.15821838	0.24447632
1040919965149978	-0.108047485	0.15211487	0.24812317
1040919970704177	-0.092163086	0.14112854	0.25056458
1040919975220778	-0.07261658	0.12646484	0.25668335
1040919980286696	-0.051849365	0.10935974	0.26644897
1040919985505202	-0.03352356	0.08979797	0.27622986
1040919990296462	-0.016433716	0.07272339	0.28356934
1040919994965651	-5.493164E-4	0.05807495	0.28723145
1040920000367263	0.012893677	0.04827881	0.28723145
1040920005433181	0.023880005	0.04095459	0.28233337
1040920010499099	0.03366089	0.034851074	0.27378845
1040920015503981	0.040985107	0.029953003	0.26280212
1040920020814040	0.048324585	0.028747559	0.24812317
1040920025574782	0.053207397	0.03239441	0.22979736
1040920030610183	0.053207397	0.04219055	0.21026611
1040920035920241	0.049545288	0.055618286	0.19070435
1040920040680983	0.04220581	0.066604614	0.1736145
1040920044068435	0.031219482	0.07148743	0.1577301
1040920050751784	0.020217896	0.07272339	0.14550781
1040920055787185	0.0104522705	0.0763855	0.1394043
1040920060853103	0.003112793	0.082473755	0.13572693
1040920065827468	-0.0042266846	0.08859253	0.13208008
1040920071442702	-0.010314941	0.091033936	0.127182
1040920075928786	-0.009109497	0.08859253	0.11619568
1040920080994704	0.009216309	0.08735657	0.08930969
1040920086182692	0.056869507	0.091033936	0.03555298
1040920091034987	0.12771606	0.106918335	-0.03895569
1040920094391921	0.12771606	0.13256836	-0.03895569
1040920101075271	0.19981384	0.13256836	-0.11103821
1040920106141189	0.24623108	0.15821838	-0.15135193
1040920111176589	0.25234985	0.17166138	-0.15257263
1040920116211989	0.22180176	0.16311646	-0.122024536
1040920121674636	0.16804504	0.13134766	-0.081710815
1040920126252272	0.111846924	0.08735657	-0.045059204
1040920131287673	0.0690918	0.045837402	-0.019424438
1040920136658767	0.047088623	0.017745972	-0.0059814453
1040920141388991	0.043426514	0.0043029785	-0.002319336
1040920144745925	0.053207397	-0.0018005371	-0.003540039
1040920151490310	0.06665039	-0.0054626465	-0.0059814453
1040920156495192	0.07885742	-0.011581421	-0.0096588135
1040920161530593	0.08129883	-0.01524353	-0.01210022
1040920166535476	0.072753906	-0.01524353	-0.016983032
1040920172059157	0.0544281	-0.011581421	-0.021850586
1040920176636794	0.031219482	-0.007904053	-0.025527954
1040920181672194	0.0104522705	-0.0054626465	-0.024291992
1040920187104323	-0.0029907227	-0.0066833496	-0.019424438
1040920191742995	-0.005432129	-0.010345459	-0.01574707
1040920195099929	-0.005432129	-0.014022827	-0.01574707
1040920201813796	0.0104522705	-0.014022827	-0.013305664
1040920206818679	0.027542114	-0.01890564	-0.014541626
1040920211884597	0.047088623	-0.021347046	-0.014541626
1040920216889480	0.06541443	-0.022567749	-0.013305664
1040920222199538	0.076416016	-0.020126343	-0.01210022
1040920227021315	0.07885742	-0.016464233	-0.01210022
1040920232026198	0.0715332	-0.01524353	-0.0096588135
1040920237305739	0.056869507	-0.01890564	-0.004776001
1040920242096999	0.056869507	-0.022567749	-0.004776001
1040920245453933	0.04220581	-0.022567749	-0.0010986328
1040920252167800	0.032440186	-0.022567749	1.373291E-4
1040920257203200	0.027542114	-0.01524353	1.373291E-4
1040920262238601	0.028778076	-0.0030212402	0.0013427734
1040920267274001	0.032440186	0.010421753	0.0025787354
1040920272736647	0.03366089	0.017745972	0.007461548
1040920277344802	0.028778076	0.017745972	0.01600647
1040920282380202	0.022659302	0.010421753	0.02822876
1040920287995437	0.025100708	6.4086914E-4	0.04043579
1040920292451003	0.039764404	-0.0066833496	0.050216675
1040920295777419	0.06297302	-0.012802124	0.05265808
1040920302552321	0.08253479	-0.022567749	0.04899597
1040920307587722	0.092300415	-0.036010742	0.041671753
1040920312592605	0.09718323	-0.04701233	0.034332275
1040920317628005	0.09841919	-0.049453735	0.030670166
1040920323090651	0.09718323	-0.04333496	0.029434204
1040920327698806	0.095962524	-0.033569336	0.02822876
1040920332734206	0.09474182	-0.022567749	0.023345947
1040920338593581	0.09841919	-0.010345459	0.014785767
1040920342805007	0.10574341	0.007980347	0.006225586
1040920346161940	0.10574341	0.03239441	0.006225586
1040920352875808	0.108184814	0.03239441	-0.004776001
1040920357880690	0.095962524	0.07272339	-0.007217407
1040920362916091	0.076416016	0.08126831	-0.008422852
1040920369446853	0.051986694	0.08370972	-0.008422852
1040920373200515	0.025100708	0.08615112	-0.007217407
1040920378937819	-0.0029907227	0.08735657	-0.004776001
1040920383088210	-0.0029907227	0.08615112	-0.007217407
1040920388428786	-0.048202515	0.08370972	-0.014541626
1040920393159011	-0.048202515	0.082473755	-0.014541626
1040920396546462	-0.064071655	0.082473755	-0.026733398
1040920403229812	-0.07507324	0.082473755	-0.041412354
1040920408265212	-0.07872009	0.082473755	-0.058502197
1040920413331130	-0.07507324	0.08126831	-0.07194519
1040920418702224	-0.06651306	0.08126831	-0.078048706
1040920424012282	-0.056747437	0.08126831	-0.07926941
1040920428437331	-0.044525146	0.08003235	-0.07926941
1040920433411696	-0.032318115	0.0763855	-0.08049011
1040920439271071	-0.02255249	0.07028198	-0.07926941
1040920443513015	-0.017654419	0.0617218	-0.0756073
1040920446869948	-0.01399231	0.051956177	-0.07070923
1040920453583815	-0.007873535	0.047073364	-0.07070923
1040920458680251	-0.0017700195	0.047073364	-0.07316589
1040920463654616	0.003112793	0.051956177	-0.07316589
1040920469147780	0.004333496	0.054397583	-0.065826416
1040920474152663	0.004333496	0.054397583	-0.054840088
1040920479432204	0.005554199	0.04951477	-0.04385376
1040920483796218	0.011657715	0.04095459	-0.03529358
1040920488984206	0.020217896	0.031188965	-0.029174805
1040920493867019	0.031219482	0.021408081	-0.026733398
1040920497223952	0.031219482	0.012863159	-0.026733398
1040920503968337	0.04586792	0.012863159	-0.019424438
1040920509217360	0.051986694	-0.0042419434	-0.013305664
1040920514039138	0.0544281	-0.007904053	-0.004776001
1040920519257644	0.0544281	-0.007904053	0.008666992
1040920524537185	0.051986694	-0.0066833496	0.023345947
1040920529786208	0.040985107	-0.0066833496	0.037994385
1040920534180739	0.040985107	-0.014022827	0.037994385
1040920539795974	-0.05064392	-0.014022827	0.053878784
1040920544251540	-0.05064392	-0.05067444	0.053878784
1040920547577956	-0.1288147	-0.05067444	0.05265808
1040920554322341	-0.19721985	-0.05921936	0.04411316
1040920559571364	-0.23022461	-0.037231445	0.03189087
1040920564362624	-0.22166443	0.010421753	0.01600647
1040920569703200	-0.18623352	0.05807495	1.373291E-4
1040920574708083	-0.13858032	0.078826904	-0.014541626
1040920580445388	-0.08728027	0.067840576	-0.025527954
1040920584520930	-0.03475952	0.04219055	-0.02796936
1040920590258234	0.012893677	0.018966675	-0.023086548
1040920594622248	0.0544281	0.0067443848	-0.014541626
1040920597979182	0.0874176	0.0067443848	-0.0059814453
1040920604662531	0.1191864	0.012863159	1.373291E-4
1040920610582941	0.15460205	0.020187378	1.373291E-4
1040920614733332	0.19125366	0.02507019	-0.0010986328
1040920620714777	0.21936035	0.02507019	-0.002319336
1040920625078791	0.23158264	0.020187378	-0.0010986328
1040920630571955	0.22546387	0.009185791	1.373291E-4
1040920634997004	0.20593262	-0.0030212402	1.373291E-4
1040920640368098	0.17781067	-0.007904053	-0.002319336
1040920644976252	0.14483643	-0.0042419434	-0.007217407
1040920648272150	0.14483643	0.0067443848	-0.007217407
1040920655047053	0.06665039	0.0067443848	-0.019424438
1040920660509699	0.018997192	0.022628784	-0.02796936
1040920665087336	-0.027435303	0.02507019	-0.03529358
1040920670855158	-0.06651306	0.031188965	-0.03895569
1040920675646418	-0.08850098	0.043395996	-0.03529358
1040920681200617	-0.09828186	0.05683899	-0.029174805
1040920685228937	-0.09828186	0.06539917	-0.029174805
1040920691118830	-0.092163086	0.06539917	-0.023086548
1040920695299738	-0.092163086	0.060516357	-0.023086548
1040920698748225	-0.07872009	0.060516357	-0.025527954
1040920705401057	-0.059188843	0.05807495	-0.030410767
1040920711260432	-0.037200928	0.05683899	-0.036499023
1040920715441340	-0.018875122	0.055618286	-0.03895569
1040920721300715	-0.006668091	0.051956177	-0.03895569
1040920725786799	0.0018920898	0.04827881	-0.036499023
1040920731798762	0.0067749023	0.045837402	-0.032852173
1040920735582941	0.0104522705	0.047073364	-0.030410767
1040920741625422	0.012893677	0.04951477	-0.023086548
1040920745653742	0.01411438	0.04951477	-0.013305664
1040920749041193	0.015335083	0.047073364	1.373291E-4
1040920755724543	0.016555786	0.04095459	0.0135650635
1040920761675471	0.016555786	0.03363037	0.023345947
1040920765795344	0.015335083	0.023864746	0.030670166
1040920772326105	0.01411438	0.010421753	0.034332275
1040920776110285	0.011657715	-5.79834E-4	0.03677368
1040920782244318	0.0104522705	-0.007904053	0.037994385
1040920785936945	0.009216309	-0.010345459	0.037994385
1040920791918391	0.008010864	-0.011581421	0.033111572
1040920795977228	0.008010864	-0.011581421	0.025787354
1040920799395197	0.008010864	-0.007904053	0.025787354
1040920806078547	0.011657715	-0.007904053	0.0135650635
1040920812304133	0.0104522705	0.014083862	0.009902954
1040920816149348	0.0104522705	0.027511597	0.006225586
1040920822802180	-0.0029907227	0.039733887	0.0037841797
1040920826647394	-0.010314941	0.04827881	0.0037841797
1040920831286066	-0.010314941	0.05316162	0.0037841797
1040920836290949	-0.015213013	0.05316162	0.0050201416
1040920842028254	-0.015213013	0.055618286	0.0050201416
1040920846361750	-0.012756348	0.054397583	0.0037841797
1040920849749201	-0.007873535	0.050720215	0.0037841797
1040920856493586	-0.0017700195	0.044631958	0.0025787354
1040920862658137	0.003112793	0.039733887	0.0037841797
1040920866503351	0.0067749023	0.034851074	0.006225586
1040920872881525	0.005554199	0.031188965	0.009902954
1040920877001398	0.0018920898	0.027511597	0.01234436
1040920881609553	-0.005432129	0.02507019	0.01234436
1040920886644953	-0.011550903	0.02507019	0.011108398
1040920892077082	-0.016433716	0.027511597	0.008666992
1040920896685236	-0.020095825	0.028747559	0.007461548
1040920900072687	-0.02255249	0.031188965	0.007461548
1040920906817072	-0.021316528	0.03363037	0.006225586
1040920912920588	-0.015213013	0.038513184	0.0050201416
1040920916857355	-0.006668091	0.04095459	0.0025787354
1040920923235529	6.713867E-4	0.04219055	0.0050201416
1040920927172297	0.003112793	0.039733887	0.01234436
1040920931933039	0.004333496	0.034851074	0.020904541
1040920936998957	0.004333496	0.029953003	0.026992798
1040920942431086	0.005554199	0.023864746	0.030670166
1040920947100275	0.004333496	0.017745972	0.033111572
1040920950426691	0.004333496	0.011627197	0.033111572
1040920957140559	-5.493164E-4	0.011627197	0.03677368
1040920962175959	-5.493164E-4	0.0018615723	0.037994385
1040920967211359	-0.0017700195	0.0018615723	0.037994385
1040920972246760	-5.493164E-4	-0.0018005371	0.03677368
1040920977495783	0.0018920898	-0.0030212402	0.03555298
1040920982317560	0.003112793	-0.0042419434	0.034332275
1040920987322443	0.003112793	-0.0066833496	0.034332275
1040920992601984	0.0018920898	-0.010345459	0.034332275
1040920997393244	6.713867E-4	-0.014022827	0.03189087
1040921000780695	-5.493164E-4	-0.01524353	0.02822876
1040921007494562	-5.493164E-4	-0.009140015	0.024551392
1040921012560480	-5.493164E-4	6.4086914E-4	0.022109985
1040921017595881	-0.0017700195	0.011627197	0.020904541
1040921022631281	-0.0029907227	0.018966675	0.022109985
1040921028032893	-0.0029907227	0.017745972	0.024551392
1040921032702082	-0.0017700195	0.012863159	0.026992798
1040921037706965	-0.0029907227	0.0067443848	0.02822876
1040921043139094	-0.0017700195	0.0030822754	0.029434204
1040921047747248	0.004333496	-5.79834E-4	0.030670166
1040921051104182	0.015335083	-0.0066833496	0.030670166
1040921057848566	0.027542114	-0.010345459	0.033111572
1040921062914484	0.036102295	-0.012802124	0.03555298
1040921067919367	0.040985107	-0.014022827	0.03677368
1040921072985285	0.039764404	-0.016464233	0.03677368
1040921078417414	0.036102295	-0.021347046	0.034332275
1040921083056086	0.031219482	-0.026229858	0.030670166
1040921088091486	0.027542114	-0.026229858	0.025787354
1040921093615168	0.022659302	-0.021347046	0.020904541
1040921098162287	0.011657715	-0.014022827	0.01600647
1040921101458185	0.011657715	-0.007904053	0.01600647
1040921108202570	-0.005432129	-0.007904053	0.011108398
1040921113237971	-0.027435303	-0.0066833496	0.009902954
1040921118273371	-0.05064392	-0.009140015	0.01234436
1040921123339289	-0.07261658	-0.014022827	0.01600647
1040921128618830	-0.09338379	-0.016464233	0.01966858
1040921133349055	-0.1129303	-0.016464233	0.023345947
1040921138445490	-0.127594	-0.012802124	0.025787354
1040921143694514	-0.13491821	-0.009140015	0.026992798
1040921148485773	-0.13613892	-0.0066833496	0.02822876
1040921151842707	-0.1300354	-0.0066833496	0.026992798
1040921158556574	-0.111709595	-0.0054626465	0.023345947
1040921163591975	-0.07872009	-0.0018005371	0.017227173
1040921168657893	-0.029876709	0.0067443848	0.006225586
1040921173662775	0.027542114	0.016525269	-0.004776001
1040921179003351	0.083740234	0.02507019	-0.01574707
1040921183764094	0.12771606	0.029953003	-0.025527954
1040921188768976	0.1533966	0.029953003	-0.03161621
1040921194140070	0.15948486	0.027511597	-0.03161621
1040921198839777	0.15460205	0.023864746	-0.026733398
1040921202196711	0.15460205	0.022628784	-0.020629883
1040921208941096	0.12283325	0.022628784	-0.018188477
1040921213945978	0.095962524	0.029953003	-0.023086548
1040921218981379	0.06541443	0.03363037	-0.029174805
1040921224047297	0.0385437	0.034851074	-0.034057617
1040921229479426	0.021438599	0.034851074	-0.03161621
1040921234118098	0.0104522705	0.03239441	-0.025527954
1040921239122980	6.713867E-4	0.029953003	-0.019424438
1040921244585627	-0.011550903	0.031188965	-0.013305664
1040921249193781	-0.011550903	0.031188965	-0.007217407
1040921252550715	-0.02255249	0.026306152	-0.007217407
1040921259295100	-0.024993896	0.026306152	-0.002319336
1040921264269465	-0.017654419	0.016525269	0.0013427734
1040921269335383	-0.0017700195	0.0030822754	0.0013427734
1040921274370783	0.01777649	-0.009140015	-0.0010986328
1040921279833430	0.03366089	-0.01890564	-0.002319336
1040921284441584	0.04220581	-0.025009155	-0.0010986328
1040921289476984	0.04220581	-0.028686523	0.0037841797
1040921295031184	0.037322998	-0.029907227	0.009902954
1040921299547785	0.02998352	-0.033569336	0.01600647
1040921302904719	0.020217896	-0.036010742	0.018447876
1040921309618586	0.0067749023	-0.032348633	0.01966858
1040921314653986	-0.007873535	-0.023788452	0.020904541
1040921319689387	-0.017654419	-0.01524353	0.022109985
1040921324724787	-0.016433716	-0.007904053	0.022109985
1040921330065363	-0.0029907227	6.4086914E-4	0.018447876
1040921334795588	0.016555786	0.011627197	0.014785767
1040921339861506	0.037322998	0.020187378	0.008666992
1040921345171564	0.055648804	0.026306152	0.0013427734
1040921349901789	0.07397461	0.031188965	-0.008422852
1040921353258723	0.07397461	0.03729248	-0.008422852
1040921360003107	0.08618164	0.03729248	-0.021850586
1040921370470637	0.055648804	0.043395996	-0.019424438
1040921374193781	0.055648804	0.018966675	-0.019424438
1040921380114191	0.016555786	0.0067443848	-0.004776001
1040921385149592	0.011657715	0.0055236816	-0.003540039
1040921390184992	0.01411438	0.011627197	-0.0096588135
1040921395495051	0.016555786	0.017745972	-0.018188477
1040921400255793	0.016555786	0.020187378	-0.018188477
1040921403643244	0.015335083	0.020187378	-0.025527954
1040921410326594	0.009216309	0.022628784	-0.025527954
1040921415423029	0.003112793	0.026306152	-0.021850586
1040921420397394	-0.0042266846	0.03239441	-0.014541626
1040921425463312	-0.015213013	0.03239441	-0.0059814453
1040921430925959	-0.024993896	0.027511597	1.373291E-4
1040921435534113	-0.031082153	0.018966675	0.0037841797
1040921440538996	-0.028640747	0.015304565	0.0025787354
1040921446032160	-0.018875122	0.014083862	1.373291E-4
1040921450609797	-0.006668091	0.015304565	-0.004776001
1040921453936213	0.003112793	0.016525269	-0.01210022
1040921460711115	0.0067749023	0.017745972	-0.019424438
1040921465715998	0.003112793	0.018966675	-0.024291992
1040921470751398	-0.0017700195	0.018966675	-0.025527954
1040921475786799	-0.0042266846	0.018966675	-0.023086548
1040921481127375	-0.0042266846	0.017745972	-0.020629883
1040921485857600	-0.006668091	0.015304565	-0.021850586
1040921490893000	-0.009109497	0.014083862	-0.024291992
1040921496355646	-0.011550903	0.016525269	-0.026733398
1040921500963801	-0.012756348	0.021408081	-0.02796936
1040921504381769	-0.012756348	0.02507019	-0.02796936
1040921511034601	-0.011550903	0.02507019	-0.026733398
1040921516070002	-0.010314941	0.023864746	-0.025527954
1040921521135920	-0.010314941	0.023864746	-0.024291992
1040921526140803	-0.010314941	0.02507019	-0.021850586
1040921531511896	-0.012756348	0.027511597	-0.020629883
1040921536211603	-0.01399231	0.028747559	-0.019424438
1040921541247004	-0.01399231	0.029953003	-0.019424438
1040921546526545	-0.01399231	0.029953003	-0.014541626
1040921551317805	-0.011550903	0.03239441	-0.014541626
1040921554705256	-0.009109497	0.034851074	-0.010864258
1040921561388605	-0.0029907227	0.036071777	-0.0096588135
1040921566424006	0.004333496	0.034851074	-0.010864258
1040921571459406	0.0104522705	0.03363037	-0.013305664
1040921579607600	0.012893677	0.03239441	-0.01210022
1040921586565607	0.009216309	0.03729248	-0.0096588135
1040921591601008	0.005554199	0.04095459	-0.008422852
1040921596972101	0.003112793	0.04095459	-0.007217407
1040921601671809	6.713867E-4	0.039733887	-0.0059814453
1040921605028742	6.713867E-4	0.036071777	-0.0059814453
1040921611712092	6.713867E-4	0.03363037	-0.007217407
1040921616808527	0.0018920898	0.029953003	-0.008422852
1040921621813410	0.0067749023	0.026306152	-0.008422852
1040921626818293	0.012893677	0.021408081	-0.0059814453
1040921632280939	0.018997192	0.016525269	-0.0010986328
1040921636950129	0.022659302	0.014083862	0.0025787354
1040921641955012	0.022659302	0.014083862	0.0050201416
1040921647722834	0.018997192	0.016525269	0.0050201416
1040921652056330	0.0104522705	0.018966675	0.0037841797
1040921655382746	0.0104522705	0.020187378	0.0037841797
1040921662066096	-0.0029907227	0.020187378	-0.003540039
1040921667101496	-0.005432129	0.02507019	-0.0096588135
1040921672167414	-0.007873535	0.028747559	-0.01574707
1040921677202814	-0.010314941	0.03239441	-0.019424438
1040921682482355	-0.015213013	0.03363037	-0.018188477
1040921687273615	-0.015213013	0.03363037	-0.018188477
1040921692309016	-0.018875122	0.03363037	-0.013305664
1040921697558039	-0.021316528	0.03363037	-0.007217407
1040921702349299	-0.018875122	0.029953003	-0.004776001
1040921705736750	-0.012756348	0.02507019	-0.0059814453
1040921712450617	-0.007873535	0.017745972	-0.007217407
1040921717455500	-0.005432129	0.014083862	-0.0059814453
1040921722521418	-0.006668091	0.012863159	-0.003540039
1040921727556818	-0.010314941	0.012863159	0.0025787354
1040921732805842	-0.016433716	0.012863159	0.007461548
1040921737658137	-0.02619934	0.011627197	0.011108398
1040921742663019	-0.037200928	0.015304565	0.011108398
1040921748003596	-0.044525146	0.022628784	0.008666992
1040921752764338	-0.046966553	0.03363037	0.0050201416
1040921756090754	-0.043319702	0.04219055	0.0013427734
1040921762865656	-0.03475952	0.04827881	-0.002319336
1040921767870539	-0.024993896	0.050720215	-0.0059814453
1040921772875422	-0.017654419	0.051956177	-0.0096588135
1040921777941340	-0.016433716	0.051956177	-0.010864258
1040921783342951	-0.021316528	0.051956177	-0.0096588135
1040921788012141	-0.029876709	0.051956177	-0.0096588135
1040921793047541	-0.035980225	0.051956177	-0.01210022
1040921798815363	-0.039642334	0.04951477	-0.01574707
1040921803118342	-0.037200928	0.044631958	-0.018188477
1040921806414240	-0.037200928	0.038513184	-0.018188477
1040921813158625	-0.027435303	0.038513184	-0.016983032
1040921818194025	-0.02255249	0.023864746	-0.016983032
1040921823229426	-0.018875122	0.014083862	-0.019424438
1040921828295344	-0.018875122	-5.79834E-4	-0.024291992
1040921833971613	-0.016433716	-5.79834E-4	-0.032852173
1040921838335627	-0.016433716	-0.03845215	-0.032852173
1040921843401545	-0.020095825	-0.03845215	-0.049942017
1040921848894709	-0.023757935	-0.049453735	-0.078048706
1040921853472346	-0.027435303	-0.04701233	-0.109817505
1040921856798762	-0.028640747	-0.032348633	-0.13058472
1040921863512629	-0.028640747	-0.011581421	-0.1244812
1040921868548029	-0.028640747	0.009185791	-0.08538818
1040921873613947	-0.027435303	0.021408081	-0.025527954
1040921878618830	-0.017654419	0.014083862	0.03189087
1040921884325617	0.003112793	-0.009140015	0.06364441
1040921888720148	0.036102295	-0.03967285	0.066101074
1040921893725031	0.076416016	-0.065338135	0.04777527
1040921899065607	0.120391846	-0.081222534	0.024551392
1040921903795832	0.16192627	-0.09954834	0.0025787354
1040921907183283	0.19613647	-0.12763977	-0.01210022
1040921913897150	0.22180176	-0.16673279	-0.020629883
1040921918871516	0.23646545	-0.20826721	-0.02796936
1040921923937434	0.24256897	-0.24491882	-0.037734985
1040921928972834	0.24134827	-0.27912903	-0.057281494
1040921934404963	0.23524475	-0.31578064	-0.08538818
1040921939043635	0.22425842	-0.35488892	-0.1232605
1040921944079035	0.20713806	-0.38909912	-0.16355896
1040921949389094	0.18148804	-0.41351318	-0.20265198
1040921954149836	0.1509552	-0.42695618	-0.23686218
1040921957506769	0.1509552	-0.43063354	-0.23686218
1040921964220637	0.076416016	-0.43063354	-0.29307556
1040921969256037	0.028778076	-0.40986633	-0.31384277
1040921974291437	0.028778076	-0.37930298	-0.31384277
1040921983996027	-0.09094238	-0.37930298	-0.32240295
1040921989428156	-0.15446472	-0.27912903	-0.3028412
1040921994433039	-0.20578003	-0.27912903	-0.26863098
1040921999895685	-0.23754883	-0.28523254	-0.22341919
1040922004503840	-0.2412262	-0.3182373	-0.17579651
1040922007860773	-0.21554565	-0.37442017	-0.13302612
1040922014574641	-0.1642456	-0.4501648	-0.10371399
1040922019610041	-0.09338379	-0.5393677	-0.08415222
1040922024645441	-0.015213013	-0.63464355	-0.07316589
1040922029680842	0.060531616	-0.72506714	-0.062179565
1040922034929865	0.12771606	-0.7983551	-0.04750061
1040922039751643	0.18148804	-0.84968567	-0.026733398
1040922044787043	0.21813965	-0.87657166	1.373291E-4
1040922050249689	0.22914124	-0.8826599	0.030670166
1040922054857844	0.21446228	-0.8728943	0.061203003
1040922058214777	0.17781067	-0.8533325	0.08930969
1040922064959162	0.13015747	-0.8362427	0.11251831
1040922069933527	0.080078125	-0.8325653	0.13572693
1040922074999445	0.032440186	-0.84968567	0.16017151
1040922080034846	-0.011550903	-0.8802185	0.1894989
1040922085283869	-0.05064392	-0.9168701	0.2212677
1040922090105646	-0.08604431	-0.952301	0.25056458
1040922095141047	-0.11904907	-0.98651123	0.27745056
1040922100481623	-0.15202332	-1.01828	0.29821777
1040922105242365	-0.18623352	-1.0427094	0.31288147
1040922108599299	-0.18623352	-1.0561371	0.31288147
1040922115313166	-0.24975586	-1.0561371	0.32510376
1040922120318049	-0.24975586	-1.0720215	0.32510376
1040922125322932	-0.27175903	-1.0720215	0.32998657
1040922130388850	-0.2803192	-1.1013489	0.33976746
1040922135759943	-0.27175903	-1.1526794	0.3519745
1040922140490168	-0.2436676	-1.2149811	0.3703003
1040922145556086	-0.19845581	-1.2736206	0.39474487
1040922151232355	-0.14225769	-1.3200378	0.4252777
1040922155565851	-0.07872009	-1.354248	0.4656067
1040922158922785	-0.01399231	-1.3786926	0.5157013
1040922165606135	0.048324585	-1.3957825	0.57066345
1040922170672053	0.10450745	-1.4104614	0.6280823
1040922175707453	0.1509552	-1.4275513	0.68429565
1040922180712336	0.18148804	-1.4483185	0.7404785
1040922186113947	0.19493103	-1.4678802	0.7966919
1040922191881769	0.18881226	-1.4874268	0.8541107
1040922195879572	0.16316223	-1.5118561	0.91030884
1040922200914973	0.120391846	-1.5509491	0.96406555
1040922205919855	0.06665039	-1.6144714	1.0166016
1040922209276789	0.0104522705	-1.7012177	1.0691376
1040922216021174	-0.037200928	-1.8123932	1.1277618
1040922221026057	-0.071395874	-1.9370117	1.1937408
1040922226091975	-0.08850098	-2.0677338	1.2695007
1040922231096857	-0.0811615	-2.1984558	1.3476868
1040922236834162	-0.040878296	-2.3352814	1.419754
1040922241198176	0.0385437	-2.4831238	1.4686432
1040922246203059	0.1533966	-2.632187	1.4808502
1040922251574152	0.281662	-2.7580109	1.4417572
1040922256273859	0.38917542	-2.8301086	1.3452454
1040922259691828	0.38917542	-2.8251953	1.3452454
1040922266375178	0.44415283	-2.8251953	1.1937408
1040922271380060	0.4368286	-2.7421265	1.0031586
1040922276415461	0.39041138	-2.6065063	0.800354
1040922281450861	0.3354187	-2.4599152	0.61343384
1040922286882990	0.2987671	-2.3401947	0.46316528
1040922291521662	0.28778076	-2.2644348	0.35565186
1040922296526545	0.29510498	-2.2253418	0.27868652
1040922301867121	0.30610657	-2.1972504	0.21514893
1040922306658381	0.30732727	-2.1654816	0.15161133
1040922309954279	0.29022217	-2.1251526	0.08930969
1040922316698664	0.25112915	-2.0909424	0.034332275
1040922321764582	0.19248962	-2.0824127	-0.004776001
1040922326769465	0.116744995	-2.1117096	-0.029174805
1040922331804865	0.026321411	-2.1789246	-0.045059204
1040922337236994	-0.07872009	-2.268097	-0.05606079
1040922341906184	-0.20089722	-2.3585205	-0.06462097
1040922346941584	-0.33773804	-2.4318237	-0.07070923
1040922352678889	-0.4880066	-2.4794617	-0.07316589
1040922356951350	-0.64927673	-2.5051117	-0.07316589
1040922360338801	-0.64927673	-2.5136719	-0.07316589
1040922367235773	-0.9840088	-2.5136719	-0.062179565
1040922372057551	-1.1330719	-2.5051117	-0.057281494
1040922377123469	-1.2491455	-2.4880066	-0.0597229
1040922382158869	-1.3200073	-2.4537964	-0.069503784
1040922387468928	-1.3370972	-2.3914948	-0.07926941
1040922392229670	-1.2992401	-2.2901	-0.08659363
1040922397265070	-1.2075958	-2.1447144	-0.08415222
1040922402758234	-1.0646667	-1.9602356	-0.0743866
1040922407335871	-1.0646667	-1.7500916	-0.0743866
1040922410692805	-0.878952	-1.7500916	-0.05606079
1040922417406672	-0.6639252	-1.5387268	-0.032852173
1040922422442072	-0.43302917	-1.3518066	-0.007217407
1040922427507990	-0.19477844	-1.2003174	0.01600647
1040922432543391	0.039764404	-1.0952301	0.034332275
1040922438189143	0.25723267	-1.0378265	0.041671753
1040922442614191	0.4319458	-1.0219421	0.029434204
1040922447588557	0.54434204	-1.040268	-0.0059814453
1040922452959650	0.57733154	-1.0915833	-0.06706238
1040922457689875	0.52479553	-1.1856537	-0.15013123
1040922461046809	0.39041138	-1.3273621	-0.24909973
1040922467821711	0.17904663	-1.508194	-0.36027527
1040922472826594	-0.0970459	-1.7085571	-0.4726715
1040922477831476	-0.42080688	-1.9150238	-0.57650757
1040922482866877	-0.7689972	-2.1239471	-0.6669159
1040922488299006	-1.1184082	-2.3414001	-0.7414551
1040922492937678	-1.4531555	-2.566208	-0.8061981
1040922498003596	-1.7561493	-2.778778	-0.86361694
1040922503283137	-2.0041656	-2.944931	-0.9112549
1040922508043879	-2.1617584	-3.0194702	-0.93325806
1040922511431330	-2.1617584	-2.954712	-0.93325806
1040922518114680	-2.0554657	-2.954712	-0.8098602
1040922523180598	-1.7854767	-2.3010864	-0.63638306
1040922528154963	-1.4250641	-1.7904053	-0.3993683
1040922533220881	-1.031662	-1.2956085	-0.12814331
1040922538530939	-0.65538025	-0.90830994	0.14060974
1040922543291682	-0.32917786	-0.6395569	0.3690796
1040922548296564	-0.32917786	-0.44284058	0.53157043
1040922553759211	0.10206604	-0.27424622	0.61953735
1040922558397883	0.10206604	-0.13619995	0.61953735
1040922561724299	0.21081543	-0.13619995	0.64764404
1040922568468684	0.2669983	-0.060440063	0.6354065
1040922573504084	0.28778076	-0.06654358	0.58776855
1040922578600519	0.28533936	-0.15696716	0.49613953
1040922583574885	0.25967407	-0.31578064	0.34587097
1040922588884943	0.21202087	-0.5405731	0.1235199
1040922593676203	0.14971924	-0.8301239	-0.16355896
1040922598650568	0.08862305	-1.1710052	-0.4909973
1040922604174250	0.044647217	-1.5326233	-0.8220825
1040922608751887	0.025100708	-1.8746948	-1.1311798
1040922612108820	0.02998352	-2.1630402	-1.3999634
1040922618822687	0.049545288	-2.3817291	-1.6198578
1040922623858088	0.07885742	-2.5271149	-1.786026
1040922628893488	0.111846924	-2.6016235	-1.8972015
1040922633928889	0.1509552	-2.6126251	-1.952179
1040922639177912	0.19981384	-2.5674133	-1.952179
1040922644030207	0.25845337	-2.4770203	-1.9020844
1040922649004572	0.32563782	-2.3548431	-1.8104553
1040922654345148	0.39649963	-2.2082367	-1.6858368
1040922659136408	0.46980286	-2.0396423	-1.5392303
1040922662462824	0.46980286	-1.8539276	-1.5392303
1040922669207209	0.61886597	-1.8539276	-1.2191315
1040922674212092	0.6909332	-1.4727631	-1.0652008
1040922679247492	0.75935364	-1.3102722	-0.93081665
1040922684282893	0.81799316	-1.1856537	-0.82818604
1040922689684504	0.86564636	-1.1037903	-0.76586914
1040922694353693	0.86564636	-1.0646973	-0.74754333
1040922699419611	0.8986511	-1.0646973	-0.74754333
1040922704851740	0.91941833	-1.070816	-0.8367462
1040922709459894	0.92918396	-1.2076416	-0.8367462
1040922712816828	0.9340668	-1.2076416	-0.93325806
1040922719530695	0.93162537	-1.3102722	-1.0554199
1040922724535578	0.91941833	-1.4104614	-1.2008057
1040922729570978	0.8962097	-1.4984131	-1.3620758
1040922734667414	0.8644409	-1.574173	-1.5319061
1040922739916437	0.83143616	-1.63768	-1.6980438
1040922744738215	0.8009033	-1.6841278	-1.8519897
1040922749773615	0.77645874	-1.7012177	-1.9851532
1040922755663508	0.75935364	-1.6865692	-2.0902252
1040922759844416	0.7471466	-1.6425934	-2.1611023
1040922763201350	0.736145	-1.5717163	-2.1953125
1040922769945734	0.72514343	-1.4825287	-2.192871
1040922774920100	0.7141571	-1.3908997	-2.1647491
1040922780016535	0.7068176	-1.3175964	-2.1280975
1040922785021418	0.7068176	-1.2736206	-2.0975647
1040922790758723	0.7129364	-1.2577362	-2.0767975
1040922795061701	0.7214966	-1.2638397	-2.0621338
1040922800127619	0.7288208	-1.2858276	-2.043808
1040922805437678	0.7324829	-1.3102722	-2.0205994
1040922810228937	0.7349243	-1.3163757	-1.991272
1040922813524836	0.7349243	-1.2919464	-1.991272
1040922820299738	0.7385864	-1.2919464	-1.9082031
1040922825243586	0.737381	-1.1673279	-1.8605499
1040922830340021	0.7324829	-1.0879059	-1.8141174
1040922835344904	0.722702	-1.0121613	-1.7713623
1040922840838068	0.710495	-0.94252014	-1.7310486
1040922845446223	0.710495	-0.87901306	-1.7310486
1040922850512141	0.69828796	-0.87901306	-1.6882782
1040922855822199	0.684845	-0.8166809	-1.640625
1040922860582941	0.66651917	-0.75805664	-1.5868835
1040922863878840	0.6371918	-0.7042999	-1.5306854
1040922870653742	0.5968628	-0.65908813	-1.4732666
1040922875689143	0.54556274	-0.62120056	-1.4158478
1040922880663508	0.48692322	-0.5894623	-1.357193
1040922885729426	0.42582703	-0.5601349	-1.2912292
1040922891039484	0.3659668	-0.5344696	-1.217926
1040922895800226	0.30854797	-0.5100403	-1.1421814
1040922900866144	0.25967407	-0.48683167	-1.0676422
1040922906298273	0.22302246	-0.4636078	-1.0016785
1040922910875910	0.19857788	-0.44895935	-0.9430237
1040922914232844	0.18392944	-0.44651794	-0.89172363
1040922920946711	0.17416382	-0.45262146	-0.84407043
1040922925982111	0.169281	-0.4636078	-0.8061981
1040922931017512	0.17172241	-0.47094727	-0.77931213
1040922936052912	0.17904663	-0.47460938	-0.76342773
1040922941424006	0.19004822	-0.4660492	-0.7573395
1040922946123713	0.20349121	-0.44651794	-0.7585449
1040922951128596	0.22058105	-0.4159546	-0.76586914
1040922956621760	0.24134827	-0.3842163	-0.7744293
1040922961199396	0.26333618	-0.36097717	-0.78175354
1040922964617365	0.26333618	-0.34753418	-0.78175354
1040922971300715	0.29510498	-0.34753418	-0.7854309
1040922976305598	0.3024292	-0.34020996	-0.77931213
1040922981402033	0.30366516	-0.34020996	-0.76586914
1040922986406916	0.30366516	-0.34265137	-0.76586914
1040922991686457	0.2999878	-0.34265137	-0.7512207
1040922996477717	0.29144287	-0.34265137	-0.73413086
1040923001513117	0.27799988	-0.33532715	-0.71333313
1040923006823176	0.25967407	-0.3182373	-0.6815796
1040923011614435	0.23768616	-0.29623413	-0.6327057
1040923014940851	0.21202087	-0.2730255	-0.56552124
1040923021685236	0.1851654	-0.24736023	-0.48243713
1040923026720637	0.1533966	-0.2204895	-0.3908081
1040923031725519	0.11795044	-0.1899414	-0.29673767
1040923036791437	0.0849762	-0.15452576	-0.20265198
1040923042132014	0.055648804	-0.11419678	-0.113479614
1040923046831721	0.031219482	-0.07878113	-0.032852173
1040923051897639	0.012893677	-0.05189514	0.033111572
1040923057207697	0.0018920898	-0.03967285	0.07952881
1040923061907404	-0.005432129	-0.03967285	0.10151672
1040923065264338	-0.011550903	-0.05189514	0.09541321
1040923072008723	-0.020095825	-0.07510376	0.062438965
1040923077044123	-0.031082153	-0.1056366	0.006225586
1040923082079523	-0.04208374	-0.14352417	-0.06706238
1040923087145441	-0.051849365	-0.1875	-0.15013123
1040923092699641	-0.05795288	-0.2375946	-0.23565674
1040923097216242	-0.06163025	-0.2889099	-0.32606506
1040923102190607	-0.060394287	-0.33532715	-0.4201355
1040923108019465	-0.053085327	-0.37077332	-0.52153015
1040923112291926	-0.03843689	-0.39518738	-0.62416077
1040923115648859	-0.03843689	-0.40863037	-0.62416077
1040923122362726	0.016555786	-0.40863037	-0.8074188
1040923127367609	0.016555786	-0.40742493	-0.8074188
1040923132555598	0.056869507	-0.40742493	-0.87461853
1040923137499445	0.103302	-0.39642334	-0.92593384
1040923143114680	0.15216064	-0.38053894	-0.99679565
1040923147570246	0.20349121	-0.35488892	-0.99679565
1040923152575129	0.25479126	-0.35488892	-1.0248871
1040923158373469	0.3048706	-0.34999084	-1.0493317
1040923162676447	0.3488617	-0.34753418	-1.0713043
1040923165972346	0.3842926	-0.34265137	-1.0884094
1040923172747248	0.41482544	-0.33288574	-1.099411
1040923177721613	0.44171143	-0.3182373	-1.1030731
1040923182787531	0.466156	-0.30355835	-1.1042938
1040923187792414	0.48324585	-0.29013062	-1.1018524
1040923193224543	0.48936462	-0.27912903	-1.1006317
1040923197893732	0.4844818	-0.2693634	-1.0981903
1040923203051203	0.4685974	-0.26324463	-1.0920868
1040923208269709	0.44415283	-0.25958252	-1.0847473
1040923213152521	0.41238403	-0.25836182	-1.0762024
1040923216356867	0.37329102	-0.25958252	-1.0652008
1040923223253840	0.334198	-0.266922	-1.0542145
1040923228106135	0.2975464	-0.27790833	-1.0395508
1040923233172053	0.2669983	-0.29135132	-1.0261078
1040923238176935	0.24256897	-0.3023529	-1.0151215
1040923244097346	0.22058105	-0.31089783	-1.0151215
1040923248278254	0.20103455	-0.3206787	-1.0248871
1040923253496760	0.18392944	-0.33166504	-1.0383301
1040923259081476	0.17416382	-0.34020996	-1.0480957
1040923263414973	0.17292786	-0.34020996	-1.0529785
1040923266680353	0.17292786	-0.33044434	-1.0529785
1040923273485773	0.18392944	-0.33044434	-1.0370941
1040923278429621	0.20469666	-0.31211853	-1.0370941
1040923283770197	0.23158264	-0.29135132	-1.0187683
1040923288561457	0.25967407	-0.2718048	-0.99435425
1040923294512385	0.29266357	-0.2546997	-0.93937683
1040923298601740	0.29266357	-0.22903442	-0.93937683
1040923303759211	0.29388428	-0.22903442	-0.90760803
1040923309099787	0.28656006	-0.21560669	-0.8733978
1040923313830012	0.27677917	-0.19850159	-0.8379669
1040923317064875	0.2669983	-0.18139648	-0.8013153
1040923324053400	0.26211548	-0.16429138	-0.76342773
1040923328783625	0.26211548	-0.14720154	-0.7218933
1040923334185236	0.2669983	-0.12640381	-0.6779175
1040923338884943	0.27433777	-0.100753784	-0.63150024
1040923344988459	0.281662	-0.07266235	-0.58750916
1040923348986262	0.2828827	-0.04701233	-0.54473877
1040923354082697	0.27677917	-0.027450562	-0.50320435
1040923359758967	0.26211548	-0.017684937	-0.46043396
1040923364580744	0.23890686	-0.01524353	-0.41645813
1040923367449396	0.23890686	-0.020126343	-0.3700409
1040923377245539	0.17048645	-0.020126343	-0.3236084
1040923384325617	0.09107971	-0.054336548	-0.23809814
1040923389269465	0.048324585	-0.06654358	-0.19656372
1040923395342463	0.005554199	-0.077545166	-0.15623474
1040923399309748	-0.032318115	-0.084869385	-0.11836243
1040923405199641	-0.06283569	-0.08366394	-0.081710815
1040923409685725	-0.08604431	-0.07510376	-0.05117798
1040923415300959	-0.10192871	-0.060440063	-0.026733398
1040923417803400	-0.10192871	-0.04701233	-0.026733398
1040923425219172	-0.12637329	-0.04701233	0.0050201416
1040923429522150	-0.12637329	-0.026229858	0.0050201416
1040923435320490	-0.1434784	-0.026229858	0.020904541
1040923439623469	-0.1434784	-0.011581421	0.020904541
1040923445238703	-0.1459198	-0.011581421	0.024551392
1040923449663752	-0.1446991	-0.0054626465	0.026992798
1040923455675715	-0.13981628	0.0030822754	0.026992798
1040923460222834	-0.1324768	0.011627197	0.025787354
1040923465624445	-0.123931885	0.018966675	0.022109985
1040923475664728	-0.09828186	0.022628784	0.011108398
1040923479906672	-0.08728027	0.017745972	0.006225586
1040923485949152	-0.079956055	0.009185791	0.0025787354
1040923489977473	-0.07751465	-0.0042419434	1.373291E-4
1040923495684260	-0.079956055	-0.021347046	-0.003540039
1040923500017756	-0.08972168	-0.036010742	-0.010864258
1040923505724543	-0.10926819	-0.045776367	-0.019424438
1040923510576838	-0.13369751	-0.044555664	-0.02796936
1040923516039484	-0.1593628	-0.032348633	-0.030410767
1040923526049250	-0.18867493	-0.017684937	-0.008422852
1040923530230158	-0.19113159	-0.0018005371	0.014785767
1040923536120051	-0.18257141	-5.79834E-4	0.03555298
1040923540300959	-0.1630249	0.0043029785	0.04777527
1040923545946711	-0.13369751	0.014083862	0.045318604
1040923550402277	-0.09828186	0.031188965	0.033111572
1040923556353205	-0.067718506	0.05316162	0.018447876
1040923561083430	-0.046966553	0.0763855	0.006225586
1040923566576594	-0.03475952	0.09347534	1.373291E-4
1040923576555842	-0.024993896	0.10324097	-0.0059814453
1040923580645197	-0.024993896	0.10447693	-0.0059814453
1040923586565607	-0.024993896	0.10447693	-0.016983032
1040923590654963	-0.029876709	0.099594116	-0.016983032
1040923596544855	-0.03843689	0.091033936	-0.030410767
1040923600695246	-0.048202515	0.08126831	-0.048736572
1040923607134455	-0.056747437	0.07148743	-0.069503784
1040923611040705	-0.060394287	0.066604614	-0.090270996
1040923616686457	-0.064071655	0.067840576	-0.11225891
1040923626970881	-0.06163025	0.078826904	-0.15867615
1040923630938166	-0.055511475	0.08859253	-0.18188477
1040923637163752	-0.043319702	0.10324097	-0.20265198
1040923641008967	-0.029876709	0.12036133	-0.21853638
1040923647020930	-0.01399231	0.13500977	-0.22833252
1040923651079768	6.713867E-4	0.14845276	-0.23077393
1040923656969660	0.01411438	0.15945435	-0.22589111
1040923661547297	0.022659302	0.16921997	-0.21365356
1040923667284601	0.027542114	0.17166138	-0.19776917
1040923677569025	0.032440186	0.16555786	-0.15623474
1040923681261652	0.03366089	0.13989258	-0.13546753
1040923687639826	0.037322998	0.122802734	-0.122024536
1040923691362971	0.04220581	0.10079956	-0.11592102
1040923697008723	0.048324585	0.07759094	-0.11592102
1040923701433771	0.051986694	0.05683899	-0.11836243
1040923707750910	0.05809021	0.039733887	-0.1232605
1040923711779230	0.05809021	0.029953003	-0.13180542
1040923716570490	0.067855835	0.029953003	-0.13180542
1040923719988459	0.08253479	0.027511597	-0.1415863
1040923726641291	0.095962524	0.029953003	-0.15013123
1040923731646174	0.103302	0.03239441	-0.14891052
1040923736712092	0.10450745	0.029953003	-0.13668823
1040923741716975	0.10450745	0.021408081	-0.11592102
1040923747515314	0.103302	0.009185791	-0.09637451
1040923751818293	0.103302	-0.0018005371	-0.08294678
1040923756823176	0.103302	-0.009140015	-0.07070923
1040923762194269	0.10206604	-0.010345459	-0.0597229
1040923766924494	0.09718323	-0.0042419434	-0.04750061
1040923770311945	0.09107971	0.0067443848	-0.034057617
1040923776995295	0.08618164	0.021408081	-0.019424438
1040923782030695	0.08253479	0.03729248	0.0013427734
1040923787035578	0.080078125	0.059280396	0.025787354
1040923792101496	0.07519531	0.08491516	0.04777527
1040923797594660	0.06665039	0.106918335	0.062438965
1040923802172297	0.056869507	0.11791992	0.06976318
1040923807177180	0.04586792	0.11668396	0.06854248
1040923812700861	0.03366089	0.106918335	0.0599823
1040923817278498	0.020217896	0.09225464	0.04043579
1040923820574396	0.020217896	0.075149536	0.04043579
1040923827379816	-0.010314941	0.075149536	-0.020629883
1040923832384699	-0.020095825	0.04219055	-0.057281494
1040923837450617	-0.02255249	0.027511597	-0.09881592
1040923842455500	-0.017654419	0.016525269	-0.14035034
1040923848070734	-0.007873535	0.007980347	-0.18067932
1040923852526301	-0.007873535	0.0055236816	-0.18067932
1040923859240168	0.023880005	0.0055236816	-0.23565674
1040923863329523	0.040985107	0.010421753	-0.25030518
1040923867663019	0.040985107	0.014083862	-0.25030518
1040923870989435	0.05809021	0.014083862	-0.2576294
1040923877733820	0.072753906	0.016525269	-0.2576294
1040923882708185	0.083740234	0.021408081	-0.25274658
1040923887835139	0.09107971	0.028747559	-0.24786377
1040923892809504	0.09352112	0.038513184	-0.24542236
1040923898241633	0.0874176	0.04951477	-0.24298096
1040923902849787	0.0715332	0.05683899	-0.23930359
1040923907915705	0.044647217	0.059280396	-0.23077393
1040923913286799	0.0104522705	0.059280396	-0.21853638
1040923918017023	-0.028640747	0.0617218	-0.20632935
1040923921343439	-0.067718506	0.067840576	-0.19412231
1040923928087824	-0.099487305	0.07759094	-0.18556213
1040923933092707	-0.12149048	0.08735657	-0.18067932
1040923938128107	-0.1324768	0.098358154	-0.17700195
1040923943163508	-0.13369751	0.10935974	-0.17700195
1040923948656672	-0.127594	0.12036133	-0.17700195
1040923953234309	-0.116607666	0.12768555	-0.18067932
1040923958269709	-0.10316467	0.13012695	-0.18678284
1040923964068049	-0.08728027	0.12890625	-0.19656372
1040923968401545	-0.071395874	0.12524414	-0.21000671
1040923971666926	-0.071395874	0.119125366	-0.21000671
1040923978441828	-0.04208374	0.119125366	-0.24421692
1040923983507746	-0.029876709	0.10324097	-0.26010132
1040923988482111	-0.021316528	0.09225464	-0.2735138
1040923993517512	-0.021316528	0.078826904	-0.28330994
1040923999468439	-0.017654419	0.078826904	-0.28575134
1040924003588312	-0.017654419	0.050720215	-0.28575134
1040924008623713	-0.021316528	0.050720215	-0.28330994
1040924014574641	-0.031082153	0.038513184	-0.2735138
1040924018725031	-0.031082153	0.021408081	-0.2735138
1040924022020930	-0.040878296	0.021408081	-0.2576294
1040924028795832	-0.059188843	0.017745972	-0.21609497
1040924033770197	-0.092163086	0.015304565	-0.14402771
1040924038866633	-0.13491821	0.009185791	-0.052383423
1040924043902033	-0.1789093	-0.0042419434	0.039215088
1040924049669855	-0.2094574	-0.023788452	0.11495972
1040924053911799	-0.21798706	-0.042114258	0.17481995
1040924058977717	-0.20701599	-0.05189514	0.22247314
1040924064470881	-0.18257141	-0.045776367	0.26036072
1040924069079035	-0.15324402	-0.025009155	0.28112793
1040924072405451	-0.123931885	-0.0042419434	0.28233337
1040924079149836	-0.092163086	0.0043029785	0.26156616
1040924084154719	-0.05429077	-0.0030212402	0.2237091
1040924089159601	-0.0029907227	-0.021347046	0.1711731
1040924094225519	0.072753906	-0.045776367	0.110076904
1040924099535578	0.18269348	-0.07510376	0.034332275
1040924104265803	0.30732727	-0.10319519	-0.05606079
1040924109301203	0.40873718	-0.11543274	-0.15379333
1040924114641779	0.4478302	-0.11299133	-0.23565674
1040924119372004	0.42338562	-0.109313965	-0.27842712
1040924122728937	0.42338562	-0.12640381	-0.27842712
1040924129442805	0.32687378	-0.12640381	-0.24421692
1040924134508723	0.320755	-0.2058258	-0.19532776
1040924139513605	0.320755	-0.23027039	-0.19532776
1040924144549006	0.35620117	-0.23027039	-0.14035034
1040924150042170	0.4160614	-0.23027039	-0.010864258
1040924154619807	0.47592163	-0.20826721	-0.010864258
1040924159624689	0.51867676	-0.17285156	0.0599823
1040924165117853	0.54922485	-0.14228821	0.12962341
1040924169726008	0.58587646	-0.12884521	0.19194031
1040924173082941	0.6420746	-0.13131714	0.24203491
1040924179827326	0.722702	-0.14472961	0.27378845
1040924184862726	0.82167053	-0.1716156	0.28479004
1040924189898127	0.9206238	-0.200943	0.26644897
1040924194933527	0.9988251	-0.20462036	0.2188263
1040924200396174	1.0428009	-0.16552734	0.16137695
1040924205004328	1.0538025	-0.108078	0.118637085
1040924210009211	1.0403595	-0.07388306	0.097854614
1040924215502375	1.0147095	-0.08610535	0.078308105
1040924220080012	0.9878235	-0.13131714	0.033111572
1040924223406428	0.9707184	-0.17649841	-0.04385376
1040924230181330	0.9731598	-0.19972229	-0.13302612
1040924235186213	0.99760437	-0.19606018	-0.21000671
1040924240221613	1.0415802	-0.18139648	-0.2576294
1040924245318049	1.0977783	-0.17773438	-0.28330994
1040924250597590	1.16008	-0.1899414	-0.30163574
1040924255327814	1.2187347	-0.20706177	-0.32850647
1040924260393732	1.2627106	-0.21315002	-0.3675995
1040924265734309	1.2859192	-0.2021637	-0.41645813
1040924270464533	1.2871399	-0.17893982	-0.46899414
1040924273821467	1.2871399	-0.15208435	-0.46899414
1040924280504816	1.2688141	-0.15208435	-0.56674194
1040924285540217	1.2407227	-0.12031555	-0.56674194
1040924290606135	1.212616	-0.12031555	-0.59851074
1040924295641535	1.1967316	-0.11907959	-0.6094971
1040924301531428	1.2358398	-0.1239624	-0.55818176
1040924305712336	1.2358398	-0.13131714	-0.55818176
1040924310686701	1.2822571	-0.13131714	-0.5129852
1040924316088312	1.3372345	-0.13619995	-0.47387695
1040924320788019	1.4032135	-0.14720154	-0.4567871
1040924324175471	1.4789581	-0.15452576	-0.46411133
1040924330858820	1.5608063	-0.1398468	-0.4885559
1040924335924738	1.6414337	-0.09587097	-0.51664734
1040924340929621	1.7147522	-0.033569336	-0.53253174
1040924345995539	1.7746124	0.027511597	-0.53009033
1040924351458185	1.8222656	0.07028198	-0.5154419
1040924356066340	1.8540344	0.0947113	-0.49220276
1040924361071223	1.8638	0.106918335	-0.46655273
1040924368609064	1.850357	0.11180115	-0.44578552
1040924371142023	1.811264	0.10813904	-0.4409027
1040924374498957	1.7526245	0.098358154	-0.46043396
1040924381243342	1.6817627	0.08126831	-0.49464417
1040924386248225	1.6060181	0.054397583	-0.52641296
1040924391283625	1.5339355	0.009185791	-0.53985596
1040924396380060	1.4655151	-0.05921936	-0.5386505
1040924402239435	1.3946533	-0.13619995	-0.53253174
1040924406420344	1.3189087	-0.19482422	-0.53375244
1040924411455744	1.2382813	-0.2192688	-0.55085754
1040924416918391	1.1478729	-0.24369812	-0.60095215
1040924421557062	1.0403595	-0.32676697	-0.70236206
1040924424883478	1.0403595	-0.48683167	-0.70236206
1040924431597346	0.92185974	-0.48683167	-0.84895325
1040924436632746	0.8119049	-0.66397095	-1.0163269
1040924441668146	0.7324829	-0.7714844	-1.1678314
1040924446734064	0.6946106	-0.7568207	-1.2863464
1040924452501887	0.6909332	-0.62976074	-1.3718567
1040924456743830	0.7068176	-0.4342804	-1.4317322
1040924461840266	0.72514343	-0.22293091	-1.4769135
1040924467119807	0.7337036	-0.03845215	-1.5123596
1040924471850031	0.722702	0.08615112	-1.5392303
1040924475268000	0.6933899	0.13624573	-1.5502319
1040924481920832	0.6530762	0.119125366	-1.541687
1040924486956232	0.6103058	0.045837402	-1.5074768
1040924492022150	0.56755066	-0.061660767	-1.448822
1040924497057551	0.52723694	-0.17649841	-1.3694153
1040924502916926	0.48936462	-0.266922	-1.2863464
1040924507097834	0.45147705	-0.3182373	-1.2142487
1040924512133234	0.40873718	-0.3365631	-1.1617126
1040924517473810	0.36473083	-0.34509277	-1.1238556
1040924522234553	0.32687378	-0.36221313	-1.0884094
1040924525530451	0.32687378	-0.4000702	-1.0884094
1040924532335871	0.28656006	-0.4000702	-1.0004425
1040924537371271	0.27922058	-0.5222626	-0.96014404
1040924542376154	0.27922058	-0.5845642	-0.9295807
1040924547411555	0.28533936	-0.63708496	-0.90760803
1040924553270930	0.2987671	-0.68229675	-0.8868408
1040924557482355	0.3134308	-0.71894836	-0.86605835
1040924562487238	0.320755	-0.74827576	-0.85139465
1040924567980402	0.3134308	-0.76904297	-0.84895325
1040924572558039	0.3134308	-0.78126526	-0.84895325
1040924576006525	0.28656006	-0.78126526	-0.86361694
1040924582659357	0.24134827	-0.7885895	-0.89538574
1040924587694758	0.17904663	-0.7934723	-0.93937683
1040924592699641	0.103302	-0.79959106	-0.9869995
1040924597765559	0.012893677	-0.808136	-1.0273285
1040924603075617	-0.08604431	-0.8301239	-1.0566559
1040924607805842	-0.19477844	-0.8692169	-1.0725403
1040924612841242	-0.30841064	-0.9278717	-1.0810852
1040924618212336	-0.424469	-0.9950714	-1.0786438
1040924622942560	-0.53930664	-1.057373	-1.0615387
1040924626299494	-0.6480408	-1.1050262	-1.0297699
1040924632982844	-0.74334717	-1.1343536	-0.9869995
1040924638018244	-0.8239746	-1.1465607	-0.94181824
1040924643084162	-0.8887329	-1.1428833	-0.90393066
1040924648089045	-0.9388275	-1.1355591	-0.8709564
1040924653826350	-0.9754791	-1.1343536	-0.8379669
1040924658190363	-0.99868774	-1.1465607	-0.80007935
1040924663195246	-1.0072479	-1.1661072	-0.7561035
1040924668963068	-1.0011292	-1.1795349	-0.7084503
1040924673296564	-0.979126	-1.1722107	-0.6620331
1040924676653498	-0.979126	-1.1343536	-0.6620331
1040924683336848	-0.90216064	-1.1343536	-0.57774353
1040924688402766	-0.8581848	-0.97673035	-0.5386505
1040924693438166	-0.8166504	-0.8875427	-0.50076294
1040924698473566	-0.7799988	-0.81303406	-0.4677887
1040924704302424	-0.75434875	-0.76538086	-0.44578552
1040924708605402	-0.73602295	-0.74095154	-0.4409027
1040924713549250	-0.73602295	-0.73361206	-0.45310974
1040924719500178	-0.6981354	-0.73605347	-0.48243713
1040924723650568	-0.6981354	-0.74339294	-0.48243713
1040924726946467	-0.68348694	-0.74339294	-0.51908875
1040924733751887	-0.67614746	-0.74827576	-0.55818176
1040924738756769	-0.67492676	-0.75193787	-0.5948334
1040924743792170	-0.67248535	-0.7556	-0.62416077
1040924748797053	-0.6663666	-0.76049805	-0.6473694
1040924754351252	-0.65415955	-0.76782227	-0.66571045
1040924758898371	-0.63705444	-0.77882385	-0.68403625
1040924763933771	-0.61628723	-0.79470825	-0.7011261
1040924769426935	-0.58940125	-0.8191223	-0.7145691
1040924774004572	-0.56007385	-0.8508911	-0.72068787
1040924777392023	-0.52830505	-0.8826599	-0.71824646
1040924784075373	-0.4928894	-0.90830994	-0.70480347
1040924789080256	-0.4537964	-0.9229889	-0.6852417
1040924794146174	-0.41470337	-0.9303131	-0.6608124
1040924799181574	-0.37683105	-0.9290924	-0.63150024
1040924804522150	-0.3413849	-0.9229889	-0.59851074
1040924809252375	-0.30841064	-0.9156647	-0.56552124
1040924814287775	-0.27296448	-0.9107666	-0.5362091
1040924820025080	-0.23510742	-0.9022217	-0.5117645
1040924824328059	-0.19721985	-0.8826599	-0.4909973
1040924827715510	-0.19721985	-0.84968567	-0.4909973
1040924834398859	-0.1300354	-0.84968567	-0.4543457
1040924839434260	-0.10192871	-0.7556	-0.42745972
1040924844469660	-0.07627869	-0.71162415	-0.39448547
1040924849535578	-0.051849365	-0.68229675	-0.3541565
1040924855547541	-0.031082153	-0.67375183	-0.31262207
1040924859575861	-0.031082153	-0.67497253	-0.27230835
1040924864611262	-0.012756348	-0.67497253	-0.27230835
1040924870379084	0.02998352	-0.6676483	-0.18800354
1040924874682062	0.02998352	-0.60043335	-0.18800354
1040924878069514	0.0544281	-0.60043335	-0.13546753
1040924884844416	0.07763672	-0.5540161	-0.0756073
1040924889818781	0.099624634	-0.5075989	-0.014541626
1040924894823664	0.116744995	-0.4660492	0.046554565
1040924899889582	0.12771606	-0.42695618	0.106414795
1040924905413264	0.12771606	-0.38909912	0.16505432
1040924909960383	0.120391846	-0.35733032	0.21635437
1040924914965266	0.10450745	-0.33532715	0.2579193
1040924920488947	0.08253479	-0.32312012	0.28845215
1040924925036066	0.053207397	-0.31333923	0.30921936
1040924928393000	0.016555786	-0.30355835	0.32266235
1040924935167902	-0.031082153	-0.29257202	0.32632446
1040924940142268	-0.08604431	-0.2840271	0.31776428
1040924945177668	-0.15202332	-0.28157043	0.29455566
1040924950243586	-0.2253418	-0.28157043	0.25668335
1040924956072443	-0.30596924	-0.28157043	0.2078247
1040924960283869	-0.3890381	-0.28034973	0.15161133
1040924965349787	-0.47088623	-0.28157043	0.09541321
1040924970690363	-0.5466461	-0.2864685	0.042877197
1040924975390070	-0.61260986	-0.29257202	-0.002319336
1040924978777521	-0.61260986	-0.29501343	-0.002319336
1040924985552424	-0.7103424	-0.29501343	-0.069503784
1040924990526789	-0.74334717	-0.27668762	-0.0914917
1040924995531672	-0.7689972	-0.25836182	-0.10491943
1040925000628107	-0.7922058	-0.24003601	-0.1073761
1040925005907648	-0.812973	-0.22415161	-0.09881592
1040925010698908	-0.812973	-0.21315002	-0.09881592
1040925015764826	-0.827652	-0.21315002	-0.07926941
1040925021013850	-0.8300934	-0.19850159	-0.049942017
1040925025744074	-0.8166504	-0.174057	-0.013305664
1040925029101008	-0.78611755	-0.13864136	0.029434204
1040925035936945	-0.74090576	-0.09587097	0.06976318
1040925040850275	-0.6846924	-0.053115845	0.106414795
1040925045916193	-0.61872864	-0.0066833496	0.13696289
1040925050982111	-0.5466461	0.04827881	0.16381836
1040925056444758	-0.4721222	0.11668396	0.18826294
1040925061022394	-0.40003967	0.1960907	0.20903015
1040925066057795	-0.33529663	0.28527832	0.2237091
1040925071367853	-0.28640747	0.38058472	0.23469543
1040925076128596	-0.25219727	0.47587585	0.2395935
1040925079455012	-0.23387146	0.5613861	0.2395935
1040925086199396	-0.2277832	0.6298065	0.23469543
1040925091265314	-0.23387146	0.6786804	0.22491455
1040925096239680	-0.24975586	0.7116699	0.21147156
1040925101275080	-0.27052307	0.728775	0.19558716
1040925106768244	-0.29252625	0.7373352	0.17605591
1040925111345881	-0.31452942	0.74098206	0.15161133
1040925116411799	-0.34017944	0.742218	0.11984253
1040925121843928	-0.36705017	0.73609924	0.08074951
1040925126482600	-0.39881897	0.71777344	0.037994385
1040925129931086	-0.39881897	0.6811218	0.037994385
1040925136553400	-0.463562	0.6811218	-0.052383423
1040925141588801	-0.4880066	0.56874084	-0.093933105
1040925146624201	-0.4880066	0.5149689	-0.1257019
1040925151629084	-0.503891	0.47709656	-0.1257019
1040925157366389	-0.517334	0.47709656	-0.16235352
1040925161730402	-0.517334	0.45755005	-0.16235352
1040925166765803	-0.52098083	0.45755005	-0.17456055
1040925172075861	-0.52586365	0.46243286	-0.18678284
1040925176806086	-0.5332184	0.46365356	-0.20021057
1040925180285090	-0.5405426	0.45266724	-0.21244812
1040925186907404	-0.54418945	0.42578125	-0.22341919
1040925191912287	-0.54418945	0.38180542	-0.23686218
1040925196978205	-0.5356598	0.32437134	-0.25398254
1040925201983088	-0.517334	0.26818848	-0.27597046
1040925207720393	-0.48921204	0.22419739	-0.30407715
1040925212084406	-0.44891357	0.20465088	-0.3358307
1040925217089289	-0.40003967	0.2144165	-0.3712616
1040925222460383	-0.34506226	0.25106812	-0.4054718
1040925227160090	-0.28884888	0.30848694	-0.4360199
1040925230761164	-0.23631287	0.38058472	-0.46043396
1040925237322443	-0.193573	0.45632935	-0.47999573
1040925242266291	-0.1630249	0.5271759	-0.49343872
1040925247301691	-0.1483612	0.5833893	-0.50076294
1040925252398127	-0.1471405	0.623703	-0.49588013
1040925257860773	-0.15446472	0.6481323	-0.47631836
1040925262438410	-0.1618042	0.6591339	-0.44456482
1040925267443293	-0.16790771	0.6591339	-0.4030304
1040925272936457	-0.17645264	0.6542511	-0.3529358
1040925277514094	-0.18623352	0.6481323	-0.29795837
1040925281206721	-0.18623352	0.6518097	-0.29795837
1040925287615412	-0.20333862	0.6518097	-0.16601563
1040925292681330	-0.20333862	0.6909027	-0.09515381
1040925297686213	-0.2118988	0.6909027	-0.09515381
1040925302691096	-0.2253418	0.7128906	-0.032852173
1040925308611506	-0.26564026	0.7214508	0.05265808
1040925312761896	-0.26564026	0.6786804	0.05265808
1040925317827814	-0.28884888	0.6786804	0.07342529
1040925323168391	-0.31085205	0.6359253	0.07952881
1040925327868098	-0.33039856	0.59194946	0.06976318
1040925332293146	-0.34384155	0.55529785	0.046554565
1040925337999934	-0.34872437	0.53208923	0.009902954
1040925342974299	-0.34262085	0.52352905	-0.03161621
1040925348009699	-0.3255005	0.52841187	-0.0743866
1040925353045100	-0.29985046	0.5430603	-0.11836243
1040925358385676	-0.26687622	0.55773926	-0.16845703
1040925363146418	-0.22898865	0.5723877	-0.22097778
1040925368181818	-0.18867493	0.5882721	-0.2710724
1040925374285334	-0.1471405	0.6017151	-0.31018066
1040925378222101	-0.111709595	0.61027527	-0.34072876
1040925382464045	-0.08483887	0.6078186	-0.36271667
1040925388292902	-0.07015991	0.5980377	-0.38104248
1040925393328303	-0.06163025	0.58461	-0.3932495
1040925398363703	-0.055511475	0.5699463	-0.39569092
1040925403399103	-0.046966553	0.55529785	-0.3859253
1040925408739680	-0.035980225	0.54185486	-0.36637878
1040925413469904	-0.021316528	0.5308533	-0.3370514
1040925418505305	-0.006668091	0.52352905	-0.30163574
1040925423845881	0.009216309	0.52108765	-0.26254272
1040925428576105	0.026321411	0.5198517	-0.21977234
1040925432848566	0.026321411	0.51620483	-0.21977234
1040925438677424	0.044647217	0.51620483	-0.17211914
1040925443743342	0.06297302	0.50520325	-0.12080383
1040925448748225	0.07763672	0.48320007	-0.06706238
1040925453753107	0.08985901	0.45387268	-0.018188477
1040925459643000	0.100860596	0.41845703	0.062438965
1040925463854426	0.11306763	0.37690735	0.062438965
1040925468859309	0.12527466	0.3292694	0.090530396
1040925474382990	0.1350708	0.2803955	0.1076355
1040925478960627	0.14239502	0.23762512	0.11373901
1040925483385676	0.1509552	0.20343018	0.1088562
1040925489000910	0.15704346	0.17410278	0.094192505
1040925494066828	0.16072083	0.14356995	0.06976318
1040925499102228	0.15704346	0.11424255	0.03677368
1040925504137629	0.14604187	0.08735657	-0.0010986328
1040925509661310	0.13139343	0.066604614	-0.037734985
1040925514208430	0.111846924	0.04827881	-0.07070923
1040925519243830	0.09107971	0.03239441	-0.09637451
1040925524614924	0.06541443	0.011627197	-0.11836243
1040925529284113	0.036102295	-0.01524353	-0.13912964
1040925533709162	0.004333496	-0.04701233	-0.15379333
1040925539385432	-0.031082153	-0.07266235	-0.15623474
1040925544420832	-0.064071655	-0.07998657	-0.13668823
1040925549425715	-0.09094238	-0.07022095	-0.09515381
1040925554461115	-0.108047485	-0.05067444	-0.041412354
1040925559832209	-0.11781311	-0.03112793	0.01234436
1040925564623469	-0.127594	-0.011581421	0.055099487
1040925569597834	-0.13737488	0.009185791	0.08808899
1040925575365656	-0.1446991	0.027511597	0.11373901
1040925579638117	-0.1446991	0.04095459	0.13696289
1040925584185236	-0.1434784	0.04095459	0.13696289
1040925589708918	-0.13369751	0.04951477	0.15405273
1040925594805353	-0.11781311	0.054397583	0.16505432
1040925599810236	-0.099487305	0.06416321	0.16381836
1040925604876154	-0.079956055	0.078826904	0.14672852
1040925610705012	-0.06163025	0.10079956	0.11251831
1040925614916437	-0.044525146	0.12524414	0.057540894
1040925619921320	-0.032318115	0.15211487	-0.014541626
1040925625261896	-0.028640747	0.17778015	-0.09881592
1040925630022639	-0.031082153	0.20220947	-0.18800354
1040925634508723	-0.040878296	0.22541809	-0.27963257
1040925640093439	-0.05795288	0.24742126	-0.3700409
1040925645220393	-0.079956055	0.27062988	-0.4543457
1040925650133723	-0.108047485	0.29751587	-0.52885437
1040925655169123	-0.13858032	0.33172607	-0.58872986
1040925660692805	-0.17524719	0.36958313	-0.6302643
1040925665239924	-0.21434021	0.40623474	-0.64982605
1040925670305842	-0.25587463	0.43066406	-0.64982605
1040925675646418	-0.29985046	0.44166565	-0.6290436
1040925680346125	-0.34384155	0.44044495	-0.59239197
1040925683703059	-0.34384155	0.43434143	-0.59239197
1040925690447443	-0.41836548	0.43434143	-0.4812317
1040925695452326	-0.4415741	0.42456055	-0.41281128
1040925700487726	-0.4537964	0.42822266	-0.34439087
1040925705523127	-0.4562378	0.44166565	-0.27597046
1040925710863703	-0.44647217	0.45999146	-0.21121216
1040925715654963	-0.42814636	0.47587585	-0.14768982
1040925720629328	-0.40126038	0.48320007	-0.090270996
1040925726091975	-0.36705017	0.47831726	-0.041412354
1040925730700129	-0.36705017	0.46487427	-0.041412354
1040925734087580	-0.32795715	0.46487427	-0.0010986328
1040925740770930	-0.28764343	0.45022583	0.02822876
1040925745806330	-0.24487305	0.44410706	0.05265808
1040925750841730	-0.20333862	0.44898987	0.07342529
1040925755907648	-0.1642456	0.45755005	0.0929718
1040925761248225	-0.1300354	0.45755005	0.1076355
1040925765978449	-0.10682678	0.44166565	0.11740112
1040925771013850	-0.0970459	0.41357422	0.11984253
1040925776323908	-0.10316467	0.3781433	0.11373901
1040925781054133	-0.12271118	0.3414917	0.097854614
1040925784441584	-0.15080261	0.30116272	0.074645996
1040925791124934	-0.18501282	0.25595093	0.04899597
1040925796190851	-0.22166443	0.20465088	0.023345947
1040925801195734	-0.25587463	0.14845276	-0.003540039
1040925806292170	-0.28640747	0.08979797	-0.030410767
1040925811724299	-0.31085205	0.034851074	-0.05606079
1040925816301935	-0.32429504	-0.010345459	-0.08049011
1040925821337336	-0.32795715	-0.045776367	-0.10003662
1040925826769465	-0.32061768	-0.07022095	-0.113479614
1040925831408137	-0.30841064	-0.08731079	-0.1244812
1040925834765070	-0.30841064	-0.09710693	-0.1244812
1040925841509455	-0.2754364	-0.09710693	-0.15379333
1040925846544855	-0.25587463	-0.084869385	-0.16967773
1040925851549738	-0.23631287	-0.06289673	-0.18678284
1040925856585139	-0.21310425	-0.042114258	-0.20632935
1040925862108820	-0.18989563	-0.028686523	-0.22709656
1040925866686457	-0.16790771	-0.021347046	-0.24542236
1040925871721857	-0.16790771	-0.016464233	-0.24542236
1040925877581232	-0.1312561	-0.016464233	-0.26130676
1040925881762141	-0.1312561	0.010421753	-0.26130676
1040925885119074	-0.111709595	0.010421753	-0.26254272
1040925891893976	-0.09460449	0.036071777	-0.26130676
1040925896868342	-0.083602905	0.06904602	-0.25398254
1040925901903742	-0.079956055	0.10447693	-0.24053955
1040925906939143	-0.0811615	0.13868713	-0.21977234
1040925912279719	-0.08728027	0.16555786	-0.19412231
1040925917101496	-0.09338379	0.18510437	-0.16479492
1040925922075861	-0.10072327	0.19120789	-0.13424683
1040925927782648	-0.108047485	0.18266296	-0.10003662
1040925932116144	-0.10926819	0.16311646	-0.06706238
1040925935503596	-0.10072327	0.13868713	-0.037734985
1040925942217463	-0.0811615	0.11424255	-0.014541626
1040925947252863	-0.053085327	0.09591675	0.0013427734
1040925952318781	-0.021316528	0.08979797	0.01234436
1040925957537287	0.016555786	0.09591675	0.018447876
1040925963213557	0.05809021	0.10935974	0.018447876
1040925967455500	0.10206604	0.12156677	0.011108398
1040925972429865	0.14483643	0.12400818	-0.004776001
1040925978258723	0.18148804	0.110580444	-0.030410767
1040925982500666	0.21081543	0.08370972	-0.062179565
1040925985796564	0.21081543	0.04951477	-0.062179565
1040925992571467	0.24012756	0.04951477	-0.14035034
1040925997606867	0.24378967	-0.04701233	-0.18312073
1040926002672785	0.24256897	-0.11907959	-0.23077393
1040926007677668	0.23890686	-0.19972229	-0.28330994
1040926013598078	0.23278809	-0.27546692	-0.3394928
1040926017717951	0.23278809	-0.33532715	-0.3394928
1040926022814387	0.22302246	-0.33532715	-0.39569092
1040926028368586	0.21325684	-0.37565613	-0.4885559
1040926032885187	0.20469666	-0.41719055	-0.4885559
1040926036150568	0.19613647	-0.41719055	-0.51664734
1040926042986506	0.18881226	-0.42819214	-0.53009033
1040926047960871	0.17781067	-0.43307495	-0.52885437
1040926053026789	0.16192627	-0.43307495	-0.51664734
1040926058031672	0.14115906	-0.42695618	-0.4971161
1040926063952082	0.12162781	-0.41474915	-0.47387695
1040926068224543	0.10574341	-0.39762878	-0.44578552
1040926073137873	0.09718323	-0.37686157	-0.41401672
1040926079393976	0.09352112	-0.35609436	-0.3773651
1040926083208674	0.095962524	-0.33288574	-0.3370514
1040926086596125	0.10450745	-0.3047943	-0.2918396
1040926093279475	0.116744995	-0.2730255	-0.24177551
1040926098284357	0.13015747	-0.24247742	-0.18432617
1040926103319758	0.14239502	-0.22415161	-0.11958313
1040926108568781	0.1509552	-0.2192688	-0.049942017
1040926113695734	0.15704346	-0.22782898	0.01966858
1040926118914240	0.16192627	-0.24003601	0.08808899
1040926123491877	0.16436768	-0.2522583	0.15040588
1040926128618830	0.15827942	-0.2718048	0.20050049
1040926133562678	0.13995361	-0.30355835	0.23103333
1040926136889094	0.13995361	-0.34632874	0.23103333
1040926143602961	0.0544281	-0.34632874	0.24324036
1040926148882502	-0.0029907227	-0.44039917	0.23103333
1040926153673762	-0.06163025	-0.49049377	0.2053833
1040926159227961	-0.12025452	-0.5418091	0.16137695
1040926164202326	-0.18257141	-0.59310913	0.10397339
1040926169481867	-0.25219727	-0.6517639	0.03677368
1040926173815363	-0.25219727	-0.72994995	0.03677368
1040926179033869	-0.32795715	-0.72994995	-0.032852173
1040926183916682	-0.40248108	-0.8325653	-0.106155396
1040926187212580	-0.4696808	-0.9510803	-0.18067932
1040926194018000	-0.52586365	-1.0695801	-0.25154114
1040926199297541	-0.56863403	-1.1697693	-0.31140137
1040926204027766	-0.5979614	-1.2455139	-0.3578186
1040926209307307	-0.61628723	-1.2931671	-0.3932495
1040926214617365	-0.62483215	-1.3127136	-0.4176941
1040926219896906	-0.62361145	-1.3065948	-0.4225769
1040926224199885	-0.60772705	-1.2821655	-0.39692688
1040926229845637	-0.57107544	-1.2516327	-0.33338928
1040926234270685	-0.5087738	-1.2247467	-0.22465515
1040926237597101	-0.42080688	-1.2015381	-0.0756073
1040926244341486	-0.30841064	-1.1661072	0.10519409
1040926249590510	-0.18013	-1.1001434	0.29945374
1040926254381769	-0.043319702	-0.9852905	0.49369812
1040926259752863	0.09718323	-0.8203583	0.68185425
1040926264757746	0.23524475	-0.61387634	0.866333
1040926270556086	0.36717224	-0.3866577	1.0410309
1040926274523371	0.48692322	-0.1557312	1.1974182
1040926280321711	0.58465576	0.059280396	1.3244781
1040926284624689	0.6518402	0.25106812	1.4173126
1040926287981623	0.6518402	0.40745544	1.4173126
1040926294695490	0.7019348	0.40745544	1.4979553
1040926300432795	0.6897278	0.5870514	1.486969
1040926304766291	0.6897278	0.6065979	1.486969
1040926310717219	0.60298157	0.6065979	1.3525696
1040926315142268	0.60298157	0.5271759	1.3525696
1040926320940607	0.45515442	0.5271759	1.0911255
1040926324877375	0.45515442	0.3573761	1.0911255
1040926330584162	0.3696289	0.3573761	0.92863464
1040926334978693	0.27677917	0.25474548	0.7465973
1040926338274592	0.17781067	0.14601135	0.54745483
1040926345049494	0.07885742	0.03239441	0.34220886
1040926350512141	-0.01399231	-0.08366394	0.1418457
1040926355120295	-0.092163086	-0.19606018	-0.041412354
1040926361528986	-0.15202332	-0.29257202	-0.20021057
1040926367785090	-0.2094574	-0.3683319	-0.4335785
1040926371294611	-0.2094574	-0.45506287	-0.4335785
1040926375261896	-0.21678162	-0.45506287	-0.5093231
1040926380816096	-0.21678162	-0.47338867	-0.5594177
1040926385332697	-0.2118988	-0.47827148	-0.58872986
1040926388628596	-0.19845581	-0.4794922	-0.60217285
1040926395372980	-0.1789093	-0.4807129	-0.59851074
1040926400957697	-0.15202332	-0.48805237	-0.57650757
1040926405443781	-0.115371704	-0.4965973	-0.53375244
1040926411303156	-0.07261658	-0.497818	-0.47755432
1040926416033381	-0.02619934	-0.484375	-0.41281128
1040926421862238	0.020217896	-0.44895935	-0.3419342
1040926425615900	0.06541443	-0.39274597	-0.26742554
1040926431627863	0.10694885	-0.32556152	-0.18678284
1040926435656184	0.14483643	-0.25958252	-0.10247803
1040926439043635	0.14483643	-0.20462036	-0.10247803
1040926445757502	0.17660522	-0.20462036	0.058761597
1040926451708430	0.23158264	-0.12519836	0.13208008
1040926455828303	0.23158264	-0.093429565	0.13208008
1040926462420100	0.25357056	-0.093429565	0.25912476
1040926466204279	0.25357056	-0.05189514	0.25912476
1040926472307795	0.21690369	-0.05189514	0.33486938
1040926475969904	0.21690369	-0.033569336	0.33486938
1040926481951350	0.18637085	-0.033569336	0.34953308
1040926486040705	0.15583801	-0.027450562	0.3519745
1040926489397639	0.12651062	-0.032348633	0.34098816
1040926496111506	0.10206604	-0.05555725	0.31654358
1040926502306574	0.083740234	-0.08854675	0.27745056
1040926506151789	0.07763672	-0.11051941	0.22859192
1040926512865656	0.0874176	-0.1056366	0.1736145
1040926516680353	0.11428833	-0.07510376	0.118637085
1040926522539728	0.15583801	-0.036010742	0.06488037
1040926526293391	0.20349121	-0.0066833496	0.01234436
1040926532122248	0.24867249	0.009185791	-0.03161621
1040926536364191	0.29022217	0.022628784	-0.060943604
1040926539721125	0.320755	0.036071777	-0.07194519
1040926546496027	0.3354187	0.044631958	-0.07194519
1040926552660578	0.3329773	0.036071777	-0.065826416
1040926556505793	0.30854797	0.0043029785	-0.060943604
1040926563036555	0.26455688	-0.048217773	-0.062179565
1040926566973322	0.20103455	-0.11543274	-0.069503784
1040926571642512	0.120391846	-0.1899414	-0.08049011
1040926576677912	0.027542114	-0.266922	-0.08538818
1040926582171076	-0.071395874	-0.34265137	-0.078048706
1040926586718195	-0.17034912	-0.41107178	-0.058502197
1040926590075129	-0.17034912	-0.4636078	-0.058502197
1040926596850031	-0.2644348	-0.4636078	-0.032852173
1040926603075617	-0.4293518	-0.48927307	0.026992798
1040926606890314	-0.4293518	-0.45506287	0.026992798
1040926613482111	-0.55763245	-0.45506287	0.0917511
1040926617266291	-0.55763245	-0.35733032	0.0917511
1040926621996516	-0.60284424	-0.35733032	0.1235199
1040926627031916	-0.63461304	-0.32312012	0.1577301
1040926632525080	-0.65293884	-0.32188416	0.19682312
1040926637072199	-0.65660095	-0.36221313	0.24079895
1040926640459650	-0.64437866	-0.44284058	0.28967285
1040926647173518	-0.61872864	-0.5466919	0.33732605
1040926652208918	-0.58451843	-0.6566467	0.37886047
1040926657274836	-0.542984	-0.75193787	0.41183472
1040926662310236	-0.4928894	-0.8203583	0.43995667
1040926668017023	-0.43547058	-0.8618927	0.46681213
1040926672381037	-0.37683105	-0.8838959	0.4912567
1040926677385920	-0.31697083	-0.89242554	0.5120239
1040926682818049	-0.25831604	-0.88998413	0.5254669
1040926687426203	-0.20211792	-0.8838959	0.53767395
1040926690813654	-0.20211792	-0.88145447	0.53767395
1040926697527521	-0.095840454	-0.88145447	0.59510803
1040926702593439	-0.048202515	-0.8912201	0.64152527
1040926707598322	-0.007873535	-0.88998413	0.69285583
1040926712603205	0.025100708	-0.8777771	0.7404785
1040926718126887	0.04586792	-0.8557739	0.7820282
1040926722674006	0.049545288	-0.8276825	0.8150177
1040926727709406	0.03488159	-0.8020325	0.839447
1040926733080500	0.003112793	-0.7898102	0.8553314
1040926737810725	0.003112793	-0.80081177	0.8553314
1040926741106623	-0.040878296	-0.80081177	0.86997986
1040926747881525	-0.092163086	-0.8350067	0.8822174
1040926752947443	-0.1459198	-0.8863373	0.89198303
1040926757952326	-0.193573	-0.9461975	0.8981018
1040926762987726	-0.23022461	-1.0060577	0.89930725
1040926768480891	-0.25343323	-1.0610352	0.8895416
1040926773089045	-0.26687622	-1.1037903	0.86509705
1040926778093928	-0.27420044	-1.1269989	0.826004
1040926783953303	-0.2754364	-1.1306763	0.7808075
1040926788164728	-0.26687622	-1.1245575	0.73439026
1040926791521662	-0.24610901	-1.1221161	0.69529724
1040926798235529	-0.21310425	-1.1282349	0.66841125
1040926803240412	-0.17279053	-1.1306763	0.6561737
1040926808275812	-0.13491821	-1.1184692	0.6561737
1040926813341730	-0.10192871	-1.079361	0.6696167
1040926818682307	-0.07751465	-1.0195007	0.6989441
1040926823412531	-0.06163025	-0.9510803	0.7441559
1040926828447932	-0.056747437	-0.8887787	0.7954712
1040926834307307	-0.067718506	-0.8398895	0.8455658
1040926838488215	-0.09338379	-0.8069153	0.8895416
1040926841906184	-0.09338379	-0.7885895	0.8895416
1040926848589533	-0.17524719	-0.7885895	0.97384644
1040926853594416	-0.21922302	-0.81059265	1.0141449
1040926858660334	-0.25708008	-0.8484497	1.0495911
1040926863665217	-0.29129028	-0.89489746	1.0764618
1040926869433039	-0.31817627	-0.9413147	1.0911255
1040926873766535	-0.3413849	-0.9804077	1.0935669
1040926878801935	-0.3413849	-1.0097198	1.0825806
1040926884539240	-0.3755951	-1.0304871	1.0605774
1040926888842219	-0.3755951	-1.0427094	1.0605774
1040926892260187	-0.3890381	-1.0427094	1.0275879
1040926898943537	-0.39881897	-1.0476074	0.98239136
1040926904009455	-0.4073639	-1.0500488	0.92619324
1040926909014338	-0.41592407	-1.0536957	0.85899353
1040926914049738	-0.4293518	-1.0622559	0.7856903
1040926919939631	-0.4440155	-1.0769043	0.7123871
1040926924120539	-0.4586792	-1.0940247	0.64276123
1040926929125422	-0.4696808	-1.1111145	0.58044434
1040926935045832	-0.477005	-1.1196747	0.5242462
1040926939226740	-0.48188782	-1.1172333	0.4753723
1040926942583674	-0.48432922	-1.1037903	0.43260193
1040926949297541	-0.48432922	-1.084259	0.3935089
1040926954332941	-0.48432922	-1.0659332	0.35565186
1040926959368342	-0.48677063	-1.0500488	0.31410217
1040926964373225	-0.4880066	-1.0341644	0.26890564
1040926969896906	-0.48921204	-1.0158386	0.2188263
1040926974505060	-0.48677063	-0.99017334	0.16137695
1040926979509943	-0.4794464	-0.9547577	0.10151672
1040926985399836	-0.46479797	-0.90586853	0.042877197
1040926989580744	-0.4403534	-0.8411255	-0.010864258
1040926992937678	-0.4403534	-0.7543793	-0.010864258
1040926999651545	-0.3731537	-0.7543793	-0.09515381
1040927004686945	-0.33529663	-0.5344696	-0.12936401
1040927009722346	-0.29864502	-0.41963196	-0.15991211
1040927014727228	-0.2644348	-0.31089783	-0.18678284
1040927020098322	-0.23266602	-0.21194458	-0.20632935
1040927024828547	-0.23266602	-0.11907959	-0.20632935
1040927029863947	-0.19845581	-0.11907959	-0.21609497
1040927035631769	-0.12149048	-0.033569336	-0.20509338
1040927039904230	-0.12149048	0.10813904	-0.20509338
1040927043291682	-0.08604431	0.10813904	-0.19168091
1040927050005549	-0.056747437	0.16189575	-0.17823792
1040927055010432	-0.03475952	0.20587158	-0.16355896
1040927060076350	-0.020095825	0.23641968	-0.14402771
1040927065111750	-0.01399231	0.24986267	-0.122024536
1040927071032160	-0.016433716	0.2437439	-0.09881592
1040927075182551	-0.028640747	0.21931458	-0.078048706
1040927080217951	-0.04576111	0.18266296	-0.06338501
1040927085558527	-0.0652771	0.13868713	-0.053619385
1040927090258234	-0.08483887	0.08979797	-0.046295166
1040927093645685	-0.099487305	0.036071777	-0.041412354
1040927100359553	-0.108047485	-0.022567749	-0.036499023
1040927105394953	-0.11048889	-0.084869385	-0.030410767
1040927110430353	-0.108047485	-0.14720154	-0.02796936
1040927115496271	-0.10437012	-0.20706177	-0.029174805
1040927120958918	-0.0970459	-0.26080322	-0.041412354
1040927125536555	-0.08604431	-0.3047943	-0.060943604
1040927130571955	-0.06651306	-0.33900452	-0.08294678
1040927136461848	-0.043319702	-0.36586	-0.10003662
1040927140642756	-0.02255249	-0.38174438	-0.11470032
1040927143938654	-0.02255249	-0.3866577	-0.11470032
1040927150713557	-0.009109497	-0.3866577	-0.14646912
1040927155748957	-0.021316528	-0.38909912	-0.16723633
1040927160784357	-0.044525146	-0.40130615	-0.18800354
1040927165789240	-0.07261658	-0.42575073	-0.20877075
1040927171557062	-0.10316467	-0.45994568	-0.22709656
1040927175890559	-0.10316467	-0.5027008	-0.22709656
1040927180925959	-0.13369751	-0.5027008	-0.24298096
1040927186815851	-0.19113159	-0.5564575	-0.26254272
1040927190996760	-0.19113159	-0.67985535	-0.26254272
1040927194353693	-0.21310425	-0.67985535	-0.26498413
1040927201067560	-0.23143005	-0.73361206	-0.26010132
1040927206102961	-0.2412262	-0.7727051	-0.24786377
1040927211138361	-0.2412262	-0.7959137	-0.22709656
1040927216173762	-0.23143005	-0.81059265	-0.19288635
1040927221972101	-0.21678162	-0.81791687	-0.15257263
1040927226244562	-0.20089722	-0.81547546	-0.11103821
1040927231279963	-0.18257141	-0.79959106	-0.0743866
1040927237017268	-0.15814209	-0.7702637	-0.04385376
1040927241320246	-0.12637329	-0.73361206	-0.014541626
1040927244707697	-0.092163086	-0.69329834	0.017227173
1040927251452082	-0.060394287	-0.6493225	0.05265808
1040927256426447	-0.03352356	-0.5992279	0.0917511
1040927261461848	-0.011550903	-0.5442505	0.13452148
1040927266497248	0.009216309	-0.48805237	0.1870575
1040927272020930	0.02998352	-0.4342804	0.24935913
1040927276568049	0.0544281	-0.38298035	0.31900024
1040927281633967	0.080078125	-0.33288574	0.39230347
1040927286974543	0.108184814	-0.28034973	0.4656067
1040927291704768	0.1375122	-0.2204895	0.529129
1040927295031184	0.1375122	-0.14964294	0.529129
1040927301745051	0.1851654	-0.14964294	0.59999084
1040927306810969	0.19369507	0.023864746	0.60365295
1040927311846369	0.19369507	0.10568237	0.58776855
1040927316881769	0.19004822	0.10568237	0.58776855
1040927322344416	0.1509552	0.16311646	0.5083618
1040927326922053	0.1509552	0.17778015	0.5083618
1040927331957453	0.12771606	0.17778015	0.4497223
1040927337877863	0.10694885	0.14112854	0.384964
1040927342058771	0.092300415	0.08859253	0.32022095
1040927345415705	0.083740234	0.031188965	0.2579193
1040927352129572	0.0849762	-0.023788452	0.19682312
1040927357134455	0.09107971	-0.07388306	0.13452148
1040927362169855	0.099624634	-0.11907959	0.074645996
1040927367235773	0.10939026	-0.15696716	0.023345947
1040927372606867	0.1191864	-0.19238281	-0.01210022
1040927377306574	0.12895203	-0.23027039	-0.032852173
1040927382341975	0.13627625	-0.2681427	-0.04385376
1040927388170832	0.14115906	-0.29745483	-0.05117798
1040927392412775	0.14483643	-0.31700134	-0.05606079
1040927395739191	0.15216064	-0.33166504	-0.05606079
1040927402483576	0.16436768	-0.34877014	-0.05117798
1040927407488459	0.17904663	-0.37077332	-0.041412354
1040927412523859	0.19737244	-0.39398193	-0.02796936
1040927417589777	0.21569824	-0.41719055	-0.013305664
1040927422899836	0.23524475	-0.43795776	0.0037841797
1040927427660578	0.25357056	-0.45872498	0.020904541
1040927432665461	0.2669983	-0.47705078	0.03677368
1040927438433283	0.27677917	-0.48561096	0.04777527
1040927442736262	0.281662	-0.48316956	0.046554565
1040927446123713	0.281662	-0.4684906	0.046554565
1040927452837580	0.2669983	-0.4684906	0.0050201416
1040927457872980	0.2669983	-0.40863037	-0.029174805
1040927462877863	0.24012756	-0.40863037	-0.029174805
1040927468004816	0.19857788	-0.38542175	-0.065826416
1040927473406428	0.14239502	-0.38786316	-0.10247803
1040927477984064	0.0715332	-0.42330933	-0.13668823
1040927483111018	-0.011550903	-0.48683167	-0.16845703
1040927488573664	-0.0970459	-0.5674591	-0.19776917
1040927493120783	-0.17524719	-0.6468811	-0.22097778
1040927496416682	-0.23875427	-0.70796204	-0.23321533
1040927503191584	-0.28276062	-0.73727417	-0.23197937
1040927508196467	-0.30717468	-0.73239136	-0.21853638
1040927513231867	-0.312088	-0.69451904	-0.19776917
1040927518267268	-0.30108643	-0.6334381	-0.17089844
1040927524035090	-0.2778778	-0.5576935	-0.13668823
1040927528338068	-0.24487305	-0.47705078	-0.09637451
1040927533403986	-0.2094574	-0.39642334	-0.049942017
1040927539385432	-0.17279053	-0.31333923	0.0050201416
1040927543444269	-0.13369751	-0.22903442	0.06732178
1040927546862238	-0.0970459	-0.1398468	0.13452148
1040927553545588	-0.06283569	-0.045776367	0.2078247
1040927558550471	-0.037200928	0.051956177	0.27989197
1040927563616389	-0.021316528	0.15333557	0.34587097
1040927568743342	-0.018875122	0.25595093	0.40083313
1040927574419611	-0.023757935	0.3475952	0.43995667
1040927578692072	-0.035980225	0.42089844	0.46681213
1040927583757990	-0.051849365	0.46731567	0.4814911
1040927589159601	-0.07261658	0.48931885	0.4863739
1040927593798273	-0.10072327	0.49420166	0.48025513
1040927597185725	-0.10072327	0.49176025	0.48025513
1040927603899592	-0.13737488	0.49176025	0.46072388
1040927608873957	-0.18013	0.48931885	0.4228363
1040927613970393	-0.22654724	0.47953796	0.3690796
1040927619005793	-0.27175903	0.45510864	0.30799866
1040927624498957	-0.312088	0.40989685	0.24935913
1040927629076594	-0.34750366	0.35003662	0.19558716
1040927634081476	-0.37438965	0.2828369	0.14550781
1040927639971369	-0.38781738	0.22297668	0.09663391
1040927644182795	-0.38781738	0.18144226	0.04899597
1040927647478693	-0.37193298	0.15945435	0.0050201416
1040927654345148	-0.34017944	0.14845276	-0.030410767
1040927659350031	-0.29740906	0.13745117	-0.054840088
1040927664324396	-0.24487305	0.12156677	-0.07194519
1040927669329279	-0.19233704	0.10203552	-0.08659363
1040927674883478	-0.1434784	0.08126831	-0.10371399
1040927679430598	-0.10072327	0.05683899	-0.1257019
1040927684465998	-0.06283569	0.03239441	-0.14646912
1040927690294855	-0.02619934	0.015304565	-0.16479492
1040927694506281	0.008010864	0.010421753	-0.17944336
1040927697863215	0.008010864	0.017745972	-0.17944336
1040927704577082	0.0690918	0.017745972	-0.19412231
1040927709612482	0.09352112	0.04951477	-0.19412231
1040927714647883	0.10939026	0.06295776	-0.18922424
1040927719774836	0.11795044	0.067840576	-0.18800354
1040927725023859	0.1191864	0.06539917	-0.19044495
1040927729784601	0.11306763	0.05683899	-0.19776917
1040927734789484	0.10450745	0.044631958	-0.20509338
1040927740862482	0.09352112	0.03239441	-0.21244812
1040927744890803	0.09352112	0.026306152	-0.21977234
1040927748247736	0.083740234	0.026306152	-0.21977234
1040927754931086	0.076416016	0.027511597	-0.22341919
1040927759966486	0.0703125	0.039733887	-0.22097778
1040927765032404	0.064193726	0.06416321	-0.20756531
1040927770098322	0.05809021	0.09591675	-0.18312073
1040927775408381	0.0544281	0.13134766	-0.15013123
1040927780108088	0.051986694	0.16921997	-0.11103821
1040927785143488	0.051986694	0.20465088	-0.069503784
1040927790514582	0.0544281	0.23762512	-0.030410767
1040927795244807	0.060531616	0.26574707	0.0037841797
1040927798571223	0.0690918	0.29260254	0.03189087
1040927805315607	0.07763672	0.31704712	0.053878784
1040927810381525	0.08129883	0.33537292	0.06488037
1040927815355891	0.080078125	0.3463745	0.06732178
1040927820391291	0.07519531	0.3475952	0.062438965
1040927825914973	0.064193726	0.34025574	0.053878784
1040927830462092	0.048324585	0.32681274	0.042877197
1040927835558527	0.02998352	0.30848694	0.034332275
1040927841478937	0.011657715	0.2889557	0.030670166
1040927845629328	-0.005432129	0.27062988	0.033111572
1040927848894709	-0.005432129	0.25230408	0.033111572
1040927855669611	-0.03843689	0.25230408	0.039215088
1040927860735529	-0.055511475	0.20465088	0.041671753
1040927865740412	-0.07015991	0.17166138	0.045318604
1040927870775812	-0.08239746	0.13012695	0.050216675
1040927876543635	-0.09460449	0.07759094	0.053878784
1040927880816096	-0.11048889	0.017745972	0.051437378
1040927885882014	-0.1288147	-0.045776367	0.037994385
1040927891344660	-0.1459198	-0.1056366	0.01234436
1040927895922297	-0.1459198	-0.15696716	0.01234436
1040927899279230	-0.15814209	-0.15696716	-0.023086548
1040927905993098	-0.1618042	-0.19606018	-0.060943604
1040927911028498	-0.15568542	-0.2168274	-0.0914917
1040927916063898	-0.13981628	-0.2217102	-0.11225891
1040927921099299	-0.116607666	-0.21560669	-0.1244812
1040927926348322	-0.09460449	-0.2058258	-0.1269226
1040927931170100	-0.07383728	-0.19482422	-0.11836243
1040927936174982	-0.055511475	-0.18139648	-0.09881592
1040927941668146	-0.037200928	-0.16184998	-0.06706238
1040927946276301	-0.017654419	-0.13252258	-0.029174805
1040927949663752	0.0018920898	-0.09465027	0.007461548
1040927956377619	0.025100708	-0.05067444	0.04043579
1040927961351984	0.051986694	-0.0030212402	0.06732178
1040927966387385	0.083740234	0.04951477	0.0917511
1040927971544855	0.120391846	0.11791992	0.11251831
1040927976671809	0.16436768	0.21076965	0.12962341
1040927981524103	0.21325684	0.33172607	0.1394043
1040927986559504	0.26211548	0.4746399	0.13816833
1040927991839045	0.3024292	0.6249237	0.122283936
1040927996660822	0.32809448	0.7690735	0.08808899
1040927999956721	0.32809448	0.8937073	0.08808899
1040928006701105	0.32809448	0.8937073	-0.045059204
1040928011736506	0.30610657	1.0549774	-0.13912964
1040928016741389	0.27311707	1.0879517	-0.23686218
1040928021807307	0.23402405	1.0952911	-0.33216858
1040928027178400	0.19004822	1.0806274	-0.4237976
1040928031878107	0.19004822	1.0513	-0.5044403
1040928036913508	0.14604187	1.0097656	-0.5044403
1040928042406672	0.076416016	1.0097656	-0.60217285
1040928046953791	0.076416016	0.9193573	-0.60217285
1040928050341242	0.059310913	0.9193573	-0.6094971
1040928057055109	0.049545288	0.8827057	-0.60461426
1040928062059992	0.04586792	0.8509369	-0.60461426
1040928067095393	0.043426514	0.81307983	-0.61561584
1040928072161310	0.04586792	0.7629852	-0.63150024
1040928077410334	0.055648804	0.6982269	-0.64126587
1040928082232111	0.07519531	0.6188202	-0.63150024
1040928087267512	0.10939026	0.53941345	-0.59239197
1040928092760676	0.15827942	0.47587585	-0.51908875
1040928097338312	0.22058105	0.45143127	-0.41281128
1040928100695246	0.28900146	0.47953796	-0.29063416
1040928107409113	0.3549652	0.5626221	-0.16601563
1040928112475031	0.41238403	0.6799011	-0.049942017
1040928117540949	0.452713	0.8032837	0.04777527
1040928122515314	0.47225952	0.8998108	0.11984253
1040928128161066	0.466156	0.947464	0.15649414
1040928132586115	0.4368286	0.9376831	0.15040588
1040928137621516	0.39041138	0.8766022	0.094192505
1040928142931574	0.3366394	0.7764282	-0.008422852
1040928147692316	0.28656006	0.6530304	-0.14524841
1040928151049250	0.28656006	0.52108765	-0.14524841
1040928157793635	0.22180176	0.52108765	-0.46411133
1040928162768000	0.20593262	0.28163147	-0.62538147
1040928167803400	0.19369507	0.18876648	-0.7805481
1040928172869318	0.18025208	0.10935974	-0.92225647
1040928178240412	0.1668396	0.036071777	-1.046875
1040928182970637	0.1668396	-0.045776367	-1.046875
1040928187975519	0.15583801	-0.045776367	-1.151947
1040928193285578	0.15216064	-0.14840698	-1.2338104
1040928198076838	0.16436768	-0.2693634	-1.2802277
1040928201372736	0.20469666	-0.39274597	-1.2777863
1040928208117121	0.28044128	-0.4965973	-1.2264862
1040928213183039	0.39161682	-0.5601349	-1.1482697
1040928218187922	0.52967834	-0.5723419	-1.0688629
1040928223223322	0.6750488	-0.5259247	-1.0041199
1040928228472346	0.80578613	-0.41841125	-0.95526123
1040928233324641	0.90841675	-0.2681427	-0.9088135
1040928238390559	0.9756012	-0.11175537	-0.8538513
1040928244097346	1.0024872	-5.79834E-4	-0.7805481
1040928248369807	0.9853821	0.038513184	-0.68647766
1040928251787775	0.9181824	0.015304565	-0.56918335
1040928258471125	0.7996826	-0.032348633	-0.43113708
1040928263476008	0.63230896	-0.065338135	-0.28819275
1040928268541926	0.42826843	-0.06654358	-0.15623474
1040928273607844	0.20713806	-0.054336548	-0.04750061
1040928278856867	-0.006668091	-0.068984985	0.033111572
1040928283678644	-0.19477844	-0.13864136	0.086868286
1040928288683527	-0.33894348	-0.2571411	0.11251831
1040928294451350	-0.4317932	-0.39398193	0.10519409
1040928298723810	-0.4696808	-0.5173645	0.062438965
1040928302141779	-0.4696808	-0.6077881	0.062438965
1040928308825129	-0.40126038	-0.6077881	-0.10371399
1040928313830012	-0.31697083	-0.6762085	-0.19412231
1040928318895930	-0.21554565	-0.67497253	-0.26618958
1040928323931330	-0.21554565	-0.65908813	-0.26618958
1040928329210871	-0.10926819	-0.65908813	-0.33461
1040928334032648	-0.010314941	-0.6309967	-0.33461
1040928339037531	0.0703125	-0.5857849	-0.34072876
1040928344866389	0.124069214	-0.5295868	-0.32972717
1040928349199885	0.14483643	-0.46972656	-0.32972717
1040928352465266	0.1375122	-0.42451477	-0.32972717
1040928359270685	0.11428833	-0.40498352	-0.3394928
1040928364275568	0.083740234	-0.41719055	-0.3590393
1040928369982355	0.053207397	-0.45872498	-0.38104248
1040928374376887	0.028778076	-0.5137024	-0.40057373
1040928379381769	0.015335083	-0.5527954	-0.4042511
1040928384386652	0.01411438	-0.5418091	-0.37980652
1040928389452570	0.026321411	-0.4660492	-0.33094788
1040928395220393	0.04586792	-0.34265137	-0.28451538
1040928399462336	0.0690918	-0.2168274	-0.27474976
1040928402819269	0.095962524	-0.13375854	-0.31018066
1040928409533137	0.13015747	-0.11299133	-0.3675995
1040928414629572	0.17536926	-0.1398468	-0.42134094
1040928419603937	0.23034668	-0.17041016	-0.47755432
1040928424669855	0.29022217	-0.15452576	-0.55574036
1040928430040949	0.34519958	-0.065338135	-0.6632538
1040928434740656	0.3842926	0.08370972	-0.78175354
1040928439776057	0.39894104	0.24742126	-0.88804626
1040928445391291	0.39161682	0.379364	-0.97114563
1040928449846857	0.3696289	0.44654846	-1.0273285
1040928453203791	0.3696289	0.44044495	-1.0273285
1040928459887141	0.30976868	0.44044495	-1.0700989
1040928464922541	0.30976868	0.29016113	-1.0676422
1040928470049494	0.281662	0.21321106	-1.0676422
1040928475023859	0.26333618	0.21321106	-1.0578766
1040928480730646	0.25723267	0.17166138	-0.9931183
1040928485094660	0.25723267	0.21076965	-0.9931183
1040928490099543	0.25967407	0.21076965	-0.93081665
1040928495592707	0.25601196	0.2730713	-0.86117554
1040928500170344	0.24012756	0.3390503	-0.8049774
1040928503527277	0.21446228	0.38790894	-0.7719879
1040928510241144	0.18392944	0.40623474	-0.7573395
1040928515246027	0.1533966	0.39035034	-0.74998474
1040928520281428	0.12527466	0.35614014	-0.7487793
1040928525377863	0.103302	0.33293152	-0.7561035
1040928530565851	0.09107971	0.3439331	-0.7732239
1040928535448664	0.095962524	0.40013123	-0.7903137
1040928540453547	0.11795044	0.49664307	-0.802536
1040928545763605	0.15583801	0.6175995	-0.80007935
1040928550524348	0.20469666	0.7507477	-0.77931213
1040928553881281	0.26089478	0.89004517	-0.7328949
1040928560656184	0.32199097	1.0244446	-0.6620331
1040928565661066	0.38549805	1.1490479	-0.57406616
1040928570665949	0.44171143	1.2589874	-0.48243713
1040928575701350	0.48692322	1.3481903	-0.3932495
1040928581102961	0.51623535	1.410492	-0.30407715
1040928585802668	0.53456116	1.4447021	-0.21609497
1040928590838068	0.55166626	1.4581451	-0.1257019
1040928596605891	0.57977295	1.4703522	-0.034057617
1040928600878351	0.61886597	1.4996796	0.06854248
1040928604265803	0.61886597	1.5460968	0.06854248
1040928610949152	0.65919495	1.5460968	0.36663818
1040928615984553	0.6933899	1.5986328	0.36663818
1040928621050471	0.7141571	1.6389618	0.57188416
1040928626085871	0.7190552	1.659729	0.7881317
1040928631518000	0.7092743	1.659729	0.9750519
1040928636156672	0.6921692	1.6450653	1.097229
1040928641131037	0.6811676	1.6132965	1.1473236
1040928646959894	0.684845	1.5632172	1.1387634
1040928651232355	0.69828796	1.4947968	1.0874634
1040928654619807	0.7117157	1.4239349	1.0043793
1040928661303156	0.71661377	1.3640747	0.8956604
1040928666308039	0.7129364	1.3152008	0.7698059
1040928671404475	0.7068176	1.2639008	0.63664246
1040928676409357	0.6946106	1.1954803	0.49858093
1040928681719416	0.6762848	1.100174	0.3519745
1040928686480158	0.6493988	0.9755554	0.20050049
1040928691515559	0.61763	0.82528687	0.05632019
1040928696825617	0.5809784	0.6579132	-0.06462097
1040928701586359	0.53822327	0.47831726	-0.14891052
1040928704943293	0.49180603	0.28163147	-0.20144653
1040928711657160	0.44659424	0.0617218	-0.23809814
1040928716662043	0.40629578	-0.174057	-0.26742554
1040928721727961	0.37696838	-0.4025421	-0.28575134
1040928726763361	0.35984802	-0.6102295	-0.28575134
1040928732195490	0.3500824	-0.79714966	-0.27719116
1040928736864680	0.33787537	-0.9437561	-0.27230835
1040928741930598	0.32443237	-0.99383545	-0.2576294
1040928747606867	0.32809448	-0.89489746	-0.19044495
1040928751940363	0.36228943	-0.66152954	-0.036499023
1040928755327814	0.36228943	-0.37809753	-0.036499023
1040928762011164	0.4111786	-0.37809753	0.19314575
1040928767046564	0.43804932	-0.13131714	0.4570465
1040928772112482	0.41482544	0.039733887	0.71118164
1040928777147883	0.34396362	0.13500977	0.93963623
1040928783068293	0.24012756	0.16067505	1.1424408
1040928787279719	0.124069214	0.119125366	1.3208008
1040928792223566	0.020217896	0.02507019	1.4796448
1040928798113459	-0.05064392	-0.100753784	1.6115875
1040928802294367	-0.07383728	-0.24003601	1.7019806
1040928805651301	-0.056747437	-0.3842163	1.7325287
1040928812365168	-0.029876709	-0.5308075	1.704422
1040928817400568	-0.017654419	-0.6835327	1.6408844
1040928822527521	-0.028640747	-0.8325653	1.5700378
1040928827501887	-0.055511475	-0.95596313	1.5138397
1040928833239191	-0.08850098	-1.04393	1.4771881
1040928837542170	-0.1129303	-1.1001434	1.4576416
1040928842608088	-0.10560608	-1.1428833	1.4539642
1040928848131769	-0.02619934	-1.1954193	1.460083
1040928852678889	0.18637085	-1.2809448	1.4625244
1040928856035822	0.18637085	-1.4177856	1.4625244
1040928862871760	1.2822571	-1.4177856	1.4271088
1040928867754572	2.1240234	-1.8893738	1.3977814
1040928872820490	2.8888397	-2.1569214	1.3733368
1040928877855891	3.2724457	-2.334076	1.3635712
1040928883318537	3.1172943	-2.360962	1.3770142
1040928887896174	2.5088654	-2.249771	1.4246674
1040928892962092	1.6964264	-2.0652924	1.5223846
1040928898272150	0.91941833	-1.8612823	1.6714478
1040928903246516	0.2987671	-1.6548004	1.8559265
1040928906359309	0.2987671	-1.4458771	1.8559265
1040928913408869	-0.1312561	-1.4458771	2.0343018
1040928918169611	-0.37193298	-1.2442932	2.163803
1040928923235529	-0.4415741	-1.0695801	2.2151031
1040928928179377	-0.3731537	-0.9254303	2.1845703
1040928934313410	-0.22654724	-0.7885895	2.070938
1040928938280695	-0.067718506	-0.6261139	1.8778992
1040928943651789	0.059310913	-0.42207336	1.6079102
1040928949175471	0.13139343	-0.19726563	1.2731628
1040928953478449	0.14604187	0.017745972	0.8956604
1040928956713312	0.111846924	0.20098877	0.5059204
1040928963610285	0.04220581	0.34513855	0.13696289
1040928968523615	-0.04208374	0.45755005	-0.17579651
1040928973803156	-0.12515259	0.5516205	-0.4079132
1040928978563898	-0.19721985	0.6347046	-0.54597473
1040928984636896	-0.25463867	0.7055664	-0.5960541
1040928988604182	-0.29985046	0.7629852	-0.57406616
1040928993639582	-0.33529663	0.80451965	-0.49588013
1040928999163264	-0.36094666	0.83750916	-0.38104248
1040929003924006	-0.37438965	0.8668213	-0.24909973
1040929007036799	-0.37438965	0.89004517	-0.24909973
1040929014177912	-0.33285522	0.89004517	-0.018188477
1040929018786066	-0.27664185	0.9120331	0.055099487
1040929024279230	-0.2094574	0.9181366	0.102752686
1040929028887385	-0.14225769	0.9279175	0.1259613
1040929033922785	-0.083602905	0.9389038	0.12107849
1040929038988703	-0.037200928	0.9450226	0.08198547
1040929043993586	-0.037200928	0.9376831	0.018447876
1040929049486750	0.008010864	0.9376831	-0.053619385
1040929054522150	0.008010864	0.894928	-0.11470032
1040929057421320	0.008010864	0.87294006	-0.11470032
1040929064715021	-0.0042266846	0.87294006	-0.15501404
1040929069170588	-0.02619934	0.8594971	-0.17579651
1040929074450129	-0.051849365	0.8619385	-0.17579651
1040929079241389	-0.07751465	0.88882446	-0.14402771
1040929084795588	-0.09828186	0.947464	-0.062179565
1040929089342707	-0.11904907	1.0464172	0.08442688
1040929094835871	-0.15324402	1.1954803	0.29211426
1040929099688166	-0.21066284	1.4007263	0.5401306
1040929104906672	-0.2803192	1.6536255	0.7856903
1040929107775324	-0.33650208	1.9284973	0.99217224
1040929115007990	-0.35606384	2.183838	1.1473236
1040929119555109	-0.33529663	2.385437	1.276825
1040929125200861	-0.28764343	2.5186005	1.4185486
1040929129625910	-0.22654724	2.580902	1.5969086
1040929136187189	-0.1618042	2.568695	1.8058319
1040929139666193	-0.10682678	2.494156	2.0220795
1040929145495051	-0.07507324	2.3952026	2.224884
1040929150133723	-0.07627869	2.3206787	2.4044647
1040929155413264	-0.10560608	2.2950287	2.5669708
1040929158098810	-0.10560608	2.3060303	2.5669708
1040929165606135	-0.19233704	2.3060303	2.8760529
1040929169878596	-0.23022461	2.3634338	3.0434418
1040929175829523	-0.27664185	2.4159698	3.2205963
1040929179918879	-0.36705017	2.5271606	3.3965302
1040929185625666	-0.54174805	2.7543793	3.5443573
1040929190050715	-0.54174805	3.1404572	3.5443573
1040929195330256	-0.8178711	3.1404572	3.6738434
1040929200853937	-1.5704498	3.6792297	3.6481934
1040929205828303	-1.954071	4.876541	3.581009
1040929208483332	-1.954071	5.3505554	3.581009
1040929215960139	-2.29982	5.3505554	3.4905853
1040929220232600	-2.601593	5.6840973	3.3904114
1040929226183527	-2.859375	5.872223	3.2706757
1040929230303400	-3.038971	5.9052277	3.0788574
1040929235888117	-3.0328522	5.8050385	2.7160187
1040929240374201	-2.6993256	5.6340027	2.085617
1040929246203059	-1.9833984	5.436081	1.1852112
1040929250780695	-1.0133362	5.17218	0.1418457
1040929256579035	-0.029876709	4.7213593	-0.83428955
1040929266924494	1.3457947	2.9242096	-1.872757
1040929270586603	1.7404022	1.620636	-1.850769
1040929276415461	2.0507202	0.21809387	-1.6198578
1040929280626887	2.340271	-1.0634918	-1.3596344
1040929287340754	2.6029358	-1.9944305	-1.1824799
1040929290697687	2.7764282	-2.4220428	-1.0871887
1040929297381037	2.786209	-2.3267517	-1.0028839
1040929301043146	2.599289	-1.7940674	-0.8709564
1040929306719416	2.2462006	-0.9852905	-0.6779175
1040929317003840	1.3250275	-0.09710693	-0.20388794
1040929320971125	0.89741516	1.2162476	0.0037841797
1040929327349299	0.54800415	1.463028	0.14672852
1040929331041926	0.54800415	1.44104	0.19926453
1040929337053889	0.12651062	1.2015686	0.15893555
1040929341082209	0.12651062	0.808197	0.15893555
1040929346972101	0.015335083	0.808197	-0.1244812
1040929351610773	0.015335083	-0.13619995	-0.1244812
1040929357470148	0.040985107	-0.13619995	-0.48976135
1040929369494074	0.06665039	-0.86312866	-0.7487793
1040929378466242	0.08253479	-1.1770935	-0.83184814
1040929381426447	0.08253479	-1.1257935	-0.83184814
1040929387285822	0.09718323	-1.1257935	-0.8171997
1040929391436213	0.120391846	-1.0366058	-0.77931213
1040929397600764	0.15583801	-0.9376373	-0.7280121
1040929401812189	0.20225525	-0.8301239	-0.6742401
1040929407915705	0.25967407	-0.70796204	-0.61805725
1040929418230646	0.38061523	-0.42207336	-0.50320435
1040929421679133	0.4343872	-0.27790833	-0.44822693
1040929427721613	0.4844818	-0.14352417	-0.3993683
1040929431719416	0.53089905	-0.022567749	-0.36027527
1040929438646906	0.57733154	0.08370972	-0.32850647
1040929441790217	0.6225128	0.17778015	-0.30407715
1040929446856135	0.6652832	0.26330566	-0.2869568
1040929452135676	0.70072937	0.34025574	-0.27963257
1040929458147639	0.7288208	0.40501404	-0.27597046
1040929468432062	0.763031	0.45999146	-0.26010132
1040929472063654	0.7679138	0.56018066	-0.25274658
1040929477068537	0.7679138	0.6127167	-0.25030518
1040929482103937	0.7642517	0.6127167	-0.25030518
1040929487993830	0.737381	0.6615753	-0.25030518
1040929492144221	0.737381	0.73243713	-0.25030518
1040929497210139	0.7190552	0.73243713	-0.24421692
1040929502672785	0.7043762	0.74710083	-0.23321533
1040929507280939	0.6946106	0.75198364	-0.21609497
1040929510607355	0.6897278	0.75686646	-0.19532776
1040929517382258	0.684845	0.7690735	-0.16845703
1040929522387141	0.6750488	0.7923126	-0.14279175
1040929527422541	0.6604004	0.83140564	-0.11836243
1040929532457941	0.64575195	0.88638306	-0.0927124
1040929537951105	0.6335144	0.9511261	-0.060943604
1040929542498225	0.62986755	1.0060883	-0.018188477
1040929549395197	0.6359558	1.0366516	0.030670166
1040929552996271	0.6469574	1.037857	0.08198547
1040929557634943	0.656723	1.013443	0.12962341
1040929560961359	0.656723	0.973114	0.16505432
1040929567736262	0.6408386	0.934021	0.18582153
1040929572710627	0.6066437	0.9022522	0.19194031
1040929577746027	0.5602112	0.8778229	0.18582153
1040929582842463	0.50401306	0.85217285	0.1711731
1040929588122004	0.44415283	0.81552124	0.14672852
1040929592882746	0.37817383	0.76542664	0.11740112
1040929599779719	0.30732727	0.6945648	0.086868286
1040929603228205	0.23158264	0.6029358	0.058761597
1040929607988947	0.14848328	0.49420166	0.03189087
1040929611315363	0.14848328	0.37690735	0.03189087
1040929618059748	-0.046966553	0.37690735	-0.036499023
1040929623064631	-0.046966553	0.13500977	-0.036499023
1040929628130549	-0.15080261	0.13500977	-0.0756073
1040929633135432	-0.24855042	0.012863159	-0.109817505
1040929638506525	-0.33529663	-0.109313965	-0.13668823
1040929643236750	-0.41226196	-0.23027039	-0.15867615
1040929648363703	-0.4782257	-0.34509277	-0.18312073
1040929653704279	-0.5319824	-0.44895935	-0.21244812
1040929658342951	-0.57107544	-0.5381317	-0.24909973
1040929661699885	-0.59552	-0.6077881	-0.2869568
1040929668383234	-0.60528564	-0.6542053	-0.321167
1040929673418635	-0.60406494	-0.6786499	-0.3529358
1040929678484553	-0.5930786	-0.67985535	-0.38104248
1040929683519953	-0.57839966	-0.65541077	-0.4042511
1040929689013117	-0.5613098	-0.60287476	-0.4237976
1040929693560236	-0.5344238	-0.5259247	-0.4360199
1040929698595637	-0.49900818	-0.431839	-0.4409027
1040929704149836	-0.4574585	-0.3341217	-0.43722534
1040929708696955	-0.41226196	-0.24247742	-0.42869568
1040929712023371	-0.36705017	-0.16305542	-0.41645813
1040929718798273	-0.32429504	-0.10319519	-0.4042511
1040929723772639	-0.28520203	-0.061660767	-0.39448547
1040929728899592	-0.25219727	-0.03845215	-0.3834839
1040929733873957	-0.2277832	-0.032348633	-0.3712616
1040929739733332	-0.21066284	-0.03967285	-0.3590393
1040929743914240	-0.19967651	-0.048217773	-0.35049438
1040929748949641	-0.19233704	-0.049453735	-0.34561157
1040929754442805	-0.18623352	-0.040893555	-0.34439087
1040929759050959	-0.18379211	-0.026229858	-0.34683228
1040929762407893	-0.18379211	-0.011581421	-0.34683228
1040929769091242	-0.18379211	-0.011581421	-0.3517151
1040929774126643	-0.18867493	-5.79834E-4	-0.3565979
1040929779162043	-0.19967651	0.0043029785	-0.36027527
1040929784227961	-0.21922302	0.0067443848	-0.36149597
1040929789599055	-0.24731445	0.0030822754	-0.36637878
1040929794268244	-0.28152466	-5.79834E-4	-0.3761444
1040929799364680	-0.32429504	-0.0042419434	-0.3920288
1040929804674738	-0.3731537	-0.0054626465	-0.4103546
1040929809374445	-0.42814636	-0.0018005371	-0.42990112
1040929812792414	-0.4855652	0.009185791	-0.4494629
1040929819445246	-0.5454254	0.026306152	-0.46899414
1040929824480646	-0.60528564	0.04827881	-0.4836731
1040929829546564	-0.67004395	0.07392883	-0.48976135
1040929834551447	-0.73846436	0.10079956	-0.48487854
1040929840471857	-0.812973	0.12524414	-0.46166992
1040929844622248	-0.8911743	0.14356995	-0.41645813
1040929849657648	-0.97424316	0.15211487	-0.34439087
1040929855028742	-1.0634308	0.14601135	-0.24542236
1040929859728449	-1.1550598	0.119125366	-0.1244812
1040929863054865	-1.1550598	0.05683899	-0.1244812
1040929869951838	-1.2992401	0.05683899	0.1235199
1040929874895685	-1.3260956	-0.2204895	0.21147156
1040929879900568	-1.3175659	-0.43307495	0.25424194
1040929884935969	-1.2857971	-0.6725311	0.25180054
1040929890978449	-1.2430267	-0.9168701	0.21270752
1040929894976252	-1.1990509	-1.1294403	0.15405273
1040929900011652	-1.1562805	-1.2675018	0.090530396
1040929905504816	-1.1037598	-1.2931671	0.03189087
1040929910082453	-1.1037598	-1.1783295	-0.01210022
1040929913469904	-1.018219	-1.1783295	-0.01210022
1040929920183771	-0.866745	-0.9327545	-0.036499023
1040929925188654	-0.63217163	-0.6102295	-0.03895569
1040929930254572	-0.32061768	-0.29379272	-0.030410767
1040929935289973	0.025100708	-0.061660767	-0.026733398
1040929940630549	0.3488617	0.027511597	-0.030410767
1040929945360773	0.59321594	-0.04333496	-0.026733398
1040929950365656	0.7080536	-0.24491882	0.0037841797
1040929955889338	0.6652832	-0.50393677	0.06976318
1040929960466975	0.47103882	-0.73239136	0.16137695
1040929963823908	0.16316223	-0.8680115	0.25912476
1040929970629328	-0.1960144	-0.9046631	0.34709167
1040929975542658	-0.5491028	-0.88145447	0.41671753
1040929980578059	-0.853302	-0.8398895	0.46316528
1040929985613459	-1.0903168	-0.8044739	0.48025513
1040929990984553	-1.263794	-0.7775879	0.46681213
1040929995684260	-1.3908539	-0.74705505	0.41915894
1040930000750178	-1.49469	-0.68963623	0.33242798
1040930006090754	-1.5924377	-0.58210754	0.20050049
1040930010820978	-1.6999512	-0.39518738	0.029434204
1040930014177912	-1.6999512	-0.11663818	0.029434204
1040930020861262	-1.9455109	-0.11663818	-0.321167
1040930025927180	-2.0567017	0.5870514	-0.4519043
1040930030932062	-2.1434326	0.8839264	-0.55451965
1040930035967463	-2.2069702	1.0830688	-0.6424866
1040930041430109	-2.250946	1.179596	-0.7280121
1040930046068781	-2.2729492	1.17836	-0.81352234
1040930051073664	-2.260727	1.078186	-0.90270996
1040930056597346	-2.199646	0.87538147	-0.9931183
1040930061144465	-2.199646	0.5723877	-0.9931183
1040930064501398	-2.0799103	0.5723877	-1.0713043
1040930071245783	-1.9039764	0.17900085	-1.1165161
1040930076250666	-1.684082	-0.27546692	-1.1152954
1040930081286066	-1.4409485	-0.74461365	-1.0700989
1040930086351984	-1.1966095	-1.1783295	-0.9955597
1040930091845148	-0.96447754	-1.546051	-0.90393066
1040930096422785	-0.7531128	-1.8343964	-0.8013153
1040930101458185	-0.56741333	-2.0530853	-0.6913605
1040930107317560	-0.411026	-2.215561	-0.57528687
1040930111498469	-0.28396606	-2.3377533	-0.45310974
1040930114916437	-0.18379211	-2.429367	-0.3236084
1040930121569269	-0.0970459	-2.4977875	-0.18188477
1040930126604670	-0.009109497	-2.551529	-0.030410767
1040930131670588	0.08253479	-2.591858	0.11984253
1040930136705988	0.14727783	-2.5991821	0.24324036
1040930142046564	0.13015747	-2.5197754	0.31166077
1040930146746271	-0.009109497	-2.28154	0.30555725
1040930151812189	-0.25708008	-1.844162	0.23103333
1040930157122248	-0.55519104	-1.2381897	0.11251831
1040930161882990	-0.826416	-0.5552521	-0.020629883
1040930165209406	-0.826416	0.10203552	-0.020629883
1040930171953791	-1.1025238	0.10203552	-0.23809814
1040930176958674	-1.085434	1.0989532	-0.30163574
1040930182024592	-0.98524475	1.3946075	-0.33216858
1040930187029475	-0.8288574	1.5534515	-0.3236084
1040930192370051	-0.64193726	1.5900879	-0.27230835
1040930197130793	-0.64193726	1.5216827	-0.18312073
1040930202135676	-0.45011902	1.361618	-0.18312073
1040930207476252	-0.27664185	1.361618	-0.069503784
1040930212206476	-0.14225769	1.1319427	0.051437378
1040930215593928	-0.05795288	0.85461426	0.15893555
1040930222277277	-0.021316528	0.5613861	0.23469543
1040930227312678	-0.016433716	0.28651428	0.26644897
1040930232348078	-0.028640747	0.059280396	0.25424194
1040930237413996	-0.046966553	-0.100753784	0.20658875
1040930242876643	-0.06163025	-0.19117737	0.13572693
1040930247484797	-0.07015991	-0.22293091	0.053878784
1040930252489680	-0.07261658	-0.21194458	-0.030410767
1040930258379572	-0.07015991	-0.1691742	-0.11836243
1040930262560480	-0.067718506	-0.09710693	-0.21244812
1040930265917414	-0.07261658	-0.0054626465	-0.31506348
1040930272661799	-0.08972168	0.08735657	-0.4201355
1040930277697199	-0.12271118	0.15821838	-0.51908875
1040930282702082	-0.17034912	0.19488525	-0.59973145
1040930287737482	-0.23143005	0.19732666	-0.65470886
1040930293566340	-0.29864502	0.17288208	-0.6828003
1040930297808283	-0.37193298	0.12890625	-0.68647766
1040930302874201	-0.44891357	0.07759094	-0.67059326
1040930308336848	-0.52830505	0.023864746	-0.6437073
1040930312945002	-0.61016846	-0.029907227	-0.61561584
1040930316301935	-0.61016846	-0.08242798	-0.61561584
1040930322985285	-0.77267456	-0.08242798	-0.57162476
1040930328020685	-0.8545227	-0.18629456	-0.55451965
1040930333056086	-0.93392944	-0.23881531	-0.5386505
1040930338122004	-1.0121307	-0.29013062	-0.52397156
1040930343432062	-1.0878754	-0.33776855	-0.51052856
1040930348192805	-1.0878754	-0.37686157	-0.51052856
1040930353228205	-1.1611633	-0.37686157	-0.49343872
1040930358538264	-1.2332611	-0.40986633	-0.47143555
1040930363268488	-1.3016815	-0.43917847	-0.44210815
1040930367266291	-1.3652039	-0.46728516	-0.4079132
1040930373339289	-1.4201813	-0.497818	-0.3712616
1040930378405207	-1.4665985	-0.5320282	-0.3358307
1040930383410090	-1.5032501	-0.5699005	-0.30407715
1040930388506525	-1.5350189	-0.6065521	-0.28207397
1040930393938654	-1.5631104	-0.6407623	-0.2710724
1040930398516291	-1.5899963	-0.67497253	-0.27230835
1040930403551691	-1.6168823	-0.71162415	-0.27842712
1040930408892268	-1.6449738	-0.74827576	-0.2893982
1040930413653010	-1.6767273	-0.78126526	-0.29919434
1040930417009943	-1.7207336	-0.81059265	-0.3052826
1040930423723810	-1.7842407	-0.8374481	-0.307724
1040930428759211	-1.8734436	-0.86312866	-0.307724
1040930433794611	-1.9895172	-0.8936615	-0.3052826
1040930438799494	-2.1226654	-0.92419434	-0.30163574
1040930444323176	-2.2533875	-0.9449768	-0.29307556
1040930448900812	-2.3584595	-0.9498596	-0.27474976
1040930453936213	-2.4134521	-0.9388733	-0.24665833
1040930459398859	-2.3963318	-0.91322327	-0.20632935
1040930463976496	-2.2888336	-0.8728943	-0.15623474
1040930467394465	-2.2888336	-0.8191223	-0.15623474
1040930474047297	-1.7634735	-0.8191223	-0.04385376
1040930479082697	-1.3566437	-0.70918274	0.0025787354
1040930484148615	-0.8936157	-0.67985535	0.03677368
1040930489184016	-0.8936157	-0.6810913	0.03677368
1040930494524592	-0.42080688	-0.6810913	0.094192505
1040930499224299	0.011657715	-0.8020325	0.094192505
1040930504290217	0.3684082	-0.8020325	0.12840271
1040930509600275	0.63230896	-0.90586853	0.16137695
1040930514330500	0.8033447	-1.0097198	0.18093872
1040930517687434	0.8864136	-1.0940247	0.17605591
1040930524431818	0.8912964	-1.1538849	0.14305115
1040930529467219	0.8302307	-1.1905365	0.08198547
1040930534502619	0.7202606	-1.2064209	-0.0010986328
1040930539538019	0.58221436	-1.2015381	-0.093933105
1040930544878596	0.43559265	-1.1770935	-0.19168091
1040930549608820	0.2975464	-1.1392365	-0.28575134
1040930554613703	0.18025208	-1.0915833	-0.3749237
1040930559984797	0.08985901	-1.0378265	-0.45555115
1040930564684504	0.022659302	-0.9816284	-0.52641296
1040930568102473	-0.023757935	-0.9217529	-0.58384705
1040930574755305	-0.055511475	-0.8618927	-0.62416077
