linearaccelerometer_timestamp	linearaccelerometer_x_data	linearaccelerometer_y_data	linearaccelerometer_z_data
340059070390483	0.6833922	0.23898005	0.45585537
340059078691265	0.70101094	0.25730634	0.42792034
340059086992046	0.690857	0.30055332	0.43091393
340059095292827	0.6467842	0.29828954	0.485013
340059103593608	0.5759865	0.24951696	0.5476303
340059111894390	0.5076938	0.19794369	0.5866022
340059120195171	0.45951974	0.1775496	0.58754253
340059128495952	0.3715924	0.20253944	0.47929192
340059136796733	0.36677068	0.19734311	0.47279072
340059145097515	0.35258335	0.16897464	0.3288622
340059153398296	0.38391244	0.14216924	0.26838017
340059161699077	0.4166888	0.12809563	0.2991705
340059169999858	0.42386085	0.119737625	0.38988686
340059178300640	0.4323098	0.10232401	0.5393925
340059186601421	0.38342416	0.0916152	0.60429
340059194902202	0.31507176	0.092369795	0.56972694
340059203202983	0.23402512	0.10570216	0.5005331
340059211503765	0.18789983	0.107554436	0.44654655
340059219804546	0.19084376	0.08698034	0.4382391
340059228105327	0.18931162	0.0828011	0.43340874
340059236406108	0.1858356	0.06662989	0.51716995
340059244706890	0.18082106	0.082500935	0.50891304
340059253007671	0.16647047	0.09928727	0.48720455
340059261308452	0.1481275	0.11143756	0.46765232
340059269609233	0.12997144	0.11930561	0.4607458
340059277910015	0.11778659	0.12338495	0.47244453
340059286210796	0.15279025	0.14151597	0.4871111
340059294511577	0.15587819	0.14158201	0.48254013
340059302812358	0.11696458	0.1361525	0.47010326
340059311113140	0.0715068	0.12154508	0.4690094
340059319413921	0.13447893	0.05195713	0.45537376
340059327714702	0.13213962	0.050521612	0.44943523
340059336015483	0.20610744	0.080140114	0.4171772
340059344316265	0.23209596	0.15468884	0.41520786
340059352617046	0.23326588	0.21799111	0.4061098
340059360917827	0.24141288	0.25602174	0.36254215
340059369218608	0.18787569	0.2785244	0.2793045
340059377519390	0.18600571	0.27480674	0.2752676
340059385820171	0.10670972	0.18911815	0.35218334
340059394120952	0.097114444	0.12053537	0.47953796
340059402421733	0.08602989	0.11142659	0.5979767
340059410722515	0.085419655	0.110538244	0.5892973
340059419023296	0.06282848	0.13149834	0.62593174
340059427324077	0.063073516	0.19471884	0.36217022
340059435624858	0.105941534	0.15912938	0.28398705
340059443925640	0.08121592	0.092289925	0.3436222
340059452226421	0.08240318	0.08953071	0.33926392
340059460527202	0.07118642	0.06443524	0.50878716
340059468827983	0.05178082	0.09814286	0.5641031
340059477128765	0.05570805	0.1138711	0.50812626
340059485429546	0.053378224	0.11472273	0.500123
340059493730327	0.066468775	0.084724426	0.28906822
340059502031108	0.13960385	0.062048674	0.3406639
340059510331890	0.13746738	0.061071157	0.33600903
340059518632671	0.16242063	0.0825212	0.40894127
340059526933452	5.573034E-4	0.14387965	0.2079649
340059535234233	8.9144707E-4	0.13933372	0.20621395
340059543535015	0.043887377	0.09167552	0.21256256
340059551835796	0.028177857	0.084169626	0.24593735
340059560136577	0.028535366	0.080007315	0.2438221
340059568437358	0.03812599	0.09395146	0.20657444
340059576738140	0.30458057	0.09876847	0.1299305
340059585038921	0.4006312	0.100132704	0.14100647
340059593339702	0.39247966	0.100240946	0.13866043
340059601640483	0.39132047	0.13306189	0.18752098
340059609941265	0.314345	0.1643827	0.29407978
340059618242046	0.19491017	0.16772532	0.382329
340059626542827	0.07099879	0.14076114	0.36412048
340059634843608	-0.021892667	0.13555884	0.25570107
340059643144390	0.08186102	0.13223243	0.44186115
340059651445171	0.19382513	0.18291664	0.7405424
340059659745952	0.1650337	0.2668631	0.7821579
340059668046733	0.046179295	0.3162024	0.48348236
340059676347515	0.049556136	0.30342484	0.48016357
340059684648296	-0.38423765	0.0783453	-0.21696186
340059692949077	-0.12824702	-0.08770752	-0.3183174
340059701249858	0.20414305	-0.048817158	-0.26709843
340059709550640	0.21796644	0.10517216	-0.033495903
340059717851421	6.619692E-4	0.20154953	0.28889275
340059726152202	-0.00481534	0.20359993	0.28325462
340059734452983	-0.22312546	-0.017477036	0.7882147
340059742753765	-0.19431329	-0.0897603	0.57936096
340059751054546	-0.1498363	-0.057779312	0.28512192
340059759355327	-0.13341475	-0.003871441	-0.05260086
340059767656108	-0.04447508	0.041062832	-0.64760876
340059775956890	-0.045462847	0.03614235	-0.6363964
340059784257671	0.5954319	0.13141203	0.052348137
340059792558452	0.45436323	0.15221548	0.7662811
340059800859233	0.24432707	0.2402997	0.84629154
340059809160015	0.12306869	0.27376485	0.6631346
340059817460796	0.105169535	0.21493483	0.4801817
340059825761577	0.116413355	0.110648155	0.42747784
340059834062358	0.10503042	0.048826218	0.5701294
340059842363140	0.08720291	0.11256385	0.5063925
340059850663921	0.010258317	0.17534232	0.36997318
340059858964702	-0.040414214	0.17547703	0.29662514
340059867265483	-0.03062892	0.12413359	0.26799965
340059875566265	-0.027657151	0.11444044	0.2676754
340059883867046	-0.004904151	0.09303284	-0.118593216
340059892167827	0.045441747	3.3283234E-4	-0.48394585
340059900468608	0.096621275	0.016336441	-0.73553085
340059908769390	0.15159273	0.11174488	-0.655077
340059917070171	0.14834762	0.11309385	-0.64720345
340059925370952	0.24979627	0.16065931	-0.36383152
340059933671733	0.46671796	-0.022746563	-0.05761528
340059941972515	0.31789625	0.026613235	0.0910511
340059950273296	0.25636065	0.07655454	0.20357704
340059958574077	0.25404775	0.09107947	0.19342422
340059966874858	0.23505819	0.118941784	0.2853489
340059975175640	0.18279088	0.112731695	0.3725376
340059983476421	0.043108225	0.066188574	0.31024075
340059991777202	0.060014367	0.060976505	0.19574356
340060000077983	0.06721687	0.082179785	0.14731693
340060008378765	0.072788835	0.084448576	0.14296818
340060016679546	0.10209215	0.124423265	0.0646534
340060024980327	0.10346794	0.12808132	0.061000824
340060033281108	0.15257251	0.09715581	0.101989746
340060041581890	0.15657806	0.054310083	0.1465168
340060049882671	0.14885461	0.046793222	0.22773743
340060058183452	0.1315453	0.052723408	0.26572037
340060066484233	0.1334281	0.060851097	0.25765133
340060074785015	0.11587381	0.06357169	0.2444191
340060083085796	0.05980313	0.08447099	0.168437
340060091386577	-0.022329748	0.083978415	0.11595631
340060099687358	-0.28876853	0.10738397	0.29689503
340060107988140	-0.28274244	0.11196327	0.2898693
340060116288921	-0.4943803	0.057293892	0.56461525
340060124589702	-0.45583576	-0.097878695	0.53775406
340060132890483	0.0076271296	-0.19602728	-0.473588
340060141191265	-0.083333135	-0.18688202	-0.32202435
340060149492046	-0.53386503	-0.016684055	-0.08637333
340060157792827	-0.5208301	-0.013655186	-0.086997986
340060166093608	-0.55244976	0.044216156	0.21548557
340060174394390	-0.117347956	-0.071045876	0.4784584
340060182695171	0.07019347	-0.17355609	0.48103333
340060190995952	-0.03792858	-0.09226298	0.3373518
340060199296733	-0.09589934	-0.01794529	0.17975712
340060207597515	-0.09463972	-0.013400078	0.17543125
340060215898296	-0.053540647	0.019970179	-0.0637331
340060224199077	-0.05104941	0.018265724	-0.06241703
340060232499858	0.09676957	0.051965952	0.06498146
340060240800640	0.09679252	0.05016446	0.06440163
340060249101421	0.15079725	0.10135198	0.038861275
340060257402202	0.13119262	0.10443139	0.01679802
340060265702983	0.13042957	0.10423231	0.015921593
340060274003765	0.09875494	0.1024425	-5.836487E-4
340060282304546	0.11352587	0.06926584	0.096426964
340060290605327	0.11457735	0.05425501	0.18967533
340060298906108	0.1783858	0.073259115	0.31371784
340060307206890	0.17467582	0.076860905	0.3075199
340060315507671	0.26034355	0.10405469	0.35343647
340060323808452	0.32724595	0.1243279	0.2821083
340060332109233	0.33064914	0.19216347	0.016191483
340060340410015	0.22873104	0.18525815	-0.07870197
340060348710796	0.13776678	0.17146134	-0.10736942
340060357011577	0.13725948	0.16726422	-0.10525608
340060365312358	0.12267804	0.14550924	-0.099401474
340060373613140	0.18192428	0.11940479	-0.06459904
340060381913921	0.2966128	0.11650634	0.06064701
340060390214702	0.28975564	0.11534715	0.059901237
340060398515483	0.29451466	0.110933065	0.1017046
340060406816265	0.26083905	0.11794138	0.14350224
340060415117046	0.22085977	0.12618327	0.17257977
340060423417827	0.19510269	0.1290276	0.17134953
340060431718608	0.19150591	0.12891436	0.16835117
340060440019390	0.20671654	0.10498452	0.103624344
340060448320171	0.2001822	0.07582617	0.05190468
340060456620952	0.16203296	0.06954646	0.018675804
340060464921733	0.13111609	0.07620144	-0.007803917
340060473222515	0.12974823	0.08249283	-0.03702259
340060481523296	0.12589979	0.079214334	-0.035367012
340060489824077	0.16148496	0.05858779	-0.054825783
340060498124858	0.15785837	0.03294635	-0.034389496
340060506425640	0.13874769	0.02646637	-0.025437355
340060514726421	0.10582709	0.021950245	-0.0028934479
340060523027202	0.054242253	0.0022246838	0.052742004
340060531327983	-0.027625084	-0.052324533	0.13929462
340060539628765	-0.029465556	-0.050643444	0.13720703
340060547929546	-0.0061514378	-0.057121754	0.103897095
340060556230327	-0.0030261278	-0.048268557	0.07437801
340060564531108	0.007218361	-0.04230523	0.06527424
340060572831890	0.03379357	-0.049388647	0.06910038
340060581132671	0.03335607	-0.04795575	0.06781769
340060589433452	-0.020892978	-0.066423655	0.044621468
340060597734233	-0.03635156	-0.05905938	0.0064496994
340060606035015	-0.046508074	-0.05835271	-0.047958374
340060614335796	-0.048160076	-0.055766582	-0.0929718
340060622636577	-0.046785474	-0.056058884	-0.09130764
340060630937358	-0.044507146	-0.044635773	-0.10636139
340060639238140	-0.09861255	-0.035696507	-0.060954094
340060647538921	-0.07635796	-0.022924423	0.0115766525
340060655839702	-0.09130192	-0.005390644	0.08920479
340060664140483	-0.15709841	-0.0035529137	0.108101845
340060672441265	-0.15086246	-0.0033373833	0.10607147
340060680742046	-0.24165761	-0.02843976	0.031359673
340060689042827	-0.4612009	-0.030836344	-0.07015419
340060697343608	-0.55696756	-0.07235861	-0.08330059
340060705644390	-0.6251834	-0.174932	-0.008890152
340060713945171	-0.59877586	-0.17161274	-0.010996819
340060722245952	-0.5466739	-0.24048567	0.12951756
340060730546733	-0.33953148	-0.17503762	0.28795242
340060738847515	-0.19275254	0.20727348	0.47301197
340060747148296	-0.044104338	0.20036268	0.40904617
340060755449077	0.031530976	0.1437571	0.33889866
340060763749858	0.0723564	0.15074325	0.32707214
340060772050640	-0.19338644	0.16496468	0.24310589
340060780351421	-0.14659691	0.16582966	0.23526573
340060788652202	-0.24738705	0.07692981	0.31066227
340060796952983	-0.18135059	0.054918766	0.3036976
340060805253765	-0.1499528	0.06744313	0.26755333
340060813554546	-0.11276209	0.07849097	0.1968031
340060821855327	-0.08438763	0.069562435	0.19603252
340060830156108	0.06134844	0.068534136	3.4236908E-4
340060838456890	0.20765588	0.008291483	0.0062294006
340060846757671	0.37121412	-0.01782298	0.019512177
340060855058452	0.51905847	-0.004521847	-0.005115509
340060863359233	0.5227089	-0.020302296	0.0012617111
340060871660015	0.6722779	0.00841403	-0.069452286
340060879960796	0.94108343	0.07292938	0.52195644
340060888261577	0.93888074	0.19465137	0.19990349
340060896562358	2.276319	0.058250904	-0.53205967
340060904863140	2.9176528	0.08282232	-0.22067833
340060913163921	2.9108543	0.06683302	-0.21246815
340060921464702	1.4012818	0.7128	-0.04076004
340060929765483	0.81324136	0.9669702	-0.5857849
340060938066265	0.5940782	0.8134041	-0.5640688
340060946367046	0.26790476	0.4922018	-0.7632532
340060954667827	-0.21478058	0.119301796	-1.1330566
340060962968608	-0.8503709	-0.20419025	-1.5472326
340060971269390	-1.4086018	-0.42538166	-1.9815464
340060979570171	-1.0436577	-0.59907675	-2.9163828
340060987870952	-0.30048347	-0.5028572	-2.9695377
340060996171733	0.42873126	-0.21966076	-2.1564522
340061004472515	1.3733445	-0.043962	-0.97096634
340061012773296	2.325519	0.0606308	-0.0026416779
340061021074077	2.3806896	0.07795143	-0.01124382
340061029374858	3.3718383	0.22843742	0.019360542
340061037675640	2.6396003	0.055305004	-0.441391
340061045976421	1.5527807	0.24905157	-1.4566107
340061054277202	1.6728349	0.2631879	-1.45366
340061062577983	1.0093218	0.9027829	-2.8616934
340061070878765	-0.12243736	3.0421457	-2.92974
340061079179546	-1.5735987	4.596839	1.8397188
340061087480327	0.26433647	3.469576	-0.36451912
340061095781108	0.44389987	3.399829	-0.31150723
340061104081890	-0.5868813	1.9693952	-2.877757
340061112382671	-0.44355738	1.839983	-2.779768
340061120683452	1.5041486	1.2036719	-5.091898
340061128984233	1.6251049	1.067821	-5.6557484
340061137285015	-0.09999406	3.4291081	-1.6054516
340061145585796	0.010111213	3.2789688	-1.4866457
340061153886577	1.4103243	2.9826555	-1.4931412
340061162187358	3.4301698	1.758678	-1.6683984
340061170488140	4.8721833	0.530076	-1.4466376
340061178788921	5.103544	-0.32314396	-1.0893741
340061187089702	4.9907727	-2.4892783	-0.61354685
340061195390483	4.0242205	-1.0682464	-4.3079057
340061203691265	3.9098427	-1.2202363	-4.5523343
340061211992046	3.2187197	-1.0637879	-3.898141
340061220292827	1.3623469	-0.21670866	-3.550506
340061228593608	-1.351538	0.47509575	-3.3434615
340061236894390	-3.4881115	0.863091	-3.5212932
340061245195171	-5.425495	0.5581522	-2.7911096
340061253495952	-6.070216	0.3900981	-2.0539827
340061261796733	-5.6101522	0.41928482	-1.3284655
340061270097515	-4.2173705	0.5506253	-0.35504675
340061278398296	-2.2374582	0.5960789	0.9823189
340061286699077	-0.96493053	0.41010046	1.2332044
340061294999858	-0.5545616	0.34490347	1.0879145
340061303300640	-0.18812084	0.3776965	0.8445306
340061311601421	-0.43810034	0.84930754	0.47376776
340061319902202	-1.4994664	1.6623349	0.06543541
340061328202983	-3.1350842	2.3733854	-0.43060303
340061336503765	-5.0172634	2.57236	-2.1834984
340061344804546	-5.0024433	1.8245611	-3.3840885
340061353105327	-4.1508665	0.8872061	-3.4032826
340061361406108	-3.5029316	0.11511946	-2.4439554
340061369706890	-3.4227595	-0.43589163	-0.91607904
340061378007671	-3.5114279	-0.5688491	-0.7918258
340061386308452	-3.9865074	-1.015523	1.7590966
340061394609233	-4.33685	-0.9039874	2.5078597
340061402910015	-4.120963	-0.79126596	2.9758735
340061411210796	-3.5261905	-0.5502491	3.0693846
340061419511577	-3.004639	-0.0968976	2.8169045
340061427812358	-3.0925019	-0.14703846	2.8177123
340061436113140	-3.4801211	0.57399845	2.0375433
340061444413921	-3.5589848	0.60614395	1.4489303
340061452714702	-3.4772074	0.65244055	0.9570985
340061461015483	-3.1110942	0.7219677	0.46462202
340061469316265	-3.1946878	0.6478691	0.5288129
340061477617046	-1.7779443	0.8535557	-0.6781645
340061485917827	-1.3950932	0.9911814	-1.0411539
340061494218608	-1.0460327	1.1822758	-1.1563315
340061502519390	-0.6616013	1.4353886	-1.1810594
340061510820171	-0.33828998	1.5370245	-1.1682785
340061519120952	-0.117045164	1.4504709	-1.129533
340061527421733	0.03254199	1.3220634	-1.0492327
340061535722515	0.16157055	1.2696724	-0.89594126
340061544023296	0.23990083	1.0012465	-0.6713574
340061552324077	0.2811389	0.56747913	-0.6139035
340061560624858	0.28173995	0.18063354	-0.61159205
340061568925640	0.24073386	-0.05299568	-0.5309944
340061577226421	0.19989681	-0.05185032	-0.5534301
340061585527202	0.12060809	-0.30938816	0.09212065
340061593827983	0.16394448	-0.5585966	0.47830033
340061602128765	-0.09692454	-0.6328726	0.59293604
340061610429546	-0.092089176	-0.6112814	0.5508084
340061618730327	-0.40152192	-0.46307182	0.52166414
340061627031108	-0.54620457	-0.16230106	0.4422331
340061635331890	-0.49966788	0.21233273	0.11031246
340061643632671	-0.28987503	0.21581173	-0.16389751
340061651933452	-0.068968534	0.10734463	-0.38535786
340061660234233	0.053138733	-0.061177254	-0.43189
340061668535015	0.020837545	-0.06953621	-0.42874718
340061676835796	0.15978146	-0.2853861	-0.03789282
340061685136577	0.4057653	-0.44146538	0.05189991
340061693437358	0.60546136	-0.47903442	0.044089317
340061701738140	0.8280889	-0.5431986	0.0060358047
340061710038921	0.9926549	-0.62967396	-0.068422794
340061718339702	1.0084198	-0.6231365	-0.20224571
340061726640483	0.95660865	-0.6250992	-0.21369028
340061734941265	0.49025357	-0.0031499863	-0.38227415
340061743242046	0.30752409	0.0042009354	-0.22660017
340061751542827	0.3151722	-0.22057533	-0.17535877
340061759843608	0.40414083	-0.5782261	-0.1532259
340061768144390	0.35896373	-0.58313656	-0.15474653
340061776445171	0.42196465	-0.95192146	-0.028669834
340061784745952	0.5473201	-1.3316708	0.5339341
340061793046733	0.6569685	-1.1231089	0.39396715
340061801347515	0.66918445	-0.65234375	0.1150856
340061809648296	0.5752615	-0.21978092	-0.17889309
340061817949077	0.523865	-0.23068428	-0.16809559
340061826249858	0.39340878	-0.0449934	-0.42266655
340061834550640	0.23447931	-0.0013208389	-0.6986942
340061842851421	0.10376173	-0.11836815	-0.44068623
340061851152202	0.06075573	-0.13812256	-0.4068184
340061859452983	0.1166358	-0.57627106	-0.1847825
340061867753765	0.06543702	-0.59526825	-0.15065527
340061876054546	0.009693861	-0.7073536	-0.18171358
340061884355327	0.12411106	-0.91908646	0.09103942
340061892656108	0.060296357	-0.9376259	0.12664533
340061900956890	0.26121294	-1.0499096	0.09481859
340061909257671	0.42361057	-1.0364752	0.015484333
340061917558452	0.55900216	-0.9449177	-0.060805798
340061925859233	0.5710228	-0.7908411	-0.12497997
340061934160015	0.17159078	-0.49404812	-0.19881272
340061942460796	-0.3617029	-0.23505974	-0.04821801
340061950761577	-0.52884823	-0.2688055	0.05995655
340061959062358	-0.54275626	-0.39593983	0.115214586
340061967363140	-0.40111774	-0.5814171	0.09082651
340061975663921	-0.10380905	-0.7966833	-0.002755165
340061983964702	0.21760696	-0.9278803	-0.085773945
340061992265483	0.71452606	-0.8542862	-0.52525115
340062000566265	1.193516	0.051181793	-2.373074
340062008867046	0.7681572	0.70734596	-2.325471
340062017167827	-0.37483537	1.2824478	-1.3376663
340062025468608	-1.6526905	1.975935	-0.8008702
340062033769390	-2.1346292	2.0567179	0.6086023
340062042070171	-2.086502	2.0758972	0.5361438
340062050370952	-1.183866	1.3464174	0.8231075
340062058671733	-0.46755672	0.6934633	1.327677
340062066972515	0.031210162	0.21743584	1.6290519
340062075273296	1.0958947	-1.0991554	1.8667531
340062083574077	1.1101818	-1.0314102	1.7103505
340062091874858	1.4410757	-1.6187859	2.5431242
340062100175640	1.3211658	-1.9137402	3.0583024
340062108476421	1.0945263	-2.0483685	3.207128
340062116777202	0.9870751	-2.0576897	2.75814
340062125077983	1.2688606	-1.7958937	-0.4415393
340062133378765	1.2673767	-1.7962523	-0.43127346
340062141679546	1.1676546	-1.3775854	-1.395246
340062149980327	0.95924264	-1.1173859	-1.4299593
340062158281108	0.7288598	-0.8799944	-1.2658386
340062166581890	0.35087723	-0.5887346	-0.89102745
340062174882671	-0.15967533	-0.22293568	-0.20600939
340062183183452	-0.10642293	-0.22627735	-0.19334269
340062191484233	-0.25892913	0.59130955	-0.4133172
340062199785015	-0.7340651	0.7763071	0.3728299
340062208085796	-1.0948448	0.7317257	1.9799609
340062216386577	-1.043227	0.4761591	2.9821725
340062224687358	-0.98990345	0.52657986	2.8776226
340062232988140	-0.1658718	-0.2165451	1.7578259
340062241288921	0.34169894	-0.31873608	1.1712146
340062249589702	1.2507347	-0.58152485	0.7861786
340062257890483	2.0731902	-0.9376888	0.30375242
340062266191265	2.329714	-1.302741	-0.2573943
340062274492046	1.91977	-1.588233	-0.6542554
340062282792827	1.4888284	-1.645215	-0.4512787
340062291093608	1.4851801	-1.7744684	0.06862736
340062299394390	1.4040527	-1.8308401	0.70667124
340062307695171	0.92153096	-1.8669195	1.28018
340062315995952	0.53118175	-1.948534	1.7765212
340062324296733	0.53277546	-1.8852348	1.6827941
340062332597515	0.39227572	-2.5405154	4.07745
340062340898296	0.29436886	-3.0284185	4.359171
340062349199077	0.23749754	-2.9360023	4.621053
340062357499858	0.6604888	-2.508442	4.4368334
340062365800640	2.0360878	-2.4065948	4.330756
340062374101421	2.0399833	-2.3496609	4.254404
340062382402202	6.6809254	-3.3245363	6.604939
340062390702983	4.2384663	-1.9632969	5.5259132
340062399003765	2.228436	-1.503696	3.3451734
340062407304546	1.1998255	-1.7501016	0.8727875
340062415605327	0.86633307	-2.1815276	-1.3428822
340062423906108	0.636881	-2.3587384	-3.0128627
340062432206890	0.13789874	-2.3666048	-4.040475
340062440507671	-0.39976364	-2.4071665	-4.3495293
340062448808452	-0.6556947	-2.5312853	-3.985375
340062457109233	-0.7483759	-2.6910515	-3.2056851
340062465410015	-0.7656535	-2.8510742	-2.282268
340062473710796	-0.7593991	-2.9900694	-1.4397511
340062482011577	-0.76293117	-3.0970144	-0.76422215
340062490312358	-0.877341	-3.1581602	-0.23969984
340062498613140	-0.9188276	-3.1776023	0.112614155
340062506913921	-0.90243745	-3.1430073	0.35617447
340062515214702	-1.027641	-3.0959668	0.30581617
340062523515483	-0.9920179	-2.996944	0.48257828
340062531816265	-0.86152977	-2.7044196	0.748229
340062540117046	-0.8648343	-2.4512558	0.6858196
340062548417827	-0.652339	-2.0512118	0.47348785
340062556718608	-0.29079294	-1.6891003	0.19514894
340062565019390	0.20935857	-1.3875966	-0.082402706
340062573320171	-0.0146507025	-1.3516111	-0.061820507
340062581620952	1.2604426	-1.1557951	-0.62174463
340062589921733	1.0252893	-1.1153951	-0.58391714
340062598222515	2.5269904	-0.6674948	-0.38222075
340062606523296	2.2951357	-0.6129241	-0.3472271
340062614824077	2.062378	0.6124301	0.36949062
340062623124858	1.3860164	1.0182672	0.8323312
340062631425640	0.6838412	1.2682152	1.2920632
340062639726421	0.53054	1.3530445	1.2681346
340062648027202	-2.310276E-4	1.4953732	1.6940203
340062656327983	-0.32787728	1.6197448	2.2749357
340062664628765	-0.65519667	1.6340017	2.8080611
340062672929546	-0.9829037	1.5814214	3.2222738
340062681230327	-1.2095339	1.5870123	3.5479064
340062689531108	-1.465646	1.6845989	3.6892066
340062697831890	-1.7320695	1.7994423	4.2468762
340062706132671	-1.7871637	1.9009924	4.4125957
340062714433452	-1.675128	2.0038652	4.4990687
340062722734233	-1.4223757	2.1602397	4.6484175
340062731035015	-0.93624735	2.3315558	4.7296224
340062739335796	0.14213276	1.9076262	4.340924
340062747636577	0.98668194	1.3856335	4.106163
340062755937358	1.3505225	1.4042177	3.96488
340062764238140	1.3957095	1.7951198	3.2632809
340062772538921	1.2104063	2.314866	2.0372329
340062780839702	0.05497551	3.080337	-0.23311853
340062789140483	-0.019631863	3.0678725	-0.1660037
340062797441265	-1.1856132	3.3643913	-0.8157778
340062805742046	-2.387751	3.3295674	-0.6868768
340062814042827	-2.8763285	2.4810486	-0.28431225
340062822343608	-2.5538363	1.260611	-0.050739765
340062830644390	-1.6457558	0.12264347	0.21297121
340062838945171	-1.6595311	0.1275816	0.22253227
340062847245952	-1.2886462	-0.65695095	-0.054519653
340062855546733	-0.8307667	0.5550909	0.54256296
340062863847515	1.131855	6.389897	2.9514885
340062872148296	3.9953876	12.1211405	3.9117813
340062880449077	5.588581	9.171711	-1.4685946
340062888749858	5.3084188	0.60845566	-8.877455
340062897050640	6.0515256	-1.2543674	-11.550827
340062905351421	4.2750483	-0.06341791	-11.478755
340062913652202	0.86024904	0.9367366	-9.563871
340062921952983	-2.2243595	0.71923494	-6.625653
340062930253765	-2.965487	0.066933155	-3.5556574
340062938554546	-2.0724707	-0.5199194	-1.0217185
340062946855327	-0.88343287	-1.7951064	0.74216366
340062955156108	-0.79165554	-2.8455963	2.4899287
340062963456890	-1.6326828	-3.1224136	3.2152228
340062971757671	-2.8563852	-2.4834619	3.1886702
340062980058452	-3.771511	-1.2659078	3.8229117
340062988359233	-2.7989635	-0.6357045	3.5449429
340062996660015	-2.0507302	-1.7551932	3.1516814
340063004960796	-2.0464606	-3.2470217	2.319315
340063013261577	-1.8328857	-3.8090353	1.3239055
340063021562358	-1.1719704	-2.927186	0.5135119
340063029863140	-0.7087097	-1.1247888	0.12018442
340063038163921	-0.057687283	-1.4885321	0.17063618
340063046464702	0.21508598	-3.1745644	0.15920472
340063054765483	-0.1711793	-2.9457111	0.57678175
340063063066265	0.0061540604	-1.180346	1.4333332
340063071367046	1.086802	0.8740649	2.2427633
340063079667827	1.0249052	0.880517	2.3286505
340063087968608	3.463058	1.6133313	1.275466
340063096269390	5.1551495	1.8530202	0.18633223
340063104570171	6.1945276	2.6812658	-0.752193
340063112870952	6.0206337	3.1828785	-1.6232646
340063121171733	4.7770934	2.876093	-2.5616553
340063129472515	4.7155147	2.9017878	-2.5155122
340063137773296	1.4450712	0.7709098	-4.473652
340063146074077	0.8272133	-0.4756117	-3.950442
340063154374858	1.2515802	-1.702496	-2.2559562
340063162675640	2.1172423	-2.4828014	-0.052905798
340063170976421	2.5085735	-2.7018442	1.9559958
340063179277202	1.570075	-2.6771407	3.233989
340063187577983	0.040014744	-2.5950918	2.5823424
340063195878765	-1.0161791	-2.092	1.4443533
340063204179546	-1.5044847	-1.3405366	0.25555897
340063212480327	-1.0899777	-0.7029247	-0.72888184
340063220781108	0.0058465004	-0.38022232	-1.5586302
340063229081890	0.15324497	-0.46805096	-1.6306751
340063237382671	1.281002	-0.09565115	-2.969354
340063245683452	1.7806506	0.13180447	-2.9765499
340063253984233	2.080769	0.18240786	-3.1049998
340063262285015	1.7654834	-0.09087372	-3.0732841
340063270585796	1.9343085	-0.19380951	-3.096293
340063278886577	1.2201152	-0.70483446	-2.7536666
340063287187358	0.83879805	-0.8301754	-1.3431857
340063295488140	0.9706712	-0.10912609	-0.1550889
340063303788921	1.1024289	0.36221218	1.1722555
340063312089702	1.2832599	0.29705906	1.0952694
340063320390483	2.136283	-0.22279453	3.3939
340063328691265	2.2902155	-0.40086555	3.5379229
340063336992046	2.1915045	-0.93941593	3.0817447
340063345292827	2.3938735	-0.98680305	2.995104
340063353593608	1.3738973	-1.5993452	1.7640972
340063361894390	1.5831621	-1.6686783	1.7502244
340063370195171	0.3463912	-2.5814762	0.7053356
340063378495952	-0.22558641	-3.3391151	0.31635404
340063386796733	-0.376719	-3.7737617	0.261405
340063395097515	-0.120013475	-3.8731813	0.36376047
340063403398296	-0.015002847	-4.8410053	0.27330732
340063411699077	-0.844103	-4.856228	0.06711888
340063419999858	-2.394154	-4.2979136	0.05191803
340063428300640	-4.269291	-3.9457092	0.31190085
340063436601421	-7.1056476	-3.6842737	0.3271935
340063444902202	-11.779817	-3.1027699	-1.5242286
340063453202983	-12.504189	-1.1905785	-6.9043264
340063461503765	-8.145741	-0.5803242	-9.715601
340063469804546	-2.5721512	-1.576067	-7.9469595
340063478105327	0.16605413	-2.9940062	-3.59205
340063486406108	-0.34468073	-3.3357801	-1.0001634
340063494706890	-2.2246952	-2.2674217	0.006146908
340063503007671	-3.923534	-0.40325546	0.64673805
340063511308452	-5.0225825	1.6903687	1.6281
340063519609233	-5.394309	3.42698	2.7462962
340063527910015	-4.9497356	4.331029	3.6225471
340063536210796	-2.1377468	2.784483	3.5704038
340063544511577	-2.268145	2.7534132	3.6177583
340063552812358	-1.6992443	1.3305407	2.848208
340063561113140	1.0997103	0.1921854	1.4856926
340063569413921	6.127358	-0.6994591	-0.14001429
340063577714702	15.705008	-0.7911291	-12.732635
340063586015483	15.310393	-0.68720436	-13.358744
340063594316265	14.9770565	-0.6897297	-13.060683
340063602617046	10.431233	-0.37007046	-7.805553
340063610917827	4.8117037	0.11344147	-3.2915456
340063619218608	4.6831136	0.12849331	-3.1772096
340063627519390	-1.2127054	1.0337667	-0.8524569
340063635820171	-0.64049065	0.9523659	-0.16690645
340063644120952	-0.0732764	0.7941923	0.11932299
340063652421733	0.43975616	0.57283497	0.1822926
340063660722515	0.81638443	0.4091606	0.31199253
340063669023296	0.83271754	0.40553856	0.35093603
340063677324077	1.4164114	0.24343586	0.9279939
340063685624858	1.7232367	0.30147076	1.128061
340063693925640	1.9535891	0.040546417	1.4572597
340063702226421	1.7159064	-0.24549961	1.5061826
340063710527202	1.4516684	-0.3889513	1.8929744
340063718827983	1.4690003	-0.5952997	2.5483503
340063727128765	1.4902737	-0.59359837	2.632804
340063735429546	3.1296964	-3.6942577	3.0832708
340063743730327	3.3704662	-5.268813	2.3813267
340063752031108	2.4799	-5.856058	1.6565824
340063760331890	1.4189142	-5.6760674	-1.7185737
340063768632671	1.4987595	-5.654296	-1.5316
340063776933452	0.5793375	-5.1910973	-7.324704
340063785234233	-0.9669953	-4.1308727	-12.429743
340063793535015	-0.4393937	-4.9417076	-5.2219872
340063801835796	-0.77245075	-5.484564	-2.218147
340063810136577	-0.6341398	-5.484049	-2.2263012
340063818437358	-1.356271	-5.1687307	-0.90486586
340063826738140	-2.3099666	-4.009959	1.2027171
340063835038921	-2.6335526	-3.7162952	2.7885623
340063843339702	-2.9697332	-3.3318443	3.9263186
340063851640483	-3.036245	-3.1381588	4.3081474
340063859941265	-2.9320698	-2.9329062	4.2220054
340063868242046	-2.8178425	-2.7269	4.0126495
340063876542827	-2.7756581	-2.6690168	3.896565
340063884843608	-2.5493722	-2.9023857	3.5611825
340063893144390	-2.2961006	-3.2738962	2.707302
340063901445171	-1.773158	-3.8615437	1.8188759
340063909745952	-2.2450116	-2.4927273	8.623004E-4
340063918046733	-8.436706	7.355283	-2.8997083
340063926347515	-8.553478	7.3425026	-2.9218118
340063934648296	-23.29193	27.167576	-3.0766819
340063942949077	-7.048971	8.704087	1.8439491
340063951249858	3.0589347	-2.395877	4.902943
340063959550640	20.185215	-6.056793	6.7509294
340063967851421	19.65356	-5.9560137	6.504273
340063976152202	32.86601	-5.756543	8.015251
340063984452983	6.47081	-3.5547152	15.235016
340063992753765	-0.49632978	1.5469618	10.314841
340064001054546	-0.6230464	2.3423195	4.5625906
340064009355327	-0.43382597	2.287262	4.5352225
340064017656108	2.0490994	0.4489107	-0.07087016
340064025956890	1.6819937	-1.4289646	-5.701368
340064034257671	0.22411561	-0.9820986	-7.396223
340064042558452	0.21459818	-0.9892111	-7.2440877
340064050859233	-0.19607139	-0.87601376	-6.4640017
340064059160015	0.8562777	-0.97854996	-1.9960446
340064067460796	0.8812654	-0.98258495	-1.9967146
340064075761577	0.7241006	-0.8404989	-0.16824353
340064084062358	0.46162987	-0.7002239	2.0986798
340064092363140	0.72049594	-0.6291933	2.7127402
340064100663921	0.7437515	-0.6308842	2.672037
340064108964702	0.66662717	-0.57107544	2.6320453
340064117265483	0.6883991	-0.5735321	2.6082757
340064125566265	0.5948405	-0.5863743	2.0268252
340064133867046	0.3468163	-0.4817276	0.45798624
340064142167827	0.172503	-0.47396946	-0.21841389
340064150468608	0.06260908	-0.55810547	-0.7112299
340064158769390	0.08300066	-0.56141853	-0.7076778
340064167070171	0.005280614	-0.6353531	-1.0172882
340064175370952	-0.046726346	-0.6572647	-1.0259036
340064183671733	-0.05790162	-0.6493635	-0.62625587
340064191972515	-0.028807282	-0.5827551	0.029424667
340064200273296	0.05489266	-0.45239544	0.7640358
340064208574077	0.11223781	-0.18486023	1.3752053
340064216874858	0.2770177	0.019815445	1.8832452
340064225175640	0.5093869	0.09132576	2.2266068
340064233476421	0.6121608	0.13470745	2.25046
340064241777202	0.50635123	0.3270731	1.6392798
340064250077983	0.9558046	0.32376766	0.9257233
340064258378765	0.94565856	0.40761948	0.3526621
340064266679546	1.0687771	0.3807888	0.05803597
340064274980327	1.2920475	0.25719643	0.052337408
340064283281108	1.3183836	0.25469685	0.025981069
340064291581890	0.8725524	-0.16651154	0.993538
340064299882671	0.5504643	0.09517574	0.9106879
340064308183452	0.9574578	0.11730003	0.892707
340064316484233	1.1802309	-0.042912483	1.1335181
340064324785015	0.9143268	-0.29996967	1.6513209
340064333085796	0.9393046	-0.29894733	1.6150452
340064341386577	-0.82844365	-0.075888634	2.1418498
340064349687358	-0.80193186	-0.074296	2.1024487
340064357988140	-0.54218364	-0.08394241	1.9682791
340064366288921	-0.26924586	-0.087184906	1.7872144
340064374589702	-0.24758697	-0.08620453	1.7595973
340064382890483	0.15368366	-0.10958862	1.4314137
340064391191265	-0.28117633	0.08905697	1.0298336
340064399492046	-1.0008265	0.11596012	0.75309193
340064407792827	-0.94997716	-0.017991066	0.55150366
340064416093608	-0.74169266	-0.15620613	0.3520031
340064424394390	-0.7559986	-0.2552271	0.14333534
340064432695171	-0.76338255	-0.40431976	-0.021807551
340064440995952	-0.5276252	-0.44961548	-0.19404626
340064449296733	-1.2888429	-0.3409214	-0.29350483
340064457597515	-1.6765825	-0.4343052	-0.34066403
340064465898296	-1.5768223	-0.5139351	-0.36866748
340064474199077	-1.298443	-0.43114948	-0.43116772
340064482499858	-1.2971618	-0.4232359	-0.4655795
340064490800640	-1.1553658	-0.14513588	-0.36978865
340064499101421	-1.348484	0.09606457	-0.51669645
340064507402202	-1.8506278	-0.04541588	-0.65182734
340064515702983	-1.8634212	-0.03334427	-0.6969856
340064524003765	-1.990542	-0.303977	-0.79369307
340064532304546	-1.6268762	-0.44207382	-0.9329927
340064540605327	-1.5693684	-0.42339897	-1.5160019
340064548906108	-1.5680372	-0.42336178	-1.8460834
340064557206890	-1.2360547	-0.46080112	-1.968507
340064565507671	-1.2477392	-0.46576118	-2.1703577
340064573808452	-1.2773811	-0.4496336	-2.2085102
340064582109233	-1.2340578	-0.8171673	-2.3214307
340064590410015	-0.9400307	-0.5561495	-2.0427897
340064598710796	-0.6592592	-0.35658932	-1.9614489
340064607011577	-0.46338725	-0.032039642	-1.994029
340064615312358	-0.5508133	0.18795395	-2.2266252
340064623613140	-0.6569309	0.25349522	-2.5819705
340064631913921	-0.6864383	0.27263832	-2.6276166
340064640214702	0.32734346	0.9616604	-2.9737594
340064648515483	0.8007976	1.1673746	-3.1559381
340064656816265	0.6246128	1.3846388	-3.564656
340064665117046	0.39013028	1.3922873	-4.003394
340064673417827	0.36897767	1.4112959	-4.052901
340064681718608	0.5023807	1.1513529	-4.292166
340064690019390	0.24601245	1.1110096	-4.1554985
340064698320171	0.1752919	1.0827742	-3.9603188
340064706620952	0.41736448	1.0974874	-3.7375746
340064714921733	0.3958788	1.1151733	-3.776226
340064723222515	0.75158346	1.2055874	-3.6237566
340064731523296	1.0417769	1.4104424	-3.650032
340064739824077	1.1922413	2.2514648	-4.0560584
340064748124858	0.8917551	2.9490385	-3.3053071
340064756425640	0.5540675	3.9228516	-0.9472437
340064764726421	-0.2239976	4.6419983	2.167423
340064773027202	-0.2512555	4.6406403	2.1572945
340064781327983	-4.047879	2.280795	5.8420343
340064789628765	-6.4718094	1.8325644	5.5859766
340064797929546	-7.2834654	2.70862	4.943123
340064806230327	-7.2507915	2.6758966	4.99774
340064814531108	-3.389025	3.1497746	3.3112702
340064822831890	-3.3275323	3.0958118	3.4113243
340064831132671	-0.89628315	2.8436098	2.1250386
340064839433452	2.7048416	3.0840025	-0.49062252
340064847734233	3.677558	3.7671185	-0.97480774
340064856035015	4.3229504	4.219987	-1.5283124
340064864335796	4.423167	4.23256	-2.2484825
340064872636577	4.4112787	4.1726313	-1.988878
340064880937358	3.615009	3.572935	-2.7911363
340064889238140	0.45557022	0.47006893	-3.7048054
340064897538921	-0.28528297	-0.38939857	-3.0261745
340064905839702	-0.67507255	-0.6232405	-2.0900326
340064914140483	-0.6843606	-0.6330166	-1.8770387
340064922441265	-0.75520396	-0.43171597	-0.78601325
340064930742046	-0.5888574	-0.07190132	0.44527793
340064939042827	-0.44595587	0.18267918	1.628957
340064947343608	-0.03777027	0.37846375	2.438612
340064955644390	0.18547833	0.30336666	3.8313751
340064963945171	0.60151553	-0.18835449	4.94732
340064972245952	1.2605318	-0.98602676	5.1773252
340064980546733	1.5198863	-2.2718697	2.768862
340064988847515	1.4763913	-2.2350616	2.9838824
340064997148296	1.0032814	-2.7338638	1.2029492
340065005449077	0.636637	-3.2719107	-0.261649
340065013749858	0.5995867	-3.5852795	-1.4500442
340065022050640	0.7964175	-3.4427977	-2.305494
340065030351421	0.31197643	-1.9714746	-1.8012471
340065038652202	0.272362	-1.891695	-1.5621767
340065046952983	-0.20341563	-1.0740261	-0.3769958
340065055253765	-0.7617326	-0.7459736	0.6732485
340065063554546	-1.0988276	-0.92919254	1.4372025
340065071855327	-1.3488009	-1.4822865	1.9323187
340065080156108	-1.6970997	-2.2022896	2.1690571
340065088456890	-1.6490843	-2.945691	1.8359673
340065096757671	-1.3483996	-3.4424324	1.4769311
340065105058452	-0.9574096	-3.595169	1.244215
340065113359233	-0.49344683	-3.5701294	1.1322362
340065121660015	0.00450325	-3.4176083	1.1086278
340065129960796	-0.041229248	-3.361001	1.1785426
340065138261577	1.0433416	-3.077447	1.4566555
340065146562358	1.449934	-3.0799303	1.711844
340065154863140	1.6458948	-3.085497	1.4619517
340065163163921	1.6587775	-3.1218672	0.8921108
340065171464702	1.4135311	-3.1451216	0.16188383
340065179765483	0.8908229	-3.0823164	-0.6218009
340065188066265	0.43072343	-2.9062004	-1.3181014
340065196367046	0.14804244	-2.343769	-1.9147325
340065204667827	-0.23385835	-1.7736368	-2.6643658
340065212968608	-0.5128653	-1.1625347	-3.4043255
340065221269390	-0.890918	-0.48217106	-4.326057
340065229570171	-0.9023974	-0.5158253	-4.397399
340065237870952	-2.6474257	0.93075275	-6.722791
340065246171733	-3.5090132	0.968873	-6.5774612
340065254472515	-3.3836038	0.76462746	-5.3576937
340065262773296	-2.4302294	0.5284319	-3.8448465
340065271074077	-2.4455872	0.50482845	-3.9043741
340065279374858	-1.0712707	0.3116026	-2.63043
340065287675640	0.8634994	-0.52538013	-2.2204204
340065295976421	0.9776826	-1.5818567	-2.7950656
340065304277202	0.85494924	-2.403552	-2.8104274
340065312577983	0.6448989	-2.52946	-2.321026
340065320878765	0.70757365	-1.6329937	-1.2165294
340065329179546	1.5110898	0.4913988	0.68797064
340065337480327	3.2234862	4.246848	2.6767938
340065345781108	6.3968487	6.1977854	3.0564053
340065354081890	9.193488	7.180051	3.8533518
340065362382671	9.930689	7.14826	5.163906
340065370683452	7.842161	6.6044493	5.187291
340065378984233	3.3056886	6.2057314	1.7433426
340065387285015	1.145272	5.014412	-1.0497093
340065395585796	-1.016916	2.3811417	-0.485806
340065403886577	-2.7035897	-0.41240025	1.4805784
340065412187358	-3.9079573	-2.6281805	3.426539
340065420488140	-4.6760273	-3.9477377	4.8122883
340065428788921	-4.6881275	-3.9605856	4.7423825
340065437089702	-4.525524	-3.8546762	6.4194407
340065445390483	-4.046964	-2.580758	6.7428975
340065453691265	-3.1117373	-0.9501486	6.560706
340065461992046	-1.8054283	0.9232178	5.7168794
340065470292827	-1.7663472	0.8572264	5.5802307
340065478593608	-0.17906308	2.7690315	4.1599264
340065486894390	2.5489979	5.085165	0.97686315
340065495195171	2.6451755	4.7344313	-0.99786305
340065503495952	2.073707	3.7183914	-2.369246
340065511796733	1.2752016	2.2581186	-2.501126
340065520097515	0.53004694	0.6424875	-1.4245741
340065528398296	-0.17013979	-0.8268528	0.07722187
340065536699077	-0.5928664	-1.9820766	1.1154103
340065544999858	-1.1207688	-2.800396	1.7468328
340065553300640	-1.4854293	-3.3469467	1.9660616
340065561601421	-1.6736293	-3.6133032	1.9820211
340065569902202	-1.733902	-3.579174	1.9992973
340065578202983	-1.7013044	-3.607132	1.8593975
340065586503765	-1.4519882	-2.5003138	2.2309837
340065594804546	-1.20926	-1.5416307	2.3654041
340065603105327	-1.0178988	-0.6903105	2.3491466
340065611406108	-0.79328156	0.038053513	2.0568633
340065619706890	-0.8238487	0.03065586	1.8966527
340065628007671	-0.61549854	0.47774124	1.3720496
340065636308452	-0.76241255	-0.5133991	0.77070194
340065644609233	-1.0206184	-1.3108826	0.49231935
340065652910015	-1.2207229	-1.9887247	0.13007322
340065661210796	-1.3441079	-2.379013	-0.36610144
340065669511577	-1.3261101	-2.4514532	-0.9000396
340065677812358	-1.3231511	-2.444519	-1.0490321
340065686113140	-0.97393584	-2.1219215	-1.1975338
340065694413921	-1.0749211	-2.1208525	-0.8421266
340065702714702	-1.0726154	-2.107479	-0.987028
340065711015483	-1.1739109	-2.1940832	-0.46958983
340065719316265	-1.2206726	-2.2838697	0.14628243
340065727617046	-1.2230551	-2.2589674	0.73583674
340065735917827	-1.202069	-1.3833008	1.2894292
340065744218608	-1.2091274	-1.3547468	1.1350055
340065752519390	-0.73224115	-0.79652214	0.89168394
340065760820171	-0.3554337	-0.26137638	0.1993891
340065769120952	-0.14729786	0.21926785	-0.7041193
340065777421733	0.031928062	0.6161356	-1.5008353
340065785722515	0.40709758	0.94957066	-1.8836217
340065794023296	0.05572009	1.4762697	-2.0020573
340065802324077	-0.29205012	1.7781887	-1.8709698
340065810624858	-1.0345223	2.1035452	-1.5971227
340065818925640	-1.9712398	2.4113894	-1.2178221
340065827226421	-2.852198	2.6923609	-0.86869
340065835527202	-3.5919905	3.1074266	-0.8738322
340065843827983	-3.7085478	3.5572166	-1.5550871
340065852128765	-3.2377603	3.73917	-2.5135727
340065860429546	-2.6643689	3.8071995	-3.4283862
340065868730327	-2.2963915	3.7690897	-3.8448415
340065877031108	-2.26184	3.6576385	-3.3271058
340065885331890	-2.3976781	3.6139107	-1.653516
340065893632671	-2.2374864	3.967289	0.78704095
340065901933452	-2.1045148	4.6742163	2.45095
340065910234233	-2.0809743	4.9256353	3.384994
340065918535015	-2.6650827	4.192231	4.1586013
340065926835796	-3.6867614	2.6940184	4.999325
340065935136577	-3.3641713	1.842763	5.052779
340065943437358	-1.8036611	1.50698	3.5350327
340065951738140	0.053818226	0.8792381	2.5626965
340065960038921	1.6953688	0.59760475	2.377908
340065968339702	3.174468	0.82002735	2.3852215
340065976640483	5.2737393	2.1977339	0.6026368
340065984941265	5.3397484	2.1273546	0.80039704
340065993242046	5.2596884	2.6912003	0.8262539
340066001542827	5.392968	2.9387445	0.7132685
340066009843608	5.2235575	3.0698986	0.3309759
340066018144390	4.7254577	3.091401	-0.25349838
340066026445171	4.7420235	3.0575533	-0.0027515888
340066034745952	3.979764	2.837554	-0.6698766
340066043046733	1.4652493	1.3059587	-1.783828
340066051347515	0.3351524	0.66081333	-1.5521299
340066059648296	-0.4821322	0.19607067	-1.3633269
340066067949077	-1.1754432	-0.13702774	-1.2128167
340066076249858	-1.7936587	-0.45049953	-0.89182514
340066084550640	-1.6860089	-0.83884525	-0.28509068
340066092851421	-1.3364091	-1.1623402	0.5123124
340066101152202	-0.55282426	-1.3192339	1.4892358
340066109452983	0.26417685	-1.2503405	2.6219707
340066117753765	0.8894739	-1.1121454	3.646288
340066126054546	1.2756803	-1.0975361	4.249593
340066134355327	1.517427	-1.1564484	4.3456516
340066142656108	1.6353278	-1.3286476	4.011712
340066150956890	1.7195046	-1.5960302	3.5098662
340066159257671	1.6986814	-1.9801598	3.1099784
340066167553440	1.4044983	-2.4702215	3.0418024
340066175854221	1.4062791	-2.39192	3.2426584
340066184155003	0.91765356	-3.8093405	2.4679065
340066192455784	0.8052654	-4.6760826	1.2865009
340066200756565	0.4762516	-5.4221506	0.42808914
340066209057346	0.12035489	-5.7476845	-0.2704463
340066217358128	-0.30377936	-5.6159086	-0.29189062
340066225658909	-0.82168174	-5.1382313	0.7295904
340066233959690	-0.92595506	-4.5438304	1.248498
340066242260471	-0.9254317	-4.063561	1.1062021
340066250561253	-1.0135684	-3.787685	0.96703815
340066258862034	-0.94208884	-3.6944723	0.8742509
340066267162815	-0.72156024	-3.712916	0.7361245
340066275463596	-0.5228956	-3.7284336	0.40407753
340066283764378	-0.38621187	-3.6236386	-0.22700119
340066292065159	-0.2261951	-3.243464	-0.7067838
340066300365940	0.2140367	-2.6712756	-1.135633
340066308666721	0.64862275	-1.9969573	-1.6605582
340066316967503	0.7790897	-1.2008357	-2.4937325
340066325268284	0.35893917	-0.18337631	-3.7966201
340066333569065	-0.7734344	1.1246386	-5.3210964
340066341869846	-2.3253696	2.1156893	-6.366948
340066350170628	-2.7797728	2.3242674	-6.2390885
340066358471409	-2.0140343	2.2242498	-5.1698346
340066366772190	-0.4489498	2.1996565	-3.8081975
340066375072971	-0.45351124	2.165123	-3.8764894
340066383373753	2.3514225	2.5568	-3.2809827
340066391674534	2.6108005	2.249323	-4.2280855
340066399975315	2.5451949	1.4554281	-4.2489443
340066408276096	2.5943224	0.7301655	-2.951501
340066416576878	3.0514066	0.8806257	-0.86876297
340066424877659	3.9422722	2.810173	0.69112706
340066433178440	4.4622555	7.2877216	0.6199043
340066441479221	7.9141073	9.5655985	-0.10718036
340066449780003	8.923938	8.1197195	0.29304743
340066458080784	8.906696	8.158748	0.4157071
340066466381565	7.3068047	4.8677654	1.2539289
340066474682346	4.361205	1.1736708	1.5237722
340066482983128	-0.837548	-3.9427147	2.488511
340066491283909	-1.8446167	-3.7628727	4.527384
340066499584690	-1.8769355	-3.7352118	4.528202
340066507885471	-2.548652	-2.707572	5.812703
340066516186253	-3.1634207	-1.3465128	6.23474
340066524487034	-3.6798818	-0.091412544	5.801029
340066532787815	-3.2494004	1.0199194	4.145344
340066541088596	-3.2669985	0.98594856	4.0488276
340066549389378	-2.101398	1.3459339	3.8414457
340066557690159	-1.10992	1.8743658	3.9099538
340066565990940	-0.5054121	2.2607307	3.953492
340066574291721	-0.16319728	2.3511	3.7737927
340066582592503	0.15974379	2.1821594	3.3169472
340066590893284	0.4018569	1.2707901	2.216639
340066599194065	0.42773366	1.1984987	2.0358648
340066607494846	0.40287519	0.14654636	1.629112
340066615795628	0.1837585	-0.99731255	1.1350553
340066624096409	-0.19583774	-1.9814749	0.6001787
340066632397190	-0.5437677	-2.6516771	0.35262513
340066640697971	-0.7781136	-3.0346088	0.5428579
340066648998753	-1.0125511	-3.096181	0.7695849
340066657299534	-1.3375602	-2.9171667	0.9695679
340066665600315	-1.7682552	-2.5677881	1.050691
340066673901096	-2.1760607	-2.1177454	1.1299078
340066682201878	-2.4468744	-0.9025488	1.8906125
340066690502659	-2.4400554	-0.9183521	1.7272482
340066698803440	-2.502675	-0.5716276	1.7389272
340066707104221	-2.7347782	-0.36855125	1.4841614
340066715405003	-2.7788322	-0.39236927	1.0116414
340066723705784	-2.634469	-0.62806225	0.48961702
340066732006565	-2.695125	-0.9240999	0.18482998
340066740307346	-2.5855877	-1.2163677	0.16703308
340066748608128	-2.2871838	-1.2260647	-0.0016887411
340066756908909	-1.754008	-1.1858549	-0.44082606
340066765209690	-1.2008243	-0.9678469	-1.0793921
340066773510471	-0.731884	-0.60429287	-1.6966277
340066781811253	-0.28868198	-0.41755867	-1.9522796
340066790112034	-0.3270681	-0.4316063	-1.9580725
340066798412815	-0.3591621	-0.6574545	-1.7462049
340066806713596	-0.3134172	-1.0002842	-1.5202868
340066815014378	-0.49732494	-1.2346411	-1.2234633
340066823315159	-0.937793	-1.2344971	-0.7121228
340066831615940	-1.1686568	-1.1100864	0.095837
340066839916721	-0.9949484	-1.1499605	0.90714514
340066848217503	-0.95912075	-0.9903841	1.2991526
340066856518284	-0.6034908	-0.74444485	0.9688308
340066864819065	-0.094192505	-0.41645432	-0.04041457
340066873119846	0.37206435	0.074383736	-1.3521539
340066881420628	0.82808614	0.88602066	-2.4333847
340066889721409	1.1109898	1.7346334	-2.6633158
340066898022190	1.003782	2.3173027	-2.3211184
340066906322971	0.41917467	2.5774117	-1.7961297
340066914623753	-0.4339087	2.6211376	-1.3892214
340066922924534	-1.3698459	2.6248875	-1.3050661
340066931225315	-1.4006102	2.6500578	-1.3623474
340066939526096	-3.651231	2.8383722	-2.2723763
340066947826878	-4.494462	2.9015818	-2.7546024
340066956127659	-4.758538	2.8635406	-3.0268438
340066964428440	-4.557184	2.7518148	-2.9044132
340066972729221	-4.130891	2.7571468	-2.0133774
340066981030003	-3.6759186	3.2717	0.2510159
340066989330784	-3.8719404	4.506673	3.860829
340066997631565	-4.049945	5.520959	5.5960555
340067005932346	-4.5201187	5.194565	6.090125
340067014233128	-4.9451036	3.7197256	5.8967648
340067022533909	-4.2244263	1.8709097	5.221611
340067030834690	-0.51451945	0.40921783	3.6735294
340067039135471	1.8517854	0.10758591	2.3087654
340067047436253	3.5685244	1.3233204	1.5513053
340067055737034	4.8257008	2.856947	1.1487496
340067064037815	5.532569	3.7181482	1.161692
340067072338596	5.670133	3.8078575	1.480362
340067080639378	5.3969374	4.181391	1.54614
340067088940159	4.7735205	4.8687496	1.4208679
340067097240940	3.8218794	5.38151	1.1392415
340067105541721	2.9578667	5.3878365	0.804718
340067113842503	2.2347405	4.905156	0.32933283
340067122143284	1.4719503	4.116534	-0.4437115
340067130444065	0.3850701	3.1652212	-1.631874
340067138744846	-0.76652455	1.8898783	-2.383407
340067147045628	-1.7585158	0.9140806	-2.4398189
340067155346409	-2.28005	0.19425201	-1.8771595
340067163647190	-2.3078198	0.22966766	-1.6140764
340067171947971	-2.2790854	-0.36525345	-0.65783525
340067180248753	-0.7356131	-1.3388605	1.3675278
340067188549534	-0.790637	-1.2775364	1.593486
340067196850315	0.47184634	-1.7587948	2.931824
340067205151096	0.41294026	-1.6881227	3.1358392
340067213451878	0.92223763	-1.7206354	3.5970504
340067221752659	1.166645	-1.6197615	4.0312977
340067230053440	0.95878506	-1.6732006	4.612034
340067238354221	0.9443977	-1.6032839	4.7895985
340067246655003	1.5266786	-1.9905262	4.264616
340067254955784	2.1333442	-2.352521	3.763171
340067263256565	2.1276832	-2.7195187	3.8039472
340067271557346	1.5923223	-3.3410463	3.8456593
340067279858128	1.5743477	-3.2591715	3.9929526
340067288158909	0.767838	-5.350334	2.5965002
340067296459690	0.80842614	-6.0055485	0.844367
340067304760471	0.4440446	-5.9518576	0.16967201
340067313061253	-0.040110826	-5.422369	0.58086395
340067321362034	-0.39399123	-4.790202	1.3138013
340067329662815	-0.42528224	-4.738545	1.3639054
340067337963596	-0.60816884	-4.115045	1.7362256
340067346264378	-0.76750326	-3.973372	1.7818141
340067354565159	-0.816375	-3.863113	1.7006326
340067362865940	-0.78666234	-3.6138096	1.4031281
340067371166721	-0.6512563	-3.3112574	0.9831171
340067379467503	-0.41539216	-3.1202993	0.63463974
340067387768284	-0.2965634	-3.036974	0.58187723
340067396069065	-0.085577965	-2.987638	0.7070875
340067404369846	-0.023769855	-2.774859	0.2646737
340067412670628	-0.09272671	-2.3950944	-0.7479563
340067420971409	-0.08990049	-2.4344602	-0.83079433
340067429272190	-0.23762465	-1.8812165	-2.0844326
340067437572971	-1.3877709	-0.07519817	-4.6626835
340067445873753	-2.5344405	1.4932985	-5.5121393
340067454174534	-2.789531	3.1122684	-5.7208257
340067462475315	-2.3226624	4.4702396	-5.5925756
340067470776096	-2.2849207	4.4363623	-5.6082487
340067479076878	-1.3866837	5.399151	-5.435293
340067487377659	1.0680175	5.712287	-4.8869534
340067495678440	2.0631247	3.9625835	-3.9669466
340067503979221	1.9186296	1.5160666	-3.5096111
340067512280003	0.9929178	-0.6781206	-3.5233622
340067520580784	0.97042966	-0.6550226	-3.4861388
340067528881565	-0.021338463	-2.0747185	-3.7851777
340067537182346	-0.22419715	-1.78759	-4.1793027
340067545483128	1.0607302	1.3584261	-2.1030035
340067553783909	2.4848382	5.0548716	-0.09268618
340067562084690	2.5015192	5.072239	-0.021783829
340067570385471	4.6947303	9.950727	2.0709796
340067578686253	4.717477	9.945338	2.118657
340067586987034	3.571104	7.0356894	7.185572
340067595287815	0.37843227	1.068367	2.8910098
340067603588596	0.13625097	-4.166704	2.5884523
340067611889378	0.9169586	-6.3650484	4.065806
340067620190159	0.8829112	-6.3488464	4.040568
340067628490940	1.2304244	-5.793708	5.492386
340067636791721	0.4249072	-2.9663153	4.0172553
340067645092503	-0.46235418	-1.9335966	0.6493304
340067653393284	-1.238689	-0.90316486	-0.5292914
340067661694065	-1.3059068	-0.89559937	-0.5749023
340067669994846	-1.7469208	0.66664696	0.28687334
340067678295628	-1.983598	2.791401	2.546299
340067686596409	-2.076262	5.663643	6.3034363
340067694897190	-1.156632	4.6876354	5.684531
340067703197971	-0.31597948	3.0828352	4.264367
340067711498753	-0.26283503	2.9872646	4.0611243
340067719799534	-0.2285142	-0.51418304	0.52276945
340067728100315	-0.84681535	-2.0390835	-0.9540281
340067736401096	-1.4081643	-3.0430145	-1.4694912
340067744701878	-1.836457	-3.5255709	-1.1914086
340067753002659	-2.227255	-3.6703758	-0.5333364
340067761303440	-2.4460375	-3.6060371	0.25013995
340067769604221	-2.4920795	-3.3671436	0.96705985
340067777905003	-2.4569237	-3.4071703	0.7728381
340067786205784	-2.4108815	-2.4527102	1.7507663
340067794506565	-2.13988	-1.9941273	1.8563111
340067802807346	-1.9853582	-1.6040049	1.8218939
340067811108128	-1.9408	-1.2473145	1.6686301
340067819408909	-1.9583619	-1.2528515	1.489337
340067827709690	-1.9193144	-0.9034548	1.2972667
340067836010471	-1.5718708	-0.57058144	1.4058414
340067844311253	-1.1903489	-0.8234749	1.3392782
340067852612034	-1.0824027	-0.95493126	0.9612774
340067860912815	-1.1077836	-0.94336414	0.81523454
340067869213596	-0.9756093	-1.0927811	0.2854046
340067877514378	-0.68161106	-1.2555256	-0.28681108
340067885815159	-0.050967693	-1.1402359	-1.0910344
340067894115940	-0.1265502	-0.782464	-1.3182037
340067902416721	-0.230165	-0.53200054	-1.3584995
340067910717503	-0.23787308	-0.5142517	-1.4988717
340067919018284	-0.45026946	-0.43194866	-1.3407133
340067927319065	-0.45498943	-0.40942764	-1.4891917
340067935619846	-1.2400112	-0.20745087	-0.7135513
340067943920628	-1.2452703	-0.17995834	-0.8599937
340067952221409	-1.1406059	-0.18281555	0.13832963
340067960522190	-1.1524272	-0.15223885	0.010059357
340067968822971	-0.9122441	-0.17612934	0.4743315
340067977123753	-0.5852113	-0.24575996	0.555058
340067985424534	-0.24272132	-0.09616661	-0.074043274
340067993725315	0.107090235	0.48813057	-1.392077
340068002026096	0.61590576	1.2671509	-2.2366822
340068010326878	0.7971964	1.9188414	-2.4468904
340068018627659	0.51414824	2.315364	-2.1797535
340068026928440	-0.28336835	2.4893637	-1.6352851
340068035229221	-0.30685854	2.5153484	-1.7065165
340068043530003	-2.8147647	2.4852438	-0.57436776
340068051830784	-3.8600667	2.4233255	-0.9349818
340068060131565	-4.2999854	2.4782276	-1.7292271
340068068432346	-4.074115	2.5798721	-2.4907935
340068076733128	-3.377438	2.654727	-2.91838
340068085033909	-3.3782036	2.6603851	-2.937096
340068093334690	-1.6951237	2.6769629	-2.6688478
340068101635471	-1.4507897	2.84169	-1.4295349
340068109936253	-1.4544325	3.3506794	0.9406738
340068118237034	-1.8539617	4.21109	3.272827
340068126537815	-2.7969372	4.8309984	4.7002287
340068134838596	-2.7710378	4.7954206	4.745675
340068143139378	-4.780355	2.1456165	6.442523
340068151440159	-4.2914915	0.1304388	5.5184593
340068159740940	-3.0737424	-0.87007904	4.097117
340068168041721	-1.6561685	-0.14150143	2.912321
340068176342503	-1.5546556	-0.22114563	3.097462
340068184643284	-0.25702548	2.0012217	2.345706
340068192944065	1.9095175	5.520335	1.4082005
340068201244846	3.5253515	6.128847	2.530458
340068209545628	5.282112	6.4255333	2.980857
340068217846409	6.384718	6.3165283	2.4210138
340068226147190	6.424427	6.268059	2.6482162
340068234447971	6.335311	5.6024895	1.3174055
340068242748753	3.4444368	3.0124846	-2.5455463
340068251049534	1.9504504	2.008152	-3.922162
340068259350315	0.49901056	1.0741634	-4.457269
340068267651096	-0.857533	0.27155304	-3.9365582
340068275951878	-1.9973893	-0.37926388	-2.6064787
340068284252659	-2.8066835	-1.0543499	-1.085987
340068292553440	-2.8455408	-1.66189	0.14351761
340068300854221	-2.5904465	-2.0618925	1.1771713
340068309155003	-2.4289825	-2.2100096	2.1129818
340068317455784	-2.2387297	-2.084055	2.787273
340068325756565	-1.8300908	-1.7261734	3.0981812
340068334057346	-1.8431094	-1.6737576	3.269258
340068342358128	-1.4925318	-0.95793915	4.3841143
340068350658909	-1.5553291	-0.9730911	5.5354433
340068358959690	-1.0694938	-1.2381172	6.1659327
340068367260471	-0.21563554	-1.6503925	6.1583223
340068375561253	-0.24679899	-1.590683	6.2820935
340068383862034	0.642858	-2.0675945	5.7189045
340068392162815	1.6240602	-3.4594994	2.565645
340068400463596	1.795192	-4.3820896	0.91955256
340068408764378	1.7464616	-4.290697	1.0761745
340068417065159	1.8723528	-5.024229	-0.43821645
340068425365940	1.7069483	-5.390705	-1.3233414
340068433666721	0.87550926	-4.9393187	0.07007551
340068441967503	0.5021281	-4.395781	1.1800666
340068450268284	0.3769002	-4.050099	2.1318827
340068458569065	0.35912156	-3.841518	2.6017704
340068466869846	0.35353374	-3.829064	2.601356
340068475170628	0.35823798	-3.87536	2.110763
340068483471409	0.51913	-3.953928	1.0387874
340068491772190	0.46833348	-3.9794016	0.30585098
340068500072971	0.14989948	-3.950231	-0.052734375
340068508373753	-0.37479782	-3.6997418	-0.28641033
340068516674534	-0.87706137	-3.2061343	-0.5028672
340068524975315	-0.84727263	-3.2419195	-0.5672965
340068533276096	-0.97209406	-1.7447748	-1.4037995
340068541576878	-1.2724509	-1.0001793	-3.1597157
340068549877659	-2.4428954	-0.18881989	-5.4784427
340068558178440	-3.727722	0.77684784	-6.794043
340068566479221	-3.685873	0.7210865	-6.880221
340068574780003	-4.5120897	1.917306	-6.892462
340068583080784	-3.2512324	4.4773083	-4.8348813
340068591381565	-1.4529793	5.352578	-3.8492377
340068599682346	0.01565981	5.379735	-3.613768
340068607983128	0.6269345	4.303012	-4.39513
340068616283909	0.59751844	4.3006086	-4.392152
340068624584690	0.28586912	2.2613354	-5.458251
340068632885471	-0.91662335	-2.0191355	-4.9282293
340068641186253	-0.78683877	-2.1973982	-4.3829966
340068649487034	-0.7492657	-2.1801577	-4.31378
340068657787815	1.8172956	1.400135	0.9255779
340068666088596	1.8546078	1.421607	1.0118408
340068674389378	7.641782	5.3870497	4.7744617
340068682690159	12.323729	8.136208	8.505236
340068690990940	12.597968	12.495874	11.302146
340068699291721	12.565093	12.46649	11.2663765
340068707592503	1.5598042	6.8084726	-3.9510746
340068715893284	-0.9485774	0.9848881	-4.0961185
340068724194065	-1.0425587	1.0278463	-4.056445
340068732494846	-0.35245132	-3.2525911	1.8332772
340068740795628	-1.3468711	-5.2021914	5.1870546
340068749096409	-2.0944333	-6.09346	5.2667866
340068757397190	-2.6577055	-6.192155	4.357951
340068765697971	-3.3731298	-5.4361706	3.7617068
340068773998753	-4.1311655	-3.9144526	3.8108425
340068782299534	-4.3280034	-1.8949852	4.393858
340068790600315	-2.8008156	-0.17254543	6.113641
340068798901096	-0.9493265	1.5354338	7.4856215
340068807201878	0.61777925	2.9551716	7.389255
340068815502659	1.9207397	3.7544518	6.0523663
340068823803440	2.8301387	3.6909428	3.9233747
340068832104221	2.9590297	2.7915888	1.5935336
340068840405003	1.5657768	1.8330965	-0.5141696
340068848705784	0.5793686	0.6200886	-2.0375133
340068857006565	-0.31753325	-0.75604534	-2.71942
340068865307346	-1.2512348	-2.0179148	-2.7690678
340068873608128	-2.1609945	-2.9497604	-2.3869061
340068881908909	-3.1269526	-3.715129	-0.42263412
340068890209690	-3.096546	-3.7388048	-0.6035012
340068898510471	-3.4989588	-3.6321163	0.23505014
340068906811253	-3.3919015	-3.4597788	0.9020708
340068915112034	-3.0932384	-3.0788116	1.4326004
340068923412815	-2.766834	-2.517272	1.8553814
340068931713596	-2.7622604	-2.5158262	1.6680025
340068940014378	-2.2310977	-1.3226767	2.334979
340068948315159	-2.3764365	-0.60035133	2.2726727
340068956615940	-1.9653037	-0.24932098	1.9155567
340068964916721	-1.2841265	-0.07765961	1.3071699
340068973217503	-0.6692693	0.09139061	0.47575015
340068981518284	-0.6954968	0.11389732	0.32487643
340068989819065	-0.31739473	0.33703804	-1.4900346
340068998119846	-0.19850683	-0.022470474	-1.7797312
340069006420628	-0.28460145	-0.1669569	-1.7171705
340069014721409	-0.2712741	-0.16723728	-1.5444858
340069023022190	-0.1938777	-0.030234337	-1.4758897
340069031322971	-0.42523503	0.33820152	-1.6412749
340069039623753	-0.2791443	0.55973625	-1.7324826
340069047924534	-0.20268512	0.8589506	-1.7062231
340069056225315	-0.0077779293	0.8960066	-1.771362
340069064526096	0.13892007	0.9783468	-2.1874015
340069072826878	0.07475448	1.271122	-2.8200474
340069081127659	0.04711342	1.2942715	-2.8784127
340069089428440	-0.93488073	2.0831156	-2.3901305
340069097729221	-1.6903296	2.4438047	-1.4024768
340069106030003	-2.2995431	2.5658512	-0.7888198
340069114330784	-2.906983	2.4062576	-0.7424731
340069122631565	-2.9251962	2.4280567	-0.80203056
340069130932346	-3.5994167	2.1215067	-1.2513065
340069139233128	-4.2550993	2.1887646	-2.534714
340069147533909	-3.8354952	2.341402	-2.798789
340069155834690	-3.083316	2.3323832	-2.8142204
340069164135471	-2.2587216	2.1226492	-2.6754901
340069172436253	-2.2554476	2.1210098	-2.6770356
340069180737034	-1.0694788	1.5863895	-0.22640681
340069189037815	0.008611441	2.1274376	2.3054051
340069197338596	0.15172648	2.8722315	3.925125
340069205639378	-0.78917336	2.5341282	4.6384635
340069213940159	-2.1226678	1.073802	5.0907974
340069222240940	-2.0822756	1.0292568	5.1835527
340069230541721	-3.7081273	-0.244524	5.55322
340069238842503	-1.1958618	2.4101992	4.7060137
340069247143284	1.3465855	4.7849035	3.3334389
340069255444065	3.5163717	6.2796974	2.1330483
340069263744846	5.3053894	7.02215	1.981329
340069272045628	7.0014534	7.2184296	2.5997274
340069280346409	7.0626764	7.1488743	2.8416963
340069288647190	10.0581875	6.113167	1.4056704
340069296947971	9.081025	5.0121317	0.22178459
340069305248753	7.3648386	3.7322168	-1.230156
340069313549534	5.151951	2.3585777	-2.7434638
340069321850315	5.159733	2.350851	-2.4701986
340069330151096	2.6700284	0.97471523	-3.6426353
340069338451878	-0.6128905	-1.0020475	-2.8566756
340069346752659	-1.3931141	-1.5145159	-1.4406786
340069355053440	-1.6670401	-1.9683809	-0.2599796
340069363354221	-1.8121626	-2.2017593	0.9112147
340069371655003	-1.8685391	-2.1277256	1.1776206
340069379955784	-2.1454108	-1.9177561	2.4752634
340069388256565	-2.0481026	-1.0611658	4.4744244
340069396557346	-1.2483208	-1.1915617	5.0219393
340069404858128	-1.2483318	-1.117073	5.2396603
340069413158909	0.1386106	-2.154128	4.0746307
340069421459690	0.63453054	-2.7807436	2.7608562
340069429760471	1.0718696	-3.4569197	1.0275939
340069438061253	1.4775567	-4.2746706	-0.9036963
340069446362034	1.3909993	-4.7555943	-0.9170201
340069454662815	1.3487158	-4.626978	-0.7035575
340069462963596	0.9721606	-4.754436	0.9042735
340069471264378	0.6014166	-4.3062596	1.5896897
340069479565159	0.29774785	-3.6246743	1.8439136
340069487865940	0.2359221	-3.5320048	1.9392247
340069496166721	0.32773376	-3.0365248	1.9148726
340069504467503	0.3616991	-2.8724833	1.8205595
340069512768284	0.4670472	-2.851335	1.8121285
340069521069065	0.6992762	-2.912582	1.8682604
340069529369846	1.0123663	-3.0358992	1.8915281
340069537670628	1.185427	-3.1743016	1.7511663
340069545971409	1.1457036	-3.228858	1.2167921
340069554272190	0.93601227	-3.1190963	0.53731537
340069562572971	0.55327034	-2.855454	-0.16739035
340069570873753	0.010782003	-2.385313	-0.89621305
340069579174534	-0.58518314	-1.7221184	-1.7465591
340069587475315	-1.4718513	-0.41068554	-4.2854886
340069595776096	-1.4323976	-0.4597535	-4.3274713
340069604076878	-2.1073818	-0.20854998	-5.9908257
340069612377659	-2.3437629	-0.047393322	-7.253834
340069620678440	-2.291804	0.24409437	-7.75797
340069628979221	-2.1045377	1.4230928	-6.9922185
340069637280003	-2.0823088	1.3972168	-7.0028067
340069645580784	-1.2773781	1.5204034	-4.9683757
340069653881565	-0.15321016	1.4107704	-2.9083152
340069662182346	1.0470419	1.4532413	-1.7683778
340069670483128	2.1425607	1.9569845	-1.4175262
340069678783909	2.9922774	3.2185555	-1.3699112
340069687084690	3.3906965	5.799348	-1.5039005
340069695385471	4.034062	9.473665	-3.4894242
340069703686253	5.0288224	9.709248	-3.8366885
340069711987034	5.8075504	6.311981	-2.9169774
340069720287815	6.0140514	0.82099915	-1.3663564
340069728588596	5.386562	-4.433438	0.38878202
340069736889378	3.686059	-6.437423	2.7201414
340069745190159	1.6907847	-6.121996	4.9319167
340069753490940	0.6802254	-5.04457	6.6262336
340069761791721	0.15925813	-3.325595	7.7095485
340069770092503	-0.17778826	-1.4199448	7.4578223
340069778393284	-0.18277645	0.21424818	1.9478159
340069786694065	-0.23893929	0.19259882	1.8609385
340069794994846	0.16408658	0.34170723	1.521894
340069803295628	0.0012404919	1.4801922	2.5055776
340069811596409	-0.32377434	2.9933815	3.3369503
340069819897190	-0.3863225	4.0633125	3.2496333
340069828197971	0.0347507	4.080373	2.291421
340069836498753	0.80662274	2.8609333	1.524046
340069844799534	1.2691398	1.2811108	1.3121297
340069853100315	1.3489468	-0.06476402	1.3066869
340069861401096	1.109411	-1.1018076	1.1852894
340069869701878	0.5261488	-1.836113	0.97519016
340069878002659	0.57970905	-1.9110069	0.8326645
340069886303440	-1.6246908	-2.5963964	1.0090077
340069894604221	-2.4369318	-2.748146	1.5171428
340069902905003	-3.1737704	-2.8236656	2.0522125
340069911205784	-3.6427884	-2.868391	2.486963
340069919506565	-3.8115253	-2.8444872	2.8314831
340069927807346	-3.7322404	-2.911253	2.6414466
340069936108128	-3.6399205	-2.427743	3.0002344
340069944408909	-3.226764	-2.2386618	2.3673372
340069952709690	-3.0016217	-1.8939562	1.4435601
340069961010471	-2.823697	-1.4964876	0.527634
340069969311253	-2.451764	-1.062315	-0.2419343
340069977612034	-1.7537029	-0.5851097	-0.8588687
340069985912815	-1.1178844	-0.30776405	-1.2922873
340069994213596	-0.9689045	-0.2642393	-1.2924416
340070002514378	-0.93185234	-0.24838352	-1.2157091
340070010815159	-0.88238096	-0.269495	-1.0300388
340070019115940	-0.7741344	-0.39257526	-0.75118953
340070027416721	-0.6263652	-0.6467705	-0.4750301
340070035717503	-0.5803132	-0.8319044	-0.37222558
340070044018284	-0.6908488	-0.88308716	-0.37310648
340070052319065	-0.73287344	-0.9270477	-0.5432339
340070060619846	-0.79597807	-0.958148	-0.040106237
340070068920628	-0.7765076	-0.95828724	-0.1559852
340070077221409	-0.8532932	-0.8961344	0.93132675
340070085522190	-0.6524453	-0.8329401	1.8838887
340070093822971	-1.1083817	-0.7825489	1.0174909
340070102123753	-1.193933	-0.85465145	0.11082184
340070110424534	-0.97209764	-0.9475746	-0.5294249
340070118725315	-0.7228327	-0.8402357	-0.8103045
340070127026096	-0.72786784	-0.8302126	-0.87277335
340070135326878	-0.25921988	0.29472256	-0.8846263
340070143627659	-0.2680068	0.3057394	-0.96059775
340070151928440	0.96153545	1.8546534	-1.829728
340070160229221	0.9465294	1.8689137	-1.9319
340070168530003	1.3451748	2.3481455	-2.8627248
340070176830784	1.3105326	2.3193254	-3.2124224
340070185131565	0.7069564	2.612647	-3.1680875
340070193432346	-0.2810161	3.2158842	-2.4448528
340070201733128	-1.3844447	3.7488852	-1.636535
340070210033909	-1.4022603	3.776987	-1.764745
340070218334690	-2.9650009	3.7737837	-0.52427053
340070226635471	-2.9773731	3.794711	-0.6147814
340070234936253	-2.6641572	2.9647198	-0.8494425
340070243237034	-2.6772761	2.9811525	-0.90962076
340070251537815	-1.269145	2.309123	-2.663167
340070259838596	-1.2786705	2.3184261	-2.6939893
340070268139378	-0.5255673	1.933589	-3.2502272
340070276440159	0.022423029	1.6200266	-3.2739098
340070284740940	0.28208876	1.4986897	-2.2534342
340070293041721	0.4088421	1.9118929	0.8619695
340070301342503	-0.24790525	2.4088192	3.3371024
340070309643284	-1.5364866	2.393138	4.8176513
340070317944065	-3.047624	1.7919827	5.329294
340070326244846	-3.974267	0.8193922	5.033742
340070334545628	-1.9473586	-0.48343468	3.116937
340070342846409	-1.903496	-0.5312824	3.2691047
340070351147190	-1.1072068	0.68307304	2.8167782
340070359447971	-0.07594776	2.5941334	2.535303
340070367748753	0.9577925	4.3252974	2.4727187
340070376049534	1.8027894	5.4907446	2.475092
340070384350315	3.9903097	6.6204643	1.2468617
340070392651096	4.013092	6.5765715	1.4696662
340070400951878	5.118793	5.8975134	0.94990265
340070409252659	5.6339765	4.4496365	0.28016737
340070417553440	5.6763535	2.803173	-0.3327032
340070425854221	5.345035	1.3573132	-0.7216512
340070434155003	4.523778	0.21782303	-0.9212762
340070442455784	3.1473448	-0.5902338	-1.078931
340070450756565	1.7275178	-1.4102163	-0.7295041
340070459057346	0.85994506	-2.1528883	-0.25421035
340070467358128	0.37065506	-2.4887896	0.14520705
340070475658909	0.07617736	-2.3587685	0.42405272
340070483959690	0.09652829	-2.1324759	0.67331696
340070492260471	0.17367077	-1.8040867	1.7250276
340070500561253	-0.03057909	-1.1162214	2.9577916
340070508862034	-0.5170889	-0.4759369	4.0052586
340070517162815	-1.0459106	-0.1823206	4.984732
340070525463596	-1.4197967	-0.31076622	5.830961
340070533764378	-1.1648843	-1.5927582	5.3463593
340070542065159	-1.1528084	-1.531702	5.516018
340070550365940	-1.2649927	-2.9935884	4.3134995
340070558666721	-1.5016787	-4.462677	2.6706495
340070566967503	-1.336077	-5.633238	0.8370247
340070575268284	-0.6491196	-6.3113804	-0.9056394
340070583569065	0.0515213	-6.3235626	-2.204791
340070591869846	-0.5073745	-5.5656157	-1.2141252
340070600170628	-0.914531	-4.548632	0.14946747
340070608471409	-1.0968957	-3.6593466	1.48768
340070616772190	-1.0734627	-3.0541463	2.3339386
340070625072971	-1.1085503	-2.9931703	2.3971171
340070633373753	-0.97818017	-2.6720948	2.5853324
340070641674534	-0.61787105	-3.2387857	2.056275
340070649975315	-0.36962557	-3.377706	1.6274042
340070658276096	-0.12925482	-3.2685966	1.0696249
340070666576878	0.10088706	-2.9524088	0.48366785
340070674877659	0.20987439	-2.445961	-0.05011034
340070683178440	-0.13139081	-1.8310146	-0.6078825
340070691479221	-0.001932621	-1.1969423	-1.2745233
340070699780003	0.122063875	-0.5645318	-1.8750925
340070708080784	0.10652733	-0.1401105	-2.4831467
340070716381565	0.1370771	0.12703991	-3.1842737
340070724682346	0.19125724	0.29898834	-4.0419116
340070732983128	-0.38923573	0.25975132	-5.067043
340070741283909	-0.5786674	0.54308033	-5.8589745
340070749584690	-0.74446154	1.1553073	-5.740238
340070757885471	-0.68012714	1.8392873	-5.505564
340070766186253	-0.6614802	1.8150759	-5.5167966
340070774487034	-0.28900838	2.2448053	-5.258241
340070782787815	0.92633057	1.7453837	-3.8785357
340070791088596	0.94221306	1.1716905	-3.1549997
340070799389378	0.44816542	0.60671425	-3.0141454
340070807690159	0.2459817	0.2731967	-3.1483884
340070815990940	0.2062552	0.26797724	-3.1785483
340070824291721	1.2296529	1.4916496	-2.8076677
340070832592503	2.085159	3.1535788	-2.5354419
340070840893284	2.6952171	5.3434596	-2.3577843
340070849194065	3.7917156	7.0936003	-1.6440701
340070857494846	4.4837103	7.572145	-0.70908403
340070865795628	4.6182723	6.030641	-0.06134796
340070874096409	4.6239004	6.033554	-0.023116112
340070882397190	3.467341	-1.7498302	2.5905824
340070890697971	1.9252589	-4.393017	3.3867817
340070898998753	1.9235308	-4.3941007	3.363678
340070907299534	-0.11035967	-6.151594	4.7143073
340070915600315	-0.120149136	-6.1690054	4.643559
340070923901096	-0.1513381	-5.5180206	5.5959144
340070932201878	-0.02028966	-2.188099	4.895736
340070940502659	-0.7010462	-0.44667053	1.9602866
340070948803440	-1.3732471	0.5631056	0.6215706
340070957104221	-1.4017997	0.5309367	0.5299599
340070965405003	-1.9455874	1.2113771	1.1095934
340070973705784	-2.3467906	1.9732409	3.1180928
340070982006565	-2.301253	3.454461	6.8198376
340070990307346	-1.306093	2.7117634	5.756694
340070998608128	-0.37957978	1.3284254	4.3712525
340071006908909	-0.3202343	1.232235	4.1653943
340071015209690	0.23242521	-0.30656052	2.8885174
340071023510471	0.3127172	-1.7076092	1.8069582
340071031811253	0.019495726	-2.8113308	0.8562801
340071040112034	-0.50488305	-3.5167713	0.10233164
340071048412815	-0.97057056	-3.827299	-0.0075745583
340071056713596	-1.2729833	-3.8241692	0.47068286
340071065014378	-1.5318978	-3.491806	1.2041553
340071073315159	-1.7804937	-2.9349327	1.8895888
340071081615940	-1.757529	-2.9671354	1.7046242
340071089916721	-1.7575774	-1.586627	2.1035137
340071098217503	-1.5510178	-0.9505205	1.6643639
340071106518284	-1.4718237	-0.5553751	1.1988163
340071114819065	-1.6254148	-0.3219347	0.80823946
340071123119846	-1.883987	-0.18783092	0.54463285
340071131420628	-1.8970599	-0.19114208	0.3986148
340071139721409	-1.9867244	-0.24000168	0.17832059
340071148022190	-2.1092257	-0.20400047	-0.51001585
340071156322971	-2.224391	-0.2984619	-0.93984044
340071164623753	-2.2697577	-0.38446426	-0.9524502
340071172924534	-2.107582	-0.45425034	-0.40869635
340071181225315	-1.6965792	-0.58296585	0.595236
340071189526096	-1.5486686	-0.55806065	1.2362778
340071197826878	-1.3274119	-0.41911602	1.0904424
340071206127659	-1.0200379	-0.35287952	0.5181279
340071214428440	-0.86521816	-0.31126785	-0.37487847
340071222729221	-0.9416938	-0.2697239	-1.3560426
340071231030003	-1.1244743	-0.2281828	-2.0732646
340071239330784	-1.3265698	-0.101576805	-2.1535687
340071247631565	-1.3694446	0.046892166	-1.81147
340071255932346	-1.4203784	0.42153263	-1.4633228
340071264233128	-1.1595833	0.8311138	-1.008753
340071272533909	-0.6044221	1.1725216	-0.45412612
340071280834690	-0.60652304	1.1868162	-0.540573
340071289135471	0.34490204	1.972889	0.08253801
340071297436253	0.83918786	1.9320068	-0.4299395
340071305737034	0.96497536	1.6084585	-1.1462915
340071314037815	0.7620251	1.3840237	-1.493521
340071322338596	0.7377026	1.4104366	-1.5862849
340071330639378	0.21921754	1.6147299	-1.3676453
340071338940159	-1.0453968	3.071556	-0.19705772
340071347240940	-1.1066647	3.210826	0.14923692
340071355541721	-0.9315736	2.9796858	-0.09768391
340071363842503	-0.9502773	3.003418	-0.17687559
340071372143284	-0.6403742	2.7162743	-0.74205565
340071380444065	0.2631557	2.849554	-1.637007
340071388744846	0.542959	2.9976501	-1.7215555
340071397045628	0.7625022	2.8247023	-2.1245496
340071405346409	0.5994656	2.4322128	-2.2940986
340071413647190	0.0067596436	2.2666159	-1.4249341
340071421947971	-0.92189574	2.6753616	0.69498634
340071430248753	-0.9188931	2.6714907	0.6873145
340071438549534	-3.8566635	3.8268785	4.987728
340071446850315	-5.0836487	2.8184052	5.2843947
340071455151096	-4.9315805	1.8150396	4.805208
340071463451878	-3.6735468	1.4225473	3.5814838
340071471752659	-3.6384299	1.3796682	3.6730056
340071480053440	-2.0266478	1.7239237	2.0068877
340071488354221	0.032420635	3.013421	-0.106378555
340071496655003	0.5806985	2.7303085	0.23575115
340071504955784	0.77108	2.4432878	0.8526366
340071513256565	0.8031242	2.388214	1.033371
340071521557346	0.7918465	2.462903	1.4462081
340071529858128	0.7925601	2.945794	1.3576874
340071538158909	1.4128358	3.3765545	0.31008554
340071546459690	2.073899	2.7852278	0.11446345
340071554760471	3.038069	2.0123978	-0.15150619
340071563061253	3.6850107	1.1295033	-0.5174019
340071571362034	3.6639144	1.1210842	-0.27815077
340071579662815	2.2207754	-0.15608788	-0.88058
340071587963596	1.500673	-0.44436646	-0.24769734
340071596264378	1.1947727	-0.7362623	0.4280869
340071604565159	0.94448996	-1.0600729	0.78482443
340071612865940	0.76398087	-1.2059593	1.0413096
340071621166721	0.6402371	-1.0769062	1.3232762
340071629467503	0.5860126	-1.0359507	1.5195735
340071637768284	0.5709505	-0.3240366	1.6936755
340071646069065	0.56039643	0.09717274	2.3617482
340071654369846	0.5039413	0.15661621	2.5795424
340071662670628	0.5288651	0.08699989	3.6606035
340071670971409	0.48344636	0.15404415	3.871682
340071679272190	0.39020276	-0.51930046	4.3903027
340071687572971	-0.25234747	-2.5672646	2.8815484
340071695873753	-0.69341946	-3.4600124	1.6839414
340071704174534	-0.9067912	-3.9712868	0.7479818
340071712475315	-0.9173236	-3.8729525	0.97406006
340071720776096	-0.8519366	-4.0219965	0.5878649
340071729076878	-0.60052896	-3.9608536	0.8501072
340071737377659	-0.59924865	-4.030178	1.740855
340071745678440	-1.2156854	-3.7225327	1.9613047
340071753979221	-1.6226251	-3.428258	2.0145597
340071762280003	-1.8113914	-3.2909722	1.8095312
340071770580784	-1.8397372	-3.199873	1.9276114
340071778881565	-1.9239807	-3.2347875	1.4643555
340071787182346	-1.2487583	-3.7709103	0.8902488
340071795483128	-1.2943244	-3.6921306	0.96444654
340071803783909	-1.105015	-3.821146	0.55639696
340071812084690	-0.7212584	-3.360527	0.0976305
340071820385471	-0.3532431	-2.7073536	-0.2907343
340071828686253	-0.25051904	-2.2299953	-0.601758
340071836987034	-0.2897334	-2.212452	-0.6119132
340071845287815	-0.38476253	-1.7390099	-1.6624331
340071853588596	-0.41105747	-1.6426196	-2.2665482
340071861889378	-0.48823667	-1.5176129	-2.810955
340071870190159	-0.76107764	-1.2453737	-3.3930378
340071878490940	-1.3356729	-0.7985821	-4.134389
340071886791721	-1.3391027	-0.8412862	-4.2018285
340071895092503	-2.5053818	-0.1013751	-5.6288667
340071903393284	-2.3645291	0.28759003	-5.529483
340071911694065	-1.6139102	0.72856665	-5.1617513
340071919994846	-0.36164427	1.0169234	-4.3817706
340071928295628	1.0544984	0.8472662	-3.0597343
340071936596409	2.159246	-0.041625023	-1.5618691
340071944897190	2.5169356	-1.2228146	-0.80195427
340071953197971	2.1414645	-2.2930694	-0.78662825
340071961498753	1.7590306	-2.3439102	-0.60484123
340071969799534	1.6022067	-0.5456557	-0.042482376
340071978100315	2.034491	3.3509307	0.5666394
340071986401096	4.199646	7.9502516	0.23304367
340071994701878	6.5646553	10.693733	1.0123668
340072003002659	6.8963747	11.682936	1.5192213
340072011303440	4.8802943	10.3239	0.7633786
340072019604221	1.8176966	5.5081716	-1.0584235
340072027905003	1.7901399	5.5143766	-1.0479455
340072036205784	-2.190517	-7.483107	0.12487078
340072044506565	-2.6011624	-6.946442	3.881669
340072052807346	-3.2789888	-4.559334	6.300428
340072061108128	-3.7021093	-1.9744077	6.095685
340072069408909	-3.7133837	-0.11421299	4.023446
340072077709690	-3.7430286	-0.1456294	3.925243
340072086010471	-3.0286708	1.1340046	2.0155716
340072094311253	-2.9765267	2.529264	3.2925396
340072102612034	-2.6573782	4.1479363	4.5746493
340072110912815	-1.8567381	5.0701957	4.8429856
340072119213596	-0.7310796	4.8348804	4.1825275
340072127514378	-0.67999554	4.726528	4.021537
340072135815159	0.30004096	2.0365815	1.9841695
340072144115940	-0.060272694	0.5916724	1.007786
340072152416721	-0.44454145	-0.77982616	0.34331584
340072160717503	-0.81803465	-1.8957224	-0.0029685497
340072169018284	-1.2310555	-2.6898746	-0.08098078
340072177319065	-1.7209852	-3.1424875	0.07835007
340072185619846	-2.1101463	-3.2134142	0.4780674
340072193920628	-2.4649293	-2.870058	1.0943601
340072202221409	-2.6443274	-2.369913	1.6707292
340072210522190	-2.6068227	-1.7726173	2.071509
340072218822971	-2.4859369	-1.1450024	2.2643728
340072227123753	-2.456988	-1.1894865	2.0824485
340072235424534	-2.2423878	-0.31045246	2.4867918
340072243725315	-2.1773393	-0.20966911	2.7277727
340072252026096	-2.1956675	-0.2820177	2.6314547
340072260326878	-2.1268702	-0.5024309	2.1637955
340072268627659	-2.124184	-0.5170355	1.9972396
340072276928440	-1.9311812	-0.814414	1.4159151
340072285229221	-1.7704916	-1.2597857	1.117306
340072293530003	-1.7502735	-1.3794146	1.0667424
340072301830784	-1.4225981	-1.4029999	0.8896421
340072310131565	-1.110899	-1.3079243	0.5202166
340072318432346	-1.0744064	-1.094451	-0.14659382
340072326733128	-1.310921	-0.8159857	-1.1091007
340072335033909	-1.1849787	-0.7226858	-1.6297404
340072343334690	-1.0399933	-0.8302536	-1.4404851
340072351635471	-1.0418994	-0.7581959	-0.8722927
340072359936253	-1.1332624	-0.5666218	-0.16015029
340072368237034	-1.2866507	-0.3181343	0.48545814
340072376537815	-1.5202258	-0.032169342	0.90698636
340072384838596	-1.7316916	0.1391325	1.002045
340072393139378	-1.8037763	-0.04098797	0.78606343
340072401440159	-1.6632209	-0.24032593	0.33193338
340072409740940	-1.352627	-0.3244877	-0.1721065
340072418041721	-1.01878	-0.23399734	-0.6135845
340072426342503	-1.038415	-0.20339203	-0.7139603
340072434643284	-0.728086	0.7054863	-1.3734447
340072442944065	-0.3663032	1.182519	-1.9551154
340072451244846	-0.26570368	1.5332756	-2.6011546
340072459545628	-0.6256192	1.8141518	-2.8488371
340072467846409	-0.6555214	1.8419838	-2.9116075
340072476147190	-1.5482416	2.0982466	-2.430759
340072484447971	-4.2055345	2.5410414	-0.6007197
340072492748753	-5.1011267	2.6124697	-0.5674193
340072501049534	-5.228321	2.6232433	-0.9688487
340072509350315	-5.240553	2.638424	-1.0007665
340072517651096	-3.735508	2.4792786	-2.440917
340072525951878	-3.7394993	2.4850855	-2.4541557
340072534252659	-2.24237	2.7150002	-1.7467389
340072542553440	-2.231822	2.7078085	-1.7471912
340072550854221	-2.2978482	3.5138626	0.52783775
340072559155003	-2.6852024	4.5095224	2.8819296
340072567455784	-3.5375712	4.8008566	4.5374246
340072575756565	-4.8451176	4.1298256	5.3144426
340072584057346	-6.0038986	3.228962	5.683339
340072592358128	-4.179963	2.8524141	5.5461183
340072600658909	-0.98609805	2.7120457	4.9755697
340072608959690	1.485791	3.0220938	3.5904064
340072617260471	3.5211024	3.621663	2.2684505
340072625561253	5.300327	4.260666	1.6422215
340072633862034	6.458791	4.6296463	1.6246146
340072642162815	7.413392	4.5219173	1.1695216
340072650463596	7.6891775	4.4808407	0.19205129
340072658764378	7.0187073	4.255046	-0.6871259
340072667065159	5.6068573	3.7312498	-1.2539933
340072675365940	3.951914	2.9541874	-1.4542007
340072683666721	1.1957753	1.5924492	-1.4543892
340072691967503	1.1997678	1.5862379	-1.2226827
340072700268284	-0.017931223	1.1389971	-1.2676522
340072708569065	-1.0074611	0.535449	-1.4196808
340072716869846	-1.8664038	-0.054154396	-1.4880012
340072725170628	-2.5834196	-0.36389732	-1.1967566
340072733471409	-2.9138472	-0.24479675	-0.28157783
340072741772190	-2.6356544	-0.52029514	0.7379726
340072750072971	-2.2090316	-0.72420883	1.662185
340072758373753	-1.8043466	-0.7104492	2.5156264
340072766674534	-1.5940754	-0.71954536	3.35506
340072774975315	-1.5694141	-0.9466686	4.124628
340072783276096	-1.5751703	-0.90904903	4.252547
340072791576878	-0.78348756	-1.7430639	4.4346776
340072799877659	-0.64147353	-1.949048	4.3557434
340072808178440	-0.72334623	-2.0721188	4.616085
340072816479221	-0.7978978	-2.2334175	5.0138836
340072824780003	-0.68609023	-2.505478	5.269537
340072833080784	-0.6993141	-2.4463825	5.4011045
340072841381565	-0.11901021	-3.1984491	4.566779
340072849682346	-0.015725136	-3.4759684	3.4754465
340072857983128	0.14384079	-3.8348675	2.1004791
340072866283909	0.24791288	-4.280629	0.7058079
340072874584690	0.26155925	-4.7592173	-0.4120083
340072882885471	0.46208262	-5.202608	-1.0428178
340072891186253	0.27551365	-5.1438403	-0.69617414
340072899487034	0.017520428	-4.9240546	0.0145225525
340072907787815	-0.37912107	-4.497185	0.64709806
340072916088596	-0.6648519	-3.9451294	0.9552245
340072924389378	-0.6942332	-3.3914251	0.90970135
340072932690159	-0.7916064	-2.9317365	0.7319107
340072940990940	-0.88074875	-2.5530567	0.56577635
340072949291721	-0.6296189	-2.3334475	0.36710215
340072957592503	-0.22234893	-2.2209268	0.06365037
340072965893284	0.017302036	-2.06946	-0.4757414
340072974194065	-0.05379629	-1.7899375	-1.3439398
340072982494846	-0.2389214	-1.4194579	-2.5775878
340072990795628	-0.7922666	-0.9023433	-4.21537
340072999096409	-1.3497796	-0.12571478	-5.0763226
340073007397190	-2.0950258	0.9000864	-5.414261
340073015697971	-2.8899257	1.9693747	-5.619178
340073023998753	-3.3113582	2.7991152	-5.8609676
340073032299534	-2.5566163	3.099639	-5.687627
340073040600315	-1.0289462	3.1573048	-5.224758
340073048901096	0.55788994	3.2906666	-5.240242
340073057201878	1.843301	3.1727638	-5.737152
340073065502659	2.5021849	2.80202	-6.104993
340073073803440	2.4768581	2.0693321	-5.519134
340073082104221	2.0269098	0.069779396	-3.176311
340073090405003	0.9928081	-1.4597731	-1.9120326
340073098705784	0.6366129	-2.4024048	-2.0333693
340073107006565	0.8096309	-1.5129023	-1.4699142
340073115307346	1.6877539	1.1661882	-0.7244067
340073123608128	3.1671207	4.846076	-1.0544288
340073131908909	3.5462863	7.9133434	-2.1170611
340073140209690	6.4793606	9.947748	1.4464464
340073148510471	7.767181	10.940554	7.709035
340073156811253	5.352488	9.082331	7.816159
340073165112034	2.1739728	4.908572	3.718412
340073173412815	2.1423388	4.8983316	3.6871264
340073181713596	1.1164083	-3.0697107	1.2133882
340073190014378	-0.51259184	-4.440938	2.0694492
340073198315159	-1.7652082	-5.1075287	2.4934406
340073206615940	-3.0110197	-4.9961042	2.2011168
340073214916721	-4.3402796	-4.111623	1.7822855
340073223217503	-5.548443	-2.5741158	2.0912502
340073231518284	-5.9964304	-0.95882034	3.382606
340073239819065	-4.9133663	0.41727352	5.4212446
340073248119846	-3.4882035	1.5562792	6.9840136
340073256420628	-1.9782605	2.5375366	7.5200624
340073264721409	-1.9040318	2.4323835	7.2789373
340073273022190	1.733285	3.0876017	5.3626356
340073281322971	3.5103617	2.2427988	3.5728915
340073289623753	2.874125	1.4738417	1.8697847
340073297924534	2.8868747	1.4315262	1.706363
340073306225315	1.5618293	0.41190052	0.39412546
340073314526096	0.5670552	-0.8620796	-0.5407398
340073322826878	0.011772871	-2.1245089	-1.1419412
340073331127659	-1.2853694	-3.5746403	-1.0299597
340073339428440	-1.2658472	-3.5927782	-1.1922698
340073347729221	-1.8813257	-3.7970905	-0.53217214
340073356030003	-2.268246	-3.636075	0.22026652
340073364330784	-2.3096926	-3.1975546	1.0151125
340073372631565	-2.0451508	-2.5961685	1.8296529
340073380932346	-1.6658337	-1.8830137	2.5817044
340073389233128	-2.189108	-0.033442497	3.1515915
340073397533909	-2.204958	-0.023457527	2.9836378
340073405834690	-2.7250462	-0.12770367	3.0539572
340073414135471	-3.0536146	-0.3822546	2.678322
340073422436253	-2.9252615	-0.569252	1.7817652
340073430737034	-2.2750351	-0.7745342	0.59581894
340073439037815	-1.8500819	-0.10414791	-1.8022252
340073447338596	-1.8489769	-0.086836815	-1.9300988
340073455639378	-1.352689	0.04673481	-2.6238458
340073463940159	-1.0817516	0.05263138	-3.0614064
340073472240940	-1.0492702	-0.07711506	-3.1700616
340073480541721	-1.4326923	-0.08598423	-2.2479308
340073488842503	-1.4286392	-0.0619936	-2.3675895
340073497143284	-1.4065213	-0.06008625	-1.8927976
340073505444065	-1.6124866	0.0688467	-1.3328018
340073513744846	-1.7255569	0.08251858	-0.6349392
340073522045628	-1.5553997	-0.0844574	-0.06714296
340073530346409	-1.21861	-0.23455143	-0.16981149
340073538647190	-0.78845406	-0.40007496	-1.2074168
340073546947971	-0.3043759	-0.12390995	-2.2193916
340073555248753	-0.10354781	0.4892683	-2.3452313
340073563549534	-0.2034347	1.1737728	-1.8695984
340073571850315	-0.48356438	1.6806364	-1.3583217
340073580151096	-0.8059714	1.8155632	-1.3479478
340073588451878	-1.4520609	1.6825943	-1.3706391
340073596752659	-2.1255882	1.6898403	-1.3342185
340073605053440	-2.8555965	1.8225107	-1.379955
340073613354221	-3.400284	2.054779	-1.6086037
340073621655003	-3.5479996	2.3191662	-2.0539353
340073629955784	-3.265612	2.5097313	-2.6237166
340073638256565	-2.4707236	2.6787062	-3.129302
340073646557346	-1.8775923	2.707943	-3.0426462
340073654858128	-1.6425359	2.9358892	-1.8320918
340073663158909	-1.4935141	3.4929743	0.52741385
340073671459690	-1.5731654	4.3823223	3.197469
340073679760471	-2.482448	5.404498	4.9462347
340073688061253	-3.6855688	4.613966	5.428996
340073696362034	-4.197036	1.4320841	5.644793
340073704662815	-3.0660486	-0.5928478	5.3415
340073712963596	-1.1483037	-0.4530344	4.1666784
340073721264378	0.3819809	1.4144945	2.5042808
340073729565159	0.49999046	1.3288689	2.6487086
340073737865940	2.1089048	5.69643	1.5944593
340073746166721	3.5761573	6.4742966	2.0956202
340073754467503	5.0801663	7.2246904	2.4869883
340073762768284	6.326873	7.7398863	2.4858217
340073771069065	6.951474	7.649768	2.0447073
340073779369846	6.536777	6.72808	1.4166362
340073787670628	5.103901	4.8503265	0.4093989
340073795971409	3.3982065	3.3374186	-1.1071441
340073804272190	1.6761992	2.261858	-2.9592705
340073812572971	0.081379175	1.2673492	-4.6057315
340073820873753	-1.3416462	0.18401146	-5.322625
340073829174534	-2.6264918	-0.6371002	-4.3894825
340073837475315	-3.0323148	-1.2816076	-2.1835885
340073845776096	-3.0995357	-1.8005323	-0.33201516
340073854076878	-2.807188	-2.0618181	1.0098748
340073862377659	-2.3039598	-2.0142374	1.8683515
340073870678440	-1.8307416	-1.750637	2.5240464
340073878979221	-1.6260281	-1.475647	3.4271326
340073887280003	-1.3786113	-1.626462	4.063704
340073895580784	-1.0957394	-2.0010376	4.952305
340073903881565	-0.75443506	-2.50463	5.773811
340073912182346	-0.44254088	-2.965619	6.2995086
340073920483128	-0.17361379	-3.2561426	6.524228
340073928783909	-0.23166203	-3.1908474	6.642395
340073937084690	0.61502266	-3.425867	6.3118286
340073945385471	1.1361122	-3.7746887	5.4374123
340073953686253	0.9598222	-4.1620016	4.2120495
340073961987034	0.35413337	-4.5803614	2.495352
340073970287815	0.31581736	-4.491845	2.6556742
340073978588596	-0.06774664	-5.6295958	-2.7623327
340073986889378	-0.051306486	-5.9056435	-4.4090033
340073995190159	-0.08154678	-5.5651155	-3.3018293
340074003490940	-0.06630278	-4.9229784	-1.2364712
340074011791721	-0.03074336	-4.2083926	0.5239291
340074020092503	-0.05698514	-3.5986776	1.39119
340074028393284	-0.225487	-3.2565212	1.6231694
340074036694065	-0.40647554	-3.0076847	1.3943558
340074044994846	-0.6373558	-2.9814186	1.1498942
340074053295628	-0.63506436	-3.0031734	1.0933695
340074061596409	-0.88398004	-3.0753603	0.4250605
340074069897190	-1.1611509	-3.1108236	-0.4856174
340074078197971	-1.4547362	-3.015966	-1.3074064
340074086498753	-1.6893501	-2.6993308	-1.9990392
340074094799534	-2.080532	-1.8605595	-2.7052114
340074103100315	-2.4635355	-0.43214607	-3.0483987
340074111401096	-2.9589543	1.5521908	-3.4957862
340074119701878	-3.132367	3.7644958	-4.6430874
340074128002659	-3.0925934	3.709281	-4.722123
340074136303440	-0.88017726	6.2240934	-8.174906
340074144604221	0.6483512	6.464736	-8.166695
340074152905003	2.1630368	6.0787926	-7.6480484
340074161205784	2.7342281	4.865103	-5.970507
340074169506565	2.5480716	2.9945784	-3.905436
340074177807346	2.0077085	0.76015854	-2.6433978
340074186108128	0.60413814	-1.5664654	-2.5801616
340074194408909	-0.69700813	-3.0808878	-3.7497292
340074202709690	-1.0789189	-3.5324306	-3.9859138
340074211010471	-0.42546892	-2.1562042	-3.2961328
340074219311253	0.66154313	1.114213	-2.2548811
340074227612034	0.70916486	1.1253347	-2.178515
340074235912815	3.3646898	9.054694	-0.11849284
340074244213596	7.469249	11.684962	6.5356426
340074252514378	7.900219	11.240044	10.202594
340074260815159	4.761056	7.0625706	7.3969946
340074269115940	4.682872	7.0453987	7.318379
340074277416721	1.7033751	1.5505733	2.274805
340074285717503	0.78316903	-4.024517	0.13594818
340074294018284	-1.0580783	-4.729541	1.1512399
340074302319065	-2.61256	-4.850232	1.2678213
340074310619846	-3.9645963	-4.4650106	0.5989883
340074318920628	-4.0190573	-4.465618	0.5088465
340074327221409	-5.2875357	-3.5133286	0.33177686
340074335522190	-5.754174	-0.8267956	4.968771
340074343822971	-3.8422215	0.030146599	7.011441
340074352123753	-2.018099	1.0157709	8.049933
340074360424534	0.002563715	1.9622278	7.807152
340074368725315	1.9583201	2.5902138	6.551541
340074377026096	1.9973869	2.5127945	6.309511
340074385326878	3.6332793	1.7946634	3.111289
340074393627659	2.6146424	0.7893276	1.54038
340074401928440	1.4589648	-0.35086346	0.108475685
340074410229221	0.7037213	-1.5429659	-1.0968864
340074418530003	0.71122694	-1.5620251	-1.226565
340074426830784	0.3433237	-2.562502	-1.9870901
340074435131565	-0.8781457	-3.4962988	-1.267379
340074443432346	-1.6456759	-3.6555061	-0.5208917
340074451733128	-2.04446	-3.5786896	0.3718142
340074460033909	-2.0155702	-3.5894518	0.20408854
340074468334690	-2.1010008	-3.2204475	1.1358215
340074476635471	-2.000889	-2.5387545	2.072426
340074484936253	-2.4531724	-0.50260353	3.7899485
340074493237034	-3.0697188	-0.03869629	4.117855
340074501537815	-3.2497349	0.0425272	4.0320067
340074509838596	-3.2578864	0.055583954	3.8779197
340074518139378	-3.2993574	0.005774498	3.2992914
340074526440159	-2.5439227	-0.23602772	0.37624192
340074534740940	-2.4071305	0.025082588	-1.7914789
340074543041721	-2.048495	0.35217762	-3.5877151
340074551342503	-1.5821631	0.40596676	-4.5679135
340074559643284	-1.573211	0.41890144	-4.6704454
340074567944065	-1.1549664	0.42220306	-3.4839168
340074576244846	-1.1428721	0.43877602	-3.6020446
340074584545628	-1.2827682	0.16219902	-0.30876982
340074592846409	-1.2371292	-0.060073853	0.47581184
340074601147190	-1.2083466	-0.30314255	0.6373379
340074609447971	-1.1272099	-0.4663849	0.2459178
340074617748753	-1.1554029	-0.43414116	0.16056204
340074626049534	-1.016957	-0.410532	-0.69951606
340074634350315	-0.93551636	0.33511925	-2.6526725
340074642651096	-1.1505015	0.79653263	-2.3056276
340074650951878	-1.3025846	1.0771427	-1.5647192
340074659252659	-1.3464069	1.1103878	-1.6231482
340074667553440	-1.3395708	1.1403723	-1.3186498
340074675854221	-1.217325	1.0581408	-1.6932163
340074684155003	-1.5313094	1.4237413	-1.962084
340074692455784	-2.294607	1.72647	-1.2217734
340074700756565	-3.1220644	2.0125484	-0.8886149
340074709057346	-3.136473	2.0310202	-0.9303324
340074717358128	-3.5984933	2.6912813	-1.950588
340074725658909	-3.6069996	2.705474	-1.986011
340074733959690	-2.2774653	3.691472	-2.9805105
340074742260471	-2.2862856	3.6942644	-2.9881456
340074750561253	-1.5975525	5.121381	1.4591587
340074758862034	-1.582974	6.082159	3.9484525
340074767162815	-1.9575646	6.5056047	4.8361273
340074775463596	-1.937182	6.47406	4.8594403
340074783764378	-4.0630007	2.4473743	4.860926
340074792065159	-4.000828	2.394126	4.9330187
340074800365940	-0.7792208	1.0969868	2.7700732
340074808666721	-0.6732373	1.0209904	2.8794634
340074816967503	0.25656104	1.6541948	1.8251493
340074825268284	0.8560126	2.7171354	1.3140433
340074833569065	1.7457163	3.9317045	1.7580018
340074841869846	2.9372597	4.238864	2.1105237
340074850170628	4.209111	4.769619	2.3315003
340074858471409	4.7440596	5.556943	2.4276278
340074866772190	4.6040106	6.169648	2.3972287
340074875072971	4.1761003	6.0499334	2.1254356
340074883373753	4.194149	6.0109034	2.3748958
340074891674534	2.713441	3.282918	-0.32435316
340074899975315	1.3461859	2.2354622	-2.2150073
340074908276096	0.2362752	1.022995	-3.690313
340074916576878	-0.7063079	-0.25056648	-4.106801
340074924877659	-1.6186383	-1.2777109	-3.3203673
340074933178440	-1.6545196	-1.2395782	-3.0705166
340074941479221	-2.517118	-2.2584429	-0.7409226
340074949780003	-2.3175192	-2.3689508	0.36308932
340074958080784	-1.8802435	-2.2125187	1.1291897
340074966381565	-1.3872087	-1.8156614	2.0164323
340074974682346	-1.1429768	-1.3596563	3.366858
340074982983128	-1.1849773	-1.3066311	3.5120997
340074991283909	-1.3476584	-1.547286	5.3574696
340074999584690	-1.0016291	-1.6884727	5.6372986
340075007885471	-0.67688847	-1.8107233	5.9762526
340075016186253	-0.27302313	-1.9841261	6.297377
340075024487034	-0.30949116	-1.922575	6.4246454
340075032787815	0.28269076	-2.2356558	6.4344463
340075041088596	0.6000693	-3.6523695	4.584556
340075049389378	-0.32104826	-4.5706196	2.801707
340075057690159	-0.8490734	-5.727516	0.6096437
340075065990940	-0.8658922	-6.7786884	-1.5131717
340075074291721	-0.66889334	-7.305257	-2.9358058
340075082592503	-0.48484635	-7.2419257	-2.9531283
340075090893284	-0.796474	-6.0039268	-0.78563404
340075099194065	-0.6486075	-4.728503	0.6436825
340075107494846	-0.67790174	-3.736311	1.4168699
340075115795628	-0.70308113	-3.1488352	1.538099
340075124096409	-0.46563077	-2.9120836	1.0664535
340075132397190	-0.40286708	-2.8093948	0.27139688
340075140697971	-0.33529997	-2.6194143	-0.43455625
340075148998753	-0.052742004	-2.4664688	-0.8997257
340075157299534	0.18062854	-2.1653404	-1.4374614
340075165600315	0.062021255	-1.6098843	-2.3340154
340075173901096	0.06631684	-1.6473508	-2.4141827
340075182201878	-1.7096646	0.6097994	-5.029316
340075190502659	-2.6989346	2.1242042	-5.8333063
340075198803440	-3.3696244	3.244358	-6.8885913
340075207104221	-3.236508	3.6973324	-6.922521
340075215405003	-3.206863	3.6541033	-6.9735494
340075223705784	-2.192219	3.6699896	-5.9142036
340075232006565	1.225677	3.9663086	-4.6864195
340075240307346	2.4434233	3.5624552	-5.1426883
340075248608128	2.5178297	2.6188488	-5.1789284
340075256908909	2.1151922	1.5493078	-4.62497
340075265209690	2.1007447	1.5619926	-4.585649
340075273510471	2.1912727	1.528553	-1.2260172
340075281811253	1.9079671	4.2666283	0.21533298
340075290112034	4.607085	8.178455	0.9089894
340075298412815	7.772246	9.502506	0.52554226
340075306713596	9.4307995	8.3523445	0.98309684
340075315014378	8.394385	5.2844343	1.94203
340075323315159	4.8275185	1.2351484	1.9202642
340075331615940	1.583112	-1.9083662	0.5105977
340075339916721	-0.05646968	-3.4637394	1.6132791
340075348217503	-1.0367749	-3.966761	3.2417524
340075356518284	-2.283247	-3.5173697	4.572655
340075364819065	-3.9876149	-2.4087448	5.1679754
340075373119846	-4.022791	-2.421342	5.076978
340075381420628	-6.9969325	0.20545101	3.2295973
340075389721409	-7.011056	0.94929266	3.1191697
340075398022190	-6.0963593	1.3892536	4.463976
340075406322971	-4.6464767	1.6894293	6.1354675
340075414623753	-4.591132	1.6012936	5.9544296
340075422924534	-2.95789	1.7429838	6.9149632
340075431225315	0.513643	0.98993206	5.3252788
340075439526096	2.0822785	0.24805164	3.6571422
340075447826878	2.959926	-0.28436375	1.7765291
340075456127659	2.673103	-0.598814	0.143893
340075464428440	2.659207	-0.62547493	0.007194042
340075472729221	0.63136506	-1.184145	-1.5832522
340075481030003	0.09180546	-1.7159119	-1.6891317
340075489330784	-0.46470714	-2.2178574	-1.1701834
340075497631565	-0.43988228	-2.250636	-1.3417785
340075505932346	-1.8359852	-3.0427294	0.07743585
340075514233128	-2.532473	-3.1709604	0.48023623
340075522533909	-2.4835596	-3.198285	0.30170214
340075530834690	-3.2438838	-2.7727146	1.3714606
340075539135471	-3.2011645	-2.2266216	2.0154533
340075547436253	-3.1800635	-2.2332687	1.8500068
340075555737034	-2.6506197	-0.74612427	3.2981782
340075564037815	-2.65928	-0.7391548	3.1313314
340075572338596	-2.558626	-0.114209175	3.374878
340075580639378	-3.0626302	-0.062246323	3.2197528
340075588940159	-3.74347	-0.26299858	2.8055236
340075597240940	-3.3370488	-0.30977154	2.3145237
340075605541721	-2.6479416	-0.19069862	1.2919865
340075613842503	-1.907464	0.043873787	-0.22060156
340075622143284	-1.2302165	0.34014416	-2.0440626
340075630444065	-0.66703296	0.6143894	-3.7689903
340075638744846	-0.12529564	0.5839186	-4.2802796
340075647045628	-0.17604923	0.46899986	-3.5516279
340075655346409	-0.49861646	0.432065	-2.139546
340075663647190	-0.99538803	0.42917728	-0.71337986
340075671947971	-1.4999893	0.39363003	0.21184468
340075680248753	-1.7334712	0.15504074	0.050106525
340075688549534	-1.7458384	0.18167305	-0.03687787
340075696850315	-1.580576	0.14928818	-0.85338306
340075705151096	-1.3973935	0.2638569	-1.9603691
340075713451878	-1.1426864	0.63659954	-2.980531
340075721752659	-0.8898227	1.2457552	-3.507471
340075730053440	-0.8940637	1.9217911	-3.1777003
340075738354221	-1.2215271	2.4427662	-1.9422619
340075746655003	-1.6910741	2.6052923	-1.1158607
340075754955784	-2.2122223	2.521946	-1.1257393
340075763256565	-2.7841945	2.410859	-1.342058
340075771557346	-3.4223928	2.4169912	-1.2250359
340075779858128	-3.4384537	2.434536	-1.2606807
340075788158909	-4.1739674	2.6736984	-1.3083336
340075796459690	-3.8118033	2.928979	-1.6940608
340075804760471	-3.209619	3.2056198	-1.5027349
340075813061253	-2.6655595	3.7138863	-0.2525556
340075821362034	-2.5094042	4.642477	1.9604363
340075829662815	-3.0431077	5.881152	3.9422774
340075837963596	-4.2043333	5.742445	5.1651645
340075846264378	-5.796021	4.63153	5.143119
340075854565159	-5.26805	3.6598845	4.430312
340075862865940	-2.7966387	2.94522	3.4024289
340075871166721	0.018273354	2.499733	2.4201264
340075879467503	1.4129455	2.8294287	1.8622591
340075887768284	2.981744	3.2582006	2.0153668
340075896069065	4.0074873	3.2830658	2.2911482
340075904369846	4.74222	3.0185995	2.155148
340075912670628	5.129451	2.7774324	1.7880977
340075920971409	5.1666985	2.7167559	2.0017257
340075929272190	5.0487604	2.707632	1.6349516
340075937572971	3.1898754	2.82094	0.6045277
340075945873753	2.3634808	2.6319628	0.6234081
340075954174534	1.7318642	2.3432274	0.56523347
340075962475315	1.1263487	2.000883	0.31478727
340075970776096	1.1229022	1.9923143	0.54370856
340075979076878	0.41655827	1.5693817	0.06141308
340075987377659	-1.0865686	0.003938675	-1.2236537
340075995678440	-1.5445344	-0.5377159	-1.1806695
340076003979221	-1.7846482	-0.8975916	-0.79392105
340076012280003	-1.6742225	-1.142951	-0.31998038
340076020580784	-1.7257123	-1.0900726	-0.08286202
340076028881565	-0.7862637	-1.3876734	0.8835081
340076037182346	-0.64612293	-1.3005533	2.0951858
340076045483128	-0.7229872	-1.2647772	2.9916792
340076053783909	-0.6295655	-1.3926611	3.524005
340076062084690	-0.29217267	-1.5813885	3.5542884
340076070385471	0.04822588	-1.6954575	3.1581185
340076078686253	-0.30313396	-1.7193003	2.9342499
340076086987034	-0.40023088	-2.1576214	3.2134311
340076095287815	-0.71455	-2.7531853	3.330591
340076103588596	-1.0260832	-3.43824	2.9988317
340076111889378	-1.1747677	-4.124774	2.2577865
340076120190159	-1.182092	-4.0520678	2.397543
340076128490940	-0.9418144	-5.330859	0.34857798
340076136791721	-0.36912227	-5.46805	-0.31845212
340076145092503	-0.18222117	-5.257684	-0.12692547
340076153393284	-0.3822105	-4.8511224	0.47327018
340076161690911	-0.80996203	-4.397412	1.1078944
340076169991692	-0.8316629	-4.352526	1.1545072
340076178292474	-1.3656874	-3.8826914	1.8140807
340076186593255	-1.5072608	-3.862399	1.7252507
340076194894036	-1.8506632	-3.7302365	1.5707769
340076203194817	-2.0292218	-3.4472814	1.2937441
340076211495599	-1.7470548	-3.050345	0.8515625
340076219796380	-0.9298198	-2.621416	0.17011118
340076228097161	0.13998342	-2.2725363	-1.0552721
340076236397942	0.14020061	-2.2976556	-1.112709
340076244698724	0.86846256	-1.238348	-4.075851
340076252999505	0.88392496	-1.2705626	-4.1240172
340076261300286	0.45084524	0.7296963	-5.6499586
340076269601067	-0.47797394	2.085751	-5.6135874
340076277901849	-1.5377164	3.4591708	-4.906711
340076286202630	-2.079931	4.3635473	-4.123723
340076294503411	-1.5743041	4.5846357	-3.6000495
340076302804192	-0.63831854	4.206585	-3.196936
340076311104974	0.18994927	3.3826141	-3.244713
340076319405755	0.1713295	3.3726463	-3.2630484
340076327706536	0.07939911	0.9773054	-4.8625765
340076336007317	0.07918811	0.9896622	-4.8174953
340076344308099	-0.19277287	0.32478046	-4.5715513
340076352608880	-0.049340248	0.8251085	-4.3565645
340076360909661	0.102246046	3.314497	-3.6180334
340076369210442	1.1402972	6.5479956	-2.0303466
340076377511224	7.060555	7.745846	0.2683189
340076385812005	7.087779	7.7530584	0.3516276
340076394112786	8.457239	6.305274	0.7232187
340076402413567	7.070784	3.8138132	0.6308503
340076410714349	4.735661	1.0797749	0.023365498
340076419015130	2.70722	-1.2699175	-0.0429554
340076427315911	0.28597355	-3.745153	4.4947944
340076435616692	0.18106532	-3.6976333	4.474482
340076443917474	-0.92012477	-3.3388157	5.479142
340076452218255	-2.5367002	-2.1240735	4.6143765
340076460519036	-4.3822994	-0.68202686	2.8421242
340076468819817	-5.8106112	0.47958136	1.592885
340076477120599	-6.2220087	1.1668143	2.149357
340076485421380	-5.9531918	2.195436	4.365899
340076493722161	-5.0635586	3.1565084	5.4667554
340076502022942	-3.6120386	3.4839602	5.344831
340076510323724	-2.0773063	2.999671	4.876535
340076518624505	-0.6036329	1.8762007	4.3076077
340076526925286	0.88483405	0.49441242	3.2127156
340076535226067	1.3736367	-0.84342384	1.4020803
340076543526849	0.7888887	-1.7904415	-0.74924374
340076551827630	0.23056626	-2.4934235	-1.9027178
340076560128411	-0.34189725	-2.8540983	-1.9999018
340076568429192	-0.99562836	-2.838275	-1.3818138
340076576729974	-1.9926064	-1.9491272	0.54812324
340076585030755	-1.9630454	-1.9883747	0.38176012
340076593331536	-2.2611432	-1.5421696	1.0000931
340076601632317	-2.4149528	-1.2354679	1.5033499
340076609933099	-2.4016402	-1.0617304	1.8633091
340076618233880	-2.2574909	-0.99598694	2.1629598
340076626534661	-2.1349206	-0.826272	3.0065594
340076634835442	-2.128108	-0.837657	2.8402302
340076643136224	-2.1478775	-0.9190302	2.9213955
340076651437005	-2.432428	-0.9680691	2.6829696
340076659737786	-2.5152776	-1.0585957	2.0699697
340076668038567	-2.3034482	-1.1653614	1.0911736
340076676339349	-2.3084946	-1.1584797	0.9628384
340076684640130	-2.0656705	-1.0443544	-0.92330563
340076692940911	-1.9420621	-0.8279524	-1.6292719
340076701241692	-1.6287482	-0.7757149	-2.0482218
340076709542474	-1.3754361	-0.6440096	-2.2321935
340076717843255	-1.1841574	-0.42467308	-2.1560454
340076726144036	-1.1864326	-0.4091158	-2.2915363
340076734444817	-0.8957224	-0.050858498	-1.0635617
340076742745599	-1.3603253	0.30560493	-0.45962453
340076751046380	-1.7573335	0.4389124	0.009449244
340076759347161	-2.0224817	0.40009212	0.32472336
340076767647942	-2.1346922	0.29472923	0.40470958
340076775948724	-2.0483162	0.21321487	0.098424196
340076784249505	-1.6124337	0.06908798	-0.28069353
340076792550286	-1.282752	-0.100746155	-0.96270347
340076800851067	-0.9716048	-0.0139398575	-1.5964134
340076809151849	-0.6531527	0.43952084	-2.0319245
340076817452630	-0.33552837	1.1964321	-2.287754
340076825753411	-0.05239129	2.024869	-2.5051427
340076834054192	-0.36326838	2.4361916	-2.4884994
340076842354974	-1.3709893	2.5986967	-1.9890606
340076850655755	-2.625588	2.5510206	-1.4698672
340076858956536	-3.8139942	2.3697634	-1.2494032
340076867257317	-4.681165	2.1731586	-1.4352627
340076875558099	-4.691312	2.1835728	-1.4525235
340076883858880	-4.331934	2.4497623	-2.3795378
340076892159661	-3.3085659	2.6214962	-2.7355006
340076900460442	-2.3176453	2.6411943	-2.7717278
340076908761224	-1.6472964	2.6618147	-1.9349449
340076917062005	-1.3330405	2.8619757	0.027193546
340076925362786	-1.2283878	3.3556604	2.9048789
340076933663567	-2.0465205	4.4352283	4.28885
340076941964349	-2.8835275	4.304944	4.247901
340076950265130	-3.6390781	2.653327	4.5075827
340076958565911	-3.596508	0.54949	4.804451
340076966866692	-2.4202347	-0.4672289	4.4948735
340076975167474	-0.85364866	0.9938917	3.7711523
340076983468255	0.7168236	3.55132	3.0906844
340076991769036	2.1025102	5.0713005	2.3819516
340077000069817	3.4802701	5.8366146	2.331841
340077008370599	5.139737	6.4452715	2.7035704
340077016671380	5.2154326	6.3676815	2.9303427
340077024972161	8.524525	7.0667896	1.7052215
340077033272942	7.1808753	6.237321	0.0025027394
340077041573724	5.152957	4.985282	-1.5703448
340077049874505	3.2912505	3.6768017	-2.7498446
340077058175286	3.3194907	3.6541176	-2.4694521
340077066476067	0.06857252	1.8106995	-4.3677297
340077074776849	-1.6476295	1.1493835	-4.262297
340077083077630	-2.4863272	0.19198418	-3.1641393
340077091378411	-2.5022085	0.22118473	-2.9175282
340077099679192	-3.0995452	-0.8203745	-1.5308
340077107979974	-3.214202	-1.7602005	-0.29308355
340077116280755	-3.029077	-2.3757944	0.73410046
340077124581536	-2.897322	-2.551526	1.7367182
340077132882317	-2.8334756	-2.3777094	2.922327
340077141183099	-2.6920533	-2.0620203	3.724962
340077149483880	-2.6631587	-1.8426046	4.118345
340077157784661	-2.6769454	-1.7256184	4.4606276
340077166085442	-2.5864153	-1.7660713	5.2261724
340077174386224	-2.6125214	-1.7082834	5.3556633
340077182687005	-1.9679458	-2.7367773	7.0345845
340077190987786	-1.0723162	-3.4413881	6.7585096
340077199288567	-0.43598986	-4.063184	6.049312
340077207589349	0.1929667	-4.5763083	4.57045
340077215890130	0.7204366	-4.9388704	2.335016
340077224190911	0.65563965	-4.8391685	2.4844873
340077232491692	0.6683316	-5.338661	-2.1426575
340077240792474	0.7642486	-5.2959576	-3.325841
340077249093255	0.47587657	-4.880571	-2.1068335
340077257394036	0.22852135	-4.3240533	-0.3189106
340077265694817	0.09224415	-3.8090696	0.9500513
340077273995599	-0.10309672	-3.4519744	1.4862647
340077282296380	-0.31500196	-3.293439	1.7034411
340077290597161	-0.3658843	-3.3432398	1.661119
340077298897942	-0.22920895	-3.6152678	1.2665446
340077307198724	-0.09090853	-3.8571997	0.52074933
340077315499505	-0.047700167	-3.9067497	-0.38586235
340077323800286	-0.03413415	-3.9380898	-0.45383525
340077332101067	-0.21912718	-3.337679	-1.5878832
340077340401849	-0.40088177	-2.8369918	-1.8908529
340077348702630	-0.6971371	-2.0299072	-2.424046
340077357003411	-0.96561074	-0.8701334	-2.8277667
340077365304192	-0.9072652	-0.93719864	-2.931939
340077373604974	-1.1116629	0.69905186	-2.8737502
340077381905755	-1.1957698	5.7010765	-2.6101625
340077390206536	-0.9414425	7.307847	-6.222825
340077398507317	-0.6929908	7.4856234	-7.7745886
340077406808099	0.24299788	6.706419	-7.941183
340077415108880	0.245893	6.69226	-7.921687
340077423409661	1.9375687	3.6216297	-7.3318877
340077431710442	1.4315498	1.8464622	-6.127453
340077440011224	0.4873278	0.44734	-4.816799
340077448312005	0.3176279	0.12669277	-3.5126674
340077456612786	0.9440539	1.4007244	-2.1244285
340077464913567	0.9512408	1.4229012	-2.0468717
340077473214349	3.3411531	7.7808485	-1.0930781
340077481515130	4.0037484	9.524236	-1.8040626
340077489815911	4.7319794	7.592225	-0.4267764
340077498116692	5.206438	3.6149445	3.102514
340077506417474	3.6131651	-0.14711666	5.245445
340077514718255	0.82462	-2.5697365	5.1295257
340077523019036	0.7961724	-2.5588484	5.1086426
340077531319817	-0.24746227	-4.371952	4.3959284
340077539620599	-0.6922972	-4.3771067	3.953807
340077547921380	-2.153174	-3.455	3.31761
340077556222161	-4.0080175	-1.6853123	1.9503198
340077564522942	-4.0655956	-1.6899652	1.8630006
340077572823724	-5.344652	0.3301525	0.18167591
340077581124505	-4.0129414	1.9778242	2.5756302
340077589425286	-2.5536478	2.020605	5.3682475
340077597726067	-1.2310445	1.9145098	7.277327
340077606026849	-1.2112284	1.8380194	7.0686283
340077614327630	-0.04123807	1.5721731	7.4561543
340077622628411	1.9798801	0.36973572	4.2601385
340077630929192	2.0634532	-0.1303196	1.2461205
340077639229974	1.5012281	-0.63648987	-0.7618617
340077647530755	0.7117548	-1.1370401	-1.4347621
340077655831536	0.14899468	-1.6088066	-1.2508113
340077664132317	-0.1413219	-1.9739494	-0.7314706
340077672433099	-0.69674754	-2.1369066	-0.2492497
340077680733880	-1.3505511	-2.3225613	0.06929028
340077689034661	-2.0334463	-2.4864264	0.18459487
340077697335442	-2.3922124	-2.5227919	0.48246032
340077705636224	-2.458143	-2.4711666	1.0171596
340077713937005	-2.4230669	-2.3222914	1.7103128
340077722237786	-2.3970807	-2.3327217	1.562319
340077730538567	-2.6037152	-1.3661499	2.742332
340077738839349	-2.6651976	-0.7864046	2.5701773
340077747140130	-2.7500913	-0.44474792	2.1513307
340077755440911	-2.7760658	-0.3967018	1.6249325
340077763741692	-2.7904377	-0.38645744	1.5009592
340077772042474	-2.7193968	-0.5159445	0.86872697
340077780343255	-2.3314843	-0.39632607	-0.8260788
340077788644036	-2.141364	-0.15727901	-1.6236179
340077796944817	-1.8498485	0.08001709	-2.2353554
340077805245599	-1.438024	0.18743515	-2.5781627
340077813546380	-1.4371765	0.2007904	-2.7001407
340077821847161	-1.0346048	0.22129059	-2.3225598
340077830147942	-1.1124241	0.011621475	-1.6930609
340077838448724	-1.1091428	0.032280922	-1.8316734
340077846749505	-1.3207195	-0.23796463	-1.0625437
340077855050286	-1.6573594	-0.36340904	-0.3753544
340077863351067	-1.9029222	-0.32283497	0.07709515
340077871651849	-1.5572076	0.04663849	-0.11944687
340077879952630	-1.5678575	0.07374096	-0.21919334
340077888253411	-1.051645	0.31715012	-1.1650646
340077896554192	-0.50741935	0.5507574	-1.6936762
340077904854974	-0.1950612	0.81709576	-1.7453666
340077913155755	-0.13130093	1.1359339	-1.5603518
340077921456536	-0.3989234	1.5626888	-1.2621486
340077929757317	-0.43505454	1.5917416	-1.325058
340077938058099	-0.81919765	1.5825682	-1.6246643
340077946358880	-1.3832614	1.6430397	-1.8161497
340077954659661	-2.227377	1.7962456	-1.6309173
340077962960442	-3.1162448	2.0065145	-1.2875934
340077971261224	-3.6574922	2.2347984	-1.1982503
340077979562005	-3.5305195	2.5201845	-1.6085122
340077987862786	-2.4588418	2.7985992	-2.1408107
340077996163567	-1.3683705	3.0238028	-2.4902914
340078004464349	-0.5523062	3.3499527	-2.034503
340078012765130	-0.26047063	3.9002943	-0.3780098
340078021065911	-1.194222	6.2265425	3.2136467
340078029366692	-1.1788156	6.2062416	3.213926
340078037667474	-1.9387178	6.297106	3.36006
340078045968255	-3.2188094	4.439954	4.0046244
340078054269036	-3.799725	2.5524092	4.266755
340078062569817	-3.3451066	1.5384464	4.013302
340078070870599	-2.3634584	1.3209906	3.5841665
340078079171380	-1.4710925	1.799057	2.8120475
340078087472161	-0.35392356	2.6790514	2.5177817
340078095772942	0.8167913	3.3307428	2.7270331
340078104073724	2.6935804	3.7536678	3.2197924
340078112374505	5.064109	3.897894	3.3794498
340078120675286	5.101901	3.8397474	3.584002
340078128976067	5.952489	3.7891865	1.3889967
340078137276849	4.835597	3.73952	0.2728017
340078145577630	3.847497	3.1055832	-0.833104
340078153878411	2.6540167	2.260334	-1.8953462
340078162179192	1.1371636	1.3834524	-2.8602676
340078170479974	1.1299071	1.3825216	-2.5797825
340078178780755	-1.947619	-0.22040844	-3.6485832
340078187081536	-3.0015633	-0.5261879	-2.5392594
340078195382317	-3.4704192	-0.84609413	-1.3150642
340078203683099	-3.5555484	-1.1948252	-0.19994569
340078211983880	-3.5336306	-1.5431662	0.8020177
340078220284661	-3.5799487	-1.8371582	1.8212508
340078228585442	-3.3698132	-1.9477701	2.8513985
340078236886224	-2.8599267	-2.1581173	3.4451218
340078245187005	-2.43356	-2.3492088	3.8170013
340078253487786	-2.0506835	-2.5022717	4.145416
340078261788567	-1.4895432	-2.57973	4.4346848
340078270089349	-0.5248976	-2.5497704	4.5587134
340078278390130	0.45850253	-2.620041	4.5352774
340078286690911	1.5613327	-2.7741957	3.449053
340078294991692	2.1080496	-2.997733	2.3915784
340078303292474	1.8391924	-3.2267141	1.1774693
340078311593255	1.8108723	-3.1469193	1.334501
340078319894036	1.1064763	-3.4392815	-0.031475306
340078328194817	0.6075325	-4.3963985	-1.4181883
340078336495599	0.59319043	-4.4725385	-0.77479744
340078344796380	0.39974117	-4.3705387	0.17843103
340078353097161	0.05181122	-4.182798	0.9435439
340078361397942	-0.3174131	-3.952242	1.2787733
340078369698724	-0.32628417	-3.9311934	1.2936206
340078377999505	-0.84051895	-3.4768186	1.1377022
340078386300286	-0.9942167	-3.4234862	0.8189988
340078394601067	-0.9333694	-3.4430695	0.39100385
340078402901849	-0.84695506	-3.495802	0.04360771
340078411202630	-0.78899574	-3.511815	-0.2424624
340078419503411	-0.63499	-3.3887281	-0.73591495
340078427804192	-0.9523699	-3.0088243	-1.2032318
340078436104974	-0.73386455	-2.4241462	-1.9060206
340078444405755	-0.7178273	-1.3666983	-2.7026267
340078452706536	-0.9665644	0.15394974	-3.430032
340078461007317	-1.365313	2.0483122	-4.0048304
340078469308099	-1.3322148	1.9886408	-4.102415
340078477608880	-1.8413644	5.421008	-5.887065
340078485909661	-1.477016	5.473463	-6.129659
340078494210442	-0.78978133	5.234478	-5.8438544
340078502511224	0.4295721	4.901017	-5.574251
340078510812005	0.40632796	4.890684	-5.5847273
340078519112786	1.8129013	4.3712454	-5.49261
340078527413567	1.8635161	2.003687	-4.6326323
340078535714349	1.5781901	1.7074804	-3.5977597
340078544015130	1.5461667	2.1847162	-2.5765126
340078552315911	1.9936643	3.7125645	-1.643631
340078560616692	3.3233974	6.1346903	-1.0917339
340078568917474	3.341004	6.139394	-1.0214496
340078577218255	6.0715137	7.136839	-1.150861
340078585519036	5.4547997	3.6465063	0.68483424
340078593819817	4.051921	-0.15330696	1.8689113
340078602120599	4.0245843	-0.106206894	1.954015
340078610421380	0.8866296	-4.2298985	2.6892188
340078618722161	0.84626174	-4.1967115	2.7033188
340078627022942	-1.4195704	-4.1593122	4.6078997
340078635323724	-1.4539063	-4.1559687	4.553487
340078643624505	-2.1892333	-2.951355	4.738326
340078651925286	-3.4731054	-0.94820213	3.7349267
340078660226067	-5.0316796	0.9980688	2.1236904
340078668526849	-6.1287503	2.0313215	0.8288276
340078676827630	-5.8285713	1.7361231	0.98690796
340078685128411	-4.5318522	1.0952492	2.937285
340078693429192	-3.3032496	0.74276924	4.9434366
340078701729974	-1.9011347	0.60030556	6.031953
340078710030755	-0.39132333	0.5168314	5.8811913
340078718331536	0.94096184	0.38105106	4.5987415
340078726632317	1.7061598	-0.16835213	1.1963074
340078734933099	1.7190874	-0.2139864	1.0260826
340078743233880	1.3303742	-0.7594633	-0.07171857
340078751534661	0.7729981	-1.3116684	-0.4368707
340078759835442	0.24329162	-1.8087568	-0.33003128
340078768136224	-0.20099688	-2.1891356	-0.087293744
340078776437005	-1.3409765	-2.4196482	0.6262468
340078784737786	-1.3021045	-2.4482899	0.46234262
340078793038567	-1.8717325	-2.2503643	0.65937734
340078801339349	-2.148094	-2.0475073	0.81617564
340078809640130	-2.3208237	-1.8284016	1.0271488
340078817940911	-2.6794121	-1.0337458	2.0775232
340078826241692	-2.6634598	-1.040204	1.9445062
340078834542474	-2.698616	-0.7641001	2.2314892
340078842843255	-2.8470888	-0.6127682	2.1495817
340078851144036	-2.9370818	-0.65706635	1.8101662
340078859444817	-3.0277185	-0.7321949	1.2221723
340078867745599	-3.140906	-0.67329025	0.42367437
340078876046380	-2.8500402	-0.6014509	-0.20174679
340078884347161	-2.3997326	-0.5939436	-0.7127191
340078892647942	-2.2053103	-0.29926872	-1.2780343
340078900948724	-1.7831292	0.0057439804	-1.7199061
340078909249505	-1.2386262	0.27008247	-1.9888468
340078917550286	-0.8631339	0.46063328	-2.0219839
340078925851067	-0.5584438	0.2010374	-1.512353
340078934151849	-0.6884279	-0.079904556	-0.6190195
340078942452630	-0.93885016	-0.25699043	0.14147758
340078950753411	-1.1646407	-0.30542183	0.49906492
340078959054192	-1.2843385	-0.25284004	0.43803442
340078967354974	-1.2711141	-0.14997959	0.07750106
340078975655755	-1.1666036	0.015328407	-0.6382885
340078983956536	-0.8865013	0.35615063	-1.6398993
340078992257317	-0.6854451	0.9839115	-2.5236948
340079000558099	-0.53681254	1.7322206	-2.9609396
340079008858880	-0.4883883	2.4286594	-2.9092135
340079017159661	-0.6532879	2.9226637	-2.4905791
340079025460442	-1.1211298	3.0182104	-1.9275689
340079033761224	-1.8197289	2.7194643	-1.4757969
340079042062005	-2.5841193	2.4366875	-1.3396354
340079050362786	-3.3635013	2.2560272	-1.1731632
340079058663567	-4.0182037	2.1879807	-0.96481276
340079066964349	-4.0424886	2.2069187	-0.9936485
340079075265130	-4.0369596	2.541358	-1.5614202
340079083565911	-2.9917266	2.9249964	-2.297945
340079091866692	-1.7411542	3.0176	-2.8112864
340079100167474	-0.7564597	2.964714	-2.9428084
340079108468255	-0.26346898	2.890277	-2.259955
340079116769036	-0.24354625	2.898137	-0.3338256
340079125069817	-0.7219248	3.2442179	2.3258111
340079133370599	-1.7298584	3.7083616	3.4069974
340079141671380	-3.1846783	3.4181442	4.043513
340079149972161	-4.5632973	2.2678652	4.655209
340079158272942	-5.335545	0.67870235	5.1986704
340079166573724	-5.0642967	-0.5370827	5.210572
340079174874505	-3.1142588	-0.20071793	3.6940036
340079183175286	-1.5825307	2.1402855	2.8907938
340079191476067	0.11173868	4.3816395	2.522359
340079199776849	1.9257872	5.86209	2.365939
340079208077630	3.962887	6.7013063	2.561676
340079216378411	6.4344893	7.2516813	3.2808902
340079224679192	8.894312	6.3889627	2.6360617
340079232979974	7.5391626	5.3528643	0.835762
340079241280755	5.353051	4.191717	-1.2659752
340079249581536	3.5501106	2.9751291	-2.9831877
340079257882317	2.1813192	1.8758287	-4.172444
340079266183099	2.1905782	1.8695898	-3.8980646
340079274483880	-0.8796768	0.51179314	-4.636768
340079282784661	-1.9259558	-0.15713787	-3.2072062
340079291085442	-2.8163488	-0.87639236	-1.6586363
340079299386224	-2.848134	-0.8393669	-1.446305
340079307687005	-3.2420385	-1.6132889	-0.13824666
340079315987786	-2.963845	-2.543085	1.4006026
340079324288567	-2.8718834	-2.3835506	2.531958
340079332589349	-2.9123945	-1.8771849	3.434311
340079340890130	-2.77812	-1.3585777	3.8444548
340079349190911	-2.532861	-1.0668697	4.3852634
340079357491692	-2.557462	-1.0180273	4.5174522
340079365792474	-2.3035324	-1.084754	5.513006
340079374093255	-1.5764318	-1.9948721	6.5085287
340079382394036	-1.6078744	-1.9428902	6.6122046
340079390694817	-1.244442	-2.3515034	6.2611375
340079398995599	-0.6431391	-2.9209042	5.5989532
340079407296380	0.018902779	-3.5564241	4.595935
340079415597161	0.552413	-4.200962	3.1807404
340079423897942	0.9474015	-4.948431	1.1973565
340079432198724	1.1247439	-5.337384	-1.3232577
340079440499505	0.9100156	-5.5166306	-2.950382
340079448800286	0.6671262	-5.4249654	-2.9863186
340079457101067	0.494092	-5.011774	-1.8171206
340079465401849	0.3823905	-4.373836	-0.16211367
340079473702630	0.270005	-3.8823867	0.99756765
340079482003411	-0.47533178	-3.308538	1.5986967
340079490304192	-0.47682953	-3.3135343	1.5695422
340079498604974	-0.8006036	-3.234672	1.2335825
340079506905755	-1.0686326	-3.2294707	0.73825574
340079515206536	-1.3019369	-3.228056	0.17849612
340079523507317	-1.6483157	-2.8036976	-1.2570891
340079531808099	-1.5034819	-2.318493	-2.0069695
340079540108880	-1.4684923	-2.3672886	-2.094362
340079548409661	-1.273196	-1.7838717	-2.9181538
340079556710442	-1.0502203	-1.0394936	-3.4930165
340079565011224	-0.89585733	-0.0058870316	-3.691914
340079573312005	-1.5619676	3.9953957	-4.0718794
340079581612786	-1.4991784	3.9258795	-4.1708326
340079589913567	-2.1668653	6.3112288	-5.550452
340079598214349	-1.5710971	7.536046	-6.45539
340079606515130	0.012345314	7.6986113	-6.711937
340079614815911	1.9297731	5.646043	-6.9480844
340079623116692	1.9160306	5.644596	-6.9126806
340079631417474	1.4243679	2.6905813	-5.893979
340079639718255	0.49221826	0.15406895	-5.0403523
340079648019036	0.01975131	-1.4522305	-4.8262434
340079656319817	0.07137275	-1.5277767	-4.718933
340079664620599	0.09685969	-1.4996233	-4.621094
340079672921380	1.7575831	4.110077	-2.0463316
340079681222161	2.598794	7.01857	0.7645867
340079689522942	5.068836	8.169618	2.115975
340079697823724	8.161867	7.6149406	6.2621326
340079706124505	8.1326275	5.8847227	9.559334
340079714425286	8.109703	5.8667765	9.521918
340079722726067	0.7421608	-0.50680256	1.043113
340079731026849	1.1743293	-3.20333	1.7227907
340079739327630	1.1165423	-4.585783	3.0456595
340079747628411	-0.029861212	-4.9168177	3.9991798
340079755929192	-0.105136156	-4.8982077	3.9446745
340079764229974	-1.9452405	-4.397605	3.6482143
340079772530755	-4.6875677	-1.7461481	-0.25444412
340079780831536	-4.612859	-0.23809147	1.2272754
340079789132317	-3.7410324	1.0346289	4.40833
340079797433099	-2.4643288	2.013114	7.231832
340079805733880	-2.4388585	1.9375935	7.025811
340079814034661	-1.008559	2.5737429	8.138485
340079822335442	1.0071208	2.231718	4.9682484
340079830636224	1.2210784	1.192215	1.9700961
340079838937005	0.9050579	0.0388937	-0.18422043
