gyroscope_timestamp	gyroscope_x_data	gyroscope_y_data	gyroscope_z_data
340059065080425	0.12661743	-4.4250488E-4	0.0040130615
340059074449321	0.124176025	0.010559082	-0.0045318604
340059078721782	0.11805725	0.0056610107	-0.009414673
340059084398052	0.10707092	0.0032196045	-0.0155181885
340059088792583	0.09120178	0.0032196045	-0.021636963
340059095048686	0.07531738	0.0044403076	-0.026519775
340059098863384	0.060638428	0.0044403076	-0.031402588
340059104661724	0.0496521	0.0019989014	-0.037521362
340059109300395	0.039871216	-0.001663208	-0.042404175
340059114640972	0.031326294	-0.0041046143	-0.046051025
340059117296001	0.031326294	-0.0065460205	-0.046051025
340059124711772	0.025222778	-0.0065460205	-0.047286987
340059129075786	0.025222778	-0.009002686	-0.047286987
340059134935161	0.026443481	-0.009002686	-0.047286987
340059139146587	0.027664185	-0.009002686	-0.04484558
340059144944927	0.028884888	-0.009002686	-0.03996277
340059149247905	0.03010559	-0.01020813	-0.033843994
340059155046245	0.028884888	-0.013885498	-0.030166626
340059159776470	0.021560669	-0.021209717	-0.02772522
340059165483257	0.0068969727	-0.029769897	-0.02772522
340059175370952	-0.019973755	-0.045639038	-0.026519775
340059179399272	-0.027313232	-0.051757813	-0.030166626
340059185502788	-0.030975342	-0.05419922	-0.037521362
340059189531108	-0.029769897	-0.05053711	-0.046051025
340059195237895	-0.024871826	-0.04197693	-0.053390503
340059199571391	-0.015090942	-0.032211304	-0.058288574
340059205949565	-0.001663208	-0.023651123	-0.061935425
340059209916850	0.013000488	-0.016326904	-0.06561279
340059216111919	0.026443481	-0.012664795	-0.0692749
340059225938579	0.043548584	-0.012664795	-0.07171631
340059229783794	0.043548584	-0.027313232	-0.06561279
340059235612651	0.03742981	-0.037094116	-0.058288574
340059239854595	0.031326294	-0.04319763	-0.0521698
340059246751567	0.027664185	-0.046875	-0.04850769
340059249894878	0.027664185	-0.05053711	-0.046051025
340059256364604	0.020324707	-0.05419922	-0.041168213
340059260209819	0.020324707	-0.056640625	-0.041168213
340059265855571	0.014221191	-0.056640625	-0.03262329
340059268358013	0.014221191	-0.05908203	-0.03262329
340059276201030	0.009338379	-0.05908203	-0.030166626
340059280137798	0.009338379	-0.048080444	-0.030166626
340059286668559	0.0044403076	-0.048080444	-0.026519775
340059290208599	0.0044403076	-0.032211304	-0.026519775
340059296251079	0.0019989014	-0.032211304	-0.025283813
340059300279399	-0.001663208	-0.029769897	-0.025283813
340059306199809	-0.001663208	-0.028549194	-0.025283813
340059310777446	7.9345703E-4	-0.024871826	-0.026519775
340059316758891	0.0032348633	-0.019989014	-0.030166626
340059326768657	0.008117676	-0.02243042	-0.033843994
340059330491802	0.009338379	-0.027313232	-0.03262329
340059337053081	0.010559082	-0.033432007	-0.030166626
340059340593120	0.013000488	-0.039535522	-0.026519775
340059346513530	0.011779785	-0.04319763	-0.025283813
340059350633403	0.0068969727	-0.04319763	-0.026519775
340059356858989	7.9345703E-4	-0.037094116	-0.028961182
340059360948345	-0.0028839111	-0.024871826	-0.031402588
340059367296001	-0.0053253174	-0.012664795	-0.03262329
340059377214214	-0.0077667236	-0.0041046143	-0.041168213
340059380845806	-0.01020813	-4.4250488E-4	-0.047286987
340059387223979	-0.012649536	-0.0041046143	-0.053390503
340059390916606	-0.015090942	-0.011444092	-0.058288574
340059396928569	-0.017532349	-0.01876831	-0.06072998
340059401017925	-0.017532349	-0.021209717	-0.06072998
340059407609722	-0.016326904	-0.021209717	-0.06072998
340059411332866	-0.016326904	-0.016326904	-0.06072998
340059416093608	-0.011444092	-0.016326904	-0.058288574
340059419481059	-0.0053253174	-0.009002686	-0.054611206
340059426194927	0.0019989014	-4.4250488E-4	-0.0521698
340059431199809	0.010559082	0.00932312	-0.049728394
340059436265727	0.019104004	0.016662598	-0.046051025
340059441270610	0.025222778	0.020324707	-0.041168213
340059446733257	0.021560669	0.019104004	-0.0362854
340059451341411	0.010559082	0.014221191	-0.031402588
340059456376811	-0.0028839111	0.0056610107	-0.030166626
340059461808940	-0.016326904	-0.0065460205	-0.02772522
340059466447612	-0.028533936	-0.019989014	-0.02407837
340059469774028	-0.037094116	-0.027313232	-0.017959595
340059476548931	-0.040740967	-0.029769897	-0.010650635
340059481614849	-0.037094116	-0.027313232	-0.0057678223
340059486589214	-0.028533936	-0.01876831	-8.8500977E-4
340059491624614	-0.017532349	-0.009002686	0.0027923584
340059497087261	-0.0065460205	-4.4250488E-4	0.0064697266
340059501695415	0.0019989014	0.0032196045	0.008911133
340059508134624	0.0056762695	0.0032196045	0.011352539
340059512193462	0.0068969727	-4.4250488E-4	0.013793945
340059516862651	0.009338379	-0.0028839111	0.01499939
340059520158550	0.009338379	-0.0028839111	0.01499939
340059526872417	0.027664185	-0.0028839111	0.007675171
340059531907817	0.043548584	0.00932312	3.5095215E-4
340059536943218	0.054534912	0.020324707	-0.0045318604
340059541978618	0.054534912	0.026443481	-0.0045318604
340059547288677	0.05697632	0.026443481	-8.8500977E-4
340059552049419	0.052093506	0.0154418945	-8.8500977E-4
340059558580181	0.032546997	0.0154418945	0.013793945
340059562394878	0.032546997	-0.0065460205	0.013793945
340059567186138	0.024002075	-0.0065460205	0.016235352
340059570512554	0.016662598	-0.013885498	0.017440796
340059577226421	0.0068969727	-0.019989014	0.021118164
340059582261821	-0.0028839111	-0.02243042	0.027236938
340059587297222	-0.015090942	-0.02243042	0.033325195
340059592332622	-0.028533936	-0.02243042	0.0357666
340059597764751	-0.040740967	-0.021209717	0.030883789
340059602403423	-0.052978516	-0.017547607	0.022338867
340059607438823	-0.063964844	-0.01020813	0.012557983
340059612779399	-0.07373047	-0.001663208	0.0015563965
340059617509624	-0.07861328	0.008117676	-0.009414673
340059621660015	-0.07737732	0.0178833	-0.020401001
340059627763530	-0.06517029	0.030090332	-0.031402588
340059632676860	-0.04685974	0.04232788	-0.037521362
340059637681743	-0.02609253	0.0496521	-0.037521362
340059642717143	-0.01020813	0.048416138	-0.03262329
340059648179790	0.0032348633	0.03742981	-0.02407837
340059652726909	0.0154418945	0.02154541	-0.017959595
340059657792827	0.034988403	0.010559082	-0.01675415
340059663194438	0.064315796	0.013000488	-0.019195557
340059667924663	0.10217285	0.03253174	-0.022842407
340059671220561	0.10217285	0.059417725	-0.022842407
340059678025981	0.16815186	0.059417725	-0.033843994
340059683000347	0.17547607	0.07772827	-0.038726807
340059688005229	0.17547607	0.06185913	-0.038726807
340059693040630	0.16082764	0.06185913	-0.037521362
340059698503276	0.12905884	0.036209106	-0.022842407
340059703111431	0.08508301	0.006881714	0.0040130615
340059708146831	0.036209106	-0.024871826	0.03211975
340059713578960	-0.01020813	-0.05419922	0.04800415
340059718217632	-0.05053711	-0.07130432	0.049209595
340059721605083	-0.08105469	-0.06764221	0.038223267
340059728288432	-0.09815979	-0.04197693	0.026000977
340059733323833	-0.09938049	-0.0028839111	0.018676758
340059738359233	-0.088378906	0.031326294	0.019897461
340059743394634	-0.068847656	0.050857544	0.028442383
340059749070903	-0.039535522	0.05329895	0.03944397
340059753465434	-0.0053253174	0.047210693	0.050445557
340059758531352	0.03010559	0.036209106	0.05899048
340059763749858	0.05819702	0.024002075	0.0663147
340059768571636	0.07652283	0.014221191	0.07121277
340059771959087	0.08140564	0.006881714	0.07609558
340059778642436	0.060638428	0.0032196045	0.0821991
340059783708354	0.0068969727	-0.0053253174	0.08708191
340059788713237	-0.07373047	-0.024871826	0.0846405
340059793748638	-0.1531372	-0.045639038	0.07121277
340059799211284	-0.19589233	-0.04197693	0.050445557
340059803819438	-0.19100952	0.0032196045	0.027236938
340059808854839	-0.15435791	0.071624756	0.0064697266
340059814164897	-0.107940674	0.13026428	-0.010650635
340059818925640	-0.063964844	0.1510315	-0.022842407
340059822282573	-0.063964844	0.13638306	-0.022842407
340059829026958	-0.027313232	0.13638306	-0.033843994
340059834092876	0.0032348633	0.0655365	-0.033843994
340059839097759	0.027664185	0.0655365	-0.03262329
340059844102641	0.050872803	0.039871216	-0.02772522
340059849962016	0.09240723	0.02520752	-0.019195557
340059854173442	0.09240723	0.020324707	-0.019195557
340059859208843	0.108291626	0.020324707	-0.01675415
340059864640972	0.11805725	0.027648926	-0.014297485
340059869279643	0.11805725	0.034988403	-0.009414673
340059872606059	0.10952759	0.038650513	3.5095215E-4
340059879380962	0.09729004	0.036209106	0.01499939
340059884385845	0.08630371	0.03253174	0.028442383
340059889421245	0.07896423	0.031326294	0.037002563
340059894487163	0.06919861	0.03253174	0.040664673
340059899766704	0.052093506	0.0337677	0.04310608
340059904527446	0.024002075	0.028884888	0.04676819
340059909562847	-0.015090942	0.0154418945	0.050445557
340059914994975	-0.06272888	-0.0028839111	0.051651
340059922471782	-0.11404419	-0.02243042	0.051651
340059929704448	-0.2007904	-0.027313232	0.044326782
340059934861919	-0.22520447	-0.013885498	0.0357666
340059939866802	-0.23620605	-0.001663208	0.022338867
340059944841167	-0.23988342	0.0032196045	0.0040130615
340059950547954	-0.23500061	0.0032196045	-0.0155181885
340059954881450	-0.22276306	0.0044403076	-0.033843994
340059959916850	-0.2007904	0.010559082	-0.047286987
340059965196391	-0.17512512	0.019104004	-0.055847168
340059970018169	-0.1482544	0.026443481	-0.06072998
340059973344585	-0.1482544	0.0337677	-0.06072998
340059980058452	-0.12503052	0.0337677	-0.06317139
340059985124370	-0.10305786	0.04597473	-0.06437683
340059990129253	-0.08105469	0.06309509	-0.06072998
340059995164653	-0.06272888	0.07652283	-0.055847168
340060000627300	-0.051742554	0.08016968	-0.04850769
340060005235454	-0.048095703	0.071624756	-0.03996277
340060010270854	-0.05418396	0.055755615	-0.031402588
340060015733501	-0.06640625	0.039871216	-0.025283813
340060020341655	-0.079833984	0.026443481	-0.020401001
340060023698589	-0.09082031	0.0178833	-0.0155181885
340060030412456	-0.09693909	0.014221191	-0.011856079
340060035447856	-0.1006012	0.016662598	-0.013092041
340060040483257	-0.107940674	0.02154541	-0.019195557
340060045549175	-0.116485596	0.028884888	-0.02772522
340060051072856	-0.12382507	0.0337677	-0.0362854
340060055619975	-0.12870789	0.034988403	-0.042404175
340060060624858	-0.12992859	0.03253174	-0.047286987
340060066118022	-0.12992859	0.027648926	-0.049728394
340060070695659	-0.12747192	0.02154541	-0.053390503
340060074083110	-0.12747192	0.0154418945	-0.053390503
340060080766460	-0.11404419	0.0154418945	-0.06072998
340060085801860	-0.10549927	0.0056610107	-0.061935425
340060090806743	-0.09693909	7.7819824E-4	-0.061935425
340060095903179	-0.09082031	-4.4250488E-4	-0.061935425
340060101121684	-0.088378906	-4.4250488E-4	-0.06072998
340060105943462	-0.092056274	0.0032196045	-0.058288574
340060111009380	-0.095718384	0.00932312	-0.050949097
340060116288921	-0.09082031	0.0178833	-0.0362854
340060121049663	-0.09082031	0.028884888	-0.0362854
340060124437114	-0.07128906	0.028884888	-0.013092041
340060131150981	-0.039535522	0.0496521	0.017440796
340060136155864	-0.0065460205	0.08140564	0.04676819
340060141191265	0.014221191	0.11315918	0.0663147
340060146257182	0.011779785	0.12782288	0.07243347
340060151689311	-0.016326904	0.11682129	0.06877136
340060156297466	-0.059066772	0.09239197	0.06265259
340060161302349	-0.10549927	0.071624756	0.05899048
340060166612407	-0.14335632	0.06185913	0.06265259
340060171373149	-0.1678009	0.06185913	0.07609558
340060174791118	-0.17512512	0.06309509	0.09442139
340060181474468	-0.17024231	0.06430054	0.10908508
340060186509868	-0.15435791	0.060653687	0.11274719
340060191575786	-0.12747192	0.050857544	0.10418701
340060196611186	-0.092056274	0.036209106	0.089538574
340060202134868	-0.05418396	0.026443481	0.073654175
340060206681987	-0.019973755	0.02520752	0.06021118
340060211686870	0.0056762695	0.03253174	0.049209595
340060217180034	0.022766113	0.04232788	0.04310608
340060221757671	0.0337677	0.048416138	0.04310608
340060225084087	0.0337677	0.048416138	0.04310608
340060231858989	0.03010559	0.048416138	0.051651
340060236863872	0.019104004	0.039871216	0.05532837
340060241960307	0.0068969727	0.034988403	0.05899048
340060246965190	-0.0041046143	0.031326294	0.05899048
340060252824565	-0.008987427	0.030090332	0.056549072
340060257035991	-0.011444092	0.0337677	0.054107666
340060262071391	-0.011444092	0.038650513	0.051651
340060267564556	-0.015090942	0.04232788	0.04676819
340060272142192	-0.015090942	0.039871216	0.04676819
340060275499126	-0.019973755	0.039871216	0.03944397
340060282151958	-0.02609253	0.03253174	0.034561157
340060287217876	-0.033416748	0.022766113	0.03211975
340060292283794	-0.044418335	0.013000488	0.03211975
340060297288677	-0.05418396	0.0032196045	0.034561157
340060302629253	-0.06150818	-0.0028839111	0.037002563
340060307359477	-0.06640625	-0.0065460205	0.040664673
340060312394878	-0.0700531	-0.0065460205	0.044326782
340060317674419	-0.068847656	-0.0028839111	0.049209595
340060322465679	-0.06272888	0.0044403076	0.052886963
340060325853130	-0.04685974	0.011764526	0.05532837
340060332536479	-0.027313232	0.0178833	0.054107666
340060337571880	-0.0077667236	0.024002075	0.04800415
340060342576763	0.009338379	0.030090332	0.040664673
340060347642681	0.021560669	0.03253174	0.029678345
340060353013774	0.031326294	0.030090332	0.018676758
340060357713481	0.034988403	0.022766113	0.010116577
340060362718364	0.0337677	0.0154418945	0.0052337646
340060368058940	0.026443481	0.0044403076	0.0064697266
340060372819682	0.016662598	-0.009002686	0.010116577
340060376176616	0.016662598	-0.023651123	0.010116577
340060382921001	-0.001663208	-0.023651123	0.019897461
340060387956401	-0.01020813	-0.035873413	0.024780273
340060392961284	-0.017532349	-0.032211304	0.027236938
340060397996684	-0.02243042	-0.023651123	0.026000977
340060403428813	-0.024871826	-0.012664795	0.022338867
340060408098003	-0.024871826	-0.0041046143	0.018676758
340060413102886	-0.024871826	-0.0041046143	0.018676758
340060418535015	-0.024871826	-0.0028839111	0.007675171
340060423173686	-0.024871826	-0.0053253174	0.007675171
340060426622173	-0.023651123	-0.011444092	0.0027923584
340060433244487	-0.01876831	-0.017547607	3.5095215E-4
340060438279888	-0.011444092	-0.023651123	3.5095215E-4
340060443315288	-0.0041046143	-0.0309906	0.0027923584
340060448381206	0.0044403076	-0.03831482	0.0040130615
340060453630229	0.013000488	-0.044418335	0.0027923584
340060458421489	0.019104004	-0.045639038	3.5095215E-4
340060463487407	0.024002075	-0.04197693	-0.002090454
340060468736431	0.028884888	-0.037094116	-0.0045318604
340060473558208	0.03010559	-0.032211304	-0.0069732666
340060476915141	0.028884888	-0.029769897	-0.0069732666
340060483598491	0.026443481	-0.027313232	-0.0082092285
340060488633891	0.021560669	-0.02609253	-0.010650635
340060493669292	0.0154418945	-0.023651123	-0.014297485
340060498704692	0.010559082	-0.021209717	-0.017959595
340060504045268	0.0068969727	-0.021209717	-0.021636963
340060508806011	0.0044403076	-0.023651123	-0.02407837
340060513810893	-4.4250488E-4	-0.0309906	-0.026519775
340060519120952	-0.0053253174	-0.03831482	-0.026519775
340060523881694	-0.011444092	-0.045639038	-0.028961182
340060527269145	-0.011444092	-0.046875	-0.028961182
340060536454936	-0.019973755	-0.046875	-0.033843994
340060539018413	-0.019973755	-0.040756226	-0.0362854
340060544053813	-0.017532349	-0.033432007	-0.037521362
340060549089214	-0.016326904	-0.023651123	-0.037521362
340060554582378	-0.015090942	-0.016326904	-0.037521362
340060559160015	-0.015090942	-0.012664795	-0.037521362
340060564134380	-0.015090942	-0.012664795	-0.0362854
340060569658061	-0.015090942	-0.01020813	-0.03262329
340060574235698	-0.013885498	-0.009002686	-0.026519775
340060577592632	-0.012649536	-0.01020813	-0.020401001
340060584337016	-0.01020813	-0.011444092	-0.019195557
340060589341899	-0.0065460205	-0.016326904	-0.022842407
340060594377300	-4.4250488E-4	-0.021209717	-0.02772522
340060599412700	0.0068969727	-0.02243042	-0.031402588
340060604875347	0.011779785	-0.017547607	-0.031402588
340060609514018	0.011779785	-0.01020813	-0.030166626
340060614518901	0.011779785	-0.001663208	-0.025283813
340060619951030	0.011779785	0.0032196045	-0.020401001
340060624589702	0.013000488	0.0056610107	-0.01675415
340060628679057	0.011779785	0.010559082	-0.0155181885
340060634691020	0.008117676	0.019104004	-0.014297485
340060639695903	7.9345703E-4	0.028884888	-0.011856079
340060644761821	-0.0065460205	0.036209106	-0.0069732666
340060649766704	-0.011444092	0.038650513	-0.002090454
340060655076763	-0.01020813	0.039871216	0.0015563965
340060659806987	-0.0077667236	0.043533325	0.0064697266
340060664842388	-0.0041046143	0.05329895	0.011352539
340060670091411	0.0019989014	0.06918335	0.018676758
340060674974224	0.009338379	0.08628845	0.024780273
340060678331157	0.009338379	0.103378296	0.024780273
340060685045024	0.019104004	0.103378296	0.03944397
340060690049907	0.019104004	0.1546936	0.051651
340060695115825	0.019104004	0.19622803	0.06877136
340060700090190	0.016662598	0.24632263	0.06877136
340060705858013	0.0032348633	0.24632263	0.12741089
340060710191509	0.0032348633	0.34162903	0.12741089
340060715226909	-0.01020813	0.34162903	0.1665039
340060720475932	-0.028533936	0.38072205	0.21047974
340060725297710	-0.048095703	0.42469788	0.26545715
340060728624126	-0.06517029	0.48213196	0.33265686
340060735368511	-0.079833984	0.5578766	0.40596008
340060740403911	-0.08961487	0.64338684	0.4743805
340060745469829	-0.095718384	0.7191467	0.5317993
340060750474712	-0.095718384	0.77412415	0.57333374
340060755937358	-0.0859375	0.8070984	0.6014404
340060760545513	-0.06517029	0.830307	0.6209717
340060765580913	-0.039535522	0.8486328	0.62953186
340060770982524	-0.013885498	0.8632965	0.62831116
340060775651714	0.0068969727	0.8669586	0.61976624
340060778978130	0.022766113	0.857193	0.61120605
340060785722515	0.034988403	0.8376465	0.60998535
340060790727397	0.044769287	0.8144226	0.6148834
340060795793315	0.05331421	0.79000854	0.62709045
340060800828716	0.064315796	0.76312256	0.6417389
340060806260845	0.08140564	0.73257446	0.6551819
340060810899516	0.10462952	0.69348145	0.6625061
340060815965434	0.13517761	0.64582825	0.66374207
340060821244975	0.16815186	0.59817505	0.66130066
340060826005718	0.19992065	0.5554352	0.65885925
340060829362651	0.19992065	0.519989	0.65885925
340060836076518	0.24513245	0.519989	0.664978
340060841142436	0.24513245	0.4650116	0.6686249
340060846177837	0.25367737	0.4650116	0.6686249
340060851182720	0.25367737	0.4454651	0.67230225
340060856523296	0.24757385	0.4332428	0.67230225
340060861284038	0.24024963	0.42713928	0.67230225
340060866288921	0.23168945	0.4295807	0.6710663
340060871598979	0.22436523	0.4454651	0.6686249
340060876359722	0.21704102	0.47477722	0.66374207
340060879716655	0.20724487	0.5175476	0.65397644
340060886430522	0.19747925	0.5700836	0.6368561
340060891465923	0.18647766	0.62384033	0.60998535
340060896501323	0.18283081	0.66781616	0.57455444
340060901567241	0.19381714	0.6885834	0.53302
340060906968852	0.21824646	0.68003845	0.4902649
340060911607524	0.24269104	0.6531677	0.4426117
340060916642925	0.25489807	0.62994385	0.3815155
340060922105571	0.25857544	0.6372833	0.30088806
340060926744243	0.26712036	0.69470215	0.20315552
340060930070659	0.28666687	0.7802124	0.10418701
340060936815044	0.30743408	0.82666016	0.021118164
340060941819927	0.32087708	0.77168274	-0.037521362
340060946855327	0.33065796	0.6152954	-0.07293701
340060951890727	0.34898376	0.42713928	-0.09126282
340060957322856	0.37828064	0.27320862	-0.09738159
340060961961528	0.41249084	0.17669678	-0.09248352
340060966996929	0.4381714	0.12904358	-0.074157715
340060972398540	0.447937	0.11805725	-0.03996277
340060977098247	0.43693542	0.14126587	0.01499939
340060980455181	0.43693542	0.19868469	0.01499939
340060987169048	0.40272522	0.19868469	0.09320068
340060992143413	0.3440857	0.29029846	0.19094849
340060997209331	0.25611877	0.41615295	0.29844666
340061002214214	0.14006042	0.5762024	0.3949585
340061007493755	7.9345703E-4	0.7667694	0.46705627
340061012315532	-0.1482544	0.9769287	0.50979614
340061017350932	-0.29118347	1.1907196	0.52812195
340061022630474	-0.40237427	1.3837585	0.5159149
340061027452251	-0.4634552	1.5352631	0.46826172
340061030778667	-0.468338	1.6390991	0.3839569
340061037492534	-0.42436218	1.7014008	0.27523804
340061042527934	-0.3461609	1.7295074	0.1506195
340061047593852	-0.24597168	1.7307129	0.02355957
340061052568218	-0.13114929	1.7123871	-0.09738159
340061057908794	-0.0053253174	1.7062988	-0.20243835
340061062669536	0.124176025	1.753952	-0.27697754
340061067674419	0.24269104	1.8748932	-0.30995178
340061072953960	0.33554077	2.0520325	-0.29774475
340061077745220	0.4064026	2.2658386	-0.22564697
340061081132671	0.4064026	2.517517	-0.06437683
340061087877056	0.6238556	2.517517	0.2141571
340061092881938	0.83399963	2.9487915	0.59043884
340061097886821	1.0954437	2.9707642	0.98506165
340061102952739	1.3593445	2.866928	1.3137054
340061108384868	1.5743561	2.744751	1.5470581
340061113023540	1.7258606	2.68367	1.7193146
340061118028423	1.8272552	2.6677856	1.8720245
340061123491069	1.88591	2.6690063	2.0137482
340061128129741	1.88591	2.7044525	2.1127167
340061131456157	1.8785858	2.8192902	2.1127167
340061138231059	1.7661743	2.8192902	2.127365
340061143235942	1.5401459	3.0208588	2.045517
340061148271343	1.251831	3.261551	1.8976746
340061153337261	0.9830475	3.4851227	1.7547455
340061158799907	0.7961273	3.654953	1.6863403
340061163377544	0.7106018	3.7575684	1.7144318
340061168443462	0.6996002	3.797882	1.8023987
340061173875591	0.7216034	3.7966614	1.8817902
340061178514263	0.7460327	3.772232	1.9025574
340061181871196	0.7594757	3.719696	1.8536987
340061188554546	0.7606964	3.6317291	1.7327576
340061193620464	0.7338104	3.492447	1.51651
340061198655864	0.65441895	3.2896423	1.1841888
340061203691265	0.51023865	3.0807343	0.7761383
340061209001323	0.32209778	3.012329	0.38763428
340061213792583	0.13638306	3.2053375	0.09320068
340061218766948	-0.013885498	3.628067	-0.10348511
340061224504253	-0.1177063	4.135071	-0.22200012
340061228868266	-0.18734741	4.594452	-0.25741577
340061232225200	-0.18734741	4.9634247	-0.25741577
340061238939067	-0.32662964	4.9634247	0.024780273
340061243974468	-0.4500122	5.388565	0.34609985
340061249009868	-0.62960815	5.420334	0.7761383
340061254075786	-0.8531952	5.340912	1.3039246
340061259477397	-1.0999756	5.1772003	1.9025574
340061264085552	-1.3528748	4.9621887	2.5329895
340061269120952	-1.595993	4.7288513	3.1548462
340061274431011	-1.8097992	4.506485	3.7327118
340061279191753	-1.8097992	4.318344	3.7327118
340061282548686	-1.97229	4.318344	4.23851
340061289262554	-2.0565948	4.1754	4.645355
340061294328472	-2.0516968	4.0752106	4.943451
340061299333354	-1.958847	4.009247	5.1328278
340061304368755	-1.7975769	3.9725952	5.225662
340061309861919	-1.5862122	3.965271	5.2378845
340061314439556	-1.3443146	3.9958038	5.1853485
340061319474956	-1.0828705	4.0678864	5.081497
340061324907085	-0.81166077	4.176605	4.94223
340061329545757	-0.5428772	4.301239	4.7870636
340061333055278	-0.28874207	4.4124146	4.6404724
340061339647075	-0.06150818	4.4869385	4.5305023
340061344651958	0.12173462	4.5223694	4.4767456
340061349687358	0.23780823	4.5296936	4.4828644
340061354753276	0.26223755	4.5260315	4.5292816
340061360063335	0.18283081	4.5126038	4.575699
340061364824077	0.010559082	4.484482	4.579376
340061369828960	-0.22032166	4.4172974	4.513397
340061375169536	-0.468338	4.287796	4.3753357
340061379899761	-0.69802856	4.0849915	4.182312
340061383287212	-0.69802856	3.8186493	4.182312
340061389970561	-1.010788	3.8186493	3.7205048
340061395005962	-1.0730896	3.2004547	3.4822693
340061400041362	-1.076767	2.8950195	3.251358
340061405076763	-1.0303497	2.6030426	3.032669
340061410417339	-0.93748474	2.320816	2.832306
340061415178081	-0.7994232	2.0483856	2.6514893
340061420182964	-0.7994232	1.793045	2.6514893
340061425462505	-0.6198273	1.793045	2.4841156
340061430253765	-0.4109192	1.5657959	2.3179626
340061433671733	-0.18856812	1.3703156	2.1493683
340061440324565	0.031326294	1.2029419	1.9844208
340061445390483	0.23413086	1.0538788	1.8414917
340061450395366	0.41740417	0.909729	1.735199
340061455461284	0.57743835	0.76068115	1.6716614
340061460862895	0.71183777	0.60917664	1.6472168
340061465501567	0.81933594	0.4625702	1.6508942
340061470536968	0.89875793	0.32940674	1.6667786
340061475969097	0.9524994	0.21090698	1.6851044
340061480607768	0.9830475	0.10949707	1.6973114
340061484086772	0.99038696	0.030090332	1.6936646
340061490709087	0.97694397	-0.02609253	1.66922
340061495713970	0.94151306	-0.06640625	1.6215668
340061500749370	0.88287354	-0.096969604	1.5592651
340061505784770	0.80345154	-0.12506104	1.4920654
340061511247417	0.70939636	-0.14950562	1.4260864
340061515855571	0.60676575	-0.16659546	1.3650208
340061520860454	0.5016937	-0.17515564	1.3088074
340061526292583	0.3978424	-0.17391968	1.2514038
340061530992290	0.2939911	-0.16047668	1.1890717
340061534379741	0.2939911	-0.14094543	1.1890717
340061541063091	0.09240723	-0.14094543	1.0473633
340061546037456	-0.001663208	-0.09085083	0.96673584
340061551103374	-0.08961487	-0.061523438	0.8799896
340061556138774	-0.17390442	-0.029769897	0.7871399
340061561357280	-0.25453186	-0.001663208	0.69062805
340061566179057	-0.25453186	0.02154541	0.69062805
340061571244975	-0.3302765	0.02154541	0.58799744
340061576493999	-0.3986969	0.036209106	0.48414612
340061581346294	-0.45977783	0.0496521	0.3790741
340061584672710	-0.51231384	0.06674194	0.27767944
340061591386577	-0.5550842	0.08872986	0.1823883
340061596391460	-0.5844116	0.11193848	0.0993042
340061601487895	-0.60150146	0.12904358	0.030883789
340061606492778	-0.6027374	0.13392639	-0.022842407
340061611772319	-0.58561707	0.12414551	-0.066833496
340061616563579	-0.5428772	0.09849548	-0.10348511
340061621598979	-0.47810364	0.06185913	-0.13035583
340061628434917	-0.3986969	0.020324707	-0.14257813
340061631669780	-0.3143921	-0.01876831	-0.13401794
340061635850688	-0.22644043	-0.05053711	-0.099823
340061641771099	-0.13847351	-0.076187134	-0.04484558
340061646806499	-0.057861328	-0.10185242	0.030883789
340061651811382	0.009338379	-0.13362122	0.122528076
340061656846782	0.05697632	-0.16783142	0.2276001
340061662248393	0.083862305	-0.19958496	0.33387756
340061666887065	0.087524414	-0.22401428	0.4291687
340061671952983	0.067977905	-0.24234009	0.50491333
340061677293559	0.034988403	-0.25578308	0.55867004
340061682054302	-0.0028839111	-0.26800537	0.59532166
340061685838481	-0.0028839111	-0.2802124	0.59532166
340061692094585	-0.07128906	-0.2802124	0.6332092
340061697099468	-0.09449768	-0.2960968	0.6368561
340061702134868	-0.11038208	-0.30221558	0.62953186
340061707200786	-0.11038208	-0.30465698	0.62953186
340061712632915	-0.120147705	-0.30465698	0.5818939
340061717271587	-0.120147705	-0.2924347	0.5818939
340061722337505	-0.11526489	-0.2924347	0.5452423
340061727617046	-0.1018219	-0.2753296	0.5061493
340061732408306	-0.084732056	-0.25456238	0.4719391
340061735917827	-0.06517029	-0.23501587	0.44384766
340061742448589	-0.044418335	-0.21546936	0.4267273
340061747453472	-0.02609253	-0.19468689	0.4267273
340061752549907	-0.012649536	-0.16903687	0.4474945
340061757554790	-0.0041046143	-0.14459229	0.48902893
340061762834331	-0.001663208	-0.12870789	0.546463
340061767656108	-0.0053253174	-0.12382507	0.60632324
340061772691509	-0.013885498	-0.12994385	0.6600647
340061777940532	-0.02609253	-0.14338684	0.6967163
340061782731792	-0.035858154	-0.16047668	0.71383667
340061786363384	-0.039535522	-0.17880249	0.7101593
340061792802593	-0.029769897	-0.19836426	0.69306946
340061797807475	-0.0028839111	-0.22035217	0.6661835
340061802903911	0.043548584	-0.2447815	0.6344147
340061807939311	0.10707092	-0.26922607	0.59776306
340061813371440	0.18159485	-0.28633118	0.55744934
340061817979595	0.26101685	-0.2948761	0.5134735
340061823045513	0.3318634	-0.2899933	0.47558594
340061828264018	0.38807678	-0.27166748	0.45117188
340061833085796	0.42837524	-0.24234009	0.4474945
340061837083599	0.42837524	-0.20448303	0.4474945
340061843187114	0.47236633	-0.20448303	0.4988098
340061848191997	0.47846985	-0.13482666	0.5428009
340061853227397	0.47846985	-0.107940674	0.5428009
340061858262798	0.47602844	-0.107940674	0.59410095
340061863725444	0.47114563	-0.08961487	0.7052765
340061868333599	0.46626282	-0.081085205	0.7052765
340061873368999	0.46626282	-0.081085205	0.75660706
340061878770610	0.47114563	-0.09207153	0.7920227
340061883439800	0.48214722	-0.107940674	0.8115692
340061887651225	0.49803162	-0.12382507	0.8189087
340061893541118	0.52124023	-0.13606262	0.8237915
340061898546001	0.5493469	-0.14706421	0.8274536
340061903611919	0.58232117	-0.15927124	0.8286743
340061908616802	0.6214142	-0.17147827	0.8237915
340061913957378	0.6641846	-0.18125916	0.8079071
340061918687602	0.7106018	-0.18492126	0.77737427
340061923723003	0.7558136	-0.18492126	0.7333832
340061928972026	0.797348	-0.18003845	0.67962646
340061933793804	0.8303375	-0.16783142	0.61976624
340061937852641	0.85354614	-0.14826965	0.55744934
340061943895122	0.8657532	-0.12017822	0.5024719
340061948900005	0.8681946	-0.09329224	0.4633789
340061953965923	0.8681946	-0.07496643	0.45237732
340061958940288	0.8657532	-0.07008362	0.46826172
340061964280864	0.86087036	-0.08229065	0.5012665
340061969072124	0.8498688	-0.11038208	0.5342407
340061974077007	0.83399963	-0.14950562	0.55744934
340061979356548	0.8156738	-0.19348145	0.56233215
340061984178325	0.7985687	-0.23135376	0.546463
340061988176128	0.7985687	-0.2618866	0.546463
340061994188091	0.7814636	-0.2618866	0.4450531
340061999223491	0.7667999	-0.28388977	0.4450531
340062004289409	0.7460327	-0.3009796	0.35464478
340062009355327	0.69107056	-0.3083191	0.23368835
340062014756938	0.55055237	-0.28877258	0.077316284
340062019365093	0.28788757	-0.23379517	-0.11203003
340062024431011	-0.07128906	-0.16171265	-0.3123932
340062029771587	-0.4524536	-0.10185242	-0.48466492
340062034501811	-0.79577637	-0.060302734	-0.59339905
340062038713237	-1.0926514	-0.017547607	-0.6214905
340062044603130	-1.3626404	0.028884888	-0.57873535
340062049638530	-1.6118774	0.059417725	-0.4907837
340062054612895	-1.8293457	0.07652283	-0.39059448
340062059648296	-2.0077057	0.11071777	-0.30506897
340062065080425	-2.128662	0.17301941	-0.24397278
340062069749614	-2.1763	0.24021912	-0.19755554
340062074754497	-2.1433258	0.29153442	-0.14379883
340062080034038	-2.050476	0.33795166	-0.07171631
340062084886333	-1.9270782	0.39537048	0.01499939
340062089586040	-1.7939148	0.45646667	0.10296631
340062094926616	-1.6509705	0.49554443	0.17871094
340062099931499	-1.4835815	0.5016632	0.23248291
340062104997417	-1.280777	0.48213196	0.25689697
340062110032817	-1.036438	0.4466858	0.25325012
340062115312358	-0.75177	0.39904785	0.22636414
340062120134136	-0.4316864	0.33918762	0.18727112
340062125139018	-0.08229065	0.27685547	0.14205933
340062130540630	0.276886	0.23043823	0.09075928
340062135209819	0.60676575	0.2157898	0.029678345
340062139329692	0.60676575	0.23899841	0.029678345
340062145311138	0.8547821	0.23899841	-0.041168213
340062150346538	0.97694397	0.29397583	-0.12059021
340062155381938	0.9610596	0.36239624	-0.20855713
340062160447856	0.83277893	0.42713928	-0.29774475
340062166215679	0.6421814	0.47601318	-0.3795929
340062170457622	0.43328857	0.51142883	-0.44189453
340062175493022	0.23291016	0.5395508	-0.4797821
340062180772563	0.047210693	0.5578766	-0.49198914
340062185594341	-0.12136841	0.5578766	-0.4773407
340062189744731	-0.27529907	0.5383148	-0.4345703
340062195634624	-0.4206848	0.5175476	-0.3783722
340062200731059	-0.5795288	0.5175476	-0.33927917
340062205735942	-0.7762146	0.54563904	-0.33927917
340062210740825	-1.0169067	0.57740784	-0.3759308
340062216264507	-1.2758942	0.585968	-0.42236328
340062220811626	-1.4933777	0.5627594	-0.4504547
340062225847026	-1.609436	0.5175476	-0.43823242
340062231279155	-1.6069946	0.45524597	-0.3795929
340062235917827	-1.5117035	0.36727905	-0.27818298
340062239305278	-1.5117035	0.25608826	-0.27818298
340062246019145	-1.2355957	0.25608826	-0.010650635
340062251024028	-1.1146393	0.034988403	0.12373352
340062256059429	-1.0181122	-0.051757813	0.2459259
340062261094829	-0.95092773	-0.12017822	0.34854126
340062266587993	-0.90815735	-0.17636108	0.4267273
340062271196147	-0.89105225	-0.22279358	0.47070313
340062276231548	-0.8996124	-0.25212097	0.4743805
340062281572124	-0.93870544	-0.24845886	0.4450531
340062286302349	-0.93870544	-0.20936584	0.4450531
340062291124126	-1.0071106	-0.20936584	0.39619446
340062296342632	-1.0962982	-0.13970947	0.3448639
340062301408550	-1.1879425	-0.046875	0.30455017
340062306413432	-1.2661285	0.075286865	0.28256226
340062311448833	-1.3223267	0.24021912	0.28012085
340062316789409	-1.3589783	0.44792175	0.30088806
340062321550151	-1.3858643	0.68003845	0.34732056
340062326555034	-1.4090729	0.9194946	0.42184448
340062331865093	-1.4335022	1.154068	0.5207977
340062336625835	-1.4628143	1.3813171	0.6344147
340062341600200	-1.4897003	1.5792389	0.7419281
340062346727153	-1.5043793	1.7197266	0.8335571
340062352067729	-1.4884949	1.7808075	0.9068756
340062356828472	-1.4335022	1.7710419	0.97039795
340062361863872	-1.3394318	1.7221832	1.0314789
340062367723247	-1.2148132	1.6574249	1.0937958
340062371934673	-1.0657654	1.5841217	1.1548615
340062376939556	-0.8996124	1.4949341	1.2123108
340062382707378	-0.7224579	1.3751984	1.2550507
340062387040874	-0.5196686	1.206604	1.2489624
340062390336772	-0.5196686	0.9744873	1.2489624
340062397111675	0.07896423	0.9744873	0.94841003
340062402116557	0.48825073	0.39660645	0.68574524
340062407182475	0.9134064	0.1400299	0.44628906
340062412187358	1.2933655	-0.057861328	0.28990173
340062418077251	1.5865936	-0.21180725	0.22636414
340062422227641	1.7783966	-0.34251404	0.22880554
340062427293559	1.7783966	-0.45858765	0.2642517
340062432817241	1.8516998	-0.5563202	0.31066895
340062437394878	1.8516998	-0.6296234	0.31066895
340062440690776	1.7466278	-0.6296234	0.35708618
340062447435161	1.5694733	-0.6699524	0.40716553
340062452440044	1.3385773	-0.6699524	0.4658203
340062457475444	1.0746765	-0.6357422	0.53912354
340062462510845	0.7912445	-0.5807648	0.62342834
340062467851421	0.5029144	-0.53189087	0.7162781
340062472612163	0.22312927	-0.50868225	0.8103485
340062477617046	-0.033416748	-0.51600647	0.90075684
340062483140727	-0.25820923	-0.54655457	0.9838257
340062487718364	-0.442688	-0.5856476	1.0632477
340062491075298	-0.58929443	-0.62597656	1.1377716
340062497758647	-0.69802856	-0.667511	1.2123108
340062502794048	-0.7688904	-0.7139282	1.2855988
340062507859966	-0.805542	-0.76524353	1.3601379
340062512895366	-0.8165436	-0.8263397	1.4358826
340062518541118	-0.8079834	-0.89964294	1.5116272
340062522935649	-0.7835388	-0.9851532	1.5861511
340062528001567	-0.74324036	-1.0828857	1.6618958
340062533250591	-0.687027	-1.1855164	1.7376404
340062538041850	-0.61738586	-1.2869263	1.8146057
340062541429302	-0.61738586	-1.3834381	1.8146057
340062548143169	-0.44145203	-1.3834381	1.9600067
340062553178569	-0.33761597	-1.563034	2.0345154
340062558183452	-0.23010254	-1.6461029	2.113922
340062563249370	-0.12747192	-1.7230682	2.1909027
340062568712016	-0.03829956	-1.7914886	2.2593231
340062573320171	-0.03829956	-1.8440247	2.3167267
340062578325054	0.027664185	-1.8440247	2.3167267
340062583818218	0.06309509	-1.8782349	2.376587
340062588426372	0.06187439	-1.8965607	2.376587
340062591722270	0.028884888	-1.8965607	2.3753815
340062598497173	-0.032211304	-1.8769989	2.358261
340062603532573	-0.12136841	-1.8293762	2.3289642
340062608537456	-0.24476624	-1.7609558	2.2825317
340062613572856	-0.39259338	-1.6900787	2.2079926
340062619066020	-0.54408264	-1.6204529	2.0992737
340062623674175	-0.68214417	-1.5349274	1.9624481
340062628709575	-0.8031006	-1.4152069	1.813385
340062636125347	-1.0217896	-1.2698059	1.5275116
340062638780376	-1.0217896	-0.9888153	1.5275116
340062642137309	-1.1305237	-0.9888153	1.4065552
340062648851177	-1.2404785	-0.87887573	1.3027039
340062653856059	-1.351654	-0.78723145	1.2159576
340062658921977	-1.4591675	-0.706604	1.1438904
340062663957378	-1.5556793	-0.6247406	1.087677
340062669267436	-1.6326447	-0.53678894	1.0461426
340062674058696	-1.6851807	-0.44270325	1.014389
340062679063579	-1.7120667	-0.35231018	0.99116516
340062684770366	-1.7169495	-0.27166748	0.97650146
340062689103862	-1.7035065	-0.20936584	0.97650146
340062692491313	-1.7035065	-0.16659546	0.97650146
340062699205181	-1.6155396	-0.16659546	1.0155945
340062704240581	-1.5349121	-0.14094543	1.0510254
340062709275981	-1.4261627	-0.16539001	1.0937958
340062714372417	-1.2868958	-0.22279358	1.1389923
340062719651958	-1.1183014	-0.3083191	1.1841888
340062724351665	-1.1183014	-0.40605164	1.1841888
340062729387065	-0.9277191	-0.40605164	1.231842
340062735154888	-0.5037842	-0.49157715	1.3344727
340062739488384	-0.5037842	-0.5844269	1.3344727
340062742845317	-0.28018188	-0.5844269	1.3809052
340062749528667	-0.059066772	-0.59176636	1.4138794
340062754594585	0.1461792	-0.5819702	1.4309998
340062759629985	0.33065796	-0.5587616	1.4224396
340062764634868	0.49803162	-0.52822876	1.3869934
340062770158550	0.653183	-0.5013428	1.3222504
340062774736186	0.7997894	-0.49401855	1.2355194
340062779741069	0.92440796	-0.50624084	1.1328888
340062785691997	1.0062561	-0.5196686	1.0192719
340062789842388	1.0331421	-0.5025635	0.8995209
340062793138286	1.0050354	-0.43659973	0.7785797
340062799943706	0.93296814	-0.33518982	0.6600647
340062804948589	0.82910156	-0.22645569	0.5489044
340062809953472	0.7081604	-0.12994385	0.4499359
340062814988872	0.5835571	-0.046875	0.3790741
340062820482036	0.46992493	0.030090332	0.34976196
340062825303813	0.3795166	0.09484863	0.3656311
340062830125591	0.3098755	0.12049866	0.41207886
340062836168071	0.25733948	0.0899353	0.4609375
340062840165874	0.21824646	0.019104004	0.48538208
340062843553325	0.21824646	-0.05053711	0.48538208
340062850267192	0.18891907	-0.05053711	0.45117188
340062855272075	0.19015503	-0.12261963	0.4157257
340062860307475	0.19015503	-0.17880249	0.38885498
340062865373393	0.1962738	-0.2960968	0.38885498
340062870683452	0.22802734	-0.2960968	0.4084015
340062875749370	0.3611908	-0.49279785	0.4084015
340062880479595	0.705719	-0.77134705	0.45481873
340062886369487	1.31781	-1.0975647	0.48294067
340062890519878	2.0972748	-1.4017639	0.48294067
340062893937847	2.8058624	-1.5972443	0.39007568
340062900621196	3.2065887	-1.6485443	0.21780396
340062905717632	3.205368	-1.5923615	-0.0045318604
340062910691997	2.865738	-1.5068207	-0.25865173
340062916032573	2.3184052	-1.4506226	-0.5372009
340062921586772	1.6867676	-1.4152069	-0.82795715
340062926011821	1.0612335	-1.3589935	-1.0930786
340062930833599	0.500473	-1.2649231	-1.2848969
340062935868999	0.04232788	-1.1818542	-1.3777466
340062940904399	-0.2985077	-1.1806335	-1.3753052
340062944261333	-0.52211	-1.2893677	-1.3117676
340062950975200	-0.63938904	-1.4616241	-1.2250366
340062956041118	-0.6687012	-1.6155701	-1.1566162
340062961046001	-0.62960815	-1.6851959	-1.1272888
340062966081401	-0.54408264	-1.6473389	-1.1370544
340062971940776	-0.43536377	-1.532486	-1.1639404
340062976426860	-0.32418823	-1.4017639	-1.1834717
340062981187602	-0.20811462	-1.2979126	-1.1651459
340062987321636	-0.07249451	-1.2172852	-1.0784149
340062991227886	0.09729004	-1.1342163	-0.90859985
340062994615337	0.09729004	-1.0364685	-0.90859985
340063001359722	0.51512146	-1.0364685	-0.4565735
340063006364604	0.51512146	-0.8446655	-0.26963806
340063011400005	0.7301636	-0.8446655	-0.26963806
340063016465923	0.9341736	-0.78234863	-0.13279724
340063022172710	1.3080292	-0.76524353	0.0821991
340063026963970	1.3080292	-0.84954834	0.0821991
340063031541606	1.4815063	-0.84954834	0.19459534
340063037797710	1.7600708	-0.90208435	0.44628906
340063041612407	1.7600708	-0.86787415	0.44628906
340063044969341	1.8052826	-0.86787415	0.57089233
340063051683208	1.7527313	-0.7444763	0.6686249
340063056749126	1.6171265	-0.5807648	0.7260437
340063061754009	1.4412079	-0.44758606	0.7468109
340063067613384	1.2774811	-0.39993286	0.7541504
340063072099468	1.1663055	-0.4414978	0.77737427
340063077745220	1.1223297	-0.51600647	0.83721924
340063081865093	1.141861	-0.55511475	0.93984985
340063087053081	1.2102814	-0.52944946	1.0717926
340063091966411	1.2970428	-0.45248413	1.207428
340063095323345	1.3642273	-0.3461914	1.3234711
340063102037212	1.3862305	-0.22401428	1.4028778
340063107194682	1.3532257	-0.08717346	1.437088
340063112108013	1.2750397	0.05697632	1.410202
340063118028423	1.1724243	0.19868469	1.3088074
340063123033306	1.0661163	0.32574463	1.1316528
340063127916118	0.9683838	0.42103577	0.90319824
340063132249614	0.87675476	0.47113037	0.65885925
340063137437602	0.7826843	0.4698944	0.43649292
340063142320415	0.6763916	0.42225647	0.25201416
340063145616313	0.6763916	0.35263062	0.25201416
340063152421733	0.53712463	0.35263062	0.010116577
340063157579204	0.3440857	0.27197266	0.010116577
340063162462016	0.087524414	0.1864624	-0.066833496
340063167680522	-0.22276306	0.09239197	-0.14257813
340063173356792	-0.54652405	0.0056610107	-0.396698
340063178300640	-0.8360748	-0.044418335	-0.396698
340063182603618	-1.0437622	-0.044418335	-0.6080475
340063188218852	-1.14151	0.036209106	-0.87438965
340063192674419	-1.1378479	0.20600891	-1.173706
340063196000835	-1.0657654	0.44302368	-1.470581
340063202745220	-0.9619293	0.68370056	-1.7247162
340063207963725	-0.844635	0.8657532	-1.9055176
340063212785503	-0.7077942	0.98913574	-2.0057068
340063218095561	-0.5428772	1.0868835	-2.0350342
340063223161479	-0.35472107	1.1711731	-2.0167084
340063228837749	-0.1690216	1.2163849	-1.9763794
340063232957622	-0.016326904	1.2090454	-1.934845
340063238542339	0.080200195	1.1711731	-1.9128418
340063242997905	0.12173462	1.1369629	-1.9250793
340063246385356	0.12173462	1.1271973	-1.9849396
340063253099224	0.11073303	1.1271973	-2.0912323
340063258500835	0.098526	1.0942078	-2.2268372
340063263170024	0.096084595	0.97080994	-2.35878
340063269120952	0.09729004	0.73747253	-2.460205
340063273546001	0.083862305	0.45646667	-2.5212708
340063278611919	0.027664185	0.2316742	-2.5493774
340063283311626	-0.08229065	0.13270569	-2.559143
340063289781352	-0.23988342	0.16325378	-2.555481
340063293382427	-0.23988342	0.2866516	-2.5359344
340063296678325	-0.42314148	0.4784546	-2.5359344
340063303453227	-0.60884094	0.4784546	-2.5005035
340063309251567	-0.9167175	0.71180725	-2.4125519
340063313524028	-0.9167175	1.1125336	-2.4125519
340063319291850	-1.0156708	1.1125336	-2.379547
340063324388286	-1.0584412	1.2212677	-2.3612213
340063329484722	-1.0315552	1.2860107	-2.35878
340063333665630	-0.9277191	1.3251038	-2.379547
340063339525005	-0.753006	1.3165741	-2.423523
340063343736431	-0.53063965	1.2237091	-2.490738
340063347093364	-0.28753662	1.036789	-2.5774689
340063353837749	-0.04319763	0.7960968	-2.6837769
340063359544536	0.19259644	0.5652008	-2.8071594
340063363878032	0.41984558	0.38804626	-2.9415588
340063369737407	0.63974	0.27441406	-3.0722656
340063374589702	0.86331177	0.22189331	-3.1871033
340063380449077	1.0905609	0.22923279	-3.2787476
340063383989116	1.3165741	0.29273987	-3.3508148
340063389970561	1.5267181	0.38804626	-3.4057922
340063394059917	1.7136383	0.4833374	-3.4534454
340063397447368	1.7136383	0.5578766	-3.4534454
340063404161235	2.0288544	0.5578766	-3.5487518
340063409959575	2.1632385	0.65560913	-3.6147156
340063414232036	2.2756348	0.7044678	-3.7075806
340063420701763	2.3574982	0.74235535	-3.8260803
340063425004741	2.4112396	0.75335693	-3.9458008
340063430833599	2.4552307	0.73379517	-4.0337677
340063434373638	2.5175323	0.71546936	-4.0618744
340063440263530	2.618927	0.73135376	-4.024002
340063444413921	2.618927	0.79244995	-4.024002
340063447801372	2.7655487	0.79244995	-3.915268
340063454545757	2.943924	0.8804016	-3.7149048
340063460557720	3.078308	0.99401855	-2.8987885
340063464586040	3.078308	1.1797333	-2.8987885
340063471116802	1.938446	1.1797333	-1.6269684
340063475511333	1.938446	0.8999481	-1.6269684
340063481126567	0.9048462	0.8999481	-0.58117676
340063484727641	-0.09082031	0.77168274	-0.58117676
340063490342876	-0.8092041	0.8779602	-0.29040527
340063494798442	-1.180603	1.2102661	-0.12669373
340063498094341	-1.2575684	1.6293182	-0.031402588
340063504899761	-1.128067	2.0251465	0.050445557
340063510545513	-0.87516785	2.3806763	0.1665039
340063514940044	-0.57585144	2.6897736	0.34365845
340063520890972	-0.29241943	2.885254	0.59532166
340063525834819	-0.04685974	2.8400574	0.91908264
340063530961772	0.17303467	2.460083	1.297821
340063535081645	0.4064026	1.7563934	1.6997681
340063542222759	0.6763916	0.8388672	2.088272
340063545121929	0.9854889	-0.15559387	2.4340363
340063548478862	0.9854889	-1.1244202	2.4340363
340063555253765	1.6537781	-1.1244202	2.9373627
340063561174175	1.9714203	-2.7505493	3.107193
340063565263530	2.269516	-3.3491821	3.2464752
340063571641704	2.5468597	-3.7975616	3.378418
340063575639507	2.794876	-4.093231	3.50914
340063582078716	2.9964447	-4.228836	3.6007843
340063585405132	2.9964447	-4.1750793	3.6007843
340063591630718	3.1418457	-4.1750793	3.3979797
340063595506450	3.1418457	-3.1940308	3.3979797
340063598863384	2.9683533	-3.1940308	3.041214
340063605577251	2.554184	-2.1213684	2.5635223
340063611955425	1.2909241	-0.80311584	1.463974
340063615617534	1.2909241	1.1455231	1.463974
340063620652934	0.7606964	1.1455231	0.92640686
340063627610942	0.2952118	1.3434296	0.101745605
340063632829448	0.26589966	0.8461914	-0.12791443
340063635728618	0.26589966	0.56152344	-0.12791443
340063640825054	0.28300476	0.56152344	-0.24397278
340063645860454	0.3135376	0.34895325	-0.28186035
340063649156352	0.34898376	0.17546082	-0.27941895
340063655961772	0.39172363	0.0032196045	-0.26229858
340063662187358	0.43937683	-0.18003845	-0.24153137
340063665971538	0.48580933	-0.3620758	-0.21708679
340063671037456	0.52368164	-0.52822876	-0.19023132
340063676439067	0.55422974	-0.6650696	-0.16334534
340063681077739	0.58110046	-0.7603607	-0.14135742
340063686113140	0.612854	-0.80433655	-0.12669373
340063691514751	0.653183	-0.79945374	-0.1181488
340063696214458	0.7020569	-0.75302124	-0.11936951
340063699540874	0.7020569	-0.6821594	-0.11936951
340063706285259	0.82421875	-0.6821594	-0.16212463
340063712449809	0.8963165	-0.55999756	-0.20367432
340063716325542	0.9732666	-0.54777527	-0.24765015
340063722703716	1.0526886	-0.57832336	-0.2855072
340063726640483	1.1394196	-0.65283203	-0.3111725
340063731431743	1.1394196	-0.75424194	-0.3111725
340063736497661	1.248169	-0.75424194	-0.32705688
340063741960307	1.3874359	-0.8605499	-0.3453827
340063746537944	1.5572662	-0.9533844	-0.3869171
340063749894878	1.7441864	-1.0352325	-0.4724579
340063756608745	1.9323273	-1.1158905	-0.60928345
340063763078472	2.2683105	-1.1916351	-0.99534607
340063766710063	2.2683105	-1.2270508	-0.99534607
340063771714946	2.414917	-1.2270508	-1.1908264
340063777025005	2.5199738	-1.1549835	-1.3496399
340063781785747	2.484558	-1.0975647	-1.4608154
340063786821147	2.1913452	-1.1842957	-1.5353546
340063792100688	1.614685	-1.444519	-1.585434
340063796891948	0.86698914	-1.6485443	-1.6147614
340063800248882	0.13394165	-1.4396362	-1.6233063
340063806993266	-0.43901062	-0.6565094	-1.6184235
340063811998149	-0.80674744	0.49189758	-1.6098785
340063817033550	-1.0169067	1.617096	-1.6025391
340063822038432	-1.1683807	2.4441986	-1.5878754
340063827348491	-1.3589783	2.888916	-1.5512238
340063832170268	-1.6265411	2.9548798	-1.4877014
340063837175151	-1.9234161	2.6970978	-1.3972778
340063842485210	-2.160431	2.2597198	-1.2848969
340063847276470	-2.269165	1.840683	-1.1529388
340063850602886	-2.269165	1.5706787	-1.1529388
340063857316753	-2.1372223	1.5706787	-0.82429504
340063862382671	-1.9893799	1.3080139	-0.6239319
340063867418071	-1.8220215	1.1345215	-0.40402222
340063872422954	-1.8220215	0.9182739	-0.16946411
340063877916118	-1.4408417	0.9182739	0.07121277
340063882524272	-1.4408417	0.52975464	0.07121277
340063887529155	-1.2490082	0.52975464	0.31188965
340063893022319	-1.0669861	0.38804626	0.5513458
340063897599956	-0.89105225	0.27809143	0.7846985
340063900956890	-0.7224579	0.2011261	1.0131531
340063907701274	-0.5709686	0.1681366	1.231842
340063912706157	-0.4500122	0.1876831	1.437088
340063917741557	-0.3620453	0.25364685	1.6215668
340063922776958	-0.3143921	0.34283447	1.7694092
340063928239604	-0.32174683	0.42836	1.8732605
340063932847759	-0.40847778	0.51634216	1.9734344
340063937883159	-0.58929443	0.68125916	2.2092285
340063946916362	-1.2588043	1.0599976	3.8206787
340063951280376	-1.6827393	2.6629028	5.096176
340063958024761	-2.055359	3.579193	6.181061
340063963060161	-2.2923737	4.241379	6.717392
340063968095561	-2.370575	4.497925	6.64653
340063973130962	-2.308258	4.308563	6.0417633
340063978379985	-2.121338	3.750229	4.850601
340063983232280	-1.8220215	3.017212	3.005783
340063988237163	-1.4396057	2.3513641	0.75904846
340063993547222	-1.0132294	1.840683	-1.2763367
340063998307964	-0.561203	1.3141174	-2.5359344
340064001664897	-0.561203	0.51634216	-2.5359344
340064008378765	0.40151978	0.51634216	-2.4944
340064013383647	0.84010315	-1.7218475	-1.7454834
340064018449565	0.84010315	-2.4695435	-1.7454834
340064023515483	1.1809845	-2.4695435	-0.9208069
340064028886577	1.3996735	-2.5905151	-0.27085876
340064033555766	1.4949493	-2.1250153	0.06021118
340064038591167	1.47052	-1.3162384	0.09564209
340064043901225	1.3275757	-0.44026184	-0.025283813
340064048692485	1.0868835	0.2976532	-0.16212463
340064052049419	0.7765808	0.8144226	-0.25009155
340064058763286	0.43328857	1.0990906	-0.28796387
340064063737651	0.09120178	1.1626129	-0.29530334
340064068803569	-0.21788025	1.0050201	-0.29286194
340064073838970	-0.4658966	0.64216614	-0.2989502
340064079240581	-0.63938904	0.13148499	-0.32461548
340064083940288	-0.738327	-0.4256134	-0.3624878
340064088945171	-0.77500916	-0.92529297	-0.4003601
340064094468852	-0.7713318	-1.3052521	-0.4248047
340064099046489	-0.74568176	-1.5495911	-0.43823242
340064102342388	-0.70658875	-1.6790924	-0.4431305
340064109147807	-0.6540375	-1.7169647	-0.4431305
340064114091655	-0.586853	-1.6888733	-0.44189453
340064119157573	-0.5062256	-1.6082458	-0.43701172
340064124223491	-0.4182434	-1.4872894	-0.42845154
340064129503032	-0.3327179	-1.3357849	-0.4138031
340064134263774	-0.25453186	-1.1647491	-0.39179993
340064139329692	-0.18856812	-0.9863739	-0.3661499
340064144792339	-0.13725281	-0.81166077	-0.34172058
340064149369975	-0.09938049	-0.65283203	-0.32217407
340064152757427	-0.09938049	-0.52456665	-0.32217407
340064159440776	-0.07493591	-0.52456665	-0.29774475
340064164476177	-0.06640625	-0.39260864	-0.29774475
340064169542095	-0.07249451	-0.39260864	-0.29406738
340064174546977	-0.09082031	-0.39260864	-0.2965088
340064179857036	-0.12382507	-0.43170166	-0.30384827
340064184617778	-0.17268372	-0.50379944	-0.3148346
340064189653179	-0.23620605	-0.600296	-0.32461548
340064194963237	-0.31074524	-0.7114868	-0.33439636
340064199723979	-0.39015198	-0.83122253	-0.3478241
340064203080913	-0.4671173	-0.950943	-0.3649292
340064209794780	-0.5379944	-1.0621185	-0.3795929
340064214830181	-0.59906006	-1.1537476	-0.38815308
340064219865581	-0.65159607	-1.222168	-0.3930359
340064224900981	-0.69314575	-1.2661438	-0.3979187
340064230333110	-0.71635437	-1.2844849	-0.40402222
340064234971782	-0.7175598	-1.2759247	-0.41012573
340064240007182	-0.69802856	-1.2453766	-0.41990662
340064245408794	-0.66259766	-1.2050629	-0.4321289
340064250077983	-0.6198273	-1.1757507	-0.44189453
340064253465434	-0.58073425	-1.169632	-0.44677734
340064260179302	-0.5526428	-1.1842957	-0.45289612
340064265184184	-0.5379944	-1.2075043	-0.4663391
340064270219585	-0.5367584	-1.235611	-0.48831177
340064275224468	-0.55140686	-1.2820282	-0.5164337
340064280656597	-0.5770874	-1.3565521	-0.54818726
340064285356304	-0.61006165	-1.4591827	-0.5872803
340064290361186	-0.64671326	-1.5874481	-0.6349335
340064295823833	-0.67970276	-1.7340698	-0.68258667
340064300401470	-0.70658875	-1.8965607	-0.7204437
340064303788921	-0.70658875	-2.0700378	-0.7204437
340064310533306	-0.72491455	-2.0700378	-0.74365234
340064315538188	-0.74079895	-2.2374268	-0.74612427
340064320604106	-0.7603302	-2.3779144	-0.7314453
340064325608989	-0.7859802	-2.4756622	-0.7057953
340064330888530	-0.8165436	-2.5220947	-0.6837921
340064335679790	-0.84095764	-2.528183	-0.6728058
340064340715190	-0.8495178	-2.5086517	-0.6764679
340064355668804	-0.74324036	-2.480545	-0.74365234
340064360856792	-0.69924927	-2.4316864	-0.7351227
340064365892192	-0.66503906	-2.4316864	-0.6972351
340064370927593	-0.6369324	-2.4512177	-0.64837646
340064375962993	-0.60884094	-2.4646606	-0.61172485
340064381425640	-0.5844116	-2.46344	-0.59339905
340064386033794	-0.5660858	-2.4451141	-0.588501
340064391099712	-0.5538635	-2.415802	-0.59339905
340064396409770	-0.54408264	-2.3791504	-0.61294556
340064401139995	-0.53552246	-2.3388214	-0.6446991
340064404557964	-0.53552246	-2.297287	-0.6446991
340064411241313	-0.5453186	-2.297287	-0.68014526
340064416276714	-0.56729126	-2.244751	-0.6532593
340064421312114	-0.59173584	-2.2496338	-0.60928345
340064426347515	-0.61006165	-2.2679596	-0.5701752
340064432206890	-0.62472534	-2.2924042	-0.54452515
340064436418315	-0.6369324	-2.3156128	-0.5298767
340064441423198	-0.64915466	-2.3388214	-0.522522
340064447282573	-0.66015625	-2.3595886	-0.52497864
340064451493999	-0.66015625	-2.376709	-0.52497864
340064454850932	-0.66748047	-2.376709	-0.5384064
340064461595317	-0.6760254	-2.3827972	-0.5542908
340064466600200	-0.6894684	-2.3791504	-0.5542908
340064471666118	-0.7102356	-2.3791504	-0.522522
340064476701518	-0.739563	-2.3925934	-0.46266174
340064482438823	-0.7737732	-2.4194489	-0.39424133
340064486741802	-0.8092041	-2.4487762	-0.33805847
340064491807720	-0.84095764	-2.4695435	-0.30384827
340064497270366	-0.86906433	-2.4720001	-0.28674316
340064501848003	-0.89227295	-2.4512177	-0.28186035
340064505265972	-0.90449524	-2.4096832	-0.28430176
340064511949321	-0.90449524	-2.3571472	-0.29530334
340064516984722	-0.897171	-2.2997284	-0.30506897
340064522050640	-0.89105225	-2.2423096	-0.30018616
340064527055522	-0.88861084	-2.1897736	-0.27330017
340064532853862	-0.88616943	-2.143341	-0.22932434
340064537126323	-0.8800659	-2.0969238	-0.18289185
340064542192241	-0.87028503	-2.0456085	-0.14379883
340064547929546	-0.858078	-1.9918518	-0.114471436
340064552202007	-0.8458557	-1.9405365	-0.090042114
340064555589458	-0.8458557	-1.89534	-0.090042114
340064562272807	-0.8299713	-1.89534	-0.046051025
340064567338725	-0.8250885	-1.820816	-0.028961182
340064572343608	-0.818985	-1.790268	-0.022842407
340064577379009	-0.8153076	-1.7695007	-0.033843994
340064582872173	-0.8201904	-1.7670593	-0.053390503
340064587449809	-0.84095764	-1.7829285	-0.06437683
340064592515727	-0.84095764	-1.8110504	-0.055847168
340064597795268	-0.9142761	-1.8318176	-0.0362854
340064602556011	-0.9142761	-1.8318176	-0.0362854
340064605912944	-0.94480896	-1.8318176	-0.021636963
340064612626811	-0.9619293	-1.8122559	-0.01675415
340064617692729	-0.970459	-1.7780457	-0.02407837
340064622697612	-0.970459	-1.7340698	-0.047286987
340064627763530	-0.96681213	-1.6851959	-0.08149719
340064633317729	-0.9680176	-1.6351013	-0.11203003
340064637834331	-0.9802551	-1.58992	-0.11936951
340064642839214	-1.0034637	-1.5434723	-0.10348511
340064648637554	-1.0266724	-1.4885101	-0.086380005
340064652910015	-1.0401154	-1.4237518	-0.082717896
340064656297466	-1.0437622	-1.3687897	-0.09126282
340064662980815	-1.0413208	-1.3382263	-0.110809326
340064668016216	-1.0327911	-1.3357849	-0.14501953
340064673051616	-1.0217896	-1.3553467	-0.19267273
340064678087016	-1.0120239	-1.3883209	-0.23297119
340064683336040	-1.0083466	-1.4310913	-0.24885559
340064688157817	-1.0071106	-1.4738464	-0.24397278
340064693193218	-0.99858093	-1.4994965	-0.23544312
340064698655864	-0.9802551	-1.5043793	-0.23544312
340064703294536	-0.9545746	-1.4958344	-0.24032593
340064706590434	-0.9545746	-1.493393	-0.24032593
340064713304302	-0.90937805	-1.493393	-0.23544312
340064718339702	-0.8959503	-1.5410309	-0.22688293
340064723405620	-0.883728	-1.58992	-0.21588135
340064728441020	-0.8666229	-1.6509857	-0.19876099
340064733659526	-0.84095764	-1.715744	-0.18167114
340064738511821	-0.84095764	-1.7780457	-0.16578674
340064743547222	-0.8006592	-1.7780457	-0.16578674
340064748796245	-0.74568176	-1.8256989	-0.15968323
340064753587505	-0.67970276	-1.8464661	-0.1670227
340064756974956	-0.60884094	-1.8318176	-0.19023132
340064763688823	-0.5367584	-1.7914886	-0.22444153
340064768754741	-0.4671173	-1.7560577	-0.26963806
340064773759624	-0.39259338	-1.7487335	-0.32583618
340064778795024	-0.3009796	-1.7792816	-0.39059448
340064784166118	-0.17512512	-1.8318176	-0.46022034
340064788865825	-0.0077667236	-1.8709106	-0.53596497
340064793931743	0.19381714	-1.847702	-0.6239319
340064799333354	0.42105103	-1.7267456	-0.7363281
340064803972026	0.6580658	-1.5092773	-0.87072754
340064807328960	0.8914337	-1.2453766	-0.99534607
340064814073345	1.1113281	-1.0010376	-1.0686493
340064819047710	1.3165741	-0.82388306	-1.0625305
340064824113628	1.5193787	-0.7249298	-0.9819031
340064829149028	1.7356262	-0.6943817	-0.85606384
340064834398052	1.9665375	-0.71881104	-0.7155609
340064839219829	2.2035522	-0.7786865	-0.57629395
340064844255229	2.427124	-0.8446655	-0.4480133
340064849717876	2.6299286	-0.884964	-0.3356018
340064854356548	2.811966	-0.87031555	-0.23908997
340064857682964	2.811966	-0.78601074	-0.23908997
340064864366313	3.1516113	-0.78601074	-0.09248352
340064869401714	3.2945557	-0.45858765	-0.041168213
340064874467632	3.3910675	-0.291214	-0.003326416
340064879503032	3.4179535	-0.17147827	0.016235352
340064884752056	3.3654175	-0.11038208	0.02355957
340064889573833	3.3654175	-0.109176636	0.02355957
340064894609233	3.2371368	-0.109176636	0.028442383
340064899858257	3.0477753	-0.16291809	0.044326782
340064904649516	2.8180847	-0.2618866	0.07487488
340064908036968	2.5749512	-0.3914032	0.1164093
340064914750835	2.348938	-0.52578735	0.16038513
340064919755718	2.1607819	-0.63694763	0.20315552
340064924821636	2.0239563	-0.70536804	0.24957275
340064929857036	1.9408875	-0.720047	0.29600525
340064935228130	1.9066772	-0.679718	0.33998108
340064939958354	1.9140015	-0.59420776	0.37419128
340064944963237	1.9543304	-0.48179626	0.4022827
340064950273296	2.0178528	-0.36940002	0.42549133
340064955064556	2.0960388	-0.2741089	0.44384766
340064958390972	2.179123	-0.1971283	0.45481873
340064965104839	2.2719727	-0.11773682	0.4584961
340064970140239	2.3855896	-0.023651123	0.46461487
340064975145122	2.5395355	0.071624756	0.48049927
340064980241557	2.7350006	0.13882446	0.5024719
340064985582134	2.9536896	0.15835571	0.5146942
340064990312358	3.1674957	0.14492798	0.50491333
340064995378276	3.354416	0.13270569	0.47070313
340065001024028	3.4973602	0.14981079	0.42304993
340065005357524	3.5889893	0.20845032	0.3790741
340065008744975	3.5889893	0.30130005	0.3790741
340065015458843	3.6097565	0.30130005	0.33631897
340065020463725	3.541336	0.5236664	0.33998108
340065025499126	3.541336	0.5920868	0.35220337
340065030565044	3.424057	0.5920868	0.35220337
340065035783550	3.2603455	0.59085083	0.35954285
340065040666362	3.056305	0.5175476	0.34854126
340065045671245	2.8278503	0.4124756	0.31311035
340065051133891	2.6006012	0.31718445	0.26057434
340065055742046	2.3990326	0.24876404	0.20436096
340065059129497	2.2377625	0.2023468	0.15306091
340065065812847	2.1156006	0.17424011	0.10908508
340065070848247	2.026413	0.17301941	0.07243347
340065075883647	1.9640961	0.20478821	0.045547485
340065080888530	1.9213257	0.2658844	0.029678345
340065086198589	1.8883514	0.34651184	0.027236938
340065090989849	1.86026	0.44058228	0.03944397
340065096055766	1.8284912	0.5407562	0.065093994
340065101365825	1.7869415	0.64094543	0.098083496
340065106096050	1.7307434	0.73501587	0.1322937
340065109483501	1.6525574	0.816864	0.16282654
340065116197368	1.5523834	0.8755188	0.19094849
340065121263286	1.4326477	0.90483093	0.21659851
340065126237651	1.2994843	0.9036102	0.23612976
340065131273052	1.1577454	0.8742981	0.24468994
340065136766216	1.0123749	0.8217621	0.24224854
340065141374370	0.86331177	0.74967957	0.2300415
340065146379253	0.71183777	0.66659546	0.2141571
340065151872417	0.56277466	0.5810852	0.19459534
340065156450054	0.41984558	0.4980011	0.17015076
340065159806987	0.41984558	0.41493225	0.17015076
340065166520854	0.15715027	0.41493225	0.1164093
340065171617290	0.15715027	0.2658844	0.09197998
340065176622173	0.031326294	0.2658844	0.09197998
340065181657573	-0.09693909	0.20845032	0.07243347
340065187364360	-0.37304688	0.1669159	0.038223267
340065191697856	-0.37304688	0.15715027	0.038223267
340065196733257	-0.51231384	0.15715027	0.024780273
340065202195903	-0.64427185	0.1876831	0.016235352
340065206834575	-0.765213	0.2341156	0.011352539
340065210160991	-0.87028503	0.29641724	0.0064697266
340065216905376	-0.95336914	0.37339783	-0.0069732666
340065221940776	-1.010788	0.4650116	-0.031402588
340065227006694	-1.0388794	0.56396484	-0.06561279
340065232011577	-1.0352325	0.66171265	-0.10958862
340065237352153	-1.0059052	0.75823975	-0.16578674
340065242082378	-0.9545746	0.8523102	-0.22808838
340065247117778	-0.88494873	0.9476013	-0.28796387
340065252610942	-0.8006592	1.0526733	-0.330719
340065257158061	-0.70903015	1.1638489	-0.3453827
340065260545513	-0.61616516	1.2652435	-0.32339478
340065267259380	-0.52211	1.3251038	-0.26597595
340065272264263	-0.42436218	1.3165741	-0.18655396
340065277330181	-0.3143921	1.2310333	-0.10958862
340065282365581	-0.18734741	1.074646	-0.055847168
340065287645122	-0.048095703	0.8620758	-0.035079956
340065292436382	0.08874512	0.60917664	-0.04360962
340065297441265	0.20359802	0.33551025	-0.07537842
340065302812358	0.28422546	0.067977905	-0.123031616
340065307542583	0.33309937	-0.16291809	-0.18045044
340065310838481	0.33309937	-0.3290863	-0.18045044
340065317613384	0.3611908	-0.3290863	-0.24397278
340065322648784	0.395401	-0.41337585	-0.31362915
340065327623149	0.46258545	-0.4256134	-0.3856964
340065332689067	0.57987976	-0.38772583	-0.44677734
340065338121196	0.7289276	-0.3327484	-0.4748993
340065342790386	0.8596649	-0.30342102	-0.44677734
340065347856304	0.9207306	-0.3547516	-0.344162
340065353288432	0.9048462	-0.51234436	-0.16578674
340065357866069	0.83399963	-0.732254	0.06877136
340065361223003	0.7203827	-0.91185	0.32655334
340065367936870	0.5493469	-0.9680481	0.5831146
340065372972270	0.329422	-0.90208435	0.8311157
340065378007671	0.13517761	-0.77378845	1.0595856
340065383043071	0.08508301	-0.6088562	1.2391663
340065388383647	0.23291016	-0.39260864	1.3344727
340065393144390	0.49069214	-0.13850403	1.3271332
340065398149272	0.67518616	0.082611084	1.231842
340065404008647	0.6372986	0.19134521	1.0705719
340065408250591	0.3587494	0.17791748	0.87142944
340065411577007	0.3587494	0.10461426	0.664978
340065418290874	-0.53063965	0.10461426	0.48538208
340065423326274	-0.94725037	-0.076187134	0.35098267
340065428422710	-1.2954559	-0.2130127	0.26179504
340065433427593	-1.5813293	-0.40116882	0.20315552
340065439134380	-1.8183441	-0.6161804	0.1616211
340065443498393	-2.0125885	-0.8263397	0.12617493
340065448533794	-2.1616516	-1.0083618	0.08831787
340065453843852	-2.2618408	-1.1537476	0.04676819
340065458604595	-2.2618408	-1.2563782	0.012557983
340065461961528	-2.308258	-1.3150177	0.012557983
340065468675395	-2.3021545	-1.3150177	3.5095215E-4
340065473680278	-2.2496033	-1.3284607	0.021118164
340065478746196	-2.1616516	-1.2966919	0.0663147
340065483751079	-2.050476	-1.2197266	0.1164093
340065489274761	-1.9283142	-1.0890045	0.15184021
340065493852397	-1.8024597	-0.89720154	0.15794373
340065498857280	-1.6790619	-0.6516266	0.1298523
340065504197856	-1.565445	-0.37672424	0.07121277
340065508958599	-1.4762573	-0.107940674	-0.0069732666
340065512285015	-1.4298401	0.1217041	-0.08882141
340065519029399	-1.4469299	0.28785706	-0.1670227
340065524064800	-1.5410309	0.36972046	-0.23664856
340065529069682	-1.7010651	0.35751343	-0.29162598
340065534135600	-1.8953094	0.24266052	-0.3319397
340065539598247	-2.0834656	0.026443481	-0.35760498
340065544206401	-2.2325134	-0.26922607	-0.369812
340065549272319	-2.3278046	-0.600296	-0.3685913
340065554734966	-2.370575	-0.9142914	-0.3527069
340065559312602	-2.370575	-1.1720734	-0.31973267
340065562608501	-2.370575	-1.3516693	-0.31973267
340065569383403	-2.2996979	-1.3516693	-0.19631958
340065574388286	-2.255722	-1.4677429	-0.110809326
340065579515239	-2.2227478	-1.4164124	-0.0155181885
340065584459087	-2.2019806	-1.3076935	0.0834198
340065590196391	-2.1885376	-1.156189	0.18115234
340065594560405	-2.1811981	-0.9729309	0.27157593
340065599595806	-2.1763	-0.76768494	0.35342407
340065605088970	-2.1763	-0.5526581	0.4181671
340065609636089	-2.1763	-0.3388672	0.4181671
340065613023540	-2.177536	-0.3388672	0.4633789
340065619767925	-2.1702118	-0.13606262	0.48658752
340065624711772	-2.15065	0.04597473	0.4902649
340065630479595	-2.116455	0.19378662	0.47314453
340065634813091	-2.0736847	0.30497742	0.43772888
340065639848491	-2.0272675	0.38316345	0.38519287
340065644914409	-1.9820557	0.44792175	0.31677246
340065649919292	-1.9405212	0.51878357	0.23980713
340065655656597	-1.9038696	0.5945282	0.16282654
340065660051128	-1.8721008	0.66171265	0.09686279
340065663347026	-1.8415527	0.70202637	0.04676819
340065670121929	-1.8122406	0.7032623	0.01499939
340065675126811	-1.7902527	0.6702728	-8.8500977E-4
340065680131694	-1.7792511	0.60917664	-0.003326416
340065685167095	-1.7841339	0.5285492	0.0027923584
340065690629741	-1.8097992	0.4295807	0.011352539
340065695237895	-1.8562164	0.315979	0.019897461
340065700364849	-1.9209747	0.18890381	0.019897461
340065705766460	-1.9967346	0.054534912	0.012557983
340065710344097	-2.077362	-0.08352661	3.5095215E-4
340065713731548	-2.077362	-0.21791077	3.5095215E-4
340065720414897	-2.2203064	-0.21791077	-0.009414673
340065725511333	-2.2654877	-0.43904114	-0.0045318604
340065730485698	-2.2862701	-0.51478577	0.0052337646
340065735551616	-2.281372	-0.561203	0.022338867
340065740861675	-2.2496033	-0.57099915	0.04800415
340065745591899	-2.189743	-0.53678894	0.0821991
340065750657817	-2.189743	-0.45370483	0.0821991
340065756150981	-1.9832916	-0.45370483	0.18115234
340065760728618	-1.9832916	-0.15194702	0.18115234
340065764055034	-1.8378906	-0.15194702	0.23492432
340065770799419	-1.6766205	0.043533325	0.28256226
340065775804302	-1.5153503	0.24143982	0.32287598
340065780870220	-1.3687592	0.41737366	0.35464478
340065785905620	-1.2478027	0.54808044	0.3815155
340065791185161	-1.1598358	0.6152954	0.40107727
340065795976421	-1.1036377	0.6018524	0.4096222
340065801011821	-1.0730896	0.50045776	0.40107727
340065806810161	-1.0547638	0.3184204	0.375412
340065811082622	-1.0388794	0.0899353	0.34120178
340065814439556	-1.0156708	-0.13606262	0.30944824
340065821183940	-0.97657776	-0.3119812	0.28501892
340065826158306	-0.92037964	-0.41337585	0.26913452
340065831193706	-0.85684204	-0.43782043	0.26669312
340065836259624	-0.792099	-0.4048462	0.27523804
340065841508647	-0.73223877	-0.33518982	0.28746033
340065846330425	-0.67726135	-0.24601746	0.29478455
340065851365825	-0.62838745	-0.14338684	0.29112244
340065856675884	-0.5844116	-0.032211304	0.26789856
340065861467143	-0.54776	0.082611084	0.22392273
340065864763042	-0.54776	0.1852417	0.22392273
340065871537944	-0.495224	0.1852417	0.0834198
340065876542827	-0.47322083	0.27809143	3.5095215E-4
340065881547710	-0.4463501	0.25120544	-0.077819824
340065886613628	-0.40725708	0.19134521	-0.14501953
340065892106792	-0.34739685	0.12049866	-0.19387817
340065896684429	-0.34739685	0.05697632	-0.19387817
340065901780864	-0.25941467	0.05697632	-0.22320557
340065907518169	0.03010559	0.011764526	-0.25741577
340065911760112	0.03010559	0.0178833	-0.25741577
340065915117046	0.23291016	0.0178833	-0.2965088
340065921830913	0.46014404	0.09239197	-0.3673706
340065926866313	0.6971588	0.21334839	-0.4748993
340065931932231	0.93785095	0.35383606	-0.60928345
340065936967632	1.1858673	0.4833374	-0.7448883
340065942369243	1.4460907	0.5762024	-0.85972595
340065947038432	1.7173157	0.62872314	-0.94281006
340065952043315	1.9799805	0.65805054	-0.9990082
340065957566997	2.2145538	0.69104004	-1.0356598
340065962144634	2.40271	0.73747253	-1.0539856
340065965532085	2.5480804	0.7887726	-1.0429993
340065972215434	2.672699	0.8217621	-1.0002289
340065977220317	2.8095245	0.82666016	-0.9256897
340065982316753	2.9805756	0.8095398	-0.82795715
340065987321636	3.188263	0.791214	-0.7216797
340065993058940	3.3971863	0.79244995	-0.6202698
340065997361919	3.5645447	0.8254242	-0.53596497
340066002427837	3.6549683	0.882843	-0.46878052
340066007768413	3.664734	0.9304962	-0.4138031
340066012559673	3.608551	0.9036102	-0.3637085
340066015825054	3.608551	0.7594452	-0.3637085
340066022599956	3.380066	0.7594452	-0.28430176
340066027574321	3.240799	0.22189331	-0.24765015
340066032640239	3.110077	-0.019989014	-0.19631958
340066037675640	3.110077	-0.15315247	-0.123031616
340066043138286	2.9427032	-0.15315247	-0.033843994
340066047746440	2.9427032	-0.019989014	-0.033843994
340066052812358	2.918274	-0.019989014	0.05899048
340066058458110	2.9255981	0.20600891	0.14938354
340066062822124	2.9634705	0.47601318	0.23980713
340066066209575	3.0282135	0.73747253	0.33631897
340066072923442	3.1174011	0.94392395	0.43528748
340066077989360	3.2175903	1.0697632	0.52812195
340066082963725	3.3055573	1.1113129	0.60632324
340066088029643	3.3568573	1.0783234	0.6686249
340066093400737	3.3556519	0.98669434	0.72239685
340066098100444	3.298233	0.8523102	0.7675934
340066103196880	3.1894836	0.69470215	0.7932434
340066108995220	3.0477753	0.53466797	0.7944641
340066113206645	2.8889465	0.38926697	0.7712555
340066116563579	2.737442	0.2793274	0.72727966
340066123246929	2.6152802	0.21211243	0.65397644
340066128251811	2.5444183	0.184021	0.5513458
340066133348247	2.5358582	0.18157959	0.42549133
340066138353130	2.5859528	0.1864624	0.29722595
340066143663188	2.676361	0.19134521	0.1799469
340066148393413	2.786316	0.19378662	0.07853699
340066153459331	2.89505	0.2023468	-0.003326416
340066158891460	2.9878998	0.2206726	-0.07171631
340066163530132	3.051422	0.25976563	-0.13157654
340066166917583	3.051422	0.33674622	-0.13157654
340066173626438	3.056305	0.33674622	-0.251297
340066178600803	3.0013428	0.6372833	-0.30751038
340066183666721	3.0013428	0.830307	-0.30751038
340066188702122	2.9255981	0.830307	-0.3478241
340066193951145	2.8425293	0.99645996	-0.3637085
340066198742405	2.7582245	1.0929871	-0.3527069
340066203808323	2.660492	1.0966492	-0.32339478
340066209057346	2.5334167	1.0196686	-0.28918457
340066213909641	2.3672638	0.8975067	-0.25741577
340066217236057	2.1644592	0.77168274	-0.22200012
340066224010960	1.9335632	0.6702728	-0.18167114
340066229015842	1.6843109	0.61161804	-0.14379883
340066233990208	1.4216461	0.612854	-0.11325073
340066239025608	1.1614227	0.6690521	-0.090042114
340066244427219	0.91952515	0.74235535	-0.066833496
340066249126926	0.71183777	0.777771	-0.041168213
340066254223362	0.53222656	0.74967957	-0.020401001
340066259594456	0.36975098	0.67637634	-0.014297485
340066264233128	0.20603943	0.6018524	-0.022842407
340066267559544	0.039871216	0.55055237	-0.04360962
340066274303928	-0.12870789	0.52975464	-0.066833496
340066279369846	-0.29730225	0.5248718	-0.08882141
340066284374729	-0.4646759	0.51878357	-0.11325073
340066289410129	-0.63082886	0.5016632	-0.13891602
340066294842258	-0.79333496	0.47113037	-0.16946411
340066299511448	-0.9484863	0.4308014	-0.19999695
340066304516331	-1.0950928	0.38804626	-0.23420715
340066310009495	-1.228241	0.34895325	-0.26841736
340066314587131	-1.3430939	0.31230164	-0.30262756
340066317913547	-1.3430939	0.27441406	-0.30262756
340066324688450	-1.4958191	0.27441406	-0.3661499
340066329693333	-1.4958191	0.18157959	-0.3661499
340066334759251	-1.5251465	0.18157959	-0.4015808
340066339794651	-1.5202332	0.14248657	-0.4406891
340066345104710	-1.4823761	0.12660217	-0.4748993
340066349865452	-1.4102936	0.14614868	-0.4956665
340066354900852	-1.3052216	0.21455383	-0.4932251
340066360790745	-1.1720581	0.34651184	-0.4565735
340066365002170	-1.0181122	0.533432	-0.3759308
340066368298069	-0.8592987	0.74723816	-0.25376892
340066375072971	-0.69924927	0.9329376	-0.10836792
340066380077854	-0.5318756	1.0416718	0.03211975
340066385113254	-0.3486023	1.0441132	0.14329529
340066390179172	-0.14091492	0.93904114	0.21292114
340066395458713	0.07652283	0.74723816	0.23736572
340066400249973	0.28300476	0.5053406	0.21536255
340066405285374	0.45159912	0.2548828	0.1481781
340066410961643	0.573761	0.036209106	0.04676819
340066415417210	0.65930176	-0.11405945	-0.07293701
340066418682590	0.7301636	-0.17391968	-0.19387817
340066425488010	0.8230133	-0.14338684	-0.30018616
340066430431858	0.97694397	-0.045639038	-0.3808136
340066435436741	1.2066345	0.091171265	-0.4272461
340066440472141	1.4827423	0.22923279	-0.42601013
340066446056858	1.7319641	0.30986023	-0.35882568
340066450573460	1.8907928	0.26464844	-0.20732117
340066455639378	1.9274445	0.08628845	0.019897461
340066461102024	1.8370209	-0.14459229	0.27157593
340066465679661	1.6244507	-0.3132019	0.4817047
340066469006077	1.6244507	-0.36572266	0.4817047
340066475719944	1.3068085	-0.36572266	0.61976624
340066480755344	0.9292908	-0.34375	0.70162964
340066485943333	0.55178833	-0.3254242	0.7529297
340066490856663	0.21336365	-0.3486328	0.7736969
340066496014133	-0.092056274	-0.3889618	0.7492676
340066500927463	-0.3950348	-0.39872742	0.6845093
340066505932346	-0.70903015	-0.36328125	0.60998535
340066511425510	-1.0071106	-0.30465698	0.55622864
340066516003147	-1.2490082	-0.24967957	0.5354614
340066519390598	-1.4053955	-0.21424866	0.54156494
340066526257053	-1.4738159	-0.2130127	0.55989075
340066531109348	-1.4799347	-0.27166748	0.57699585
340066536388889	-1.4799347	-0.423172	0.58677673
340066541180149	-1.5373535	-0.6723938	0.58921814
340066546276585	-1.6937408	-0.9790497	0.59043884
340066551250950	-1.9441833	-1.274704	0.59532166
340066556286350	-2.242279	-1.5019379	0.59776306
340066561626926	-2.5342712	-1.6326599	0.5843353
340066566601292	-2.7798462	-1.6717529	0.5428009
340066569714085	-2.7798462	-1.6277771	0.5428009
340066576672092	-3.0254211	-1.6277771	0.35708618
340066581463352	-3.0193024	-1.3467865	0.22392273
340066586620823	-2.9545593	-1.1403046	0.0821991
340066591534153	-2.8629303	-0.9191742	-0.058288574
340066597515598	-2.771286	-0.7102661	-0.18534851
340066601604954	-2.6955414	-0.5379944	-0.29406738
340066606915012	-2.640564	-0.41581726	-0.3795929
340066611980930	-2.601471	-0.34251404	-0.4431305
340066616711155	-2.601471	-0.316864	-0.4431305
340066620098606	-2.5684814	-0.316864	-0.48710632
340066628582493	-2.51474	-0.34985352	-0.522522
340066631847874	-2.51474	-0.6112976	-0.522522
340066637646213	-2.5098572	-0.6112976	-0.51763916
340066641918674	-2.5293884	-0.80433655	-0.51763916
340066647259251	-2.5709229	-0.9936981	-0.5005493
340066651989475	-2.6197968	-1.156189	-0.46998596
340066657024876	-2.6625671	-1.2771454	-0.42356873
340066662518040	-2.6869812	-1.3516693	-0.3612671
340066667248264	-2.6857758	-1.3748779	-0.28186035
340066670391575	-2.6564484	-1.3455505	-0.18899536
340066677380100	-2.5990295	-1.2698059	-0.086380005
340066682171360	-2.523285	-1.1549835	0.021118164
340066687603489	-2.4414368	-1.0108032	0.12496948
340066692242161	-2.3620148	-0.8507538	0.21780396
340066697308079	-2.281372	-0.6992798	0.29112244
340066702312962	-2.1970673	-0.5770874	0.34120178
340066707378879	-2.111557	-0.5013428	0.36686707
340066712811008	-2.0272675	-0.46347046	0.37052917
340066717846409	-1.9429626	-0.44514465	0.35586548
340066720776096	-1.9429626	-0.4280548	0.35586548
340066727947727	-1.7670441	-0.4280548	0.29478455
340066732555881	-1.6864014	-0.3596344	0.25689697
340066737896458	-1.6204224	-0.2973175	0.2141571
340066742596165	-1.5703278	-0.21057129	0.17262268
340066747753635	-1.5300293	-0.10429382	0.1347351
340066752697483	-1.4945831	0.006881714	0.105407715
340066758190647	-1.4616089	0.10461426	0.089538574
340066763409153	-1.4347229	0.17669678	0.085861206
340066768322483	-1.4188385	0.21699524	0.08831787
340066771160618	-1.4188385	0.23287964	0.08831787
340066778728977	-1.4432831	0.23287964	0.09075928
340066782940403	-1.4432831	0.2206726	0.09075928
340066788647190	-1.4945831	0.2206726	0.0834198
340066792980686	-1.5727844	0.20600891	0.07243347
340066798534885	-1.6668549	0.1864624	0.05899048
340066803051487	-1.7658081	0.16325378	0.044326782
340066808910862	-1.8562164	0.14126587	0.034561157
340066813946262	-1.9295197	0.119262695	0.029678345
340066818340794	-1.9820557	0.09484863	0.029678345
340066821453587	-2.0150604	0.06430054	0.033325195
340066828991428	-2.0309296	0.02520752	0.037002563
340066833233372	-2.0358276	-0.024871826	0.044326782
340066839245335	-2.0297089	-0.09207153	0.05899048
340066843304172	-2.011383	-0.18247986	0.08708191
340066849010960	-1.97229	-0.2899933	0.12617493
340066853405491	-1.9136353	-0.40116882	0.16894531
340066858685032	-1.8342285	-0.48669434	0.20927429
340066864300266	-1.7450409	-0.52090454	0.24957275
340066869244114	-1.6509705	-0.48547363	0.29600525
340066871899143	-1.6509705	-0.37916565	0.29600525
340066879436985	-1.4664917	-0.37916565	0.40107727
340066883587376	-1.3895264	-0.023651123	0.44628906
340066889599338	-1.333313	0.16325378	0.48049927
340066893688694	-1.2966614	0.30130005	0.5012665
340066899273411	-1.2734528	0.35507202	0.5085907
340066903728977	-1.2734528	0.29641724	0.4975891
340066909496799	-1.2294769	0.29641724	0.46826172
340066914104954	-1.2294769	-0.15315247	0.46826172
340066919811741	-1.1366272	-0.15315247	0.35586548
340066929852024	-1.0645447	-0.73347473	0.22636414
340066933941379	-0.98269653	-0.91308594	0.22636414
340066939770237	-0.8959503	-0.977829	0.1799469
340066944012180	-0.8092041	-0.9423828	0.14938354
340066950481907	-0.72491455	-0.8446655	0.1298523
340066954113499	-0.64183044	-0.72125244	0.11274719
340066960155979	-0.561203	-0.6027374	0.09075928
340066964855686	-0.48298645	-0.50624084	0.06021118
340066970287815	-0.40725708	-0.43782043	0.02355957
340066980633274	-0.24964905	-0.37916565	-0.06317139
340066984356419	-0.15679932	-0.3645172	-0.102264404
340066990246311	-0.044418335	-0.34007263	-0.12791443
340066994396702	0.09364319	-0.2960968	-0.14135742
340067000286594	0.26834106	-0.22401428	-0.15357971
340067004467503	0.49191284	-0.12138367	-0.18045044
340067010937229	0.7655792	0.0178833	-0.24032593
340067014965549	1.0734558	0.1876831	-0.34172058
340067020916477	1.3849945	0.37828064	-0.48954773
340067030804172	1.9225616	0.5700836	-0.8841553
340067034649387	2.130249	0.9121704	-1.0906372
340067041271702	2.3049622	1.036789	-1.280014
340067044750706	2.45401	1.1125336	-1.4412842
340067050793186	2.5859528	1.1296387	-1.5524445
340067054821506	2.5859528	1.089325	-1.5524445
340067060711399	2.8425293	1.089325	-1.5451202
340067065380588	2.8425293	0.9317169	-1.5451202
340067070995823	3.091751	0.9317169	-1.2641296
340067081249729	3.2615662	0.8498688	-0.94281006
340067084972874	3.2615662	0.7985382	-0.94281006
340067091625706	3.323883	0.7985382	-0.7021179
340067095104710	3.3825073	0.7093506	-0.7021179
340067100964085	3.4350586	0.5652008	-0.61294556
340067105206028	3.472931	0.38316345	-0.5384064
340067111645237	3.4875946	0.1828003	-0.4663391
340067115887180	3.476593	-0.01876831	-0.3856964
340067121807590	3.4423828	-0.20812988	-0.29040527
340067131725803	3.3592987	-0.46470642	-0.06317139
340067135357395	3.3458557	-0.48423767	0.04800415
340067141857639	3.362976	-0.41337585	0.1457367
340067145458713	3.3996277	-0.2594452	0.22636414
340067151531712	3.4387207	-0.039535522	0.29600525
340067155498997	3.46315	0.21090698	0.3607483
340067162151829	3.46315	0.45401	0.42184448
340067165874973	3.4350586	0.64949036	0.47314453
340067172009006	3.3874054	0.77656555	0.5134735
340067181988254	3.2676697	0.8351898	0.57211304
340067185741917	3.2004852	0.8351898	0.598999
340067190777317	3.2004852	0.816864	0.61608887
340067195782200	3.1284027	0.7985382	0.61608887
340067201336399	2.9878998	0.7985382	0.55622864
340067205853001	2.9878998	0.7460022	0.55622864
340067212292210	2.8828278	0.7460022	0.36930847
340067216351047	2.8828278	0.6531677	0.36930847
340067221020237	2.8425293	0.6531677	0.25325012
340067224316135	2.811966	0.61405945	0.1298523
340067231060520	2.7911987	0.6055145	0.0052337646
340067236065403	2.786316	0.638504	-0.11325073
340067241131321	2.799759	0.71669006	-0.21464539
340067246166721	2.8278503	0.8400879	-0.29406738
340067251904026	2.865738	0.98913574	-0.3466034
340067256207004	2.9023895	1.1369629	-0.3808136
340067262676731	2.9207153	1.2615662	-0.40768433
340067266582981	2.9060364	1.3764191	-0.44677734
340067271374241	2.8547363	1.5108185	-0.5005493
340067274731174	2.781433	1.6708527	-0.55796814
340067281445042	2.7020264	1.8138123	-0.59461975
340067286449924	2.621399	1.8785553	-0.59828186
340067291515842	2.5309753	1.8321381	-0.56651306
340067296490208	2.4222412	1.6977386	-0.50665283
340067301922337	2.2866364	1.5230255	-0.43089294
340067306591526	2.116806	1.3544312	-0.35638428
340067313244358	1.8969116	1.2273712	-0.28918457
340067316906467	1.6293335	1.1650696	-0.23420715
340067321728245	1.3373413	1.1589508	-0.18289185
340067325054661	1.3373413	1.1699524	-0.18289185
340067331799045	0.8046875	1.1699524	-0.08760071
340067336803928	0.8046875	1.0722046	-0.049728394
340067341869846	0.59332275	1.0722046	-0.049728394
340067346844212	0.41249084	0.96224976	-0.02772522
340067352367893	0.25001526	0.8535156	-0.020401001
340067356945530	0.096084595	0.7704468	-0.02407837
340067362011448	-0.052978516	0.7227936	-0.031402588
340067367474094	-0.19467163	0.71058655	-0.0362854
340067372082249	-0.32783508	0.72158813	-0.038726807
340067375378147	-0.4512329	0.738678	-0.041168213
340067382183567	-0.57218933	0.7435608	-0.04360962
340067387218967	-0.69558716	0.7276764	-0.049728394
340067392193333	-0.8165436	0.70080566	-0.06317139
340067397228733	-0.92648315	0.6690521	-0.08760071
340067402843967	-1.0169067	0.63238525	-0.123031616
340067407330051	-1.0853119	0.5786438	-0.1670227
340067412334934	-1.1256256	0.4967804	-0.21464539
340067418224827	-1.1402893	0.37950134	-0.2671814
340067422436253	-1.1317444	0.23532104	-0.32583618
340067425793186	-1.1085205	0.08140564	-0.39059448
340067432537571	-1.076767	-0.06764221	-0.4590149
340067437511936	-1.0388794	-0.19592285	-0.52375793
340067442547337	-0.99002075	-0.2973175	-0.58239746
340067447582737	-0.92404175	-0.3596344	-0.62516785
340067452923313	-0.8348694	-0.36940002	-0.6361542
340067457623020	-0.71147156	-0.3132019	-0.6043854
340067462688938	-0.5526428	-0.18980408	-0.52497864
340067468121067	-0.35838318	-0.013885498	-0.41012573
340067472759739	-0.14213562	0.17669678	-0.27818298
340067476147190	-0.14213562	0.34895325	-0.27818298
340067482800022	0.07896423	0.34895325	-0.14868164
340067487835422	0.28544617	0.47477722	-0.033843994
340067492901340	0.4564972	0.54808044	0.06021118
340067497936741	0.57743835	0.5762024	0.1298523
340067503796116	0.63853455	0.572525	0.17871094
340067507977024	0.6446228	0.48213196	0.17871094
340067513042942	0.6165314	0.48213196	0.1457367
340067518353001	0.58599854	0.41125488	0.0675354
340067523113743	0.58232117	0.35627747	-0.049728394
340067526501194	0.6238556	0.34895325	-0.18534851
340067533184544	0.719162	0.40026855	-0.31973267
340067538219944	0.86943054	0.49554443	-0.4406891
340067543255344	1.0575714	0.6018524	-0.54574585
340067548290745	1.234726	0.67637634	-0.6239319
340067554150120	1.3348999	0.68003845	-0.6569214
340067558361545	1.3165741	0.5884094	-0.6373749
340067563366428	1.1870728	0.40148926	-0.57629395
340067568920628	0.9781647	0.14370728	-0.5005493
340067573467747	0.6996002	-0.15682983	-0.42112732
340067576794163	0.6996002	-0.5001221	-0.32217407
340067583569065	-0.184906	-0.5001221	-0.17190552
340067588573948	-0.7236786	-1.2624817	0.027236938
340067593578831	-1.0999756	-1.4726257	0.23492432
340067598644749	-1.1292877	-1.3919983	0.39007568
340067604198948	-0.8287506	-1.0352325	0.4658203
340067608746067	-0.4365692	-0.5697632	0.49147034
340067613750950	-0.22766113	-0.18125916	0.53302
340067619610325	-0.30462646	0.055755615	0.6332092
340067623821751	-0.30462646	0.17913818	0.7810211
340067627178684	-0.561203	0.25976563	0.7810211
340067633892551	-0.818985	0.25976563	0.9386444
340067638927952	-0.95703125	0.32574463	1.0669098
340067643963352	-0.94358826	0.35017395	1.1499786
340067648998753	-0.8214264	0.28785706	1.1817474
340067654278294	-0.687027	0.103378296	1.153656
340067659039036	-0.66748047	-0.21057129	1.0656891
340067664074436	-0.8592987	-0.6161804	0.92884827
340067669323460	-1.2832336	-1.0218048	0.7639313
340067674175754	-1.8647766	-1.3235779	0.58555603
340067677502170	-2.4927368	-1.4652863	0.40351868
340067684216038	-3.0535126	-1.471405	0.22268677
340067689251438	-3.461563	-1.4188538	0.049209595
340067694286838	-3.6607208	-1.3846436	-0.1010437
340067699322239	-3.6362762	-1.3883209	-0.21220398
340067704723850	-3.4285889	-1.3932037	-0.2830658
340067709423557	-3.1097107	-1.3394623	-0.32461548
340067714428440	-2.7602997	-1.1879578	-0.35516357
340067719738499	-2.4438782	-0.95706177	-0.3869171
340067724529758	-2.1958618	-0.7004852	-0.42236328
340067727856174	-2.1958618	-0.47691345	-0.42236328
340067734600559	-1.9502869	-0.47691345	-0.4956665
340067739635960	-1.945404	-0.19958496	-0.5213165
340067744671360	-2.0065002	-0.12750244	-0.5298767
340067749645725	-2.1188965	-0.084732056	-0.522522
340067755169407	-2.2642822	-0.07130432	-0.5005493
340067759777561	-2.4255524	-0.100616455	-0.46510315
340067764782444	-2.5831451	-0.17880249	-0.4162445
340067770275608	-2.7211914	-0.29977417	-0.35394287
340067774883762	-2.7211914	-0.4414978	-0.35394287
340067778179661	-2.8262634	-0.4414978	-0.27697754
340067784954563	-2.889801	-0.5795288	-0.18778992
340067789959446	-2.9105682	-0.6919403	-0.09370422
340067795025364	-2.8910217	-0.77012634	0.0027923584
340067800030247	-2.837265	-0.80677795	0.098083496
340067805309788	-2.7566376	-0.79945374	0.19215393
340067810101047	-2.6564484	-0.7444763	0.28134155
340067815136448	-2.5391693	-0.64430237	0.3607483
340067820538059	-2.4157715	-0.50624084	0.42060852
340067825237766	-2.2923737	-0.34375	0.4584961
340067828564182	-2.1738586	-0.17271423	0.4792633
340067835308567	-2.0651398	-0.0077667236	0.48538208
340067840313450	-1.9674072	0.14370728	0.4792633
340067845348850	-1.8855438	0.28297424	0.45970154
340067850384251	-1.8207855	0.41493225	0.42549133
340067855663792	-1.7694855	0.5309906	0.38275146
340067860485569	-1.7267151	0.61161804	0.33509827
340067865490452	-1.6912994	0.64216614	0.28746033
340067870800510	-1.6595306	0.61650085	0.24836731
340067875561253	-1.6387482	0.5554352	0.21780396
340067878918186	-1.6387482	0.4857788	0.21780396
340067885632053	-1.6387482	0.4857788	0.19094849
340067890667454	-1.6668549	0.38316345	0.18482971
340067895733372	-1.714508	0.35627747	0.1775055
340067900768772	-1.775589	0.33918762	0.16282654
340067906170383	-1.8452301	0.32574463	0.14329529
340067910778538	-1.9148712	0.30130005	0.122528076
340067915813938	-1.9148712	0.25976563	0.122528076
340067921215549	-2.02359	0.25976563	0.098083496
340067925915256	-2.02359	0.119262695	0.098083496
340067929241672	-2.050476	0.119262695	0.09686279
340067936016575	-2.0516968	0.04232788	0.10296631
340067941021458	-2.024826	-0.019989014	0.11152649
340067946087376	-1.97229	-0.06640625	0.12496948
340067951092258	-1.8977509	-0.09941101	0.14085388
340067956554905	-1.8061371	-0.13850403	0.16770935
340067961132542	-1.7059479	-0.20448303	0.20315552
340067966228977	-1.6057739	-0.3070984	0.24102783
340067971600071	-1.5141449	-0.43659973	0.27645874
340067976269260	-1.4359589	-0.57099915	0.30578613
340067979626194	-1.3675232	-0.680954	0.33143616
340067986340061	-1.3015594	-0.732254	0.35708618
340067991375462	-1.2331543	-0.6980438	0.38275146
340067996441379	-1.1696167	-0.57344055	0.40716553
340068001446262	-1.1183014	-0.38160706	0.4291687
340068007061497	-1.088974	-0.16171265	0.4474945
340068011517063	-1.0792084	0.03742981	0.45970154
340068016552463	-1.0804291	0.17546082	0.4584961
340068021862522	-1.0779724	0.21455383	0.43649292
340068026623264	-1.0657654	0.1375885	0.39007568
340068029980198	-1.0657654	-0.044418335	0.39007568
340068036663547	-1.009552	-0.044418335	0.25689697
340068041729465	-0.96925354	-0.51478577	0.1958313
340068046795383	-0.91793823	-0.66871643	0.1506195
340068051800266	-0.8495178	-0.7114868	0.12617493
340068057293430	-0.76156616	-0.6430664	0.1151886
340068061871067	-0.76156616	-0.49768066	0.1151886
340068066936985	-0.65771484	-0.49768066	0.11274719
340068072277561	-0.5502014	-0.32174683	0.10908508
340068077007786	-0.4524536	-0.16783142	0.09564209
340068080364719	-0.37548828	-0.068847656	0.0663147
340068087078587	-0.31684875	-0.03831482	0.022338867
340068092144504	-0.2667694	-0.05908203	-0.033843994
340068097179905	-0.20933533	-0.10673523	-0.090042114
340068102215305	-0.13725281	-0.15803528	-0.13891602
340068108105198	-0.044418335	-0.20080566	-0.17555237
340068112225071	0.0655365	-0.23257446	-0.19999695
340068117290989	0.19871521	-0.25456238	-0.21955872
340068122784153	0.3611908	-0.26556396	-0.24520874
340068127361790	0.56277466	-0.25090027	-0.29406738
340068130688206	0.80833435	-0.19348145	-0.37347412
340068137432590	1.0917816	-0.0786438	-0.4822235
340068142467991	1.3935547	0.09484863	-0.60928345
340068147503391	1.6928711	0.3135376	-0.7375641
340068152538792	1.9836426	0.5358734	-0.85606384
340068158062473	2.2670746	0.7093506	-0.9623413
340068162609592	2.5395355	0.79977417	-1.0576477
340068167644993	2.7911987	0.82421875	-1.1419373
340068173077122	3.005005	0.8400879	-1.1981506
340068177715794	3.1736145	0.8865204	-1.2042694
340068181103245	3.1736145	0.95614624	-1.2042694
340068187756077	3.384964	0.95614624	-1.0710907
340068192791477	3.4289398	1.0196686	-0.9806671
340068197826878	3.4252777	1.0013428	-0.9024811
340068202892795	3.4252777	0.98913574	-0.8340759
340068208202854	3.3299713	0.98913574	-0.7619934
340068212933079	3.3299713	1.0612335	-0.7619934
340068217968479	3.3079987	1.0612335	-0.6740265
340068223248020	3.3458557	1.0929871	-0.57873535
340068228039280	3.441162	1.0697632	-0.4907837
340068231457249	3.568222	0.9878998	-0.41500854
340068238110081	3.6916199	0.870636	-0.3502655
340068243175999	3.7807922	0.7435608	-0.28430176
340068248211399	3.8186798	0.62506104	-0.21099854
340068253246799	3.799118	0.519989	-0.12669373
340068259075657	3.7282715	0.43814087	-0.035079956
340068263317600	3.620758	0.39048767	0.06265259
340068268322483	3.4888	0.38804626	0.1616211
340068273693577	3.3446503	0.4332428	0.25689697
340068278423801	3.1943817	0.5016632	0.33509827
340068281719700	3.0477753	0.5566406	0.38763428
340068288525120	2.9158173	0.56396484	0.41207886
340068293530003	2.8070831	0.5041046	0.42060852
340068298565403	2.7240143	0.38682556	0.4242859
340068303600803	2.6568146	0.23532104	0.4316101
340068309460178	2.594513	0.083847046	0.43284607
340068313671604	2.532196	-0.033432007	0.41452026
340068318676487	2.4698944	-0.096969604	0.36808777
340068324169651	2.4173584	-0.100616455	0.29966736
340068328808323	2.3843842	-0.05053711	0.22024536
340068332165256	2.3843842	0.044769287	0.22024536
340068338848606	2.3709412	0.044769287	0.05532837
340068343884006	2.3697052	0.38804626	-0.033843994
340068348919407	2.3697052	0.67881775	-0.033843994
340068353954807	2.3684998	0.67881775	-0.12669373
340068359722629	2.4222412	1.0599976	-0.27697754
340068364025608	2.4222412	1.9213104	-0.27697754
340068369061008	2.5102081	1.9213104	-0.30384827
340068374798313	2.6384888	2.281723	-0.29774475
340068379131809	2.7887573	2.5480652	-0.27818298
340068382488743	2.9365845	2.7117767	-0.26474
340068389202610	3.0587463	2.7740784	-0.27209473
340068394207493	3.1418457	2.7398682	-0.30506897
340068399273411	3.1772614	2.622589	-0.35760498
340068404308811	3.1601715	2.4454346	-0.42356873
340068410046116	3.0868683	2.230423	-0.4907837
340068414379612	2.9573517	1.9994965	-0.5506439
340068419415012	2.7753143	1.7759247	-0.60072327
340068424725071	2.5517426	1.5828857	-0.6385956
340068429485813	2.2915192	1.4448395	-0.6679077
340068432842747	1.999527	1.3788757	-0.6886749
340068439526096	1.6855469	1.3837585	-0.69847107
340068444592014	1.3715515	1.4228516	-0.69111633
340068449627415	1.0820007	1.4448395	-0.6691437
340068454662815	0.82910156	1.4155121	-0.6385956
340068460155979	0.61164856	1.3312225	-0.6056061
340068464733616	0.422287	1.2090454	-0.57629395
340068469738499	0.25857544	1.0636749	-0.5567322
340068475262180	0.11805725	0.9023895	-0.54818726
340068479839817	-0.0028839111	0.73991394	-0.54940796
340068483166233	-0.0028839111	0.59329224	-0.54940796
340068489910618	-0.111587524	0.59329224	-0.54940796
340068494946018	-0.2166748	0.39904785	-0.54940796
340068499981419	-0.3302765	0.39904785	-0.5384064
340068505016819	-0.45977783	0.34162903	-0.52497864
340068510906712	-0.7676544	0.29273987	-0.5115509
340068515087620	-0.7676544	0.19868469	-0.5115509
340068520123020	-0.92526245	0.19868469	-0.51519775
340068525585667	-1.0730896	0.1534729	-0.52375793
340068530193821	-1.2074738	0.11071777	-0.5347595
340068533550754	-1.321106	0.075286865	-0.54208374
340068540264622	-1.4102936	0.050857544	-0.54086304
340068545300022	-1.4676971	0.039871216	-0.5384064
340068550335422	-1.4909363	0.039871216	-0.5384064
340068555370823	-1.4811401	0.052093506	-0.54452515
340068561108128	-1.4481659	0.07896423	-0.5506439
340068565411106	-1.4005127	0.13026428	-0.54208374
340068570477024	-1.3430939	0.21455383	-0.50787354
340068575726047	-1.2673645	0.34039307	-0.4406891
340068580517307	-1.154953	0.49189758	-0.34049988
340068583904758	-0.99246216	0.64704895	-0.21955872
340068590588108	-0.7810974	0.7753296	-0.09370422
340068595623508	-0.5379944	0.8620758	0.019897461
340068600658909	-0.28753662	0.9011688	0.10418701
340068605694309	-0.051742554	0.882843	0.1481781
340068611187473	0.15838623	0.79733276	0.14329529
340068615795628	0.33798218	0.64704895	0.085861206
340068620800510	0.48580933	0.45036316	-0.01675415
340068627819553	0.6055298	0.24632263	-0.14746094
340068630932346	0.6983948	0.07896423	-0.28918457
340068634258762	0.6983948	-0.013885498	-0.28918457
340068640972629	0.7765808	-0.013885498	-0.4296875
340068646008030	0.8755493	-0.016326904	-0.56040955
340068651012913	1.0282593	0.055755615	-0.6703491
340068656078831	1.2274017	0.1681366	-0.7375641
340068661571995	1.4069977	0.27685547	-0.7338867
340068666119114	1.4729614	0.32940674	-0.64593506
340068671154514	1.3679047	0.26464844	-0.48342896
340068676586643	1.1076508	0.048416138	-0.27574158
340068681255833	0.7362671	-0.2948761	-0.047286987
340068684582249	0.28178406	-0.6919403	0.18971252
340068691326633	-0.250885	-1.0694427	0.4499359
340068696331516	-0.8018646	-1.3761139	0.74072266
340068701366917	-1.2038269	-1.5569153	1.0449219
340068706402317	-1.2184753	-1.5117188	1.3075867
340068711864963	-0.70903015	-1.129303	1.4615326
340068716442600	0.16815186	-0.39993286	1.4700928
340068721508518	0.97694397	0.480896	1.345459
340068726788059	1.2835999	1.1809387	1.1463318
340068731548801	0.9622803	1.4399567	0.9386444
340068734936253	0.9622803	1.2432404	0.9386444
340068741650120	-0.53063965	1.2432404	0.6148834
340068746655003	-1.1085205	0.30618286	0.5024719
340068751720920	-1.4359589	-0.08352661	0.4267273
340068756756321	-1.5776672	-0.3779602	0.37786865
340068762035862	-1.6412048	-0.614975	0.32899475
340068766888157	-1.7303925	-0.82144165	0.24957275
340068771862522	-1.9075317	-1.0108032	0.1322937
340068777172581	-2.1836548	-1.1891937	3.5095215E-4
340068781963840	-2.1836548	-1.3553467	3.5095215E-4
340068785290256	-2.5306244	-1.3553467	-0.099823
340068792034641	-2.9093475	-1.497055	-0.12791443
340068797039524	-3.2734222	-1.5984497	-0.0680542
340068802074924	-3.5751953	-1.6632233	0.06387329
340068807110325	-3.7535553	-1.7096405	0.22268677
340068812542454	-3.759674	-1.7646179	0.36442566
340068817181126	-3.5788574	-1.8318176	0.4633789
340068822216526	-3.2465515	-1.8794708	0.5134735
340068827465549	-2.82872	-1.8550262	0.5220337
340068832287327	-2.3937836	-1.7145233	0.4988098
340068835644260	-2.0028229	-1.4359741	0.4450531
340068842388645	-1.6961823	-1.0315857	0.36808777
340068847393528	-1.5007019	-0.5563202	0.27645874
340068852428928	-1.4212799	-0.08961487	0.18115234
340068857464329	-1.4506073	0.29397583	0.089538574
340068862926975	-1.5666809	0.5541992	-0.002090454
340068867565647	-1.7450409	0.67759705	-0.09126282
340068872570530	-1.958847	0.65805054	-0.17922974
340068878002659	-2.1860962	0.49554443	-0.26109314
340068882641331	-2.4011078	0.20967102	-0.3294983
340068886150852	-2.4011078	-0.15194702	-0.3294983
340068892742649	-2.7383118	-0.15194702	-0.40768433
340068897747532	-2.850708	-0.8397522	-0.40524292
340068902782932	-2.9227905	-1.0792236	-0.37226868
340068907818333	-2.9594421	-1.2380524	-0.3123932
340068913128391	-2.9594421	-1.3272247	-0.22444153
340068917889133	-2.928894	-1.3504333	-0.11936951
340068922924534	-2.928894	-1.3150177	-0.011856079
340068928173557	-2.8030548	-1.3150177	0.0846405
340068932995335	-2.8030548	-1.0987701	0.0846405
340068936352268	-2.71875	-1.0987701	0.16282654
340068943096653	-2.628357	-0.9485016	0.22515869
340068948101536	-2.5330658	-0.79333496	0.27157593
340068953167454	-2.435318	-0.6491852	0.30210876
340068958141819	-2.3375854	-0.5184479	0.32287598
340068963512913	-2.243515	-0.3865204	0.3424225
340068968243137	-2.1555328	-0.24111938	0.36442566
340068973278538	-2.0712433	-0.07984924	0.3815155
340068978497044	-1.9918213	0.0899353	0.3839569
340068983318821	-1.9209747	0.25608826	0.36686707
340068986736790	-1.8623352	0.40637207	0.32899475
340068993420139	-1.8195801	0.5358734	0.28256226
340068998455540	-1.7890167	0.638504	0.23736572
340069003521458	-1.7658081	0.71058655	0.20315552
340069008556858	-1.7462769	0.752121	0.18115234
340069013958469	-1.7193909	0.75579834	0.17138672
340069018597141	-1.675415	0.7191467	0.17262268
340069023632542	-1.6057739	0.6360626	0.18727112
340069029034153	-1.5104675	0.5102234	0.21047974
340069033733860	-1.399292	0.35263062	0.23492432
340069037395969	-1.399292	0.17913818	0.23492432
340069043804661	-1.1915894	0.17913818	0.26789856
340069048809544	-1.1183014	-0.14706421	0.27645874
340069053844944	-1.0718842	-0.2802124	0.28012085
340069058880344	-1.0547638	-0.38772583	0.28012085
340069064342991	-1.0584412	-0.46591187	0.27645874
340069068951145	-1.0584412	-0.50990295	0.26669312
340069073986545	-1.0743256	-0.50990295	0.26669312
340069079327122	-1.0938568	-0.5172272	0.24957275
340069084057346	-1.11586	-0.49157715	0.2276001
340069087475315	-1.1341858	-0.43659973	0.20683289
340069094097629	-1.1463928	-0.36819458	0.1933899
340069099163547	-1.1500549	-0.3083191	0.18971252
340069104198948	-1.1427307	-0.28633118	0.1958313
340069109264866	-1.1231842	-0.32174683	0.20559692
340069114574924	-1.0877533	-0.41093445	0.21292114
340069119335667	-1.0315552	-0.52090454	0.20803833
340069124371067	-0.95703125	-0.6064148	0.18482971
340069129742161	-0.86906433	-0.627182	0.1457367
340069134472385	-0.7762146	-0.57099915	0.0993042
340069137981907	-0.68336487	-0.45126343	0.05532837
340069144543186	-0.5978546	-0.30586243	0.022338867
340069149517551	-0.5159912	-0.18247986	0.0015563965
340069154583469	-0.43536377	-0.11773682	-0.014297485
340069159618870	-0.3486023	-0.12994385	-0.028961182
340069165478245	-0.25453186	-0.20568848	-0.049728394
340069169689670	-0.1506958	-0.31930542	-0.07537842
340069174755588	-0.040740967	-0.43414307	-0.10592651
340069180492893	0.07408142	-0.52212524	-0.13645935
340069184826389	0.19136047	-0.574646	-0.16334534
340069188305393	0.19136047	-0.5978546	-0.16334534
340069194836155	0.4540558	-0.5978546	-0.20487976
340069199932590	0.6238556	-0.5954132	-0.24641418
340069204937473	0.8388977	-0.548996	-0.32583618
340069209942356	1.0991211	-0.45002747	-0.4455719
340069215771213	1.3874359	-0.2973175	-0.588501
340069220013157	1.3874359	-0.107940674	-0.588501
340069225048557	1.6806641	-0.107940674	-0.73023987
340069230480686	1.9567719	0.08872986	-0.85118103
340069235149876	2.2121124	0.2658844	-0.9440155
340069239422337	2.4478912	0.40148926	-1.0124359
340069245220676	2.6714783	0.49310303	-1.0600891
340069250225559	2.891388	0.56152344	-1.0808563
340069255260960	3.1076355	0.6336212	-1.06987
340069260296360	3.3067627	0.71424866	-1.0368805
340069265789524	3.4619293	0.77656555	-0.9941101
340069270367161	3.5450134	0.791214	-0.95625305
340069275402561	3.5437775	0.76068115	-0.92448425
340069280804172	3.4778137	0.7069092	-0.89027405
340069285503879	3.388626	0.64704895	-0.84384155
340069289532200	3.3263245	0.572525	-0.7790985
340069295544163	3.3165588	0.46624756	-0.6972351
340069300579563	3.3519745	0.33918762	-0.60928345
340069305645481	3.406952	0.2206726	-0.51519775
340069310650364	3.459488	0.12904358	-0.4089203
340069315960422	3.5010223	0.06185913	-0.2806244
340069320782200	3.5388947	0.011764526	-0.12791443
340069325787083	3.5792236	-0.0077667236	0.044326782
340069331463352	3.6231995	0.034988403	0.22392273
340069335827366	3.6671753	0.14859009	0.40107727
340069339947239	3.6671753	0.30497742	0.40107727
340069345898167	3.712387	0.30497742	0.69062805
340069350933567	3.7050476	0.4967804	0.7798157
340069355968967	3.7050476	0.41493225	0.8262329
340069361065403	3.6757355	0.1864624	0.8262329
340069366497532	3.5315704	0.1864624	0.817688
340069371105686	3.5315704	-0.548996	0.817688
340069376110569	3.4057312	-0.548996	0.77737427
340069381420628	3.2517853	-0.898407	0.7126007
340069386181370	3.0954285	-1.1280975	0.62464905
340069390759006	2.9646912	-1.1928406	0.5171356
340069396282688	2.877945	-1.0914459	0.3973999
340069401287571	2.8461761	-0.84954834	0.28134155
340069406292454	2.8718262	-0.51234436	0.1775055
340069411388889	2.956131	-0.12994385	0.09320068
340069416790501	3.0880737	0.2475586	0.026000977
340069421459690	3.2481384	0.573761	-0.02772522
340069426495090	3.406952	0.8205414	-0.06561279
340069431866184	3.5376892	0.9818115	-0.082717896
340069436565891	3.6231995	1.0661163	-0.077819824
340069440868870	3.656189	1.0990906	-0.053390503
340069446606174	3.6317596	1.1161957	-0.017959595
340069451641575	3.5474548	1.1504059	0.017440796
340069456676975	3.393509	1.2224731	0.04800415
340069461712376	3.17482	1.3263397	0.07121277
340069467052952	2.9097137	1.4326324	0.09197998
340069471874729	2.63237	1.4961395	0.11274719
340069476818577	2.3635864	1.4802551	0.131073
340069482250706	2.116806	1.3813171	0.14329529
340069486919895	1.8981171	1.2395935	0.14694214
340069491131321	1.8981171	1.1076508	0.14694214
340069496960178	1.5474854	1.1076508	0.1506195
340069501995579	1.5474854	0.9402771	0.1506195
340069507092014	1.3935547	0.9402771	0.15917969
340069512157932	1.2335052	0.8645172	0.17262268
340069517803684	0.8804321	0.77412415	0.1823883
340069522167698	0.8804321	0.59085083	0.1823883
340069527203098	0.692276	0.59085083	0.16894531
340069532543674	0.50413513	0.5053406	0.14694214
340069537273899	0.3184204	0.41125488	0.117630005
340069542034641	0.14006042	0.30497742	0.085861206
340069547344700	-0.030975342	0.19134521	0.052886963
340069552441135	-0.19100952	0.07652283	0.017440796
340069557415501	-0.34127808	-0.033432007	-0.017959595
340069562420383	-0.48298645	-0.12870789	-0.055847168
340069567913547	-0.61494446	-0.20324707	-0.09370422
340069572521702	-0.739563	-0.2594452	-0.13645935
340069577526585	-0.8531952	-0.30221558	-0.18534851
340069582989231	-0.9460449	-0.33518982	-0.24276733
340069587597385	-1.0083466	-0.3620758	-0.30995178
340069592510715	-1.0303497	-0.38407898	-0.383255
340069597698704	-1.0156708	-0.409729	-0.4590149
340069602856174	-0.96925354	-0.44026184	-0.52864075
340069607769504	-0.8983917	-0.47325134	-0.57995605
340069612774387	-0.8092041	-0.49890137	-0.59584045
340069618633762	-0.7016907	-0.49401855	-0.56407166
340069622845188	-0.58317566	-0.41705322	-0.48466492
340069627911106	-0.46221924	-0.23013306	-0.37471008
340069634747044	-0.35350037	0.06918335	-0.25985718
340069637951389	-0.26797485	0.44302368	-0.15968323
340069642834202	-0.26797485	0.830307	-0.15968323
340069648022190	-0.20933533	0.830307	-0.082717896
340069653149143	-0.17390442	1.1833801	-0.02772522
340069658092991	-0.1494751	1.4668427	0.007675171
340069663158909	-0.12503052	1.6513062	0.022338867
340069668499485	-0.09326172	1.7062988	0.018676758
340069673260227	-0.04685974	1.6109924	-0.0069732666
340069678265110	0.028884888	1.372757	-0.05949402
340069683971897	0.15226746	1.0343475	-0.14013672
340069688335911	0.34898376	0.66537476	-0.24276733
340069692608372	0.626297	0.33795166	-0.34294128
340069698406712	0.95739746	0.09484863	-0.40768433
340069703442112	1.273819	-0.063964844	-0.40647888
340069708446995	1.4986115	-0.16659546	-0.32217407
340069713543430	1.5731506	-0.23379517	-0.1670227
340069719006077	1.4827423	-0.26556396	0.021118164
340069723583713	1.2261658	-0.277771	0.20559692
340069728619114	0.81933594	-0.316864	0.36686707
340069733868137	0.30255127	-0.41093445	0.5061493
340069738659397	-0.24108887	-0.52090454	0.62586975
340069743023411	-0.7151184	-0.5514374	0.7162781
340069748760715	-1.062088	-0.44026184	0.7700348
340069753948704	-1.280777	-0.21424866	0.790802
340069758831516	-1.4029541	0.04597473	0.7944641
340069763836399	-1.4542847	0.2683258	0.790802
340069769726292	-1.4384003	0.42591858	0.7761383
340069773907200	-1.3443146	0.51878357	0.7419281
340069778973118	-1.1720581	0.5419922	0.68330383
340069784405247	-0.9619293	0.4637909	0.60388184
340069789013401	-0.9619293	0.22923279	0.5110321
340069792400852	-0.7969818	-0.20080566	0.5110321
340069799145237	-0.77989197	-0.20080566	0.4084015
340069804150120	-0.9802551	-0.79577637	0.30210876
340069809185520	-1.3858643	-1.4457397	0.1982727
340069814190403	-1.8977509	-2.0101776	0.10296631
340069820080295	-2.3815613	-2.3876953	0.028442383
340069824322239	-2.733429	-2.5587463	-0.019195557
340069829327122	-2.9081268	-2.568512	-0.04484558
340069834820286	-2.9227905	-2.4842072	-0.055847168
340069839397922	-2.8274994	-2.3547058	-0.06561279
340069842785374	-2.6833344	-2.1909943	-0.0839386
340069849468723	-2.5452728	-1.9918518	-0.114471436
340069854504124	-2.4512024	-1.7597198	-0.15234375
340069859539524	-2.4121094	-1.523941	-0.19755554
340069864605442	-2.4206696	-1.3235779	-0.24520874
340069870251194	-2.462204	-1.1879578	-0.2965088
340069874645725	-2.5183868	-1.1219788	-0.3502655
340069879711643	-2.5843658	-1.1207733	-0.40524292
340069885418430	-2.6552277	-1.1635132	-0.46022034
340069889721409	-2.7273102	-1.2307281	-0.51519775
340069893108860	-2.7273102	-1.3028107	-0.51519775
340069899822727	-2.8665924	-1.3028107	-0.6068268
340069904858128	-2.9301147	-1.3956451	-0.63371277
340069909893528	-2.9850922	-1.4225311	-0.6422577
340069914928928	-3.0241852	-1.4616241	-0.6349335
340069920757786	-3.043747	-1.5263824	-0.61050415
340069924999729	-3.0461884	-1.6094513	-0.56651306
340069930004612	-3.033966	-1.6876373	-0.5054321
340069935925022	-3.0058594	-1.7389526	-0.43089294
340069940105930	-3.0058594	-1.7499542	-0.43089294
340069943432346	-2.9570007	-1.7499542	-0.34294128
340069950176731	-2.8824615	-1.7169647	-0.24276733
340069955242649	-2.7786255	-1.6436615	-0.12547302
340069960217014	-2.6527863	-1.5300446	0.0015563965
340069965252415	-2.5110626	-1.3736725	0.1298523
340069970776096	-2.3644562	-1.1659698	0.24713135
340069975323215	-2.2239532	-0.90696716	0.3448639
340069980389133	-2.1017914	-0.6186218	0.42304993
340069985943333	-2.0052643	-0.3327484	0.48049927
340069990459934	-1.9392853	-0.084732056	0.5122528
340069993755833	-1.9026489	0.10093689	0.5110321
340070000561253	-1.892868	0.20967102	0.4743805
340070005566135	-1.9087524	0.23776245	0.40716553
340070010601536	-1.9405212	0.19746399	0.32287598
340070015606419	-1.9771729	0.09849548	0.22880554
340070020946995	-2.010147	-0.04319763	0.1347351
340070025707737	-2.0321503	-0.20812988	0.049209595
340070030712620	-2.041916	-0.36940002	-0.026519775
340070036358372	-2.0394745	-0.50746155	-0.09248352
340070040783420	-2.0223846	-0.613739	-0.15357971
340070044140354	-2.0223846	-0.6943817	-0.15357971
340070050854221	-1.945404	-0.6943817	-0.24885559
340070055889622	-1.8904266	-0.80921936	-0.27697754
340070060955540	-1.828125	-0.8617554	-0.2830658
340070066051975	-1.7694855	-0.91185	-0.26597595
340070071636692	-1.7255096	-0.9399414	-0.23176575
340070076061741	-1.6937408	-0.9191742	-0.19387817
340070081097141	-1.6937408	-0.84342957	-0.19387817
340070086834446	-1.6008759	-0.84342957	-0.123031616
340070091137424	-1.6008759	-0.63694763	-0.123031616
340070094524876	-1.5092621	-0.63694763	-0.086380005
340070101208225	-1.3919678	-0.5807648	-0.0521698
340070106274143	-1.2673645	-0.5795288	-0.028961182
340070111309544	-1.1573944	-0.62353516	-0.017959595
340070116314426	-1.0804291	-0.6919403	-0.0082092285
340070121838108	-1.0486755	-0.75668335	0.007675171
340070126446262	-1.0657654	-0.80311584	0.026000977
340070131420628	-1.1268463	-0.82144165	0.034561157
340070137432590	-1.2233582	-0.82266235	0.030883789
340070141521946	-1.3430939	-0.82144165	0.019897461
340070144848362	-1.4713745	-0.8287811	0.016235352
340070151623264	-1.595993	-0.84098816	0.029678345
340070156567112	-1.7071686	-0.84342957	0.05899048
340070161633030	-1.7975769	-0.8141022	0.10296631
340070166668430	-1.8647766	-0.7249298	0.16282654
340070172100559	-1.9075317	-0.5587616	0.23492432
340070177013889	-1.9270782	-0.32418823	0.31188965
340070181774631	-1.9234161	-0.056640625	0.38031006
340070187786594	-1.9038696	0.19378662	0.42796326
340070191875950	-1.8696594	0.37460327	0.44628906
340070195232883	-1.8696594	0.44302368	0.44628906
340070201916233	-1.7719269	0.44302368	0.3839569
340070206951633	-1.7059479	0.17546082	0.31677246
340070211956516	-1.6265411	-0.107940674	0.23736572
340070217113987	-1.5373535	-0.41705322	0.15306091
340070222332493	-1.4481659	-0.6992798	0.07487488
340070227489963	-1.3589783	-0.92529297	0.011352539
340070232128635	-1.3589783	-1.0828857	0.011352539
340070238049045	-1.1683807	-1.0828857	-0.0692749
340070242199436	-1.1683807	-1.169632	-0.0692749
340070245556370	-1.0486755	-1.169632	-0.09370422
340070252300754	-0.9118347	-1.0975647	-0.11203003
340070257458225	-0.76400757	-0.9704895	-0.12791443
340070262371555	-0.61738586	-0.818985	-0.14379883
340070267803684	-0.48544312	-0.6748352	-0.16212463
340070272839085	-0.37548828	-0.56243896	-0.18289185
340070277782932	-0.28630066	-0.5001221	-0.20855713
340070282482639	-0.20199585	-0.49279785	-0.24032593
340070287609592	-0.111587524	-0.53678894	-0.27453613
340070292583958	-0.008987427	-0.6198578	-0.30873108
340070295879856	0.11073303	-0.7249298	-0.34049988
340070302654758	0.25857544	-0.832428	-0.3783722
340070307812229	0.44670105	-0.9216156	-0.4296875
340070312725559	0.67518616	-0.9753876	-0.4956665
340070317852512	0.9341736	-0.9802704	-0.56773376
340070323223606	1.20784	-0.9448395	-0.63249207
340070328442112	1.4815063	-0.88619995	-0.68258667
340070332867161	1.741745	-0.82144165	-0.7106781
340070338390842	1.9787598	-0.75668335	-0.7204437
340070342907444	2.1803436	-0.68460083	-0.7167969
340070346264378	2.1803436	-0.59664917	-0.7167969
340070353008762	2.4650116	-0.59664917	-0.7033539
340070358196751	2.5713043	-0.36083984	-0.6874695
340070363079563	2.676361	-0.2130127	-0.64837646
340070368328587	2.7887573	-0.039535522	-0.58483887
340070373425022	2.904831	0.15959167	-0.5091095
340070379009739	3.0233307	0.37216187	-0.4296875
340070383221165	3.0233307	0.5810852	-0.4296875
340070388866917	3.1394043	0.5810852	-0.3514862
340070393291965	3.2517853	0.76312256	-0.27453613
340070396618381	3.3446503	0.90483093	-0.19999695
340070403332249	3.4008484	0.9952545	-0.13401794
340070408672825	3.406952	1.0196686	-0.08026123
340070413433567	3.362976	0.95736694	-0.041168213
340070419292942	3.2786713	0.79489136	-0.011856079
340070424145237	3.166275	0.5395508	0.011352539
340070429455295	3.0404358	0.236557	0.0357666
340070433544651	2.9231567	-0.046875	0.065093994
340070439159885	2.833969	-0.25090027	0.10664368
340070443615452	2.7850952	-0.34739685	0.16770935
340070447033420	2.772873	-0.34251404	0.25080872
340070453686253	2.7899933	-0.26556396	0.34854126
340070459454075	2.8229675	-0.15071106	0.45237732
340070463757053	2.860855	-0.035873413	0.5513458
340070469738499	2.8938293	0.047210693	0.6392975
340070474285618	2.9158173	0.071624756	0.7101593
340070479717747	2.9109344	0.02520752	0.7578125
340070483898655	2.8693848	-0.09085083	0.7798157
340070489574924	2.7850952	-0.25578308	0.7724762
340070493999973	2.6616974	-0.43414307	0.73583984
340070497326389	2.6616974	-0.5905304	0.73583984
340070504070774	2.3684998	-0.5905304	0.57089233
340070509594456	2.2548676	-0.7579193	0.4499359
340070514141575	2.2548676	-0.76768494	0.4499359
340070519878879	2.1876678	-0.76768494	0.18847656
340070524670139	2.1876678	-0.64186096	0.08097839
340070530437962	2.3257294	-0.64186096	0.0040130615
340070534252659	2.3257294	-0.2826538	0.0040130615
340070540173069	2.4588928	-0.2826538	-0.042404175
340070544323460	2.6238403	-0.052978516	-0.06317139
340070547710911	2.8009644	0.14981079	-0.06437683
340070554424778	2.9646912	0.29153442	-0.0521698
340070560162083	3.0978699	0.36605835	-0.038726807
340070564465061	3.1894836	0.38804626	-0.026519775
340070570324436	3.2297974	0.37583923	-0.0057678223
340070574810520	3.2139282	0.33306885	0.037002563
340070581005588	3.1406097	0.26464844	0.10418701
340070584637180	3.008667	0.19502258	0.18603516
340070590588108	2.8156433	0.1522522	0.26179504
340070594707981	2.5615082	0.1534729	0.31433105
340070598064915	2.2548676	0.19622803	0.34120178
340070604748264	1.925003	0.26464844	0.34976196
340070610760227	1.6134491	0.3318634	0.35342407
340070614819065	1.3507843	0.37460327	0.35586548
340070621319309	1.1492157	0.38804626	0.35708618
340070626812473	1.002594	0.38438416	0.35098267
340070631268040	0.90119934	0.37339783	0.33387756
340070634991184	0.83154297	0.36972046	0.30455017
340070640789524	0.7753601	0.38316345	0.26789856
340070645061985	0.717926	0.41981506	0.2276001
340070648388401	0.717926	0.46012878	0.2276001
340070655132786	0.6483002	0.46012878	0.14938354
340070661022678	0.46138	0.45646667	0.117630005
340070665173069	0.46138	0.40393066	0.117630005
340070671001926	0.21704102	0.40393066	0.08708191
340070675671116	0.21704102	0.27197266	0.08708191
340070681561008	-0.05418396	0.27197266	0.06877136
340070685314670	-0.05418396	0.2157898	0.06877136
340070691357151	-0.184906	0.2157898	0.050445557
340070695385471	-0.30830383	0.2316742	0.027236938
340070698772922	-0.4206848	0.25852966	0.0015563965
340070705486790	-0.5196686	0.27441406	-0.022842407
340070711681858	-0.6027374	0.2707672	-0.046051025
340070715527073	-0.66748047	0.24388123	-0.07293701
340070721691624	-0.712677	0.19012451	-0.10348511
340070725811497	-0.738327	0.11071777	-0.13401794
340070732128635	-0.74079895	0.008117676	-0.16212463
340070735668674	-0.7224579	-0.107940674	-0.18655396
340070741772190	-0.68336487	-0.22279358	-0.20732117
340070745739475	-0.62594604	-0.3144226	-0.22076416
340070749065891	-0.55752563	-0.35839844	-0.22076416
340070755810276	-0.48544312	-0.32054138	-0.20855713
340070762096897	-0.4121399	-0.18003845	-0.18655396
340070765881077	-0.33883667	0.0496521	-0.16456604
340070770885960	-0.27041626	0.3184204	-0.14257813
340070776165501	-0.20933533	0.573761	-0.123031616
340070780987278	-0.16046143	0.7838898	-0.102264404
340070786022678	-0.12503052	0.9500427	-0.07537842
340070791302219	-0.10305786	1.0795441	-0.046051025
340070796093479	-0.095718384	1.1638489	-0.01675415
340070799450413	-0.095718384	1.1870575	-0.01675415
340070806194797	-0.1018219	1.1870575	0.0027923584
340070812695042	-0.13969421	1.1357422	-0.003326416
340070816235081	-0.13969421	0.84498596	-0.003326416
340070821239963	-0.1482544	0.84498596	-0.03262329
340070826672092	-0.12870789	0.65560913	-0.08149719
340070831341282	-0.07128906	0.47113037	-0.14868164
340070836346165	0.026443481	0.2976532	-0.22688293
340070841656223	0.15470886	0.1400299	-0.30384827
340070846447483	0.30255127	0.006881714	-0.35638428
340070849804417	0.4454956	-0.09085083	-0.369812
340070856548801	0.55055237	-0.14826965	-0.33683777
340070862804905	0.587204	-0.18125916	-0.25865173
340070866589085	0.54444885	-0.22279358	-0.14135742
340070871624485	0.43693542	-0.30342102	-8.8500977E-4
340070877056614	0.276886	-0.43049622	0.14205933
340070881695286	0.05819702	-0.5954132	0.27767944
340070886761204	-0.2325592	-0.7786865	0.3973999
340070892223850	-0.57218933	-0.93385315	0.4927063
340070896801487	-0.89227295	-1.0120239	0.55500793
340070900158420	-0.89227295	-0.9839325	0.55500793
340070906902805	-1.2514801	-0.9839325	0.59776306
340070911907688	-1.3272247	-0.73591614	0.61120605
340070916943088	-1.4151764	-0.5990906	0.6344147
340070922009006	-1.5385742	-0.47691345	0.6735077
340070927380100	-1.670517	-0.3755188	0.72239685
340070932079807	-1.7572479	-0.3083191	0.7712555
340070937084690	-1.7597198	-0.28388977	0.7981415
340070942608372	-1.6802979	-0.3095398	0.7883606
340070947186008	-1.6802979	-0.39872742	0.7883606
340070950512424	-1.5666809	-0.39872742	0.73583984
340070957226292	-1.5019073	-0.5807648	0.64297485
340070962261692	-1.5727844	-0.8666382	0.5134735
340070967297092	-1.828125	-1.2258301	0.3607483
340070972332493	-2.2459564	-1.5825653	0.20191956
340070977673069	-2.746872	-1.8574677	0.054107666
340070982403294	-3.2269897	-2.0065155	-0.0692749
340070987438694	-3.5923004	-2.0358276	-0.16212463
340070992748753	-3.7755585	-1.9808655	-0.22444153
340070997540012	-3.751114	-1.8794708	-0.25253296
340071000866428	-3.5397491	-1.7475128	-0.25009155
340071007580295	-3.2037811	-1.576477	-0.22932434
340071012615696	-2.8311615	-1.3455505	-0.20732117
340071017651096	-2.500061	-1.0559998	-0.19999695
340071022717014	-2.2545166	-0.7420349	-0.20976257
340071028088108	-2.1017914	-0.46102905	-0.23420715
340071032757297	-2.0358276	-0.264328	-0.26841736
340071037792698	-2.0407104	-0.16903687	-0.30506897
340071043194309	-2.0956879	-0.16539001	-0.33439636
340071047832981	-2.1848602	-0.22769165	-0.3502655
340071051220432	-2.1848602	-0.32662964	-0.3502655
340071057995335	-2.4169922	-0.32662964	-0.31973267
340071063030735	-2.5416107	-0.5587616	-0.27453613
340071068005100	-2.6564484	-0.680954	-0.21708679
340071073040501	-2.746872	-0.8128967	-0.15478516
340071078533665	-2.801834	-0.9533844	-0.09126282
340071083141819	-2.815277	-1.0963287	-0.02772522
340071088177219	-2.815277	-1.2307281	0.03944397
340071093700901	-2.7285461	-1.3370209	0.10908508
340071098217503	-2.7285461	-1.3968811	0.10908508
340071101574436	-2.6442413	-1.3968811	0.1775055
340071108318821	-2.5489502	-1.3944397	0.23492432
340071113323704	-2.4524078	-1.3223419	0.27645874
340071118359104	-2.3595734	-1.1769562	0.29600525
340071123425022	-2.270401	-0.9717102	0.29356384
340071128735081	-2.1860962	-0.7285919	0.27157593
340071133495823	-2.1054535	-0.47935486	0.23124695
340071138531223	-2.0345917	-0.25090027	0.1823883
340071144207493	-1.97229	-0.06640625	0.131073
340071148602024	-1.9185181	0.05697632	0.077316284
340071151958958	-1.8733215	0.11071777	0.019897461
340071158672825	-1.8391113	0.09239197	-0.035079956
340071163677708	-1.8195801	0.0178833	-0.08026123
340071168743626	-1.8183441	-0.07496643	-0.1169281
340071173779026	-1.8391113	-0.14094543	-0.14746094
340071179119602	-1.8782196	-0.15194702	-0.17555237
340071183849827	-1.9173126	-0.11161804	-0.20243835
340071188885227	-1.9344025	-0.04197693	-0.22564697
340071194622532	-1.9111938	0.030090332	-0.24765015
340071198956028	-1.8476715	0.08016968	-0.2671814
340071202343479	-1.8476715	0.09849548	-0.2671814
340071209026829	-1.6497498	0.09849548	-0.27697754
340071214092747	-1.5434723	0.048416138	-0.26109314
340071219097629	-1.4444885	0.013000488	-0.23297119
340071224102512	-1.3565369	-0.0053253174	-0.19876099
340071229626194	-1.2868958	-0.001663208	-0.15846252
340071234234348	-1.2868958	0.024002075	-0.11569214
340071239239231	-1.2441254	0.024002075	-0.11569214
340071245159641	-1.2294769	0.06185913	-0.04850769
340071249279514	-1.2294769	0.11193848	-0.04850769
340071252666965	-1.2429199	0.11193848	-0.030166626
340071259441868	-1.2575684	0.0899353	-0.02407837
340071264385715	-1.2673645	0.020324707	-0.026519775
340071269451633	-1.2734528	-0.096969604	-0.028961182
340071274487034	-1.280777	-0.25456238	-0.020401001
340071279980198	-1.2917786	-0.43782043	0.0040130615
340071284557835	-1.3101044	-0.6198578	0.037002563
340071289593235	-1.334549	-0.77378845	0.0675354
340071295422092	-1.3626404	-0.87519836	0.09320068
340071299664036	-1.3944092	-0.9081726	0.1164093
340071303051487	-1.4225159	-0.8666382	0.14329529
340071309734837	-1.4432831	-0.7469177	0.17262268
340071314739719	-1.4567261	-0.548996	0.20191956
340071319775120	-1.4603729	-0.28877258	0.23368835
340071324841038	-1.451828	-4.4250488E-4	0.26545715
340071330120579	-1.4237213	0.26464844	0.29844666
340071334881321	-1.3773041	0.4454651	0.32655334
340071339947239	-1.3174438	0.4967804	0.3448639
340071345257297	-1.2563629	0.40637207	0.34854126
340071349987522	-1.2038269	0.20845032	0.33509827
340071353405491	-1.2038269	-0.03465271	0.33509827
340071360058323	-1.1366272	-0.03465271	0.23736572
340071365063206	-1.1085205	-0.409729	0.16038513
