accelerometer_timestamp	accelerometer_x_data	accelerometer_y_data	accelerometer_z_data
696612360960133	-1.8150787	8.444565	4.409683
696612365965015	-1.2847595	9.192749	4.59523
696612370969898	-0.6203613	9.603363	4.8538055
696612375974781	-0.34742737	9.944534	5.2225037
696612380979664	-0.22772217	10.355148	5.306305
696612385984547	-0.35580444	10.601746	5.105194
696612390989429	-0.5198059	10.71666	4.432419
696612395994312	-0.7436676	10.936935	3.551361
696612400999195	-1.1686401	11.1236725	2.472763
696612406004078	-1.7492371	11.084183	1.5318451
696612411008961	-2.4746704	11.090164	1.068573
696612416013844	-3.6406555	10.642441	0.6890869
696612421018726	-4.3445435	10.0989685	0.53704834
696612426206715	-4.121887	9.583008	0.5011444
696612431211597	-3.1929321	9.159241	0.4149475
696612436216480	-2.3334198	8.608566	0.21742249
696612441251881	-2.2400513	7.8496094	0.04145813
696612446287281	-2.1179352	7.108597	0.15397644
696612451353199	-1.9240112	6.633362	0.45205688
696612456419117	-1.6103668	6.50885	0.67710876
696612461485035	-0.7149353	6.618988	0.49516296
696612466550953	0.38279724	6.9398193	0.27249146
696612471616871	0.42590332	7.2498627	0.41615295
696612476682789	0.10507202	7.750244	0.563385
696612481748707	-0.13075256	8.299713	0.7692871
696612486814625	-0.20378113	8.6684265	0.9428711
696612491911060	-0.1906128	8.845596	1.1511688
696612497007496	-0.2743988	8.710327	1.5533905
696612502073414	-0.15948486	8.54393	2.0681458
696612507139332	0.08592224	8.390701	2.3985443
696612512205250	0.07873535	8.059097	2.6080322
696612517271168	0.06437683	7.8017273	2.622406
696612522337086	0.0021209717	7.710739	2.535019
696612527433521	-0.30194092	7.6915894	2.3746033
696612532499439	-0.4982605	7.7777863	2.108841
696612537565357	-0.42164612	7.7442627	1.657547
696612542631275	-0.48509216	7.6808167	1.2936249
696612547697193	-0.72691345	7.725113	1.0075226
696612552763111	-1.0225983	7.837631	0.65556335
696612557829029	-1.251236	7.9525604	0.43769836
696612562894947	-1.4044647	8.06868	0.400589
696612567991383	-1.6211395	8.111771	0.5274811
696612573057301	-1.6534576	8.05072	0.77407837
696612578123219	-1.7324677	7.8903046	0.99794006
696612583189137	-1.7121277	7.6448975	1.3079834
696612588255054	-1.8102875	7.2139435	1.6000824
696612593320972	-1.9443665	6.931427	1.7796478
696612598386890	-1.8773193	6.8069305	1.9029541
696612603452808	-1.9096375	6.8344727	1.9292755
696612608549244	-2.1789856	7.0439606	1.8706207
696612613615162	-2.417221	7.3683777	1.7006378
696612618681080	-2.6757965	7.7753906	1.5342407
696612623746998	-2.923584	8.281769	1.2672882
696612628812916	-3.0935822	8.765396	1.0901184
696612633878834	-3.1342773	9.209518	0.8746338
696612638975269	-3.2827148	9.574631	0.6004944
696612644041187	-3.3449707	9.92897	0.5155029
696612649107105	-3.437149	10.253387	0.44248962
696612654173023	-3.5388947	10.607727	0.4724121
696612659238941	-3.646637	10.941727	0.5705719
696612664304859	-3.780716	11.310425	0.6819
696612669370777	-3.9506989	11.485199	0.8231659
696612674436695	-4.097946	11.580978	0.9680176
696612679533131	-4.283493	11.564209	1.0589905
696612684599049	-4.5169373	11.458862	1.1032867
696612689664967	-4.674942	11.275711	1.1176453
696612694730885	-4.6677704	11.067413	1.0398407
696612699796803	-4.666565	10.872284	0.9967346
696612704862720	-4.797058	10.831589	1.049408
696612709928638	-4.9921722	10.922562	1.1068726
696612714994556	-5.1669617	11.129669	1.1858826
696612720090992	-5.2172394	11.367889	1.2086334
696612725156910	-5.283081	11.6683655	1.2648926
696612730222828	-5.2663116	11.90538	1.1595459
696612735288746	-5.18132	12.096924	1.088913
696612740385181	-5.1669617	12.330353	0.9751892
696612745451099	-5.205261	12.55542	0.8914032
696612750517017	-5.2699127	12.932495	1.013504
696612755582935	-5.351303	13.379013	1.310379
696612760648853	-5.26033	13.705826	1.7341614
696612765714771	-4.989792	13.881805	2.1064606
696612770780689	-4.7252197	14.011093	2.081314
696612775846607	-4.4235535	13.882996	1.7293701
696612780912525	-4.0165405	13.322754	1.2086334
696612786008961	-3.2587738	12.615265	0.598114
696612791074879	-2.3250427	12.028687	0.26651
696612796140797	-1.4942474	11.531891	0.13841248
696612801206715	-0.9471741	11.097351	-0.11416626
696612806272633	-0.52459717	10.794479	-0.6181488
696612811338551	-0.123565674	10.69751	-1.5327301
696612816404469	0.44863892	10.914185	-2.7358246
696612821470387	1.1022644	11.414581	-4.0214996
696612826536304	1.4649811	11.882645	-4.8953857
696612831632740	1.8348846	12.609283	-4.6368103
696612836698658	2.6620789	13.715408	-3.148819
696612841764576	3.796936	15.050171	-0.9605255
696612846830494	4.712723	16.159882	1.222992
696612851896412	5.2011414	16.892502	3.1575012
696612856962330	5.6416626	17.227692	4.6598663
696612862028248	5.7877197	17.334244	5.5852356
696612867124683	5.6847687	17.103195	5.957535
696612872190601	5.2897186	16.218536	5.507416
696612877256519	4.7953186	14.608444	4.4755096
696612882322437	3.9346008	12.646393	3.203003
696612887388355	3.0248108	10.636459	1.8825989
696612892454273	2.5902557	9.5698395	0.55381775
696612897520191	1.3452759	9.159241	-0.5523071
696612902616627	-0.21334839	8.521179	-1.243042
696612907682545	-0.9304199	8.646881	-1.7697601
696612912748463	-1.1901855	10.318024	-1.9816437
696612917814381	-1.072876	12.395004	-2.1899414
696612922880299	-2.068863	12.846313	-2.0151672
696612927946217	-3.5329132	12.536255	-2.0462952
696612933012135	-4.8186035	12.041855	-2.2881012
696612938108570	-5.8816223	11.541473	-1.8224335
696612943174488	-6.4322968	11.036285	-0.20394897
696612948270924	-6.5974884	10.893829	1.0146942
696612953336842	-6.0121155	11.144028	0.7752838
696612958402760	-4.2607574	11.328384	0.6567688
696612963468678	-3.14505	11.009949	0.6711273
696612968534595	-3.8297882	10.167191	0.47839355
696612973600513	-3.9483032	9.211914	0.52149963
696612978666431	-2.4794617	8.408661	0.75971985
696612983732349	-1.6402893	7.5467377	0.80400085
696612988828785	-1.8426056	6.635742	0.5023346
696612993894703	-1.5193939	6.0802917	0.47120667
696612998960621	-1.4379883	5.266266	0.48677063
696613004026539	-1.2392731	4.5779266	0.5011444
696613009092457	-1.8473969	3.9841766	0.64360046
696613014158375	-1.9635162	3.5328674	0.8135834
696613019224293	-1.3960876	2.9833984	1.0613861
696613024290211	-1.848587	2.8026276	1.4480438
696613029356129	-1.7576141	2.518921	1.0386353
696613034422047	-1.0273743	2.4039917	0.71302795
696613039487965	-0.35461426	2.274704	0.38742065
696613044553883	9.3078613E-4	2.151413	0.14201355
696613049650318	0.4845581	1.993393	0.083358765
696613054716236	1.0280457	1.7958679	-0.0052337646
696613059782154	1.4266815	1.6199036	0.03427124
696613064848072	1.8947449	1.5612335	0.02708435
696613069913990	2.061142	1.5947571	-0.09980774
696613074979908	2.381958	1.6366577	-0.31048584
696613080045826	2.6728516	1.646225	-0.440979
696613085111744	2.9697418	1.7108765	-0.42660522
696613090208179	3.3647766	1.8665009	-0.2745819
696613095274097	3.8544006	1.9886017	-0.12374878
696613100340015	4.1117706	2.072403	0.01751709
696613105405933	4.220703	2.0867615	0.11088562
696613110471851	4.152481	2.056839	0.15278625
696613115537769	3.9573517	1.9610748	0.12286377
696613120603687	3.6341248	1.7863007	0.01512146
696613125700123	3.298935	1.6534119	-0.16804504
696613130766041	2.9529724	1.7300262	-0.3835144
696613135831959	2.4597778	2.0221252	-0.62294006
696613140897877	1.9953003	2.41716	-0.96769714
696613145963795	1.5894775	2.9247437	-1.3938751
696613151029713	1.10466	3.559204	-1.9086151
696613156095631	0.49414063	4.1936646	-2.6280823
696613161161549	-0.39530945	5.1070557	-3.572586
696613166257984	-1.5002289	6.2682343	-4.749344
696613171323902	-2.8385925	7.8029175	-6.3331146
696613176389820	-4.6533966	9.7673645	-8.042572
696613181455738	-6.378418	11.937714	-9.267197
696613186521656	-7.9250793	14.318741	-9.807098
696613191587574	-10.161255	16.988281	-10.417618
696613196653492	-12.5195465	19.852936	-11.844559
696613201749928	-14.341537	22.487762	-12.919556
696613206815845	-15.739746	24.871185	-12.172562
696613211881763	-17.471954	25.547546	-10.671402
696613216947681	-18.397308	25.067505	-9.307907
696613222044117	-20.197754	23.229965	-7.3973236
696613227110035	-19.814682	19.281921	-6.327118
696613232175953	-16.5849	15.041794	-5.8865814
696613237241871	-12.397446	11.822784	-5.7369537
696613242307789	-9.35202	9.487244	-5.8758087
696613247373707	-7.1110535	7.7442627	-5.7393494
696613252439625	-4.872467	6.444214	-5.1515656
696613257505543	-2.9642944	5.3883667	-4.094528
696613262571461	-1.5289612	4.4977264	-2.7621613
696613267637379	-0.6718445	4.21521	-1.7326508
696613272733814	0.13261414	4.4306946	-1.0012207
696613277799732	0.93226624	4.211624	-0.46012878
696613282865650	1.3608398	4.7826385	0.43649292
696613287931568	1.6804657	6.3867493	1.4672089
696613292997486	2.306549	7.8148956	2.5864868
696613298063404	2.7626343	9.253815	3.7596436
696613303159840	2.729126	11.402603	4.6574707
696613308225758	2.389145	13.411346	5.6678314
696613313291676	2.7961578	15.039398	6.2376556
696613318357594	3.5623016	16.62555	5.981476
696613323423512	4.0758667	17.438385	5.0357666
696613328489429	4.3009186	16.62555	3.5681152
696613333555347	5.1712036	14.986725	1.4911499
696613338621265	6.18396	13.122833	-1.5291443
696613343717701	6.101349	11.353531	-5.353882
696613348783619	4.9174194	9.890671	-7.336273
696613353849537	3.8927002	9.399857	-5.750122
696613358915455	2.7279205	9.59259	-2.1085358
696613363981373	1.2052155	9.665604	1.0769501
696613369047291	-0.30552673	9.384293	2.938446
696613374113209	-1.5876312	8.850388	3.9009094
696613379179127	-2.247223	8.136917	4.3474274
696613384245045	-2.9439392	7.2211304	4.7999268
696613389310963	-3.5724182	6.563919	5.330246
696613394407398	-3.8860626	5.9569855	5.66304
696613399473316	-3.6107178	5.7474976	5.884506
696613404539234	-2.7392426	6.243103	5.943161
696613409605152	-1.958725	6.9493866	6.0269623
696613414671070	-1.4367828	7.5503387	6.33342
696613419736988	-1.0716705	8.023193	6.5919952
696613424833424	-0.8095093	8.566666	6.43277
696613429899342	-0.58325195	9.026352	5.7073364
696613434995777	-0.20855713	9.539917	4.4970703
696613440061695	0.023666382	10.081009	3.3322906
696613445127613	0.03564453	10.553864	2.3901672
696613450193531	-0.37615967	10.832779	1.5653687
696613455259449	-0.75923157	11.148819	0.7106323
696613460325367	-1.0800476	11.254166	0.04864502
696613465391285	-1.5002289	11.037491	-0.24465942
696613470457203	-1.6929626	10.592163	-0.26739502
696613475523121	-1.4008789	9.942139	0.16236877
696613480589039	-1.2141266	9.077835	0.9811859
696613485654957	-0.8119049	8.200363	1.1870728
696613490720875	-0.42404175	7.448578	1.0182953
696613495817310	-0.046951294	6.9445953	0.6136627
696613500883228	0.6605377	6.5112457	-0.07347107
696613505949146	0.41392517	5.879181	0.121658325
696613511015064	0.59828186	5.6253967	0.0103302
696613516080982	0.82214355	5.880371	-0.03994751
696613521177418	0.5456085	6.3723907	0.2964325
696613526243336	0.6018677	6.9398193	0.70225525
696613531309254	0.8795929	7.6796265	1.1272278
696613536375172	0.7586975	8.409851	1.6288147
696613541410572	0.3480835	8.633713	2.1986237
696613546507008	0.08711243	8.46611	2.701416
696613551572926	-0.14273071	8.22789	3.037796
696613556638844	-0.3426361	7.8903046	3.3681946
696613561704762	-0.49467468	7.6089935	3.578888
696613566770679	-0.523407	7.583847	3.484314
696613571867115	-0.34861755	7.6448975	3.156311
696613576933033	-0.26722717	7.6999664	2.653534
696613581998951	-0.5198059	7.725113	2.0226593
696613587064869	-1.1387177	7.8579865	1.3486938
696613592130787	-1.8306427	8.142899	0.70584106
696613597196705	-2.3465881	8.534348	0.08215332
696613602262623	-2.7440186	8.942566	-0.29493713
696613607328541	-3.0073853	9.211914	-0.39549255
696613612424976	-3.0828094	9.239441	-0.28295898
696613617490894	-3.1330872	9.029953	-0.03994751
696613622556812	-3.1977234	8.62413	0.5167084
696613627622730	-3.1007538	8.274582	1.2098236
696613632688648	-2.9140167	8.048325	1.8335114
696613637754566	-2.7739563	7.9884796	2.369812
696613642820484	-2.4112244	8.063889	2.6918335
696613647916920	-2.3070831	8.238663	2.8570404
696613652982838	-2.338211	8.52597	2.8498535
696613658048756	-2.4255981	8.882706	2.65831
696613663114674	-2.5620575	9.278946	2.2848206
696613668180592	-2.6015625	9.768555	1.7736664
696613673246510	-2.6542358	10.186356	1.2804565
696613678312428	-2.7787323	10.551468	0.7800598
696613683408863	-2.8649292	10.850739	0.33953857
696613688474781	-2.8972473	11.167969	-0.06628418
696613693540699	-3.06604	11.540268	-0.19796753
696613698606617	-3.3437653	11.845535	-0.18240356
696613703672535	-3.504181	12.093338	-0.038757324
696613708738453	-3.7507782	12.234589	0.30841064
696613713804371	-4.1362457	12.254944	0.7980194
696613718870289	-4.4463043	12.124451	1.2936249
696613723966724	-4.6641693	11.795258	1.6156464
696613729032642	-4.781494	11.34874	1.6754913
696613734098560	-4.860504	10.782501	1.507904
696613739164478	-4.9407043	10.44014	1.2218018
696613744230396	-5.0640106	10.521545	0.9309082
696613749296314	-5.207657	11.009949	0.83273315
696613754362232	-5.2328033	11.716248	0.80999756
696613759428150	-5.1154785	12.344727	0.815979
696613764524586	-5.014923	12.833145	0.7357788
696613769590504	-4.9299316	13.229385	0.61605835
696613774656422	-4.8545074	13.647171	0.5131073
696613779722340	-4.7719116	14.044601	0.49635315
696613784788258	-4.592346	14.231354	0.7285919
696613789854176	-4.2308197	14.172699	1.3307343
696613794950611	-3.678955	13.869827	2.0681458
696613800016529	-3.2252655	13.471191	2.5529785
696613805082447	-2.994217	12.987564	2.6439514
696613810148365	-2.705719	12.639206	2.2848206
696613815214283	-2.460312	12.24057	1.7090149
696613820280201	-2.0389252	11.637238	1.2194061
696613825346119	-1.3745422	10.981232	0.73217773
696613830412037	-0.48269653	10.503586	0.17074585
696613835508472	0.15176392	10.180359	-0.24943542
696613840574390	0.40794373	9.876297	-0.86235046
696613845640308	0.60905457	9.657227	-1.7937012
696613850706226	0.89515686	9.687164	-2.8471527
696613855772144	1.2411194	10.187546	-3.8419342
696613860838062	1.6002502	10.969254	-4.608078
696613865903980	2.0204315	11.941299	-4.5075226
696613870969898	2.4837189	13.161148	-3.337967
696613876066334	2.911087	14.421692	-1.2550049
696613881132252	3.6161804	15.465561	0.8135834
696613886198170	4.420624	16.170654	2.5553741
696613891264088	5.0742493	16.444794	4.032593
696613896330006	5.6488495	16.633942	5.2009583
696613901395924	6.0043945	16.604004	5.793518
696613906492359	5.721878	15.864197	5.3206635
696613911558277	5.120926	14.658722	4.1941986
696613916624195	4.3607635	12.98996	2.859436
696613921690113	3.915451	11.170364	1.6515503
696613926756031	3.8232727	10.070236	1.0865173
696613931821949	2.84404	9.605759	0.73817444
696613936887867	0.9155121	9.061081	0.17193604
696613941984303	-0.4192505	9.028748	-0.44696045
696613947050220	0.026062012	10.774124	-1.6536407
696613952116138	-0.22651672	12.79483	-2.4030304
696613957182056	-1.5409393	13.276062	-2.6508179
696613962278492	-3.113922	13.037842	-3.188324
696613967344410	-4.92395	12.118469	-2.753769
696613972410328	-6.069565	11.440918	-1.3160553
696613977476246	-6.868042	11.335571	-0.6756134
696613982542164	-6.3078003	11.577377	-0.20155334
696613987608082	-4.5743866	11.566605	-0.15965271
696613992704517	-3.7687378	11.054245	0.021102905
696613997770435	-3.9279633	10.1241	-0.09262085
696614002836353	-3.1486511	8.909042	-0.21832275
696614007902271	-2.9918213	7.829254	0.31559753
696614012968189	-3.5879822	6.899109	0.3754425
696614018034107	-3.176178	6.2143707	0.2856598
696614023100025	-2.8074646	5.7271423	0.35150146
696614028196461	-2.477066	5.032837	0.45924377
696614033262379	-1.9623108	4.306198	0.58613586
696614038328297	-1.606781	3.6070862	0.5023346
696614043394215	-1.3194733	3.0109253	0.32637024
696614048460133	-1.1949768	2.6003265	0.23059082
696614053526051	-1.68219	2.2615356	0.227005
696614058591969	-1.4774933	2.0640259	0.49874878
696614063657887	-1.0094299	1.9694519	0.5526123
696614068754322	-0.523407	1.9981842	0.5167084
696614073820240	-0.2995453	1.9886017	0.40177917
696614078886158	0.23077393	2.0376892	0.3538971
696614083952076	0.7682648	2.0951385	0.3527069
696614089017994	1.0232544	2.1466217	0.15518188
696614094083912	1.2698517	2.0999298	-0.07347107
696614099149830	1.4003448	2.1262665	-0.2853546
696614104246265	1.6325836	2.1107025	-0.46133423
696614109312183	1.8803711	2.230423	-0.5966034
696614114378101	2.0910645	2.3309784	-0.7582092
696614119444019	2.318512	2.4818115	-0.9006653
696614124509937	2.4741364	2.6673584	-0.8851013
696614129575855	2.721939	2.9091797	-0.7965088
696614134641773	2.9936829	3.107895	-0.6085663
696614139707691	3.0954285	3.1964722	-0.45054626
696614144804127	3.1085968	3.1773224	-0.34999084
696614149870045	2.9721375	2.9989624	-0.18000793
696614154935963	2.6453247	2.7343903	-0.15487671
696614160001881	2.3352814	2.5536346	-0.29971313
696614165067799	1.9390411	2.503357	-0.5032196
696614170133717	1.5691376	2.6326447	-0.8036957
696614175230152	1.267456	2.9570618	-1.0371399
696614180296070	1.1764832	3.3999786	-1.3627472
696614185361988	1.1106415	3.863266	-1.8786926
696614190427906	0.8855896	4.43309	-2.4676666
696614195493824	0.4342804	4.993332	-3.4289398
696614200559742	-0.11160278	5.5092773	-4.5230865
696614205625660	-1.002243	6.1892242	-5.6890717
696614210691578	-2.3992615	7.264221	-6.8586273
696614215757496	-3.6274872	8.652863	-7.91568
696614220853931	-4.8976135	10.511963	-8.74646
696614225919849	-6.121048	12.898987	-9.464722
696614230985767	-7.7119904	15.828293	-10.469086
696614236051685	-9.973312	19.213684	-11.794281
696614241117603	-11.934174	22.474594	-12.603516
696614246183521	-13.574188	24.330093	-12.605911
696614251249439	-14.483994	26.077866	-11.614716
696614256315357	-17.300766	26.33284	-9.737656
696614261411793	-19.807495	24.289398	-8.352615
696614266477711	-20.032547	20.651413	-7.252487
696614271543629	-17.048187	16.483093	-6.7018127
696614276609547	-12.253799	13.090515	-6.53302
696614281675465	-8.832474	10.449707	-6.3522644
696614286741383	-6.201248	8.476883	-5.9392548
696614291837818	-3.7687378	7.2295074	-5.362259
696614296903736	-1.8078918	6.433441	-4.568573
696614301969654	-0.26841736	5.9797363	-3.670761
696614307035572	0.84129333	5.796585	-2.8890533
696614312101490	1.5164642	6.5256195	-2.2306366
696614317167408	2.2359161	8.427811	-1.7805328
696614322233326	2.8967133	10.00679	-1.6751862
696614327329762	3.2031708	10.851944	-1.4944305
696614332395679	3.1085968	10.903412	-0.9832611
696614337461597	3.120575	10.592163	0.40298462
696614342527515	3.1301575	10.944122	2.8259125
696614347593433	3.0212097	11.469635	5.0273743
696614352659351	2.4729462	11.906586	6.005417
696614357725269	1.4003448	12.45845	5.733673
696614362791187	1.3452759	12.648788	4.9208374
696614367857105	1.7055969	11.907776	3.934433
696614372953541	1.8851624	10.169586	3.1754608
696614378019459	1.8372803	8.358383	3.2604523
696614383085377	1.5846863	6.437027	2.5529785
696614388151295	1.3799896	4.595886	0.5777588
696614393217213	1.566742	3.3796387	-1.8499603
696614398283131	2.188034	3.1054993	-3.58815
696614403349049	2.6800385	3.476593	-3.7126465
696614408445484	2.7626343	4.5216675	-2.1863556
696614413511402	2.038391	5.907913	-0.15367126
696614418577320	0.8065796	7.271408	1.7940063
696614423643238	0.02128601	8.658844	3.4651642
696614428709156	-0.30673218	10.031921	4.5569153
696614433775074	-0.5198059	10.97644	4.8729553
696614438840992	-1.0249939	11.176346	4.7676086
696614443906910	-1.6809998	10.7322235	4.6323395
696614449003345	-2.2998962	10.179169	4.785568
696614454069263	-2.8948517	9.905029	5.1913757
696614459135181	-3.1797638	9.942139	5.6211395
696614464201099	-2.8864746	10.0247345	5.697754
696614469267017	-2.6554413	9.869125	5.5181885
696614474332935	-2.5070038	9.75061	5.160263
696614479429371	-2.3645477	9.670395	4.2732086
696614484495289	-2.4160156	9.480057	3.0114594
696614489561207	-2.5824127	9.360352	1.8658295
696614494627125	-2.5177765	9.393875	0.871048
696614499693043	-2.7440186	9.332809	0.016311646
696614504758961	-2.8697205	9.209518	-0.37513733
696614509824879	-2.8649292	9.144867	-0.26020813
696614514890797	-2.6386719	8.964111	0.114471436
696614519987232	-2.389679	8.767792	0.97639465
696614525053150	-2.243637	8.399078	1.9484406
696614530119068	-1.5169983	7.98967	1.9627991
696614535184986	-0.7317047	7.6329346	1.6922607
696614540250904	-0.5006561	7.251053	1.6168365
696614545316822	-0.88612366	6.994873	1.6264191
696614550382740	-1.0525208	6.8237	1.5318451
696614555479176	-0.8334503	6.943405	1.2529144
696614560545094	-0.33067322	7.175644	0.736969
696614565611012	0.35168457	7.6245575	0.27488708
696614570676929	0.04283142	7.9405823	0.3431244
696614575742847	-0.32229614	8.315277	0.5334625
696614580808765	-0.4001007	8.822845	0.6675415
696614585874683	-0.60479736	9.107758	0.80281067
696614590971119	-0.5664978	9.112549	0.93688965
696614596037037	-0.5054474	9.035934	1.0817413
696614601102955	-0.641922	8.867142	1.2122192
696614606168873	-0.60121155	8.691177	1.1966553
696614611234791	-0.55332947	8.554703	1.1643372
696614616300709	-0.7424774	8.140503	1.1643372
696614621366627	-0.6538849	7.923828	1.1248322
696614626463062	-0.5269928	7.87236	1.2481384
696614631528980	-0.60839844	7.79335	1.5569916
696614636594898	-0.5581207	7.8220825	1.6683197
696614641660816	-0.5066376	7.7945404	1.7856293
696614646726734	-0.5856476	7.7071533	1.8239441
696614651792652	-0.7328949	7.580261	1.9101257
696614656858570	-0.83226013	7.4988556	1.9029541
696614661924488	-0.9459839	7.5455475	1.7102203
696614667020924	-1.0453339	7.611389	1.6587372
696614672086842	-1.2404633	7.7837677	1.5689545
696614677152760	-1.4391785	7.9250336	1.3869934
696614682218678	-1.6343079	8.112976	1.3450928
696614687284595	-1.8414154	8.272186	1.404953
696614692350513	-1.9730835	8.40387	1.5258636
696614697416431	-2.1706085	8.358383	1.6599426
696614702512867	-2.3801117	8.267395	1.7987976
696614707578785	-2.271164	8.282959	1.9280853
696614712644703	-2.401657	8.38591	1.9448395
696614717710621	-2.6781769	8.593002	1.8383026
696614722776539	-2.9487305	8.849182	1.6479645
696614727842457	-3.152237	9.104172	1.4324799
696614732908375	-3.3844757	9.378311	1.2062378
696614738004810	-3.5807953	9.656036	0.87823486
696614743070728	-3.7041016	9.993622	0.6352234
696614748136646	-3.8465576	10.379089	0.40896606
696614753202564	-3.8429565	10.930954	0.23298645
696614758268482	-3.8082428	11.407394	0.09413147
696614763334400	-3.701706	11.783279	0.07975769
696614768400318	-3.6645966	12.131638	0.12763977
696614773466236	-3.6514282	12.311203	0.29045105
696614778562672	-3.4946136	12.313599	0.484375
696614783628590	-3.327011	12.252548	0.736969
696614788694508	-3.0875854	12.078964	0.8842163
696614793760426	-2.8553467	11.837158	0.91773987
696614798826344	-2.8649292	11.589355	0.8985748
696614803892262	-3.0361176	11.404999	0.776474
696614808958179	-3.349762	11.359512	0.6819
696614814054615	-3.6286774	11.5342865	0.7333832
696614819120533	-3.883667	11.833557	0.8566742
696614824186451	-4.109909	12.146011	1.0158997
696614829252369	-4.200897	12.423737	1.1116638
696614834318287	-4.3601074	12.684692	1.1547546
696614839384205	-4.5731964	12.810394	1.1260223
696614844450123	-4.781494	13.077347	1.1296234
696614849546558	-5.025696	13.44606	1.310379
696614854612476	-5.018509	13.786026	1.6288147
696614859678394	-4.714447	13.97757	2.0956726
696614864744312	-4.2415924	13.920105	2.5709229
696614869810230	-3.8429565	13.675903	2.824707
696614874876148	-3.4120026	13.310776	2.7875977
696614879942066	-3.0193634	12.8858185	2.3674164
696614885007984	-2.7595825	12.283676	1.7293701
696614890104420	-2.3178558	11.492386	1.1140594
696614895170338	-1.4583435	10.966858	0.558609
696614900236256	-0.6945801	10.602936	0.107299805
696614905302174	-0.28877258	10.359924	-0.28295898
696614910368092	0.023666382	10.228241	-0.8491821
696614915434010	0.44744873	10.289307	-1.6392822
696614920530445	0.89038086	10.558655	-2.6532135
696614925596363	1.1932373	10.952499	-3.722229
696614930662281	1.5631409	11.389435	-4.55661
696614935728199	1.8899536	11.785675	-4.588928
696614940794117	2.2921753	12.620056	-3.4516907
696614945860035	3.0547333	13.855469	-1.5650482
696614950925953	3.8567963	14.900528	0.54782104
696614955991871	4.4852753	15.552948	2.3626404
696614961057789	5.220291	15.920456	3.9068909
696614966154224	5.524353	15.834274	5.036957
696614971220142	5.571045	15.341064	5.651062
696614976286060	5.5818176	14.380997	5.543335
696614981351978	5.307678	13.353882	4.610794
696614986417896	4.8743286	12.033478	3.3346863
696614991483814	4.1357117	10.496399	2.009491
696614996580250	3.5180054	9.685959	1.0146942
696615001615650	2.35083	9.11734	0.27249146
696615006712086	1.1357727	8.757019	-0.23387146
696615011778004	-0.2408905	8.557098	-0.79771423
696615016843922	-0.42285156	9.281342	-1.9086151
696615021909840	-0.38334656	11.273315	-2.2222595
696615026975758	-1.0585022	12.809204	-2.295288
696615032041676	-1.9144287	13.217407	-2.4305573
696615037107594	-3.1989288	12.711029	-2.3084564
696615042173512	-4.3206024	11.864685	-1.7877197
696615047239429	-4.179352	11.294861	-0.777359
696615052335865	-3.804657	10.938126	-0.24345398
696615057401783	-4.1350555	10.7717285	-0.098602295
696615062467701	-4.200897	10.77652	0.042648315
696615067533619	-3.3521576	10.449707	0.24855042
696615072599537	-3.152237	9.744614	0.58374023
696615077665455	-3.8022614	8.663635	0.7728882
696615082761890	-3.3090515	7.540756	0.5921173
696615087827808	-2.0664673	6.6285706	0.6076813
696615092893726	-2.4076385	5.813339	0.33114624
696615097959644	-2.6865692	5.1776733	0.26651
696615103025562	-2.1347046	4.682083	0.38502502
696615108091480	-2.0604858	4.0595856	0.13722229
696615113157398	-1.6295166	3.5843353	-0.02558899
696615118253834	-1.9359741	3.2838593	0.1252594
696615123319752	-1.9060516	3.0240936	0.14320374
696615128385670	-1.3972778	2.7858734	0.2341919
696615133451588	-1.0704803	2.5476532	0.3024292
696615138517506	-0.7831726	2.487793	0.38381958
696615143583424	-0.5964203	2.369278	0.4329071
696615148649342	-0.20378113	2.353714	0.49635315
696615153745777	0.3756256	2.3632965	0.43530273
696615158811695	0.8640442	2.3369598	0.36706543
696615163877613	1.1896515	2.2711182	0.24975586
696615168943531	1.480545	2.250763	0.14680481
696615174009449	1.6373596	2.2184448	-0.00881958
696615179075367	1.7666473	2.143036	-0.18240356
696615184141285	1.8731995	2.166977	-0.36795044
696615189207203	1.895935	2.1801453	-0.6085663
696615194303638	1.9581909	2.2100677	-0.77256775
696615199369556	2.0683289	2.3046417	-0.85995483
696615204435474	2.2694397	2.4267426	-0.8455963
696615209501392	2.4322357	2.5213165	-0.7869415
696615214567310	2.4501953	2.518921	-0.7091217
696615219633228	2.3723907	2.503357	-0.57624817
696615224729664	2.1593018	2.4075928	-0.43737793
696615229795582	1.7786255	2.357315	-0.40386963
696615234861500	1.4075165	2.3621063	-0.54512024
696615239927418	1.0926819	2.4889984	-0.816864
696615244993336	0.7958069	2.6829224	-1.1388855
696615250059254	0.5001221	2.99057	-1.4118195
696615255125172	0.26190186	3.3916016	-1.757782
696615260191090	0.12782288	3.8812256	-2.2749329
696615265287525	-0.06491089	4.4187164	-2.9249573
696615270353443	-0.5377655	5.066345	-3.6719513
696615275419361	-1.1949768	5.8923492	-4.840317
696615280485279	-2.3046875	7.113388	-6.4276733
696615285551197	-3.5807953	8.870743	-8.110809
696615290617115	-5.0245056	10.992004	-9.549713
696615295683033	-6.440674	13.440063	-10.20932
696615300779469	-7.539612	16.249664	-10.221298
696615305845387	-8.947403	19.360931	-10.6019745
696615310911304	-10.569473	22.116653	-11.535706
696615315977222	-11.974869	24.172073	-11.475845
696615321043140	-13.228226	25.533188	-10.22847
696615326109058	-15.060989	25.518814	-8.90329
696615331205494	-16.552582	23.92189	-7.733719
696615336271412	-16.90213	20.821396	-6.978348
696615341337330	-15.324356	16.847015	-6.865814
696615346403248	-11.906631	13.425705	-7.0358124
696615351469166	-8.542786	10.783707	-7.4918976
696615356535084	-5.654175	8.771378	-7.8630066
696615361601002	-2.9606934	7.3755646	-7.891739
696615366666920	-0.7233124	6.449005	-7.3877563
696615371732838	0.8293152	6.006073	-6.2648773
696615376829273	1.8588257	6.377182	-4.8498993
696615381895191	2.3867493	7.6484985	-3.871872
696615386961109	2.227539	9.55188	-3.3750763
696615392027027	2.2107697	11.529495	-3.1440277
696615397092945	2.0563507	13.2066345	-2.4437256
696615402158863	1.4829407	14.201431	-0.7630005
696615407224781	0.5899048	14.883774	2.275238
696615412290699	-0.23728943	16.117981	5.385315
696615417387135	-1.2775726	17.465927	6.849365
696615422453053	-1.1051941	17.75322	7.2252502
696615427518970	-0.56051636	16.39093	7.4467163
696615432584888	0.07873535	13.710617	7.9183807
696615437650806	1.1226044	10.611328	7.9530945
696615442716724	1.3129578	7.349228	6.5057983
696615447782642	1.0328369	4.1254272	3.9356232
696615452879078	1.5260315	1.7240448	1.4013672
696615457944996	2.4274445	0.20132446	-0.85995483
696615463010914	3.468933	-0.4259491	-2.6089325
696615468076832	4.338028	-0.35173035	-3.018341
696615473142750	4.7234955	0.5640564	-1.8140564
696615478208668	3.603012	2.168167	0.43769836
696615483274586	1.7989807	4.022476	2.4715729
696615488371021	0.8293152	5.863617	4.0708923
696615493436939	1.2937927	7.6760254	4.918442
696615498502857	2.1233826	9.385483	4.8573914
696615503568775	2.4968872	10.73822	4.175049
696615508634693	2.3687897	11.399017	3.8135223
696615513700611	1.7439117	11.199097	4.0984344
696615518766529	0.6329956	10.658005	4.801132
696615523862965	0.029663086	10.685547	5.558899
696615528928883	-0.24447632	10.958481	5.958725
696615533994801	-0.66944885	11.23381	6.302292
696615539060719	-0.8585968	11.545059	6.3453827
696615544126637	-1.2847595	11.486404	5.5624847
696615549192554	-1.8892975	11.211075	4.389328
696615554258472	-2.123932	11.302048	3.0090637
696615559324390	-2.1311035	11.683929	1.5282593
696615564420826	-2.9487305	11.9652405	0.5023346
696615569486744	-4.0943604	11.912567	0.088134766
696615574552662	-5.092743	11.543869	0.36827087
696615579618580	-5.7272034	11.106918	0.67233276
696615584684498	-5.741562	10.426971	-0.01600647
696615589750416	-4.682129	9.80806	-0.2566223
696615594816334	-3.2228699	9.174805	-0.103393555
696615599882252	-2.6075592	8.14888	0.2341919
696615604978687	-2.2137146	6.9721375	0.48199463
696615610044605	-1.3925018	6.1114197	0.56817627
696615615110523	-0.591629	5.8660126	0.6747284
696615620176441	0.32055664	5.879181	0.49874878
696615625242359	0.53125	6.100647	0.52508545
696615630308277	-0.25524902	6.3795624	0.83992004
696615635404713	-0.23728943	6.9374237	1.0697632
696615640470631	0.2104187	7.6496887	1.2349701
696615645536549	0.536026	8.355988	1.3271484
696615650602467	0.7527008	8.864746	1.4636078
696615655668385	0.4665985	8.97847	1.8131714
696615660734303	0.111068726	8.852783	2.0166779
696615665830738	-0.04815674	8.583435	2.112442
696615670896656	-0.14273071	8.126144	1.9041443
696615675962574	-0.38812256	7.8627777	1.6838837
696615681028492	-0.607193	7.7191315	1.6635284
696615686094410	-0.528183	7.685608	1.6192322
696615691160328	-0.46594238	7.756241	1.5126953
696615696226246	-0.66944885	7.7035675	1.3786163
696615701292164	-1.0249939	7.6592712	1.2529144
696615706358082	-1.3218689	7.848419	1.2134094
696615711424000	-1.5876312	8.1189575	1.147583
696615716489918	-1.843811	8.399078	1.0254669
696615721586353	-1.9347839	8.630112	0.90457153
696615726652271	-1.9060516	8.757019	0.92611694
696615731718189	-1.8952789	8.705536	1.0146942
696615736784107	-1.8414154	8.579834	1.0793457
696615741850025	-1.8031006	8.342819	1.2385559
696615746915943	-1.8078918	8.135712	1.4456482
696615751981861	-1.8186646	7.998047	1.7281647
696615757047779	-1.8509827	7.97052	2.0549774
696615762144215	-2.0904083	7.938202	2.2716522
696615767210133	-2.195755	7.942978	2.3171387
696615772276051	-2.290329	8.043533	2.3207397
696615777341969	-2.5608673	8.285355	2.2106018
696615782407887	-2.738037	8.596603	2.0202637
696615787473804	-2.9247894	8.994034	1.7114105
696615792539722	-3.0516815	9.469284	1.3271484
696615797636158	-3.0193634	9.908615	0.76330566
696615802702076	-3.1235046	10.350357	0.15757751
696615807767994	-3.2827148	10.663986	-0.3260498
696615812833912	-3.428772	11.030304	-0.6696167
696615817899830	-3.4012299	11.384644	-0.75102234
696615822965748	-3.3617249	11.767715	-0.53674316
696615828031666	-3.3174286	12.104111	-0.16444397
696615833128101	-3.3353882	12.216629	0.21862793
696615838194019	-3.468277	12.196289	0.618454
696615843259937	-3.5783997	12.064606	0.96681213
696615848325855	-3.725647	11.762924	1.1068726
696615853391773	-3.7938843	11.467255	1.1008911
696615858457691	-3.983017	11.272125	1.0865173
696615863523609	-4.0680237	11.184738	1.0541992
696615868620045	-4.2296295	11.297256	0.9835663
696615873685963	-4.472641	11.466049	0.9416809
696615878751881	-4.5743866	11.650406	0.8063965
696615883817799	-4.744385	11.895813	0.5669861
696615888883717	-4.70607	12.045441	0.32995605
696615893949635	-4.673752	12.071777	0.045043945
696615899015553	-4.714447	12.050232	-0.014816284
696615904111988	-4.768326	12.094528	0.16474915
696615909177906	-4.828171	12.231003	0.40298462
696615914243824	-4.871277	12.347122	0.69866943
696615919309742	-4.7395935	12.418945	0.94047546
696615924375660	-4.4822083	12.219025	1.0793457
696615929441578	-4.2104797	11.585754	0.93807983
696615934507496	-3.7831116	11.056641	0.6711273
696615939573414	-3.366516	10.516754	0.46643066
696615944669849	-3.208496	9.94574	0.51071167
696615949735767	-2.9966125	9.396271	0.5897217
696615954801685	-2.6841736	9.076645	0.6064911
696615959867603	-2.5153809	8.78215	0.67233276
696615964933521	-2.0999908	8.4313965	0.32157898
696615969999439	-1.5181885	8.150085	-0.34521484
696615975065357	-0.75683594	8.236267	-1.3196564
696615980161793	0.16014099	8.804901	-2.5670319
696615985227711	0.8939667	9.678772	-3.8539124
696615990293629	1.5224457	10.630478	-4.87265
696615995359547	1.9450226	11.674347	-5.1228333
696616000425465	2.3292847	13.195862	-4.354294
696616005491383	3.0679016	15.16748	-2.3323975
696616010557301	3.8352356	16.845825	0.34431458
696616015653736	4.761795	17.927994	3.0114594
696616020719654	5.829605	18.346985	4.722122
696616025785572	6.8184204	18.24643	5.8593597
696616030851490	7.308029	18.003418	6.667404
696616035917408	7.0805817	17.499435	7.160614
696616040983326	6.6448364	16.726105	6.702118
696616046049244	5.978058	15.689423	5.259613
696616051145679	5.1029663	14.079315	3.52742
696616056211597	4.594208	12.444077	2.1148376
696616061277515	3.563507	11.627655	1.147583
696616066343433	1.2973938	11.258957	1.1727142
696616071409351	-0.18940735	11.176346	0.30960083
696616076475269	-0.12956238	11.795258	-1.3567657
696616081541187	-0.4862976	13.164734	-2.6292725
696616086607105	-1.1494904	13.487961	-3.3571167
696616091703541	-2.1311035	13.21022	-3.3140259
696616096769459	-3.4539032	12.955246	-3.3918304
696616101835377	-5.006546	12.277679	-2.9944
696616106901295	-6.0839386	11.950882	-1.5351257
696616111967213	-5.705658	12.047836	-0.90185547
696616117033131	-3.97464	11.835953	-1.3304291
696616122099049	-2.9247894	11.29007	-1.6129456
696616127195484	-2.9606934	10.867508	-1.6356812
696616132261402	-3.9375305	10.735825	-1.2921143
696616137327320	-4.6881104	9.530334	-1.1568451
696616142393238	-4.346939	8.278168	-1.0108032
696616147459156	-3.9016266	7.2917633	-0.35957336
696616152525074	-3.496994	6.3089447	0.46762085
696616157590992	-2.7823334	5.1585236	0.95843506
696616162656910	-1.8019104	4.27507	1.2541199
696616167753345	-1.9096375	3.4658203	0.86146545
696616172819263	-1.8354187	2.8936157	0.6399994
696616177885181	-1.6546631	2.4039917	0.479599
696616182951099	-1.8617554	2.1370392	0.5095215
696616188017017	-2.07724	1.9131927	0.7836609
696616193082935	-2.2807465	1.7695313	1.0613861
696616198179371	-1.4822845	1.7036896	1.1056824
696616203245289	-0.8693695	1.66539	1.0745544
696616208311207	-0.5126343	1.6342621	0.9931488
696616213377125	-0.07928467	1.704895	0.84710693
696616218443043	0.4665985	1.6988983	0.5921173
696616223508961	0.94065857	1.6546173	0.30960083
696616228574879	1.3165436	1.5420837	0.0965271
696616233640797	1.5080719	1.3230133	-0.100997925
696616238706715	1.6876373	1.2571716	-0.2853546
696616243772633	1.863617	1.234436	-0.3727417
696616248869068	2.0874786	1.2416077	-0.4086609
696616253934986	2.405899	1.2847137	-0.46611023
696616259000904	2.7027893	1.3026581	-0.4816742
696616264066822	2.8703766	1.357727	-0.45054626
696616269132740	3.053543	1.4858246	-0.47450256
696616274198658	3.3240814	1.5780029	-0.45533752
696616279295094	3.4593506	1.6558075	-0.43139648
696616284361012	3.4030914	1.6977081	-0.43858337
696616289426929	3.271408	1.7982635	-0.41583252
696616294492847	2.9481964	1.9251556	-0.44456482
696616299558765	2.4980774	2.2208405	-0.41464233
696616304624683	2.0108643	2.5799713	-0.39309692
696616309690601	1.5415955	3.028885	-0.47569275
696616314756519	1.0783234	3.614273	-0.63371277
696616319822437	0.78982544	4.319351	-0.9126282
696616324918873	0.35646057	5.042404	-1.4261932
696616329984791	-0.19419861	5.7822113	-2.3850708
696616335050709	-0.7723999	6.48851	-3.674347
696616340116627	-1.8869019	7.3947144	-5.2928314
696616345182545	-3.0385132	8.749832	-7.165085
696616350248463	-4.276306	10.484421	-9.036163
696616355314381	-5.488983	12.646393	-10.48465
696616360380299	-6.555588	15.151932	-11.157425
696616365446217	-7.757477	17.840607	-11.338181
696616370512135	-9.592636	20.505356	-11.834976
696616375578053	-11.336807	22.751114	-12.043274
696616380643970	-12.975647	24.230743	-11.398041
696616385740406	-14.516312	24.346863	-10.168625
696616390806324	-16.003113	23.113846	-9.112778
696616395872242	-17.001495	20.635849	-8.196991
696616400938160	-16.435272	17.568878	-7.4715576
696616406004078	-13.286896	14.604843	-7.078903
696616411069996	-9.696793	12.074173	-6.8382874
696616416166431	-7.128998	9.998398	-6.7904053
696616421232349	-4.666565	8.388306	-6.747299
696616426298267	-2.4830627	7.1983795	-6.562958
696616431364185	-0.62994385	6.306549	-6.358246
696616436430103	0.7682648	5.6984253	-5.8949738
696616441496021	1.6433563	5.3201294	-5.197052
696616446561939	2.0084686	5.2100067	-4.4273224
696616451627857	2.2466888	5.515259	-3.808426
696616456724293	2.279007	6.396332	-3.5139313
696616461790211	2.0419922	8.057907	-3.2745209
696616466856129	1.9725494	10.009186	-2.9058075
696616471922047	1.7606659	11.717438	-1.555481
696616476987965	1.2614746	13.264099	1.128418
696616482053883	0.7108154	14.403732	4.5784607
696616487119801	0.13140869	15.651108	7.319824
696616492185719	-0.10322571	16.892502	8.792267
696616497251637	0.7311554	17.173828	9.032883
696616502348072	1.2243652	16.468735	8.677338
696616507413990	1.4159088	14.778427	7.726837
696616512479908	0.64974976	11.985596	6.0030212
696616517545826	-0.18461609	8.913834	3.5860748
696616522611744	-0.12237549	6.48851	1.009903
696616527677662	0.4462433	4.962204	-1.3603516
696616532774097	1.0974731	4.5575867	-3.2936707
696616537840015	1.8803711	5.0555725	-4.2669067
696616542905933	2.571106	6.149719	-3.5211182
696616547971851	3.0822601	7.6173706	-1.8284149
696616553037769	3.0307922	8.953339	-0.19317627
696616558103687	2.9721375	9.585403	1.6431732
696616563169605	2.721939	9.280151	3.374176
696616568235523	1.9342499	8.52478	3.9452057
696616573331959	1.0328369	7.6209564	3.736908
696616578397877	0.3947754	6.694412	3.6914215
696616583463795	0.12063599	6.198807	4.29834
696616588529713	0.20323181	6.325699	5.4439697
696616593595631	0.45343018	6.7578583	6.354965
696616598661549	0.7311554	7.3983	7.050476
696616603727467	1.056778	8.203949	7.3689117
696616608793385	1.1920471	9.186768	7.3713074
696616613889820	0.87361145	10.189941	7.026535
696616618955738	0.16732788	11.116501	6.271164
696616624021656	-0.6095886	11.882645	5.307495
696616629087574	-1.3829193	12.474014	4.1223755
696616634153492	-2.6003723	12.867859	2.8941498
696616639219410	-3.8345795	12.927704	1.9268951
696616644315845	-5.0604095	12.5578	1.6527557
696616649381763	-5.955841	11.993973	1.2253876
696616654447681	-6.0121155	11.412186	0.109695435
696616659513599	-4.990982	10.746597	-0.5307617
696616664579517	-3.3832703	10.219864	-0.6361084
696616669645435	-2.832611	9.300491	-0.45533752
696616674711353	-2.8864746	8.020798	-0.21113586
696616679807789	-2.659027	6.8224945	-0.01121521
696616684873707	-2.1861725	6.0719147	0.2341919
696616689939625	-1.0034332	5.7463074	0.073776245
696616695005543	-0.2528534	5.7319336	0.10609436
696616700071461	-0.4862976	5.997696	0.48916626
696616705137379	-0.61917114	6.42984	0.80281067
696616710203297	-0.4012909	7.089447	1.0470123
696616715269215	0.022476196	7.7119446	1.1308136
696616720365650	0.20443726	7.8651733	1.1451874
696616725431568	0.058395386	8.0399475	1.2349701
696616730497486	-0.08166504	8.22789	1.4241028
696616735563404	-0.03857422	8.169235	1.701828
696616740629322	-0.012237549	7.963333	1.9927368
696616745695240	-0.026611328	7.638916	2.119629
696616750791676	-0.10083008	7.424637	2.1100464
696616755857594	-0.29714966	7.342041	2.108841
696616760923512	-0.29595947	7.343231	2.0908966
696616765989429	-0.09364319	7.4677277	1.9616089
696616771055347	-0.16427612	7.6209564	1.8059845
696616776151783	-0.35221863	7.852005	1.5450134
696616781217701	-0.5341797	8.051926	1.2002411
696616786283619	-0.65148926	8.316483	0.89019775
696616791349537	-0.7867584	8.539139	0.7046509
696616796415455	-0.8897095	8.686386	0.6567688
696616801481373	-0.9603424	8.615753	0.7154236
696616806577808	-1.0656891	8.36676	0.8375244
696616811643726	-1.191391	8.073471	0.9464569
696616816709644	-1.3278503	7.796936	1.1164551
696616821775562	-1.4655151	7.693985	1.3558655
696616826841480	-1.6187439	7.71434	1.539032
696616831907398	-1.8713379	7.8615875	1.701828
696616836973316	-2.147873	8.194382	1.780838
696616842069752	-2.3465881	8.504425	1.8383026
696616847135670	-2.578827	8.804901	1.8873901
696616852201588	-2.7978973	9.142471	1.7616882
696616857267506	-2.9128113	9.586609	1.4863586
696616862333424	-3.0672455	10.035522	1.1942596
696616867399342	-3.306656	10.471252	0.83273315
696616872465260	-3.5149536	10.977631	0.41854858
696616877531178	-3.7196655	11.379852	0.02230835
696616882627613	-3.95549	11.76532	-0.19078064
696616887693531	-4.2655334	12.174728	-0.25183105
696616892759449	-4.4906006	12.523087	-0.14888
696616897825367	-4.6222687	12.817581	0.11088562
696616902891285	-4.682129	12.999542	0.35510254
696616907957203	-4.651001	13.001938	0.5442352
696616913023121	-4.70607	12.869049	0.7070465
696616918089039	-4.7120514	12.627243	0.5957184
696616923185474	-4.829376	12.315994	0.3934021
696616928251392	-4.9957733	12.117279	0.22819519
696616933317310	-5.228012	11.940109	0.078567505
696616938383228	-5.43631	11.894608	0.01512146
696616943449146	-5.315399	12.028687	-0.02558899
696616948515064	-5.1190643	12.223816	-0.103393555
696616953580982	-4.8976135	12.428513	-0.10697937
696616958677418	-4.6438293	12.579361	-0.17642212
696616963743336	-4.491791	12.742157	-0.2063446
696616968809254	-4.3637085	12.960037	-0.22789001
696616973875172	-4.1578064	13.200653	-0.13212585
696616978941090	-3.8716888	13.361069	0.17553711
696616984007008	-3.5879822	13.374237	0.53585815
696616989072926	-3.4072113	13.194672	0.90815735
696616994138844	-3.1594238	12.921722	1.420517
696616999204762	-2.8745117	12.639206	1.6096497
696617004270679	-2.9223938	12.00235	1.4983215
696617009336597	-3.057663	10.987213	1.4145355
696617014402515	-2.7715607	10.154022	1.4025574
696617019498951	-2.0844269	9.652451	1.3989716
696617024564869	-1.5349579	9.134094	1.2122192
696617029630787	-1.0800476	8.657654	0.6687317
696617034696705	-0.6203613	8.534348	-0.27337646
696617039762623	0.15655518	8.822845	-1.5566711
696617044828541	1.0328369	9.548294	-3.0326996
696617049894459	1.4972992	10.557449	-4.034668
696617054960377	1.6613007	11.633652	-4.2190247
696617060026295	2.2287292	12.897781	-3.054245
696617065092213	3.1983795	14.394165	-1.0754395
696617070188648	4.219513	15.846237	0.93688965
696617075254566	5.132904	16.714142	2.709793
696617080320484	5.9816437	17.137909	4.1151886
696617085386402	6.4544983	17.215729	5.2620087
696617090452320	6.6687775	17.040955	6.1670227
696617095518238	6.5143585	16.419647	6.3956604
696617100614674	5.604553	15.375778	5.776764
696617105680592	4.4984436	14.061371	4.492279
696617110746510	3.456955	12.435699	3.1120148
696617115812428	2.753067	11.026718	1.7796478
696617120878345	1.8037567	10.289307	0.97639465
696617125944263	0.055999756	9.834396	1.0266724
696617131010181	-1.5744629	9.594986	0.6459961
696617136076099	-1.4284058	10.4353485	-0.6480713
696617141172535	-0.42523193	12.011932	-1.8810883
696617146238453	-0.6538849	12.828354	-2.4592896
696617151304371	-1.9838715	12.766098	-2.8794708
696617156370289	-3.8250122	12.33754	-3.0195313
696617161436207	-5.1382294	11.867081	-2.1731873
696617166502125	-6.0001373	11.566605	-0.39549255
696617171598560	-6.0444336	11.545059	0.15278625
696617176664478	-4.6653748	11.612091	-0.24943542
696617181730396	-3.239624	11.484009	-0.096206665
696617186796314	-2.0820313	11.067413	-0.29612732
696617191862232	-1.8581696	10.806442	-0.23387146
696617196928150	-2.5333405	9.881088	0.13841248
696617201994068	-2.4363708	8.7211	0.26411438
696617207090504	-2.046112	7.6844025	0.44248962
696617212156422	-1.7779694	6.6884155	0.6364136
696617217222340	-1.2248993	5.828903	0.5202942
696617222288258	-0.56051636	5.108246	0.4113617
696617227354176	-0.50305176	4.287033	0.2844696
696617232420094	-1.1698303	3.8608704	0.35629272
696617237486012	-1.0800476	3.2934418	0.38142395
696617242551929	-1.0237885	2.8936157	0.66633606
696617247617847	-1.1147766	2.661377	0.5801544
696617252714283	-1.0237885	2.448288	0.40538025
696617257780201	-0.8849335	2.369278	0.37065125
696617262846119	-0.5928345	2.3190002	0.52388
696617267912037	-0.17863464	2.2471771	0.6388092
696617272977955	0.31336975	2.1262665	0.5597992
696617278043873	0.82214355	2.1143036	0.32995605
696617283109791	1.2710571	2.1298676	0.18391418
696617288175709	1.5547638	2.0640259	-0.04953003
696617293272144	1.733139	2.0221252	-0.17642212
696617298338062	1.903122	2.0676117	-0.16804504
696617303403980	2.1916199	2.1298676	-0.25422668
696617308469898	2.4238586	2.1418304	-0.3332367
696617313535816	2.6141968	2.168167	-0.31169128
696617318601734	2.891922	2.278305	-0.14289856
696617323667652	3.1720428	2.4219513	0.033081055
696617328764088	3.2773895	2.5404663	0.30960083
696617333830006	3.3516083	2.637436	0.479599
696617338895924	3.3611908	2.771515	0.54304504
696617343961842	3.2450714	2.7691193	0.57655334
696617349027760	3.08107	2.7930603	0.40538025
696617354093678	2.8512268	2.8313599	0.19947815
696617359159595	2.5591278	2.9414978	-0.045928955
696617364256031	2.1221924	3.2778778	-0.32365417
696617369321949	1.8516388	3.729187	-0.614563
696617374387867	1.5619507	4.2654877	-1.0084076
696617379453785	1.2997894	4.761093	-1.4944305
696617384519703	0.8688202	5.2124023	-2.2090912
696617389616138	0.2283783	5.657715	-3.2529602
696617394682056	-0.7628174	6.211975	-4.560196
696617399747974	-1.8869019	7.2055664	-6.126007
696617404813892	-3.089981	8.439774	-7.7014008
696617409910328	-4.3050385	10.12291	-9.165451
696617414976246	-5.4674225	12.268112	-10.38649
696617420042164	-6.1797028	14.962784	-11.418396
696617425108082	-7.259491	18.021378	-12.48262
696617430174000	-8.846848	21.206863	-13.561203
696617435239918	-10.824448	23.82492	-13.842514
696617440305836	-13.12529	25.211166	-12.765137
696617445371754	-15.350693	25.06871	-11.278336
696617450468189	-17.293594	23.42389	-9.647873
696617455534107	-18.454773	20.7771	-7.8498383
696617460600025	-17.623993	17.625137	-6.5545654
696617465665943	-14.296051	14.626404	-5.8937683
696617470731861	-11.033951	12.14122	-5.7369537
696617475797779	-8.584686	10.067841	-5.887787
696617480863697	-6.161743	8.370346	-5.9500275
696617485929615	-3.71727	7.053543	-6.0098877
696617491026051	-1.7157135	6.1616974	-5.8997498
696617496091969	-0.3605957	5.508087	-5.28804
696617501157887	0.43069458	4.7910156	-4.4823914
696617506223804	0.68925476	4.220001	-3.864685
696617511289722	0.654541	4.2762604	-3.140442
696617516355640	0.90953064	4.763489	-1.7673645
696617521421558	1.4051208	5.4853363	-0.13212585
696617526517994	1.5739136	6.499283	1.594101
696617531583912	1.4099121	9.05748	3.3430634
696617536649830	1.4553986	12.101715	5.208145
696617541715748	1.401535	14.96637	6.844574
696617546781666	1.1681061	16.818283	7.8226166
696617551847584	1.496109	17.333038	7.768738
696617556913502	2.9613647	16.90567	6.612335
696617562009937	4.3164825	15.746887	4.9483643
696617567075855	5.448929	13.8506775	3.5501556
696617572141773	5.6692047	11.135651	2.1902466
696617577207691	5.7637787	8.383514	0.073776245
696617582273609	5.381897	6.195221	-2.5263214
696617587339527	4.7354584	4.701233	-4.7948303
696617592405445	4.3440094	4.053604	-5.5549927
696617597471363	4.005234	4.468994	-4.3064117
696617602567799	2.9302368	5.376404	-1.9409485
696617607633717	1.5032959	6.0587463	0.21025085
696617612699635	0.2858429	6.4669647	1.7126007
696617617765553	-0.44439697	7.0475464	2.8307037
696617622831470	-0.80352783	7.717926	3.618393
696617627897388	-1.259613	8.36676	4.124771
696617632963306	-1.7707825	8.598999	4.531784
696617638059742	-2.460312	8.528366	4.7472534
696617643125660	-2.954712	8.448166	4.797531
696617648191578	-2.9451294	8.651672	5.074066
696617653257496	-2.6997375	8.86116	5.369751
696617658323414	-2.5369263	9.029953	5.7624054
696617663389332	-2.2376556	9.265778	5.9527435
696617668455250	-2.0281525	9.469284	5.591217
696617673521168	-1.9694977	9.571045	4.758026
696617678617603	-1.9647064	9.798492	3.8218994
696617683683521	-1.7480316	10.173187	2.6200104
696617688749439	-1.5313568	10.723846	1.2134094
696617693815357	-1.6714172	11.227829	-0.14648438
696617698881275	-2.2005463	11.403809	-1.0766449
696617703947193	-2.9068298	11.420563	-0.8252411
696617709043629	-3.5329132	11.054245	0.17433167
696617714109547	-3.5065765	10.401825	1.1703186
696617719175465	-2.7488098	9.908615	1.633606
696617724241383	-1.8366241	9.414215	1.8311157
696617729307301	-1.4715118	8.706726	1.8406982
696617734373219	-1.5301666	7.8783417	1.5138855
696617739439137	-1.7181091	7.215149	1.0865173
696617744505054	-1.4511566	6.7794037	0.7465515
696617749601490	-1.1027985	6.611801	0.58255005
696617754667408	-0.47911072	6.5423737	0.20425415
696617759733326	0.33491516	6.891922	-0.122543335
696617764799244	0.30618286	7.2678223	0.028289795
696617769865162	-0.012237549	7.674835	0.29882813
696617774931080	-0.21095276	8.164444	0.38981628
696617780027515	0.0069122314	8.636108	0.51431274
696617785093433	0.15774536	8.863556	0.8147888
696617790159351	0.046417236	8.715118	1.1799011
696617795225269	-0.099624634	8.436188	1.3881989
696617800291187	0.12782288	8.3320465	1.3558655
696617805357105	0.20562744	8.432602	1.4408722
696617810423023	0.06556702	8.28894	1.6994324
696617815488941	0.21401978	8.077057	1.7832336
696617820585377	0.23316956	7.9178467	1.8299255
696617825651295	0.005722046	7.8017273	1.7700653
696617830717213	-0.08047485	7.7310944	1.559372
696617835783131	-0.032592773	7.8101044	1.3319244
696617840849049	0.0021209717	8.063889	1.2122192
696617845914967	-0.06611633	8.333237	1.1020813
696617850980885	-0.3139038	8.413437	1.0781403
696617856046803	-0.55332947	8.353592	1.132019
696617861143238	-0.71972656	8.22789	1.3091888
696617866209156	-0.7688141	8.109375	1.5138855
696617871275074	-0.92562866	8.047134	1.7090149
696617876340992	-1.1303253	7.9489746	1.8694305
696617881406910	-1.1901855	7.9058685	2.0585632
696617886472828	-1.2225037	7.898697	2.3243256
696617891538746	-1.2380676	7.83165	2.3961487
696617896604664	-1.2572174	7.7239075	2.349472
696617901701099	-1.330246	7.607788	2.096878
696617906767017	-1.4894562	7.5611115	1.657547
696617911832935	-1.8270416	7.6281433	1.1595459
696617916898853	-2.163437	7.875946	0.6962738
696617921964771	-2.3633423	8.418228	0.29403687
696617927030689	-2.6853638	9.068253	-0.03276062
696617932096607	-2.8733063	9.827225	-0.22909546
696617937162525	-3.0085907	10.662796	-0.2937317
696617942258961	-3.2384338	11.416977	-0.23986816
696617947324879	-3.4239807	12.013123	-0.100997925
696617952390797	-3.5700226	12.365067	0.10848999
696617957456715	-3.8226166	12.429718	0.36108398
696617962522633	-4.2068787	12.25853	0.62205505
696617967588551	-4.5576324	12.00235	0.80281067
696617972654469	-4.6917114	11.705475	0.93807983
696617977750904	-4.7168427	11.341553	0.9835663
696617982816822	-4.6198883	11.025513	0.8662567
696617987882740	-4.496582	10.921371	0.6998596
696617992948658	-4.544464	10.879471	0.52867126
696617998014576	-4.7276154	11.109314	0.41854858
696618003080494	-4.8186035	11.513931	0.27967834
696618008146412	-4.950287	11.837158	0.16835022
696618013212330	-4.879654	12.124451	0.016311646
696618018308765	-4.78389	12.408173	0.023498535
696618023374683	-4.7312164	12.49675	-0.0076293945
696618028440601	-4.592346	12.520691	0.1408081
696618033506519	-4.6007233	12.563797	0.33114624
696618038572437	-4.5743866	12.643997	0.54304504
696618043638355	-4.5348816	12.675125	0.78964233
696618048704273	-4.496582	12.618866	0.910553
696618053770191	-4.1865234	12.289658	0.96562195
696618058836109	-3.8537292	11.851517	0.66633606
696618063902027	-3.5412903	11.458862	0.22940063
696618068967945	-3.4120026	11.120087	-0.16804504
696618074064381	-3.3353882	10.824402	-0.3212738
696618079130299	-3.1905365	10.526321	-0.16325378
696618084196217	-2.9283752	10.300079	0.116867065
696618089262135	-2.6925507	9.963684	0.16474915
696618094328053	-2.3214417	9.555481	-0.13092041
696618099393970	-1.7971191	9.282532	-0.68518066
696618104459888	-1.1638489	9.3124695	-1.4968262
696618109525806	-0.43362427	9.762573	-2.429367
696618114622242	0.3588562	10.570618	-3.3080292
696618119688160	1.0867004	11.600128	-3.8287659
696618124754078	1.4949036	12.878632	-3.555832
696618129819996	1.9103088	14.408524	-2.058258
696618134885914	2.7279205	16.167068	0.36227417
696618139951832	3.7909546	17.5569	2.9300537
696618145017750	4.974884	18.194962	4.756836
696618150083668	5.9996033	18.202133	5.5146027
696618155180103	6.8974304	17.968704	5.8665466
696618160246021	7.626465	17.49585	5.864151
696618165311939	7.5426636	16.752441	5.42482
696618170377857	6.8579254	15.791183	4.629944
696618175443775	5.893051	14.529434	3.4555817
696618180509693	5.2143097	13.150375	2.0130768
696618185575611	4.9246063	12.403381	0.7250061
696618190641529	3.5802612	12.1627655	-0.117752075
696618195737965	1.001709	11.688705	0.38142395
696618200803883	-0.8298645	12.250153	0.19947815
696618205869801	-0.61079407	13.776459	-0.5415344
696618210935719	0.11465454	14.403732	-1.7649689
696618216001637	-0.9639282	13.455627	-2.848343
696618221067554	-2.8529663	12.634415	-2.8495483
696618226163990	-3.9052124	12.621246	-2.7549744
696618231229908	-3.7986755	12.963623	-2.1336823
696618236295826	-4.3601074	12.972	-0.43858337
696618241361744	-4.149414	12.7122345	0.96681213
696618246427662	-3.0828094	12.192688	1.0362396
696618251493580	-2.8218384	11.361908	0.2916565
696618256559498	-3.1438599	10.399429	-0.2865448
696618261625416	-2.8074646	9.579422	-0.33084106
696618266721851	-1.8342285	8.585831	-0.6361084
696618271787769	-1.9156342	7.444992	-0.6396942
696618276853687	-2.7392426	6.4933014	-0.3212738
696618281919605	-1.745636	4.6078644	2.2405243
696618286985523	0.78622437	1.7108765	5.515793
696618292051441	-1.7192993	3.7962189	0.19108582
696618297117359	-4.3960266	3.7243958	-2.192337
696618302183277	-1.4427795	4.1134644	0.090530396
696618307279713	-2.4028473	4.3480835	0.82795715
696618312345631	-3.1510315	2.8924103	0.74295044
696618317411549	-1.4954529	2.2818909	0.3359375
696618322477467	-0.6754303	2.2735138	-0.2853546
696618327543385	-0.43241882	2.0975342	-0.56547546
696618332609303	-0.07209778	1.7635498	-0.9186249
696618337705738	0.3648529	1.151825	-1.9577026
696618342771656	0.81137085	0.7484131	-1.6153259
696618347837574	0.55877686	1.8210144	1.0661774
696618352903492	0.75390625	2.3070374	0.037857056
696618357969410	1.2722473	1.2416077	-1.9361572
696618363035328	0.24873352	1.239212	1.5749359
696618368101246	1.18367	1.5588379	0.6304321
696618373167164	1.9797363	1.7683411	0.03666687
696618378263599	1.8779755	2.4051971	0.7668915
696618383329517	2.2490845	2.6601715	0.85787964
696618388395435	2.5052643	2.867279	0.8662567
696618393461353	2.6644745	3.164154	0.7860565
696618398527271	2.7195435	3.5149078	0.74894714
696618403593189	2.7794037	3.6358185	0.6208496
696618408659107	2.7781982	3.3832245	0.5406494
696618413725025	2.9326324	3.258728	0.4113617
696618418821461	3.026001	3.2467499	0.03666687
696618423887379	2.836853	3.1904907	-0.30690002
696618428953297	2.5507507	3.4071655	-0.559494
696618434019215	2.3233032	3.7148285	-0.74983215
696618439085133	1.9450226	4.0787354	-0.87312317
696618444181568	1.4913177	4.460617	-1.0491028
696618449247486	0.8173523	5.0747223	-1.3807068
696618454313404	0.318161	5.638565	-1.8415833
696618459379322	-0.8741455	6.4310455	-2.346756
696618464475758	-2.3058777	7.539566	-3.3211975
696618469541676	-2.80867	8.5499115	-4.725403
696618474607594	-3.4802399	9.604553	-6.2265625
696618479673512	-4.314621	10.974045	-7.448807
696618484739429	-5.2172394	12.758926	-8.565704
696618489805347	-5.8026123	15.016647	-9.270798
696618494871265	-6.869232	17.195374	-9.644287
696618499937183	-8.36441	18.811462	-9.692169
696618505033619	-10.055923	18.515778	-8.839844
696618510099537	-11.10817	17.189392	-8.003067
696618515165455	-11.788116	16.262833	-7.925247
696618520231373	-11.371536	16.03299	-8.159882
696618525297291	-12.658417	16.582458	-8.437607
696618530363209	-13.022339	16.483093	-8.82547
696618535429127	-11.284134	15.145935	-8.784775
696618540495045	-9.249069	13.435287	-8.352615
696618545591480	-7.3181458	11.618088	-7.91687
696618550657398	-5.994156	10.036713	-7.315933
696618555723316	-4.8832397	8.815674	-6.864624
696618560789234	-4.199692	8.352386	-6.2852173
696618565855152	-3.2216644	8.377533	-5.350281
696618570921070	-2.4196167	7.713135	-4.73497
696618576017506	-1.2680054	7.0786743	-4.1316376
696618581083424	-0.93400574	6.58667	-3.5019684
696618586149342	-0.8801422	6.4142914	-2.8579254
696618591215260	-0.6167755	7.326477	-2.1085358
696618596281178	-0.36657715	8.480484	-1.6261139
696618601347095	0.27027893	9.397461	-1.164032
696618606413013	0.7563019	9.744614	-0.6361084
696618611478931	1.125	10.004395	0.02947998
696618616544849	1.6170197	10.81842	1.0649719
696618621610767	2.124588	11.418167	2.4081268
696618626676685	2.1353607	11.813217	3.8099213
696618631742603	1.8276978	12.2022705	4.4862976
696618636808521	1.848053	12.875046	4.1379395
696618641904957	1.4362488	13.966797	3.7823944
696618646970875	1.0675507	14.840683	3.62677
696618652036793	1.1549377	14.925674	3.156311
696618657102711	0.5204773	13.223389	2.1112366
696618662168629	0.16134644	10.492813	0.4149475
696618667234547	0.56596375	8.494843	-1.4992065
696618672300465	1.2255554	7.693985	-2.8064423
696618677396900	1.6972198	7.4593506	-3.4935913
696618682462818	1.8971405	7.2342987	-3.3200073
696618687528736	1.4985046	6.8967133	-2.302475
696618692594654	0.7299652	6.591461	-1.124527
696618697660572	-0.13793945	6.1293793	-0.03036499
696618702726490	-0.72810364	5.657715	1.0266724
696618707822926	-0.7795868	5.5308228	1.8981628
696618712888844	-0.8633728	5.152542	2.5625458
696618717954762	-0.7735901	4.5815277	3.1383514
696618723020679	-0.57128906	4.3780212	3.6638794
696618728086597	-0.72810364	4.464203	4.145111
696618733152515	-1.057312	4.9837494	4.5856476
696618738218433	-1.433197	5.654129	5.1829987
696618743284351	-1.7049408	6.641739	5.7959137
696618748350269	-2.0544891	7.907074	5.9323883
696618753416187	-1.8892975	9.438156	5.412842
696618758482105	-1.7420502	10.944122	4.7352905
696618763578541	-2.1706085	12.096924	3.8781586
696618768644459	-2.8888702	12.942078	2.9097137
696618773710377	-3.71846	13.308395	2.0537872
696618778776295	-4.690506	13.195862	1.5869141
696618783842213	-5.8576813	12.57576	1.5342407
696618788908131	-6.0947113	11.795258	1.677887
696618793974049	-5.065201	11.122482	1.428894
696618799039967	-3.7675476	10.381485	1.1020813
696618804136402	-3.191742	9.560272	0.77407837
696618809202320	-2.7559967	8.615753	0.40538025
696618814268238	-2.1131592	7.8077087	0.085754395
696618819334156	-1.716919	7.08226	-0.24824524
696618824400074	-1.3733368	6.4825134	-0.32365417
696618829465992	-0.8119049	6.274231	-0.23986816
696618834531910	-0.0864563	6.3472443	-0.2757721
696618839628345	0.36245728	6.730316	-0.048324585
696618844694263	0.83410645	7.2534485	0.35031128
696618849760181	0.96339417	7.89151	1.1667328
696618854826099	0.9681854	8.598999	1.578537
696618859892017	0.8568573	8.968903	1.5797272
696618864957935	0.67489624	9.123322	1.3223572
696618870023853	0.7120056	9.168808	1.2265778
696618875089771	0.62342834	8.946152	1.5330353
696618880186207	0.42948914	8.536743	1.8634491
696618885252125	0.6042633	8.28894	1.9352722
696618890318043	0.84487915	8.200363	1.9125214
696618895383961	0.97177124	8.105789	1.9580078
696618900449879	1.1920471	7.9681244	1.9400635
696618905515797	1.20401	7.8496094	1.7880249
696618910612232	1.0711365	7.764618	1.6324005
696618915678150	1.0316315	7.7705994	1.5737457
696618920744068	0.85565186	7.808914	1.5964813
696618925809986	0.6653137	7.836441	1.641983
696618930875904	0.5647583	7.8507996	1.6371918
696618935941822	0.47138977	7.9441833	1.7880249
696618941007740	0.33491516	8.084244	2.0118866
696618946073658	0.21162415	8.256622	2.1304016
696618951170094	0.005722046	8.38472	2.167511
696618956236012	-0.18103027	8.566666	2.309967
696618961301929	-0.3905182	8.788132	2.4069214
696618966367847	-0.5126343	8.8862915	2.388977
696618971433765	-0.6490936	8.910248	2.3901672
696618976499683	-0.9423828	8.877914	2.3123627
696618981565601	-1.235672	8.850388	2.2046204
696618986631519	-1.378128	8.844406	2.0501862
696618991727955	-1.6905823	8.938965	1.8933716
696618996793873	-2.0269623	9.092194	1.7078247
696619001859791	-2.338211	9.371124	1.4911499
696619006925709	-2.7823334	9.675186	1.1882782
696619011991627	-3.0995636	10.084595	0.86027527
696619017057545	-3.6119232	10.517944	0.5741577
696619022153980	-3.9447174	10.958481	0.2772827
696619027219898	-4.0943604	11.414581	-0.00881958
696619032285816	-4.2248383	11.810822	-0.108184814
696619037351734	-4.2966614	12.111282	0.057022095
696619042417652	-4.386444	12.253738	0.26411438
696619047483570	-4.3960266	12.282471	0.5131073
696619052549488	-4.445099	12.266907	0.78964233
696619057615406	-4.3493347	12.181915	0.92611694
696619062711842	-4.120697	12.071777	0.88061523
696619067777760	-3.9842224	11.898209	0.6244354
696619072843678	-3.9543	11.776093	0.43769836
696619077909595	-3.9602814	11.762924	0.2521515
696619082975513	-3.8489532	11.900604	0.114471436
696619088041431	-3.6765594	12.2022705	0.083358765
696619093107349	-3.4431305	12.640411	0.116867065
696619098203785	-3.3162384	13.004318	0.25334167
696619103269703	-3.2803192	13.225784	0.49993896
696619108335621	-3.3377838	13.400558	0.8016205
696619113401539	-3.464676	13.681885	1.0996857
696619118467457	-3.615509	14.085312	1.3522797
696619123533375	-3.6657867	14.461197	1.598877
696619128599293	-3.457489	14.511475	1.8430939
696619133665211	-3.0409088	14.061371	2.0825043
696619138761646	-2.7392426	13.574142	2.3231354
696619143827564	-2.49263	13.116852	2.512268
696619148893482	-2.2771606	12.599701	2.5924835
696619153959400	-2.101181	11.936508	2.3877716
696619159025318	-1.927597	11.126068	1.9005585
696619164091236	-1.4846802	10.368317	1.2804565
696619169157154	-0.8346405	9.762573	0.48916626
696619174253590	-0.41207886	9.262192	-0.3799286
696619179319508	-0.16667175	8.820465	-1.2107086
696619184385426	0.09429932	8.625336	-2.0546722
696619189451344	0.4665985	8.918625	-2.887848
696619194517262	0.70362854	9.591385	-3.8191986
696619199583179	1.0543823	10.359924	-4.5745697
696619204649097	1.7558746	11.165573	-4.6344147
696619209715015	2.2478943	11.960449	-3.7844849
696619214811451	2.682434	12.9145355	-2.0845947
696619219877369	3.2845764	13.859055	-0.10697937
696619224943287	4.1045837	14.743713	1.7724609
696619230009205	5.045517	15.642731	3.417282
696619235075123	5.620117	16.242477	4.8250732
696619240141041	5.7003326	16.36937	5.7157135
696619245206959	5.804474	15.963562	5.769577
696619250272877	5.7434235	15.057358	5.074066
696619255369312	5.2933044	13.770477	4.0194244
696619260435230	4.6217346	12.332748	2.840271
696619265501148	3.8460236	10.898621	1.8394928
696619270567066	3.151703	10.0594635	1.0182953
696619275663502	2.3017578	9.942139	0.46043396
696619280729420	0.69644165	9.931366	0.021102905
696619285795338	0.13261414	10.057068	-0.94496155
696619290891773	0.7024231	11.431335	-2.2964783
696619295957691	0.83291626	13.297607	-2.9776306
696619301023609	-0.24328613	13.54422	-2.8267975
696619306089527	-1.7264862	13.116852	-2.741806
696619311155445	-2.899643	12.507523	-2.5825958
696619316221363	-3.923172	11.671951	-1.5147705
696619321287281	-4.378067	11.062622	0.306015
696619326353199	-4.544464	10.69632	0.9620209
696619331419117	-3.9902039	10.774124	0.7752838
696619336485035	-2.80867	10.644836	0.4915619
696619341581470	-2.4040527	10.10614	0.41015625
696619346647388	-2.875702	9.106567	0.40298462
696619351713306	-2.824234	8.099808	0.45205688
696619356779224	-2.1263123	7.1983795	0.8147888
696619361845142	-2.4028473	6.1221924	0.49276733
696619366911060	-2.5117798	5.2542877	-0.06388855
696619372007496	-2.5441132	4.76947	-0.104599
696619377073414	-2.5608673	4.2894287	-0.16204834
696619382139332	-2.3286285	3.7399597	-0.04234314
696619387205250	-1.9156342	3.2204132	0.29763794
696619392271168	-1.4595337	2.7906647	0.20425415
696619397337086	-1.3218689	2.4542694	0.16835022
696619402403004	-1.5014343	2.1957092	0.14680481
696619407468922	-1.2727814	2.056839	0.50354004
696619412565357	-0.7795868	1.9909973	0.7872467
696619417631275	-0.37257385	1.9179688	0.69506836
696619422697193	0.13140869	1.8736877	0.5155029
696619427763111	0.5108948	1.8210144	0.4221344
696619432829029	0.8209381	1.8557281	0.30960083
696619437894947	1.0352173	1.8018494	0.14201355
696619442960865	1.2315521	1.8006592	-0.02798462
696619448026783	1.417099	1.8401642	-0.08303833
696619453123219	1.654129	1.9036102	-0.20993042
696619458189137	1.8935394	1.977829	-0.43499756
696619463255054	2.2023926	2.0688019	-0.64328
696619468320972	2.4106903	2.15979	-0.619339
696619473386890	2.658493	2.2136536	-0.5092163
696619478452808	2.911087	2.2615356	-0.35717773
696619483518726	3.1193695	2.2926636	-0.28056335
696619488584644	3.0523376	2.2675323	-0.13452148
696619493650562	2.871582	2.1789398	-0.029174805
696619498746998	2.5651245	2.1573944	-0.00642395
696619503812916	2.255066	2.1861267	-0.08782959
696619508878834	1.9701538	2.401596	-0.20036316
696619513944752	1.5811005	2.7475586	-0.4984436
696619519010670	1.3919525	3.1785278	-0.77975464
696619524076588	1.1549377	3.6477814	-1.069458
696619529173023	0.71440125	4.2056274	-1.4561157
696619534238941	0.14457703	4.847275	-2.0510712
696619539304859	-0.48390198	5.515259	-2.899826
696619544370777	-1.3027191	6.1425476	-3.9448853
696619549436695	-2.5141754	7.145706	-5.2473297
696619554502613	-3.919571	8.554703	-6.892151
696619559568531	-4.983795	10.431763	-8.216141
696619564664967	-5.8074036	12.763702	-8.906876
696619569730885	-6.7483215	15.514648	-9.5078125
696619574796803	-7.7514954	18.926376	-10.469086
696619579862720	-9.268219	22.43988	-11.866104
696619584928638	-11.007614	25.715149	-12.541275
696619589994556	-12.746994	27.868729	-11.992996
696619595060474	-15.416534	28.073425	-10.312271
696619600126392	-17.470764	26.311295	-8.539368
696619605222828	-17.947205	23.122223	-7.165085
696619610288746	-16.21141	19.068832	-6.6012573
696619615354664	-12.331604	15.363815	-6.5904846
696619620420582	-9.201187	12.330353	-6.674286
696619625486500	-6.8105774	9.889465	-6.591675
696619630552418	-4.3325806	7.9334106	-6.43486
696619635618336	-2.2627869	6.2287292	-6.205017
696619640684254	-0.7149353	4.7982025	-5.583725
696619645780689	0.47138977	3.6274414	-4.587738
696619650846607	1.1812744	2.9678345	-3.5366821
696619655912525	1.4218903	3.1378174	-2.7549744
696619660978443	1.7786255	4.9358673	-1.9409485
696619666044361	2.2933807	7.1181793	-1.4752655
696619671110279	2.4166718	8.601395	-1.0862122
696619676176197	2.8069305	9.545898	-0.2757721
696619681272633	3.2007751	10.927353	1.6683197
696619686338551	3.1169891	12.864258	4.610794
696619691404469	2.3520355	14.583298	6.951126
696619696470387	1.5739136	15.888138	8.482208
696619701536304	2.219162	16.820679	9.093933
696619706602222	3.175644	16.958344	8.161392
696619711668140	3.1038208	15.479935	5.975479
696619716734058	2.5938416	12.547028	4.001465
696619721799976	1.6960297	9.152054	2.5637512
696619726896412	0.9837494	6.2933807	1.0254669
696619731962330	0.9394531	4.2966156	-1.3699341
696619737028248	1.2602844	3.1749268	-4.509918
696619742094166	1.8001709	2.9355164	-6.9579926
696619747160084	2.2466888	3.5448303	-7.050171
696619752226002	2.445404	4.7155914	-5.0569916
696619757322437	2.2059937	5.965378	-2.223465
696619762388355	1.5882874	7.1337433	0.79322815
696619767454273	0.9370575	8.229095	3.4615784
696619772520191	0.75509644	9.065857	4.8178864
696619777586109	0.5851135	9.208313	4.768799
696619782652027	0.33372498	8.625336	4.512619
696619787717945	-0.3139038	7.907074	4.562912
696619792783863	-1.1016083	7.4545593	4.8095093
696619797880299	-1.4559479	7.2414856	4.9519653
696619802946217	-1.0704803	7.4593506	5.295532
696619808012135	-0.55093384	8.083038	5.6845856
696619813078053	-0.270813	8.867142	5.8114777
696619818143970	-0.4587555	9.707504	5.5816345
696619823209888	-1.0309753	10.446121	5.1279297
696619828275806	-1.709732	11.09256	4.586853
696619833372242	-2.1897736	11.724625	3.70578
696619838438160	-2.7799377	12.184311	2.6966248
696619843504078	-3.6454468	12.135223	1.8083801
696619848569996	-4.70607	11.7473755	1.4169312
696619853635914	-5.539261	11.193115	1.3845978
696619858701832	-5.636215	10.655609	0.9021759
696619863767750	-4.931122	10.049881	0.69506836
696619868833668	-3.6095276	9.385483	0.85069275
696619873930103	-2.4232025	8.694763	0.7668915
696619878996021	-1.7360687	7.8460236	0.7549286
696619884061939	-1.42482	7.0391693	0.71183777
696619889127857	-1.057312	6.4933014	0.40657043
696619894193775	-0.5844574	6.435837	0.20066833
696619899259693	0.009307861	6.699188	0.068984985
696619904325611	0.3480835	7.1397247	-0.06628418
696619909422047	0.5204773	7.832855	-0.17402649
696619914487965	0.47857666	8.492447	0.100112915
696619919553883	0.22717285	9.064667	0.44128418
696619924619801	0.077545166	9.617722	0.73457336
696619929685719	0.31576538	9.993622	0.7680969
696619934751637	0.2894287	9.743423	0.6208496
696619939817554	0.12063599	9.186768	0.6890869
696619944883472	0.06437683	8.832428	0.8842163
696619949979908	0.017684937	8.437393	1.0027313
696619955045826	0.048812866	7.9812927	1.1140594
696619960111744	0.08352661	7.661667	1.2720795
696619965177662	0.011703491	7.508438	1.3917847
696619970243580	-0.10202026	7.373169	1.5246582
696619975309498	-0.070892334	7.310913	1.5928955
696619980405933	-0.14631653	7.354004	1.6252136
696619985471851	-0.11639404	7.4653473	1.6515503
696619990537769	-0.2193451	7.5946198	1.7281647
696619995603687	-0.38453674	7.7705994	1.8430939
696620000669605	-0.42285156	7.947769	1.9256897
696620005735523	-0.428833	8.036362	2.0717316
696620010801441	-0.5641022	8.188385	2.22258
696620015897877	-0.5772705	8.355988	2.4907227
696620020963795	-0.56051636	8.448166	2.7816162
696620026029713	-0.4755249	8.458939	3.0246277
696620031095631	-0.4479828	8.419434	3.2161713
696620036161549	-0.41445923	8.308105	3.242508
696620041227467	-0.5521393	8.073471	2.8414764
696620046293385	-0.7915497	7.8615875	2.286026
696620051359303	-1.127945	7.8017273	1.618042
696620056455738	-1.3314514	7.99086	0.8590698
696620061521656	-1.7276917	8.28775	0.18989563
696620066587574	-2.1706085	8.695953	-0.22070313
696620071653492	-2.5848083	9.19635	-0.32844543
696620076719410	-2.9954224	9.811661	-0.17402649
696620081785328	-3.263565	10.351547	0.15757751
696620086851246	-3.5580597	10.860321	0.34431458
696620091917164	-3.8932343	11.373871	0.54304504
696620096983082	-4.311035	11.718643	0.73457336
696620102049000	-4.694107	11.958054	0.9428711
696620107114918	-4.9059906	12.137619	1.132019
696620112180836	-4.8928223	12.14122	1.2062378
696620117246754	-4.6641693	11.946091	1.1894684
696620122312672	-4.405594	11.6683655	1.1990509
696620127378590	-4.302643	11.523514	1.1200409
696620132475025	-4.3648987	11.602524	0.9919586
696620137540943	-4.346939	11.9496765	0.85069275
696620142606861	-4.413986	12.471619	0.6591644
696620147672779	-4.2260284	12.871445	0.4915619
696620152738697	-4.081192	13.180298	0.24136353
696620157835133	-3.8058472	13.365845	0.11328125
696620162901051	-3.5197449	13.353882	0.045043945
696620167966969	-3.3353882	13.177902	0.0067443848
696620173032887	-3.3904572	12.972	0.13482666
696620178098804	-3.5652313	12.821167	0.3718567
696620183164722	-3.8345795	12.821167	0.5609894
696620188230640	-3.919571	12.855881	0.67233276
696620193296558	-3.7627563	12.754135	0.67352295
696620198362476	-3.512558	12.551819	0.54304504
696620203458912	-3.287506	12.234589	0.36706543
696620208524830	-3.1797638	11.759338	0.107299805
696620213590748	-3.0014038	11.183533	-0.11177063
696620218656666	-2.923584	10.553864	-0.24584961
696620223722584	-2.741623	9.958908	-0.27218628
696620228788502	-2.350174	9.627304	-0.2243042
696620233854420	-2.0102081	9.209518	-0.26979065
696620238950855	-1.721695	8.673218	-0.43858337
696620244016773	-1.2847595	8.30571	-0.8036957
696620249082691	-0.62275696	8.127335	-1.5447083
696620254148609	0.24154663	8.279373	-2.5167542
696620259214527	1.1262054	8.917419	-3.5342865
696620264280445	1.7917938	9.861938	-4.29924
696620269346363	2.1114197	11.001572	-4.2345886
696620274412281	2.7362976	12.360291	-3.4193573
696620279508717	3.7035675	13.911728	-1.6835632
696620284574635	4.5295563	15.414093	0.6795044
696620289640553	5.093399	16.650696	2.9851227
696620294706470	5.5578766	17.36177	4.365387
696620299772388	5.5183716	17.34262	4.969925
696620304838306	5.2777557	16.92244	5.295532
696620309904224	5.480057	16.29515	5.3673553
696620314970142	5.366333	15.44162	5.0621033
696620320066578	4.89946	14.486343	4.254059
696620325132496	4.0914154	13.224594	2.950409
696620330198414	3.156479	11.952072	1.7162018
696620335264332	2.0731049	11.1979065	1.0996857
696620340330250	0.4270935	11.156006	0.60409546
696620345396168	-0.2013855	11.432526	-1.1664124
696620350462086	-0.15350342	12.071777	-2.5335083
696620355558521	-0.468338	13.193466	-2.5239258
696620360624439	-0.5988159	13.762085	-2.1983185
696620365690357	-1.4355927	13.223389	-1.931366
696620370756275	-2.8493652	12.347122	-2.0642395
696620375822193	-3.5700226	11.987991	-2.1588135
696620380888111	-3.8309937	12.065796	-1.5925903
696620385954029	-3.6418457	12.154388	-0.7761688
696620391050465	-3.6645966	11.867081	-0.23268127
696620396116383	-3.4706573	11.584564	0.16474915
696620401182301	-2.8230286	11.203888	0.33953857
696620406248219	-2.3417969	10.611328	0.18270874
696620411314137	-2.3489838	9.741028	-0.2757721
696620416380054	-2.6602325	8.752228	-0.6791992
696620421445972	-2.5776215	7.670044	-0.14888
696620426511890	-1.68219	6.445404	0.6711273
696620431608326	-1.7935333	5.5463867	1.3319244
696620436674244	-2.485443	4.9047394	0.9309082
696620441740162	-2.1382904	4.3923798	0.68310547
696620446806080	-1.8545837	3.8381195	0.22460938
696620451871998	-1.3984833	3.3317566	-0.053115845
696620456937916	-1.9072571	2.8134003	0.37664795
696620462003834	-2.1119537	2.3956146	0.6687317
696620467069752	-1.6750183	2.103531	0.47720337
696620472166187	-1.0644989	2.132248	0.3347473
696620477232105	-0.86576843	2.0424805	0.3574829
696620482298023	-0.7903595	1.9730377	0.6938782
696620487363941	-0.4001007	1.8868561	0.484375
696620492429859	0.075149536	1.701294	0.2916565
696620497495777	0.51927185	1.5492706	0.16595459
696620502561695	1.0998688	1.42836	0.1767273
696620507627613	1.6720886	1.3122406	0.112091064
696620512724049	2.0874786	1.2882996	0.028289795
696620517789967	2.4992828	1.309845	-0.065093994
696620522855885	2.8811493	1.3565369	-0.23747253
696620527921803	3.2773895	1.364914	-0.4194336
696620532987720	3.623352	1.4379425	-0.45414734
696620538053638	3.8939056	1.5049744	-0.45414734
696620543150074	4.0758667	1.5720062	-0.39907837
696620548215992	4.1357117	1.5983429	-0.2638092
696620553281910	3.9717102	1.6199036	-0.16444397
696620558347828	3.7634125	1.6785583	-0.0758667
696620563413746	3.6437073	1.6905212	0.12884521
696620568479664	3.4042816	1.8186188	0.21144104
696620573545582	2.986496	2.1166992	0.19229126
696620578611500	2.6309662	2.5296936	0.07019043
696620583707935	2.342453	3.04924	-0.13691711
696620588773853	2.0898743	3.5603943	-0.35717773
696620593839771	1.9138947	4.167328	-0.69595337
696620598905689	1.377594	4.9562225	-1.1340942
696620603971607	0.50849915	5.9318542	-1.9038391
696620609037525	-0.5066376	6.9793243	-3.1584015
696620614103443	-1.6007996	8.218323	-4.71463
696620619169361	-3.0863953	9.76976	-6.428879
696620624265797	-4.410385	11.850327	-7.9707336
696620629331715	-5.5739746	14.220581	-9.111572
696620634428150	-6.7447357	16.902084	-9.659851
696620639494068	-7.8508606	19.80745	-10.485855
696620644559986	-9.104218	22.667328	-11.584793
696620649625904	-10.0224	24.492905	-12.921951
696620654691822	-10.333649	26.081451	-13.346924
696620659757740	-12.699112	26.314896	-12.577179
696620664823658	-16.096481	24.377975	-10.688156
696620669889576	-18.852219	20.780685	-8.39212
696620674986012	-19.633926	16.516617	-6.509079
696620680051929	-16.850662	13.22818	-5.4676056
696620685117847	-12.110138	11.166779	-5.4676056
696620690183765	-8.904312	9.620117	-5.734558
696620695249683	-6.461029	8.478088	-5.966797
696620700315601	-4.141037	7.6796265	-5.9392548
696620705381519	-2.1730042	7.022415	-5.3479004
696620710477955	-0.8729553	6.512451	-4.3854218
696620715543873	-0.023010254	6.1581116	-3.3319702
696620720609791	0.69644165	6.0108643	-2.544281
696620725675709	1.2650604	6.8811493	-2.0223541
696620730741627	2.0599365	8.600189	-1.6249084
696620735807545	2.8608093	9.713501	-0.95692444
696620740873463	3.2570496	10.18396	0.32637024
696620745969898	3.4521637	10.601746	2.0166779
696620751035816	3.6616669	11.2026825	3.6686707
696620756101734	4.12973	11.554642	4.6730347
696620761167652	4.078247	11.943695	4.7903595
696620766233570	3.8340454	12.441681	4.832245
696620771299488	4.2374725	12.975601	4.7903595
696620776365406	4.677994	12.987564	4.318695
696620781461842	5.110153	11.748566	3.5824738
696620786527760	5.359146	10.206696	2.4368591
696620791593678	4.875519	8.349991	0.3922119
696620796659595	4.2410583	6.48851	-1.9852295
696620801725513	4.057907	5.417099	-3.548645
696620806791431	4.212326	5.34169	-3.5354767
696620811857349	4.2769775	5.9174957	-2.4197845
696620816923267	3.8148956	6.777008	-0.737854
696620822019703	2.9050903	7.6401215	1.0302582
696620827085621	2.0838776	8.516388	2.7780304
696620832151539	1.52005	9.017975	4.0553284
696620837217457	1.1477509	9.132904	4.729309
696620842283375	0.18049622	9.013184	5.048935
696620847349293	-1.0692749	8.566666	5.1219482
696620852445728	-2.1706085	8.057907	5.3039093
696620857511646	-2.8924713	7.7825775	5.4990387
696620862577564	-3.049286	7.7670135	5.704941
696620867643482	-2.8517609	7.871155	6.014984
696620872709400	-2.5429077	8.266205	6.278351
696620877775318	-2.4459534	8.905457	6.4148254
696620882841236	-2.741623	9.5937805	6.183777
696620887907154	-2.9762573	10.246201	5.5181885
696620892973072	-3.1438599	10.83638	4.453964
696620898038990	-3.1103363	11.337967	3.0868835
696620903135426	-2.8816833	11.680328	1.5282593
696620908201344	-2.6302948	11.858704	0.19229126
696620913267262	-2.6697998	11.90419	-0.55111694
696620918333179	-2.7739563	11.867081	-0.6181488
696620923399097	-2.8948517	11.444504	-0.25543213
696620928465015	-3.385666	10.783707	0.80400085
696620933530933	-3.591568	10.055862	1.8622437
696620938596851	-3.0528717	9.337601	1.875412
696620943662769	-2.0963898	8.64328	1.5485992
696620948759205	-1.3230591	7.8412323	1.231369
696620953825123	-1.1949768	7.1109924	1.1044769
696620958891041	-1.4236145	6.654907	1.2433472
696620963956959	-1.1794128	6.4933014	0.9811859
696620969022877	-0.32707214	6.279007	0.19947815
696620974088795	0.65574646	6.275421	-0.13331604
696620979185230	0.80178833	6.4561768	0.045043945
696620984251148	0.31695557	6.737503	0.6507721
696620989317066	0.26309204	7.3480225	1.3869934
696620994382984	0.50968933	7.9968567	1.9137268
696620999448902	0.7958069	8.514008	2.318344
696621004514820	1.0495911	8.971298	2.3925629
696621009580738	0.7024231	8.857574	2.2884064
696621014677174	0.21520996	8.558289	2.1794739
696621019743092	0.3540802	8.395493	1.938858
696621024809010	0.4342804	8.165649	1.6766968
696621029874928	0.33851624	7.9597473	1.5498047
696621034940845	0.28224182	7.860382	1.5342407
696621040006763	0.101486206	7.9358063	1.4145355
696621045072681	-0.10441589	7.9956512	1.1786957
696621050138599	-0.3199005	7.9573517	0.91773987
696621055235035	-0.5964203	7.848419	0.7070465
696621060300953	-0.9699249	7.8029175	0.6364136
696621065366871	-1.3326416	7.9202423	0.5526123
696621070432789	-1.5265656	8.005234	0.59690857
696621075498707	-1.6199493	8.103394	0.6926727
696621080564625	-1.8761292	8.017197	0.76330566
696621085630543	-2.2005463	7.9513702	0.9273071
696621090696461	-2.4651031	7.938202	1.1930695
696621095792896	-2.6626282	7.8963013	1.5366364
696621100858814	-2.8493652	7.848419	1.8526611
696621105924732	-2.8529663	7.7586365	1.9711761
696621110990650	-2.752411	7.721512	1.9831543
696621116056568	-2.8314056	7.819687	1.8023834
696621121122486	-2.9762573	8.045929	1.5557861
696621126218922	-3.1725922	8.32605	1.1308136
696621131284840	-3.2899017	8.6839905	0.7561188
696621136350758	-3.365326	9.110153	0.47120667
696621141416676	-3.373703	9.639282	0.27130127
696621146482594	-3.270752	10.216278	0.27249146
696621151548512	-3.1881409	10.73941	0.3143921
696621156614429	-3.1510315	11.268524	0.400589
696621161680347	-3.0564728	11.753357	0.50712585
696621166776783	-2.9654846	12.107697	0.6855011
696621171842701	-2.9954224	12.31958	0.8854065
696621176908619	-3.112732	12.306412	1.1248322
696621181974537	-3.2168732	12.223816	1.3618622
696621187040455	-3.1737823	11.978409	1.4312897
696621192106373	-2.9403534	11.597733	1.3678436
696621197172291	-2.714096	11.201492	1.1894684
696621202238209	-2.7224731	11.056641	0.9332886
696621207334644	-2.8553467	11.205078	0.7154236
696621212400562	-3.0552673	11.598923	0.48916626
696621217466480	-3.2839203	11.995163	0.39819336
696621222532398	-3.4778442	12.347122	0.40896606
696621227598316	-3.6131134	12.605698	0.4113617
696621232664234	-3.7675476	12.779266	0.37425232
696621237730152	-3.9171753	12.882217	0.36587524
696621242826588	-4.1673737	13.036652	0.37783813
696621247892506	-4.44989	13.155167	0.42811584
696621252958424	-4.654602	13.280853	0.55381775
696621258024342	-4.524109	13.316772	0.7501373
696621263090260	-4.315811	13.217407	0.91893005
696621268156178	-4.0476685	13.052216	1.0063171
696621273222095	-3.7986755	12.731384	0.92970276
696621278288013	-3.5664368	12.29924	0.6076813
696621283384449	-3.200119	11.888626	0.26052856
696621288450367	-2.9164124	11.328384	0.057022095
696621293516285	-2.556076	10.77533	-0.14648438
696621298582203	-2.1945496	10.279724	-0.19198608
696621303648121	-2.0509033	9.713501	-0.096206665
696621308714039	-1.809082	9.232254	-0.0758667
696621313779957	-1.2835541	8.916229	-0.2745819
696621318876392	-0.6347351	8.735458	-1.0048065
696621323942310	0.2894287	8.955734	-2.1959229
696621329008228	1.1716919	9.596176	-3.5654144
696621334074146	1.9438171	10.473648	-4.55542
696621339140064	2.6237793	11.513931	-4.8163757
696621344205982	3.310913	12.836731	-4.039459
696621349271900	4.1428986	14.406128	-2.168396
696621354337818	5.2131042	16.006653	0.43171692
696621359403736	6.18396	17.323471	3.3394623
696621364500172	6.6723785	17.905258	5.2775726
696621369566090	6.686737	17.57486	6.1394806
696621374632008	6.8040466	17.18341	6.214905
696621379697926	7.1272736	16.618378	5.8019104
696621384763844	7.2661285	15.885742	4.8023224
696621389829762	6.5466766	14.865814	3.535797
696621394926197	5.53273	13.515488	2.3446808
696621399992115	4.4912567	12.457245	1.1799011
696621405058033	3.456955	12.39859	-0.031570435
696621410123951	1.729538	12.225006	-0.7546234
696621415189869	-0.20378113	12.065796	-0.9832611
696621420255787	-1.0561066	13.007919	-1.1568451
696621425321705	-0.4467926	14.465988	-1.6991272
696621430418140	-0.74845886	14.559357	-2.4425354
696621435484058	-2.022171	13.644775	-2.9800262
696621440549976	-3.3557434	12.920532	-3.0003815
696621445615894	-4.5420685	12.08017	-1.6620178
696621450681812	-4.934723	11.437317	0.71421814
696621455747730	-5.1238556	11.1631775	1.6300049
696621460813648	-5.0089417	11.208679	1.1822968
696621465910084	-3.9123993	11.2421875	0.3922119
696621470976002	-2.6542358	11.104523	-0.21232605
696621476041920	-2.2232819	10.223465	-0.4230194
696621481107838	-2.5333405	8.867142	-0.24584961
696621486173756	-2.0544891	7.771805	0.16236877
696621491239674	-2.3070831	6.528015	0.29882813
696621496305592	-2.7643738	5.547577	0.70344543
696621501371510	-2.4698944	5.0065002	1.108078
696621506467945	-2.1430817	4.2834473	0.8854065
696621511533863	-1.7348633	3.696869	0.6926727
696621516599781	-1.5876312	3.210846	0.92251587
696621521665699	-2.202942	2.7619324	1.3439026
696621526731617	-1.6797943	2.4183655	1.2182007
696621531797535	-1.4068604	2.2256317	1.0661774
696621536863453	-1.4739075	2.0364838	0.9452667
696621541929371	-1.2332764	1.92276	0.7501373
696621547025806	-0.641922	1.867691	0.52508545
696621552091724	-0.05055237	1.8617096	0.46522522
696621557157642	0.3145752	1.8449554	0.46762085
696621562223560	0.7982025	1.8018494	0.440094
696621567289478	1.056778	1.7120667	0.47120667
696621572355396	1.4362488	1.6641846	0.40896606
696621577421314	1.6433563	1.5887756	0.2569275
696621582487232	1.9378357	1.5217285	0.109695435
696621587583668	2.3652039	1.5337067	-0.091430664
696621592649586	2.681244	1.5432892	-0.42541504
696621597715504	2.9086914	1.6043396	-0.5810394
696621602781422	3.2366943	1.6282806	-0.598999
696621607847340	3.6437073	1.601944	-0.6803894
696621612913258	3.8136902	1.4965973	-0.7941284
696621617979176	3.6568756	1.3433685	-0.8635559
696621623045094	3.421051	1.3170319	-0.7965088
696621628141529	3.1540985	1.3254089	-0.6001892
696621633207447	2.7422943	1.4235687	-0.42660522
696621638273365	2.3831635	1.66539	-0.4086609
696621643339283	2.0312042	1.9921875	-0.5307617
696621648405201	1.832489	2.3896332	-0.856369
696621653471119	1.6720886	2.9043884	-1.3004913
696621658537037	1.4075165	3.507721	-1.9828491
696621663633472	0.9035492	4.235565	-2.8651123
696621668699390	0.1876831	4.982559	-3.9341125
696621673765308	-0.52220154	6.0108643	-5.200653
696621678831226	-1.5361481	7.2893677	-6.5282288
696621683897144	-2.7787323	8.864746	-7.841461
696621688963062	-3.7783203	10.75856	-9.04335
696621694028980	-4.7790985	12.980377	-10.014191
696621699094898	-6.370041	15.700195	-10.736038
696621704191334	-8.18605	18.732452	-11.572815
696621709257252	-10.41864	21.636612	-12.098343
696621714323170	-12.578201	24.066727	-12.152222
696621719389088	-14.15239	25.34404	-11.418396
696621724455006	-15.330338	24.804153	-10.241638
696621729520924	-15.909744	22.710419	-9.208542
696621734586842	-15.138809	19.559647	-8.387329
696621739683277	-12.241821	16.17186	-7.6259766
696621744749195	-9.475327	13.113266	-7.0381927
696621749815113	-7.5515747	10.398239	-6.762863
696621754881031	-5.3441315	8.318878	-6.5270386
696621759946949	-3.4778442	6.8536224	-6.026642
696621765012867	-2.1766052	5.9522095	-5.3814087
696621770078785	-1.093216	5.334503	-4.628433
696621775144703	-0.4515686	4.871216	-3.7964478
696621780241138	0.27626038	5.1273956	-2.8579254
696621785307056	1.2818298	5.839676	-2.1695862
696621790372974	1.7510834	6.8763733	-1.733841
696621795438892	2.2897797	8.876724	-1.4273834
696621800504810	2.7602386	10.740601	-0.81088257
696621805570728	2.5124512	11.974823	0.67710876
696621810636646	2.60701	13.197052	2.6882477
696621815733082	2.1425476	14.17749	4.548538
696621820799000	2.1425476	14.972366	6.180191
696621825864918	3.4521637	15.628372	6.5273438
696621830930836	4.5104065	15.973129	5.9323883
696621835996754	5.11734	15.715759	5.2021637
696621841062672	5.085022	14.485138	4.579666
696621846128590	4.3607635	12.06221	3.7081757
696621851225025	2.911087	8.676804	1.978363
696621856290943	1.5056915	5.6828613	-0.8432007
696621861356861	0.8029785	3.7124329	-3.5211182
696621866422779	0.7682648	2.6805267	-4.877426
696621871488697	1.0328369	2.7308044	-4.4009857
696621876554615	0.8772125	3.7806702	-2.3826752
696621881620533	0.077545166	5.4518127	-0.012420654
696621886686451	-1.1267395	7.093048	1.8921661
696621891782887	-1.5445251	8.330841	3.3550262
696621896848804	-1.3553925	9.244232	4.6119843
696621901914722	-1.3745422	9.741028	5.4822845
696621906980640	-1.409256	9.778137	5.895279
696621912046558	-1.8366241	9.572235	5.991043
696621917112476	-2.2579956	9.419006	5.773178
696621922178394	-2.195755	9.458511	5.488266
696621927274830	-1.5995941	9.650055	5.4236145
696621932340748	-0.88731384	9.897842	5.4595337
696621937416141	-0.48509216	9.958908	5.278778
696621942482059	-0.16667175	9.872711	4.8645782
696621947547977	-0.0062561035	9.715897	4.3917236
696621952613895	0.103881836	9.78772	3.7237396
696621957679813	-0.17623901	9.896652	2.9396362
696621962745731	-0.804718	9.9852295	2.361435
696621967842166	-1.4559479	10.097763	1.6958466
696621972908084	-2.1059723	10.101349	1.25531
696621977974002	-2.4363708	10.063049	0.88061523
696621983039920	-2.1215363	9.822433	0.6399994
696621988105838	-1.2763824	9.477661	0.39938354
696621993171756	0.13859558	9.096985	0.38861084
696621998237674	0.90115356	8.590622	0.6292267
696622003334110	0.63539124	7.798126	0.77407837
696622008400028	-2.746582E-4	7.00206	1.029068
696622013465945	0.026062012	6.3292847	0.88301086
696622018531863	0.70602417	5.848053	0.3862152
696622023597781	1.0028992	5.7068024	0.4149475
696622028663699	0.45103455	6.183243	0.9141388
696622033729617	0.46420288	7.0200195	1.3043976
696622038795535	0.75509644	7.8939056	1.2062378
696622043891971	0.7766571	8.432602	0.95962524
696622048957889	0.39118958	8.837219	1.1104584
696622054023807	-0.35940552	9.074249	1.4827576
696622059089725	-0.7065582	9.210709	1.6994324
696622064155643	-0.7688141	9.067062	1.7389374
696622069221561	-0.6646576	8.804901	1.7844391
696622074287479	-0.63713074	8.452942	1.8215485
696622079353397	-0.7245178	8.102203	1.9735718
696622084449832	-0.64430237	7.837631	2.1291962
696622089515750	-0.6502991	7.6915894	2.1495514
696622094581668	-0.8693695	7.677231	2.0082855
696622099647586	-0.9974518	7.6891937	1.7676697
696622104713504	-1.1267395	7.829254	1.4528351
696622109779422	-1.1997681	7.9932556	1.0350494
696622114845340	-1.2392731	8.279373	0.5957184
696622119941776	-1.2823639	8.44577	0.29882813
696622125007694	-1.2787781	8.616943	0.33354187
696622130073612	-1.2368774	8.760605	0.51431274
696622135139529	-1.1183624	8.774963	0.78126526
696622140205447	-1.0980072	8.517593	1.053009
696622145271365	-1.1339264	8.195572	1.5402222
696622150337283	-1.196167	7.954956	2.0166779
696622155403201	-1.172226	7.8903046	2.3829803
696622160469119	-1.1662445	8.048325	2.5685272
696622165565555	-1.3733368	8.270996	2.6104279
696622170631473	-1.6055756	8.578644	2.512268
696622175697391	-1.7791595	8.919815	2.294403
696622180763309	-2.070053	9.39267	2.009491
696622185829227	-2.3058777	9.839188	1.5689545
696622190895145	-2.4543304	10.302475	0.96562195
696622195991580	-2.6278992	10.646042	0.32756042
696622201057498	-2.8098602	10.927353	-0.26260376
696622206123416	-3.1007538	11.068619	-0.6552582
696622211189334	-3.2575836	11.256561	-0.8348236
696622216255252	-3.3174286	11.523514	-0.737854
696622221321170	-3.4551086	11.716248	-0.36436462
696622226387088	-3.5855865	11.833557	0.01272583
696622231483524	-3.8788757	11.925735	0.37904358
696622236549442	-4.1458282	11.9832	0.6064911
696622241615360	-4.36969	11.94249	0.7190094
696622246681278	-4.5695953	11.80722	0.6316223
696622251747195	-4.6689606	11.717438	0.4293213
696622256813113	-4.7359924	11.776093	0.2964325
696622261879031	-4.8042297	11.98439	0.13124084
696622266944949	-4.847336	12.344727	0.052230835
696622272041385	-4.847336	12.744553	-0.041137695
696622277107303	-4.6019287	13.059387	-0.1668396
696622282173221	-4.3637085	13.20784	-0.29612732
696622287239139	-4.0919647	13.198257	-0.38591003
696622292305057	-3.844162	13.125229	-0.3727417
696622297370975	-3.8477478	12.968414	-0.2853546
696622302436893	-3.914795	12.841522	0.011520386
696622307533328	-3.835785	12.897781	0.26052856
696622312599246	-3.8094482	12.992355	0.49276733
696622317665164	-3.595169	12.876236	0.5502167
696622322700565	-3.1701965	12.693085	0.6244354
696622327797000	-2.8134613	12.723007	0.58613586
696622332862918	-2.4555206	12.609283	0.33833313
696622337928836	-2.3430023	11.900604	0.121658325
696622342994754	-2.2053223	10.674774	-0.038757324
696622348091190	-1.5900116	9.703918	-0.055511475
696622353157108	-0.96273804	9.079025	-0.13092041
696622358223026	-0.7041626	8.474503	-0.43139648
696622363288944	-0.48150635	7.966919	-1.2777557
696622368354862	0.16014099	7.998047	-2.6292725
696622373451297	1.0699463	8.570267	-3.9448853
696622378517215	1.9893188	9.742218	-4.430908
696622383583133	2.4897003	11.419357	-3.651596
696622388649051	3.2031708	13.141998	-1.8954468
696622393714969	4.429001	14.764069	0.5131073
696622398780887	5.5447083	16.329865	3.7201385
696622403846805	6.2378235	17.22171	6.733246
696622408912723	6.851944	17.742447	7.7878876
696622413978641	6.7525787	17.768784	7.0397034
696622419044559	6.3970337	17.313889	6.005417
696622424110477	6.2689514	16.566895	4.8897095
696622429206912	5.8499603	15.683441	3.4819183
696622434272830	4.991638	14.525833	1.8035889
696622439338748	3.8771362	13.054596	0.35629272
696622444404666	2.911087	12.278885	-0.8815155
696622449470584	1.7666473	12.31839	-1.3232422
696622454536502	-0.41685486	12.204666	-0.6265259
696622459602420	-2.3813019	12.312408	-0.35598755
696622464698856	-1.5852356	13.285645	-1.6081543
696622469764774	-0.31150818	14.1032715	-2.4940033
696622474830692	-0.68022156	13.618439	-2.0115662
696622479896610	-1.5445251	12.643997	-2.444931
696622484962528	-2.5680542	11.642029	-2.5251312
696622490028445	-2.5105896	11.394226	-1.4884338
696622495094363	-2.7727509	10.962067	0.116867065
696622500160281	-2.9463348	10.754974	1.6072693
696622505256717	-2.477066	10.754974	1.8263397
696622510322635	-1.5924072	10.537094	0.64479065
696622515388553	-1.1590576	9.879898	-0.2973175
696622520454471	-1.7707825	9.112549	-0.39788818
696622525520389	-2.3310242	8.481674	-0.079452515
696622530586307	-2.2340546	7.637726	0.15997314
696622535652225	-1.3793335	6.6237793	0.72021484
696622540718143	-1.9515381	5.6134186	0.86865234
696622545814578	-2.6494598	4.6365967	0.49276733
696622550880496	-2.5500946	4.096695	0.5621948
696622555946414	-2.0437164	3.7507324	0.3347473
696622561012332	-1.2955322	3.5017395	-0.10220337
696622566078250	-0.89450073	3.2228088	-0.20275879
696622571144168	-1.2488403	2.9810028	0.09413147
696622576210086	-1.9240112	2.6194763	0.03187561
696622581276004	-1.6426849	2.4255524	-0.104599
696622586372440	-1.2021637	2.2807007	-0.2649994
696622591438358	-0.7975311	2.144226	-0.34640503
696622596504276	-0.4001007	1.9898071	-0.30929565
696622601570194	-0.04336548	1.8293915	-0.18000793
696622606636112	0.6437683	1.6869354	-0.050720215
696622611702029	1.3668213	1.5420837	-0.045928955
696622616767947	1.8612213	1.4642792	0.00793457
696622621864383	2.203598	1.3996277	0.06539917
696622626930301	2.50885	1.2990723	-0.069869995
696622631996219	2.8177032	1.2116852	-0.22190857
696622637062137	3.0846558	1.1530304	-0.26979065
696622642128055	3.2199402	1.1147156	-0.3715515
696622647193973	3.3288727	1.155426	-0.3835144
696622652259891	3.33844	1.2116852	-0.30091858
696622657356326	3.3097076	1.3469543	-0.18598938
696622662422244	3.0595245	1.4762421	-0.10220337
696622667488162	2.5603333	1.6510162	0.066589355
696622672554080	2.0264282	1.9598694	0.24855042
696622677619998	1.7427063	2.3154144	0.38381958
696622682685916	1.4230804	2.6960907	0.40177917
696622687751834	1.0052948	3.1474	0.27967834
696622692817752	0.5456085	3.6860962	0.13841248
696622697914188	0.19485474	4.3636475	-0.2243042
696622702980106	-0.29356384	5.1501465	-0.73905945
696622708046024	-0.99505615	5.852844	-1.5075989
696622713111942	-1.6390991	6.5567474	-2.623291
696622718177860	-2.4974213	7.3528137	-3.8778534
696622723243778	-3.2132874	8.284149	-5.425705
696622728309695	-3.8537292	9.480057	-6.86821
696622733406131	-4.2212524	11.132065	-8.127563
696622738472049	-4.8221893	13.005524	-9.046936
696622743537967	-5.9211273	14.944824	-9.676605
696622748603885	-7.1158295	17.04454	-10.206924
696622753669803	-8.413498	19.266357	-10.6067505
696622758735721	-9.646515	21.287064	-10.932373
696622763801639	-10.430603	22.585922	-10.903641
696622768867557	-11.399063	22.462616	-10.459518
696622773963992	-11.639679	21.594727	-9.738861
696622779029910	-12.666794	20.633453	-8.662659
696622784095828	-13.707077	19.032928	-7.719345
696622789161746	-13.1875305	16.76921	-6.670685
696622794227664	-10.733475	14.303177	-5.9105377
696622799293582	-8.351242	11.990387	-5.6447754
696622804359500	-6.184494	10.166	-5.6136475
696622809455936	-4.0368958	8.739059	-5.7130127
696622814521854	-2.2759552	7.472519	-5.5573883
696622819587772	-1.1039886	6.2933807	-5.1874847
696622824653690	-0.3246765	5.120224	-4.646393
696622829719608	0.19485474	4.1134644	-4.1065063
696622834785526	0.61624146	3.8022156	-3.7449799
696622839851444	1.0974731	4.5803223	-3.0267181
696622844947879	1.5858917	5.69722	-2.4952087
696622850013797	1.709198	6.437027	-1.8427887
696622855079715	2.0096588	7.0523376	-0.579834
696622860145633	2.33049	8.3763275	1.2014465
696622865211551	2.847641	10.18396	3.1946259
696622870277469	3.0547333	11.958054	4.670639
696622875343387	2.5447693	13.434082	6.0353394
696622880409305	2.8260803	15.118408	6.468689
696622885475223	3.6712341	16.948776	6.097595
696622890571658	4.141693	17.75322	5.3757324
696622895637576	4.5858307	17.340225	4.6000214
696622900703494	4.266205	15.102844	2.9815369
696622905769412	3.4342194	11.820389	0.52508545
696622910835330	2.5232239	8.949738	-2.3515472
696622915901248	1.9091034	6.792572	-4.5901337
696622920967166	1.9833221	5.508087	-5.1467743
696622926033084	2.2778168	5.200424	-3.754547
696622931129520	2.0108643	5.4039307	-1.5363312
696622936195438	1.1142273	5.650528	0.4149475
696622941261356	-0.042160034	6.17128	1.899353
696622946327274	-0.9747162	6.705185	2.8702087
696622951393192	-1.6402893	6.832077	3.456787
696622956489627	-1.9335938	6.7865906	3.9835052
696622961555545	-1.9359741	6.6525116	4.658676
696622966621463	-1.9539337	6.6046295	5.331436
696622971687381	-1.8234558	6.8967133	5.764801
696622976753299	-1.488266	7.3181	6.029358
696622981819217	-1.0034332	7.8184814	6.331024
696622986885135	-0.39291382	8.420624	6.5500946
696622991951053	0.099090576	9.269363	6.6374817
696622997047488	0.27626038	10.112137	6.2496185
696623002113406	0.20562744	10.634064	5.531357
696623007179324	-0.17144775	11.037491	4.464737
696623012245242	-0.42164612	11.397812	3.1910248
696623017311160	-0.7041626	11.700684	1.7952118
696623022377078	-1.1638489	11.845535	0.5597992
696623027442996	-1.943161	11.773712	-0.069869995
696623032508914	-2.6099548	11.229019	-0.3140869
696623037574832	-3.168991	10.553864	0.09173584
696623042671268	-3.246811	9.938553	0.8195648
696623047737186	-2.4818573	9.27655	1.1595459
696623052803104	-1.4559479	8.760605	0.9213257
696623057869022	-0.80592346	8.22789	0.65437317
696623062934940	-0.85739136	7.595825	0.61605835
696623068000858	-1.4260101	7.1181793	0.77049255
696623073066776	-1.0345612	6.888336	0.43888855
696623078132694	0.17211914	6.650116	-0.26260376
696623083198612	0.92388916	6.7398987	-0.19796753
696623088264529	0.536026	7.0116425	0.109695435
696623093330447	0.08950806	7.413864	0.5202942
696623098396365	0.2104187	8.029175	0.87223816
696623103492801	0.26190186	8.519989	1.1152496
696623108589237	0.0907135	8.869537	1.3139801
696623113655154	0.03804016	9.058685	1.3439026
696623118721072	-0.03857422	8.885101	1.5797272
696623123786990	-0.056533813	8.54393	1.6036682
696623128852908	0.07394409	8.316483	1.4564209
696623133918826	-0.024215698	8.1740265	1.3714294
696623138984744	-0.2516632	8.020798	1.3989716
696623144050662	-0.1726532	8.018402	1.515091
696623149116580	0.003326416	7.987274	1.5689545
696623154182498	0.05958557	7.9178467	1.4300842
696623159248416	-0.042160034	7.9022827	1.1882782
696623164314334	-0.23609924	8.011215	0.98835754
696623169380252	-0.5018616	8.136917	0.8518982
696623174446170	-0.68022156	8.263809	0.80281067
696623179512088	-0.6957855	8.315277	0.7573242
696623184608524	-0.7029724	8.322464	0.80281067
696623189674442	-0.84303284	8.256622	0.9356842
696623194740360	-0.899292	8.22789	1.1751099
696623199806278	-0.96513367	8.157257	1.5294495
696623204872195	-1.0189972	7.962143	1.9053345
696623209938113	-1.0644989	7.79335	2.2261658
696623215004031	-1.096817	7.647293	2.5027008
696623220069949	-1.096817	7.508438	2.5888824
696623225166385	-1.1530762	7.5108337	2.5386047
696623230232303	-1.3122864	7.670044	2.2848206
696623235298221	-1.6163483	7.9130554	2.0046997
696623240364139	-1.9850616	8.322464	1.6443787
696623245430057	-2.3394012	8.883911	1.2984161
696623250495975	-2.5752258	9.458511	0.96681213
696623255592410	-2.6410675	10.04509	0.6352234
696623260658328	-2.6159363	10.550262	0.32756042
696623265724246	-2.4938354	11.020737	0.07496643
696623270790164	-2.4902344	11.421753	-0.1273346
696623275856082	-2.4638977	11.72821	-0.14170837
696623280922000	-2.4758759	11.92334	-0.038757324
696623285987918	-2.57164	12.026291	0.2844696
696623291053836	-2.717682	12.046646	0.75971985
696623296119754	-2.8110657	11.914963	1.0984955
696623301216190	-2.8517609	11.653992	1.3115845
696623306282108	-2.8350067	11.361908	1.3355255
696623311348026	-3.010971	11.102127	1.2134094
696623316413944	-3.2492065	11.087769	1.0565948
696623321479862	-3.4191895	11.4002075	0.95962524
696623326545779	-3.567627	11.901794	0.8626709
696623331642215	-3.5640411	12.448868	0.7285919
696623336708133	-3.6574097	12.788849	0.52388
696623341774051	-3.6143188	12.8307495	0.19229126
696623346839969	-3.5424957	12.768494	-0.108184814
696623351905887	-3.5939636	12.663147	-0.19317627
696623356971805	-3.820221	12.5781555	-0.117752075
696623362037723	-4.084778	12.57576	0.07496643
696623367103641	-4.266739	12.782867	0.30122375
696623372200076	-4.1673737	13.053406	0.43530273
696623377265994	-3.7914886	13.26889	0.45684814
696623382331912	-3.397644	13.097702	0.5777588
696623387397830	-3.109146	12.956436	0.69866943
696623392463748	-2.9858398	12.842712	0.64479065
696623397529666	-2.8565521	12.621246	0.5693817
696623402595584	-2.815857	12.227402	0.4628296
696623407661502	-2.456726	11.655197	0.2916565
696623412757938	-1.9563293	11.19191	0.17791748
696623417823856	-1.5026245	10.656815	0.092926025
696623422889774	-1.0944214	10.077408	-0.18838501
696623427955692	-0.66586304	9.557877	-0.698349
696623433021610	0.21879578	9.393875	-1.713501
696623438087528	1.2423248	9.635681	-2.9967804
696623443153445	1.9043121	10.295288	-4.007141
696623448219363	2.3915405	11.164383	-4.470413
696623453315799	2.7781982	12.0634	-3.9544678
696623458381717	3.401886	13.079742	-2.5718231
696623463447635	4.370346	14.290009	-0.56188965
696623468513553	5.469284	15.391342	1.4121399
696623473579471	6.187546	16.010239	3.187439
696623478645389	6.721451	16.48909	4.6024017
696623483711307	6.8986206	16.851807	5.3649597
696623488777225	6.8902435	16.917648	5.5253754
696623493873660	6.2893066	16.442398	5.1470947
696623498939578	5.2897186	15.381775	4.1977844
696623504005496	4.236267	13.950027	2.9599915
696623509071414	3.5227966	12.360291	1.9292755
696623514137332	3.216339	11.485199	1.1200409
696623519203250	2.1868286	11.067413	0.53704834
696623524299686	0.13978577	10.553864	0.19947815
696623529365604	-1.701355	10.450912	-0.20515442
696623534431522	-1.464325	11.583374	-1.2526093
696623539497440	-0.586853	13.140793	-2.6987152
696623544563358	-1.1662445	13.22699	-3.275711
696623549629276	-2.468689	12.590134	-3.4193573
696623554695194	-3.8549347	12.023895	-2.8639069
696623559761112	-4.8389435	11.540268	-1.3292236
696623564857547	-4.8748627	11.212265	0.34431458
696623569923465	-4.1194916	11.214661	0.48078918
696623574989383	-3.366516	11.196701	-0.22789001
696623580085819	-2.4387665	11.031509	-0.39668274
696623585151737	-1.5002289	10.570618	0.090530396
696623590217654	-1.4990387	9.781723	0.092926025
696623595283572	-1.6989594	8.498444	-0.024383545
696623600349490	-1.8354187	7.3923187	0.67710876
696623605415408	-2.954712	6.641739	1.1164551
696623610481326	-2.4076385	5.973755	1.0242767
696623615577762	-1.7229004	5.326126	0.6208496
696623620643680	-1.2620087	4.635391	0.11567688
696623625709598	-1.8928833	4.040436	0.2341919
696623630775516	-2.0868225	3.6729279	0.3634796
696623635841434	-1.4068604	3.2443695	0.33354187
696623640907352	-1.2931366	2.8565063	0.47001648
696623645973270	-1.3625641	2.5560303	0.4340973
696623651069705	-1.1865997	2.369278	0.13961792
696623656135623	-1.0668793	2.3082275	-0.33563232
696623661201541	-0.9675293	2.1801453	-0.3547821
696623666267459	-0.4108734	2.0700073	-0.15367126
696623671333377	0.16134644	2.0352936	-0.10697937
696623676399295	0.46899414	1.9742432	-0.08782959
696623681465213	0.71798706	1.8844604	0.01512146
696623686531131	0.97776794	1.7683411	0.119262695
696623691627567	1.2566833	1.696518	0.29045105
696623696693485	1.6182098	1.7060852	0.32876587
696623701759403	1.8899536	1.6689758	0.22460938
696623706825320	2.179657	1.6749573	0.07975769
696623711891238	2.4310455	1.6881256	-0.0028381348
696623716957156	2.7183533	1.7324219	-0.08782959
696623722023074	2.9170685	1.7826996	-0.13931274
696623727088992	2.939804	1.84375	-0.079452515
696623732185428	2.9015045	1.8916321	0.104904175
696623737251346	2.8512268	1.8784637	0.2772827
696623742317264	2.5890656	1.8976288	0.35150146
696623747383182	2.2574615	1.9682465	0.36108398
696623752449100	1.8791809	2.0819702	0.2952423
696623757515018	1.496109	2.305832	0.15518188
696623762611453	1.2650604	2.676941	-0.08782959
696623767677371	1.0160675	3.109085	-0.39907837
696623772743289	0.80537415	3.6441956	-0.94496155
696623777809207	0.6114502	4.129013	-1.733841
696623782875125	0.21879578	4.68927	-2.6460419
696623787941043	-0.42045593	5.400345	-3.7760925
696623793006961	-1.0740662	6.3400574	-5.22818
696623798072879	-1.8066864	7.5575104	-6.77124
696623803169315	-2.6291046	9.123322	-8.255646
696623808235233	-3.5077667	11.061432	-9.382126
696623813301151	-4.5061493	13.252121	-9.965118
696623818367069	-5.730789	15.791183	-10.188965
696623823432987	-7.378006	18.667816	-10.831818
696623828498904	-9.202377	21.565994	-11.975037
696623833564822	-10.89389	24.157715	-12.389236
696623838630740	-12.336395	25.737885	-11.765549
696623843727176	-14.13324	25.804932	-10.441559
696623848793094	-16.023468	24.304962	-9.019394
696623853828494	-16.945236	21.557617	-7.6774445
696623858924930	-15.08493	18.159042	-6.8706055
696623863990848	-11.263794	14.917297	-6.4803467
696623869056766	-8.754669	12.045441	-6.390564
696623874122684	-6.5268555	9.713501	-6.252899
696623879188602	-4.366089	7.8963013	-5.8913727
696623884285037	-2.5824127	6.551956	-5.5178833
696623889350955	-1.2847595	5.318939	-5.1587524
696623894416873	-0.30673218	4.1134644	-4.7122345
696623899482791	0.3660431	3.1928864	-4.026291
696623904548709	0.75390625	2.9259338	-3.203888
696623909614627	1.0890961	3.3640747	-2.326416
696623914680545	1.5428009	3.7854462	-1.5674438
696623919746463	2.021637	3.950653	-0.7294769
696623924842899	2.4334412	5.2854156	0.6100769
696623929908817	3.2654266	7.591034	2.2955933
696623934974735	3.828064	10.3958435	4.6047974
696623940040653	3.4222412	13.570557	7.22406
696623945106570	2.9278412	16.310715	8.770721
696623950172488	2.9888916	18.939545	9.291458
696623955238406	4.260208	21.320587	8.445099
696623960334842	5.5626526	22.363266	6.108368
696623965400760	5.991226	20.705276	3.6866302
696623970466678	5.29451	16.557327	2.080124
696623975532596	3.2618256	12.184311	-0.53315735
696623980598514	0.98973083	8.185989	-4.725403
696623985664432	0.25950623	5.0639496	-7.196213
696623990730350	0.20323181	3.1976776	-7.1483307
696623995796268	0.45822144	2.7906647	-5.4281006
696624000862186	0.47618103	3.3808289	-3.0267181
696624005958621	0.101486206	4.37323	-0.67082214
696624011024539	-0.5664978	5.397949	1.3055878
696624016090457	-1.1877899	6.1736603	2.7073975
696624021156375	-1.2775726	6.5615234	3.7488708
696624026222293	-1.2248993	6.554352	4.5688934
696624031288211	-0.89689636	6.551956	5.302719
696624036354129	-0.7005768	6.787781	5.6450806
696624041420047	-0.8023224	7.230713	5.642685
696624046516483	-0.5641022	7.7825775	5.8114777
696624051582401	0.14578247	8.602585	6.2065277
696624056648319	0.9047394	9.488434	6.5656586
696624061714237	1.4793549	10.236633	6.7164917
696624066780154	1.7283478	10.97644	6.6710052
696624071846072	1.5966644	11.546249	6.4315796
696624076942508	1.298584	11.813217	5.823456
696624082008426	0.733551	11.971222	4.876541
696624087074344	0.1637268	12.040665	3.6878204
696624092140262	-0.5641022	11.986786	2.5565643
696624097206180	-1.7324677	11.618088	1.8670349
696624102272098	-3.2492065	10.927353	1.5893097
696624107338016	-3.820221	10.119308	0.9919586
696624112403934	-3.4000397	9.697937	0.4041748
696624117500369	-2.595581	9.353165	0.30841064
696624122566287	-1.982666	8.8013	0.49874878
696624127632205	-2.3022919	7.982483	0.8195648
696624132698123	-2.6889648	7.120575	1.0829315
696624137764041	-1.9180298	6.635742	0.5597992
696624142829959	-0.7352905	6.5495605	-0.069869995
696624147895877	0.011703491	6.480133	-0.41583252
696624152961795	-0.24328613	6.6788483	-0.22070313
696624158058231	-0.55093384	7.127762	0.22581482
696624163124149	-0.020614624	7.7825775	0.7010498
696624168190067	0.7874298	8.502029	0.7800598
696624173255985	1.1333923	9.140091	0.82914734
696624178321903	0.7120056	9.255005	1.0901184
696624183387820	0.5252533	9.439362	1.2241974
696624188453738	0.52285767	9.232254	1.2493286
696624193550174	0.46540833	8.727081	1.3582611
696624198616092	0.45703125	8.229095	1.5162811
696624203682010	0.53125	7.8268585	1.6276093
696624208747928	0.6365814	7.532379	1.701828
696624213813846	0.7766571	7.3911133	1.8083801
696624218879764	0.80537415	7.4425964	1.851471
696624223945682	0.6916504	7.520401	1.6934509
696624229011600	0.5563812	7.6293488	1.5210724
696624234108035	0.3540802	7.820877	1.2936249
696624239173953	0.17211914	7.911865	1.084137
696624244239871	-0.10441589	7.9956512	0.91174316
696624249305789	-0.32348633	8.159653	0.88301086
696624254371707	-0.48390198	8.388306	1.013504
696624259437625	-0.72810364	8.570267	1.2397461
696624264503543	-0.90408325	8.548721	1.4851532
696624269599979	-1.0261841	8.414642	1.765274
696624274665897	-1.0740662	8.248245	2.0142822
696624279731815	-1.0692749	8.116562	2.2716522
696624284797733	-1.1087799	8.021988	2.3482666
696624289863651	-1.259613	7.9956512	2.227356
696624294929569	-1.5014343	8.154877	2.0035095
696624299995487	-1.9395752	8.506821	1.7616882
696624305061404	-2.2232819	8.953339	1.4492493
696624310157840	-2.33461	9.505203	1.1236267
696624315223758	-2.5034027	10.155228	0.815979
696624320289676	-2.7619781	10.790878	0.52149963
696624325355594	-2.9918213	11.457672	0.19587708
696624330421512	-3.089981	12.086151	-0.16923523
696624335487430	-3.2599792	12.703857	-0.39668274
696624340553348	-3.583191	13.292831	-0.31648254
696624345649783	-4.006958	13.854263	0.011520386
696624350715701	-4.4702454	14.227768	0.5562134
696624355781619	-4.908386	14.358246	1.1020813
696624360847537	-5.1825256	14.190659	1.3822021
696624365913455	-5.4195404	13.681885	1.2601013
696624370979373	-5.643402	13.028275	0.82914734
696624376045291	-5.9127502	12.541046	0.19229126
696624381141727	-6.212021	12.361481	-0.48527527
696624386207645	-6.550812	12.573364	-1.0119934
696624391273563	-6.6681213	13.073761	-1.2442322
696624396339481	-6.598694	13.560974	-1.3483734
696624401405399	-6.3137817	13.888977	-1.3771057
696624406471317	-6.0312653	14.015869	-1.2645874
696624411537235	-5.6170654	14.032639	-0.9605255
696624416603153	-5.3237762	14.075729	-0.4194336
696624421699588	-5.0352783	14.043411	0.3072052
696624426765506	-4.386444	13.851868	0.9620209
696624431831424	-3.3198242	13.438873	1.2253876
696624436897342	-2.4315796	12.817581	1.0278625
696624441963260	-1.9790802	11.946091	0.6795044
696624447029178	-1.7576141	10.83757	0.38742065
696624452095096	-1.3745422	9.642868	0.16116333
696624457161014	-0.7137451	8.827637	0.11328125
696624462257449	-0.14631653	8.32605	-0.14170837
696624467323367	0.21162415	7.97171	-0.792923
696624472389285	0.53125	7.8927	-2.0606537
696624477455203	1.0831146	8.36676	-3.7808838
696624482521121	1.6840515	9.567444	-5.2856445
696624487587039	2.2071838	11.120087	-6.0721436
696624492652957	2.8296814	12.950455	-5.448456
696624497749393	3.9142456	15.019043	-3.2745209
696624502815311	5.1640167	16.838638	-0.0471344
696624507881229	6.082199	17.81189	3.05336
696624512947147	6.91539	17.906448	5.4355927
696624518013065	7.681534	17.671814	6.736847
696624523078983	7.9855957	17.25763	7.2264557
696624528144901	7.9006042	16.642319	6.899643
696624533210819	7.6528015	15.75766	6.084427
696624538307254	7.006363	14.67189	4.837036
696624543373172	5.996002	13.383804	3.2939758
696624548439090	4.5463257	11.937714	1.8167572
696624553505008	2.946991	11.07579	0.894989
696624558570926	0.8496704	10.604141	0.38381958
696624563636844	0.3983612	10.708282	-1.4788666
696624568702762	0.09669495	11.419357	-3.437317
696624573799197	-0.13194275	12.9145355	-3.0099487
696624578865115	-0.57247925	13.932083	-2.3671112
696624583931033	-2.3645477	13.575348	-1.979248
696624588996951	-4.339752	12.897781	-2.5634308
696624594062869	-5.9414825	12.49556	-2.8004608
696624599128787	-6.3520813	12.664352	-2.1911316
696624604194705	-6.3209686	12.689484	-1.0802307
696624609260623	-5.4590454	12.700256	-0.1560669
696624614326541	-4.3637085	12.520691	-0.18240356
696624619392459	-3.4036255	11.991577	-0.20993042
696624624488895	-2.72966	11.115295	0.3646698
696624629554813	-2.7236786	10.121704	0.4257202
696624634620731	-2.3406067	8.89946	0.6890869
696624639686649	-1.8306427	7.6018066	1.5893097
696624644752567	-1.0992126	6.3400574	2.2046204
696624649818485	-0.93400574	5.492523	2.227356
696624654884403	-1.5529022	4.603073	1.4181213
696624659980838	-1.7588043	3.8500977	1.2218018
696624665046756	-1.6247406	3.4466705	1.1655273
696624670112674	-2.1502686	2.9331207	0.9967346
696624675178592	-1.9814758	2.693695	1.222992
696624680244510	-1.6450806	2.5021667	1.3666382
696624685310428	-1.3865051	2.104721	1.1356049
696624690406863	-0.9747162	1.7970734	0.99435425
696624695472781	-0.6455078	1.5767975	0.9680176
696624700538699	-0.42762756	1.3086548	1.1068726
696624705604617	0.29901123	1.0345154	0.9069519
696624710670535	1.1178284	0.87649536	0.53944397
696624715736453	1.7271423	0.7807312	0.25453186
696624720802371	2.2023926	0.6801758	-0.0076293945
696624725868289	2.5519562	0.5460968	-0.33921814
696624730964725	2.6776428	0.45750427	-0.51400757
696624736030643	2.8069305	0.41082764	-0.6791992
696624741096561	3.0068512	0.42399597	-0.85757446
696624746162479	3.136139	0.5101776	-0.96650696
696624751228397	3.1900024	0.63108826	-1.0275574
696624756294315	3.3133087	0.839386	-1.029953
696624761360233	3.4270325	1.0883789	-0.95692444
696624766426151	3.5180054	1.309845	-0.6875763
696624771492069	3.603012	1.5528564	-0.4589386
696624776588504	3.4102783	1.6689758	-0.2470398
696624781654422	3.1900024	1.7623444	-0.086639404
696624786720340	2.895523	1.8449554	-0.1273346
696624791786258	2.6285706	1.9395294	-0.30570984
696624796852176	2.3711853	2.1095123	-0.5499115
696624801918094	2.1078186	2.3824463	-0.90904236
696624806984012	1.9246674	2.7751007	-1.3124695
696624812080447	1.6625061	3.3473053	-1.7805328
696624817146365	1.1585236	4.156555	-2.44133
696624822212283	0.54919434	5.0519867	-3.4073944
696624827278201	-0.25045776	5.985718	-4.5374603
696624832344119	-1.314682	7.2761993	-5.717804
696624837410037	-2.57164	9.011993	-7.10643
696624842475955	-3.7292328	11.108124	-8.562103
696624847572391	-4.9143677	13.587311	-9.817871
696624852638309	-6.1581573	16.714142	-10.7252655
696624857704227	-7.927475	20.526901	-11.5273285
696624862770145	-10.20076	24.526428	-12.510147
696624867836063	-12.073029	27.574234	-12.859695
696624872901981	-13.053452	28.321228	-12.22644
696624877967899	-14.698273	28.213486	-10.333817
696624883033817	-17.874176	25.670853	-8.34903
696624888099735	-18.775604	21.085953	-7.220154
696624893196170	-15.763687	16.13115	-6.43367
696624898262088	-10.89389	12.482391	-6.070938
696624903328006	-7.659317	9.816452	-6.181076
696624908393924	-5.2687073	7.931015	-6.397751
696624913459842	-3.1594238	6.5842743	-6.4468384
696624918525760	-1.417633	5.536804	-6.248108
696624923622195	-0.2696228	4.5444183	-5.655548
696624928688113	0.5108948	3.8979797	-4.833145
696624933754031	1.0244446	4.4151306	-3.6851196
696624938819949	1.5763092	6.3125305	-2.7202606
696624943885867	2.1676788	7.9776917	-2.4604797
696624948951785	2.7410889	9.128113	-2.0438995
696624954017703	3.3133087	10.458099	-1.2202911
696624959114139	3.8687592	11.840744	0.18391418
696624964180057	4.1835938	13.137207	2.888153
696624969245975	4.084244	14.17749	5.769577
696624974311893	3.2821808	14.760468	7.5077667
696624979377811	3.3037262	15.142349	7.536499
696624984443729	3.6604614	15.197418	6.247223
696624989509647	3.2486572	14.035034	4.7592316
696624994575565	2.5351868	11.50914	3.5824738
696624999641483	1.8947449	8.620544	2.9300537
696625004737918	1.7989807	6.2083893	2.5398102
696625009803836	1.8300934	4.400757	1.049408
696625014869754	2.030014	3.4742126	-1.5028076
696625019935672	2.389145	3.4143524	-4.231003
696625025001590	2.899109	4.0523987	-5.540619
696625030067508	3.5826569	5.259079	-4.750534
696625035133426	3.8699646	6.651306	-2.6951141
696625040229862	3.5575104	7.923828	-0.29971313
696625045295779	2.7303162	9.102966	2.1112366
696625050361697	1.8708038	9.958908	3.8649902
696625055427615	0.6880646	10.131287	4.661072
696625060493533	-0.48988342	9.557877	4.9040833
696625065559451	-1.5205841	8.688782	5.105194
696625070625369	-2.1454773	8.34761	5.5780487
696625075691287	-2.4483337	8.419434	6.125122
696625080787723	-2.3465881	8.809677	6.678177
696625085853641	-2.1789856	9.311264	7.1582184
696625090919559	-2.2053223	9.683563	7.325821
696625095985477	-2.2520142	9.912216	7.1151276
696625101051395	-2.362152	10.053467	6.4746704
696625106117313	-2.5931854	10.2222595	5.484665
696625111213748	-2.7260742	10.509567	4.214554
696625116279666	-2.6075592	10.75737	2.5781097
696625121345584	-2.5931854	10.926163	1.1092682
696625126411502	-2.657837	10.97644	0.4257202
696625131477420	-3.0229492	10.958481	0.2856598
696625136543338	-3.2779236	10.703491	0.46043396
696625141609256	-2.9307709	10.389862	0.8447113
696625146675174	-2.0341492	10.18515	0.97998047
696625151741092	-1.1794128	9.763779	1.1571503
696625156837528	-0.73049927	8.915024	1.1966553
696625161903445	-0.81788635	7.828064	1.2253876
696625166969363	-0.83226013	7.029602	1.3546753
696625172035281	-0.1953888	6.6836395	1.1344147
696625177101199	0.6126404	6.366394	0.15757751
696625182167117	1.1369781	5.998886	-0.55470276
696625187233035	1.1872559	6.0407867	-0.2350769
696625192329471	1.1609192	6.504074	0.2341919
696625197395389	1.1920471	7.248657	0.8542938
696625202461307	1.2973938	7.8974915	1.1775055
696625207527225	1.401535	8.491257	1.4887543
696625212593143	1.3596344	8.758209	1.9627991
696625217659061	1.080719	8.560684	2.3829803
696625222724979	0.77545166	8.390701	2.5733185
696625227790897	0.83410645	8.487671	2.456009
696625232887332	0.70602417	8.610962	2.3111572
696625237953250	0.6210327	8.444565	2.2261658
696625243019168	0.7527008	8.196762	2.0346222
696625248085086	0.75749207	8.08783	1.8921661
696625253151004	0.5791321	7.950165	1.8778076
696625258216922	0.44386292	7.795746	1.7664795
696625263282840	0.24273682	7.6987762	1.5438232
696625268348758	0.14457703	7.774185	1.2720795
696625273445194	-0.056533813	7.923828	0.95843506
696625278511112	-0.27799988	8.16684	0.7106323
696625283577029	-0.5808563	8.296127	0.43171692
696625288642947	-0.7041626	8.426605	0.30480957
696625293708865	-0.76760864	8.48407	0.5226898
696625298774783	-1.0142059	8.369156	0.91773987
696625303840701	-1.3051147	8.140503	1.4396667
696625308906619	-1.4391785	7.9358063	1.9484406
696625313972537	-1.5445251	7.789749	2.4188995
696625319068973	-1.6390991	7.7442627	2.6008606
696625324134891	-1.8222504	7.9010773	2.5876923
696625329200809	-2.2220917	8.169235	2.385376
696625334266727	-2.7009277	8.54512	1.9711761
696625339332645	-3.1342773	9.104172	1.4348755
696625344429080	-3.4227753	9.756592	0.8674469
696625349494998	-3.5544586	10.436539	0.37904358
696625354560916	-3.6107178	11.081787	-0.012420654
696625359626834	-3.7076874	11.608505	-0.2937317
696625364692752	-3.7244568	12.052628	-0.46133423
696625369758670	-3.7531738	12.359085	-0.41822815
696625374824588	-3.7998657	12.525482	-0.2566223
696625379890506	-3.8812714	12.491959	0.080963135
696625384956424	-4.0045776	12.343521	0.5693817
696625390022342	-4.0727997	12.136429	0.99554443
