gyroscope_timestamp	gyroscope_x_data	gyroscope_y_data	gyroscope_z_data
696612431211597	-0.93421936	-1.0968475	0.8938446
696612436216480	-0.9315491	-1.1288147	0.8565521
696612441251881	-0.90545654	-1.199646	0.7420349
696612446287281	-0.92196655	-1.1527863	0.6216736
696612451353199	-0.9672394	-1.0036469	0.54815674
696612456419117	-1.0029297	-0.801239	0.51620483
696612461485035	-1.0226288	-0.59298706	0.51460266
696612466550953	-1.041275	-0.5013733	0.5114136
696612471616871	-1.0593872	-0.542923	0.50608826
696612476682789	-1.0817566	-0.61109924	0.52845764
696612481748707	-1.1163788	-0.6835327	0.5790558
696612486814625	-1.1664429	-0.73999023	0.6413727
696612491911060	-1.2426147	-0.8017731	0.6951752
696612497007496	-1.3416748	-0.91363525	0.7436371
696612502073414	-1.437561	-1.0643616	0.7857208
696612507139332	-1.5009308	-1.1991119	0.8134155
696612512205250	-1.5222473	-1.263031	0.8112793
696612517271168	-1.5115967	-1.2593079	0.79797363
696612522337086	-1.456192	-1.2454529	0.77879333
696612527433521	-1.3619232	-1.2092438	0.7542877
696612532499439	-1.2431488	-1.1517181	0.740448
696612537565357	-1.12117	-1.1144257	0.73191833
696612542631275	-1.0098572	-1.1234894	0.72180176
696612547697193	-0.91078186	-1.1676941	0.72340393
696612552763111	-0.8244934	-1.2204285	0.7473755
696612557829029	-0.75845337	-1.262497	0.78305054
696612562894947	-0.71743774	-1.2816772	0.8176727
696612567991383	-0.69400024	-1.2710266	0.85975647
696612573057301	-0.67855835	-1.2182922	0.9034271
696612578123219	-0.6764221	-1.1234894	0.9470978
696612583189137	-0.6780243	-1.0052338	1.0003662
696612588255054	-0.68388367	-0.87794495	1.0653534
696612593320972	-0.69718933	-0.7570343	1.1431122
696612598386890	-0.7126465	-0.6531677	1.221405
696612603452808	-0.72436523	-0.58872986	1.2805328
696612608549244	-0.7355499	-0.5716858	1.3188782
696612613615162	-0.7429962	-0.59085083	1.3444519
696612618681080	-0.7472687	-0.63772583	1.3513794
696612623746998	-0.7467346	-0.71229553	1.3444519
696612628812916	-0.7344818	-0.8108368	1.3204803
696612633878834	-0.7142334	-0.9200134	1.2789307
696612638975269	-0.68014526	-1.0265503	1.2256775
696612644041187	-0.6375427	-1.1112366	1.1622925
696612649107105	-0.57788086	-1.1570435	1.0909119
696612654173023	-0.50598145	-1.1623688	1.0184784
696612659238941	-0.41383362	-1.1277466	0.946579
696612664304859	-0.30570984	-1.054779	0.8789215
696612669370777	-0.19012451	-0.94984436	0.82406616
696612674436695	-0.076675415	-0.81669617	0.773468
696612679533131	0.028778076	-0.6643524	0.7228699
696612684599049	0.11773682	-0.51042175	0.6733246
696612689664967	0.18484497	-0.3809967	0.63072205
696612694730885	0.22958374	-0.2867279	0.5843811
696612699796803	0.25408936	-0.23878479	0.5231323
696612704862720	0.2578125	-0.23025513	0.45388794
696612709928638	0.26101685	-0.24783325	0.37825012
696612714994556	0.27272034	-0.28245544	0.30421448
696612720090992	0.29776	-0.3271942	0.22485352
696612725156910	0.33451843	-0.37620544	0.14709473
696612730222828	0.39842224	-0.41455078	0.07145691
696612735288746	0.4847107	-0.44224548	-0.0020446777
696612740385181	0.5965729	-0.45289612	-0.06968689
696612745451099	0.7286682	-0.4321289	-0.12561035
696612750517017	0.8772583	-0.35862732	-0.1756897
696612755582935	1.0503693	-0.22227478	-0.22787476
696612760648853	1.2453156	-0.020401001	-0.29179382
696612765714771	1.4674225	0.21875	-0.37382507
696612770780689	1.7071075	0.4610901	-0.47608948
696612775846607	1.9302826	0.6778717	-0.59272766
696612780912525	2.114563	0.84565735	-0.71684265
696612786008961	2.2455902	0.93833923	-0.8617096
696612791074879	2.3334808	0.9575043	-1.0481415
696612796140797	2.4128418	0.90530396	-1.2915497
696612801206715	2.513504	0.78652954	-1.5775757
696612806272633	2.63974	0.60383606	-1.8673248
696612811338551	2.7878113	0.38279724	-2.1325684
696612816404469	2.939621	0.16548157	-2.3648071
696612821470387	3.069046	-0.0038909912	-2.5650787
696612826536304	3.145752	-0.07366943	-2.7259216
696612831632740	3.1436157	0.007827759	-2.8218079
696612836698658	3.055191	0.282135	-2.8367157
696612841764576	2.896469	0.730072	-2.791977
696612846830494	2.6946106	1.2872009	-2.7136688
696612851896412	2.4762268	1.8209076	-2.6002197
696612856962330	2.2738342	2.179367	-2.4644012
696612862028248	2.1358795	2.192154	-2.3371124
696612867124683	2.111908	1.8038635	-2.2289886
696612872190601	2.1795502	1.0965271	-2.1283112
696612877256519	2.2700958	0.2688141	-2.0255127
696612882322437	2.3334808	-0.435318	-1.9371033
696612887388355	2.3196259	-0.81562805	-1.869461
696612892454273	2.211502	-0.8374634	-1.8614655
696612897520191	2.002182	-0.5556946	-1.9797058
696612902616627	1.6591644	0.0035705566	-2.1378937
696612907682545	1.3262787	0.46801758	-2.2737274
696612912748463	1.1616974	0.52394104	-2.426056
696612917814381	1.2016449	0.21875	-2.6598816
696612922880299	1.3087006	-0.20202637	-2.969345
696612927946217	1.367279	-0.48698425	-3.2297974
696612933012135	1.3326721	-0.5828705	-3.3762665
696612938108570	1.2250671	-0.57806396	-3.370407
696612943174488	1.1217499	-0.50297546	-3.2351227
696612948270924	1.0732727	-0.37141418	-3.0082245
696612953336842	1.0322571	-0.12852478	-2.7637482
696612958402760	0.9864502	0.1798706	-2.6071472
696612963468678	0.96035767	0.411026	-2.569336
696612968534595	0.935318	0.6325989	-2.5288544
696612973600513	0.8932495	0.9292755	-2.3946228
696612978666431	0.839447	1.2408752	-2.2359009
696612983732349	0.79203796	1.5892029	-2.1512146
696612988828785	0.73558044	1.9647217	-2.0846405
696612993894703	0.67219543	2.2507324	-1.9855652
696612998960621	0.60775757	2.3972168	-1.8801117
696613004026539	0.5315857	2.5042725	-1.7645264
696613009092457	0.43411255	2.637436	-1.648941
696613014158375	0.3366394	2.7892303	-1.5046082
696613019224293	0.24449158	2.9303741	-1.3836975
696613024290211	0.1678009	3.0630035	-1.3038025
696613029356129	0.108673096	3.1402283	-1.203125
696613034422047	0.030380249	3.1434326	-1.0976715
696613039487965	-0.053237915	3.102417	-1.0167084
696613044553883	-0.14485168	3.0454254	-0.9512024
696613049650318	-0.23806763	2.9857788	-0.87342834
696613054716236	-0.33233643	2.942093	-0.8004608
696613059782154	-0.4207611	2.9042816	-0.7274933
696613064848072	-0.50172424	2.862732	-0.65452576
696613069913990	-0.5784149	2.7919006	-0.579422
696613074979908	-0.65086365	2.6752472	-0.50006104
696613080045826	-0.7179718	2.5095978	-0.4180298
696613085111744	-0.7792206	2.29068	-0.32055664
696613090208179	-0.832489	2.0408783	-0.21510315
696613095274097	-0.87083435	1.7601929	-0.112838745
696613100340015	-0.90119934	1.4464722	-0.010574341
696613105405933	-0.9225006	1.1023865	0.09436035
696613110471851	-0.93208313	0.74339294	0.19396973
696613115537769	-0.9480591	0.39930725	0.28556824
696613120603687	-0.97576904	0.062683105	0.36546326
696613125700123	-1.0194397	-0.25743103	0.43737793
696613130766041	-1.0828247	-0.53067017	0.49383545
696613135831959	-1.1627197	-0.7426605	0.5375061
696613140897877	-1.2548676	-0.8923187	0.57958984
696613145963795	-1.3512726	-1.0004425	0.62646484
696613151029713	-1.4583282	-1.0601044	0.6754608
696613156095631	-1.5605927	-1.0632935	0.71913147
696613161161549	-1.6511383	-1.0105743	0.7622833
696613166257984	-1.7161255	-0.92640686	0.8262024
696613171323902	-1.7603302	-0.8039093	0.92207336
696613176389820	-1.8098602	-0.62068176	1.042984
696613181455738	-1.8530121	-0.4076233	1.204895
696613186521656	-1.8087921	-0.25422668	1.3875885
696613191587574	-1.5920105	-0.19511414	1.5580292
696613196653492	-1.1946716	-0.25689697	1.7119598
696613201749928	-0.80426025	-0.55622864	1.7412567
696613206815845	-0.52674866	-1.1538391	1.5330048
696613211881763	-0.31956482	-1.7509308	1.1122284
696613216947681	-0.20983887	-1.9735718	0.5886383
696613222044117	-0.11503601	-1.8430786	0.020858765
696613227110035	0.014404297	-1.2534485	-0.33174133
696613232175953	0.13050842	-0.31974792	-0.5181732
696613237241871	0.21572876	0.53300476	-0.642807
696613242307789	0.25567627	1.0549774	-0.71684265
696613247373707	0.21307373	1.3761597	-0.724823
696613252439625	0.101745605	1.5758972	-0.67689514
696613257505543	-0.03565979	1.6201019	-0.6081848
696613262571461	-0.17202759	1.5338135	-0.5501251
696613267637379	-0.30943298	1.3111725	-0.48727417
696613272733814	-0.44526672	0.94099426	-0.40312195
696613277799732	-0.6045227	0.43978882	-0.3019104
696613282865650	-0.77975464	-0.16688538	-0.16183472
696613287931568	-0.9049225	-0.8561096	0.049621582
696613292997486	-0.99653625	-1.5309448	0.2930298
696613298063404	-1.0615234	-2.0555878	0.4901123
696613303159840	-1.071106	-2.3714447	0.6355133
696613308225758	-1.0295563	-2.4465485	0.803833
696613313291676	-0.9326172	-2.2761078	1.0296631
696613318357594	-0.7611084	-1.9501343	1.2496338
696613323423512	-0.5097046	-1.5229645	1.410492
696613328489429	-0.18373108	-1.0164337	1.4999847
696613333555347	0.19763184	-0.48272705	1.5122223
696613338621265	0.5683441	-0.020935059	1.380661
696613343717701	0.743042	0.2933197	1.0994415
696613348783619	0.5060272	0.523407	0.80329895
696613353849537	-0.028747559	0.666687	0.60835266
696613358915455	-0.5198364	0.5617676	0.50502014
696613363981373	-0.7845459	0.15802002	0.4933014
696613369047291	-0.87882996	-0.36714172	0.5742645
696613374113209	-0.94540405	-0.7863312	0.7223358
696613379179127	-1.0460663	-0.9929962	0.8911743
696613384245045	-1.1739044	-1.0265503	1.0445709
696613389310963	-1.3070526	-0.9381256	1.2166138
696613394407398	-1.4162445	-0.7836609	1.4195557
696613399473316	-1.5094604	-0.6212158	1.6443176
696613404539234	-1.5866852	-0.46835327	1.8504486
696613409605152	-1.6420898	-0.36927795	2.0033112
696613414671070	-1.662857	-0.28138733	2.1045074
696613419736988	-1.6330261	-0.1530304	2.1535187
696613424833424	-1.5595245	0.017410278	2.1572418
696613429899342	-1.4689789	0.20170593	2.1157074
696613434995777	-1.3960114	0.37321472	2.0358124
696613440061695	-1.3640442	0.47494507	1.919693
696613445127613	-1.3864288	0.5090332	1.7705536
696613450193531	-1.4263763	0.46269226	1.5969238
696613455259449	-1.4354248	0.27574158	1.4381866
696613460325367	-1.4199829	-0.009216309	1.3039703
696613465391285	-1.4167786	-0.29257202	1.1708069
696613470457203	-1.4098511	-0.5333252	1.0376587
696613475523121	-1.3688507	-0.7437134	0.90289307
696613480589039	-1.2719116	-0.88752747	0.75375366
696613485654957	-1.1339569	-0.9194946	0.61154175
696613490720875	-0.9991913	-0.8609009	0.47679138
696613495817310	-0.89746094	-0.76768494	0.36494446
696613500883228	-0.8330231	-0.73147583	0.2818451
696613505949146	-0.80158997	-0.817749	0.23764038
696613511015064	-0.79200745	-0.94984436	0.25733948
696613516080982	-0.83088684	-1.1783447	0.3010254
696613521177418	-0.9070587	-1.4403992	0.36546326
696613526243336	-1.0023956	-1.5852814	0.44535828
696613531309254	-1.1009369	-1.6135101	0.51620483
696613536375172	-1.2069244	-1.5948639	0.54815674
696613541410572	-1.3326263	-1.5703583	0.57159424
696613546507008	-1.4673767	-1.5213623	0.6147461
696613551572926	-1.5872192	-1.4430695	0.6701355
696613556638844	-1.6612549	-1.3626404	0.72499084
696613561704762	-1.6799011	-1.2694244	0.77560425
696613566770679	-1.6309052	-1.1692963	0.82192993
696613571867115	-1.5323639	-1.0920563	0.86187744
696613576933033	-1.3949432	-1.0345306	0.8879852
696613581998951	-1.2292938	-0.9940491	0.8885193
696613587064869	-1.0519257	-0.9828644	0.8735962
696613592130787	-0.88201904	-0.9929962	0.86720276
696613597196705	-0.7318115	-1.0302734	0.8650818
696613602262623	-0.61091614	-1.0968475	0.8645477
696613607328541	-0.5288849	-1.1708832	0.8624115
696613612424976	-0.48947144	-1.2204285	0.8634796
696613617490894	-0.49372864	-1.2209625	0.86987305
696613622556812	-0.52516174	-1.1618347	0.89224243
696613627622730	-0.5746918	-1.0457153	0.9369812
696613632688648	-0.62475586	-0.88752747	0.99876404
696613637754566	-0.6689606	-0.71229553	1.0642853
696613642820484	-0.7110443	-0.5471802	1.1202087
696613647916920	-0.7435303	-0.43052673	1.155365
696613652982838	-0.7653656	-0.36927795	1.1793365
696613658048756	-0.7776184	-0.36660767	1.1910553
696613663114674	-0.78240967	-0.4198761	1.1931763
696613668180592	-0.785614	-0.52053833	1.1793365
696613673246510	-0.7776184	-0.6478424	1.1383209
696613678312428	-0.7536621	-0.782074	1.0839844
696613683408863	-0.7089081	-0.90296936	1.0211334
696613688474781	-0.6434021	-0.98979187	0.9439087
696613693540699	-0.5608368	-1.0196228	0.8570862
696613698606617	-0.4553833	-0.9764862	0.77612305
696613703672535	-0.3270111	-0.86143494	0.69836426
696613708738453	-0.19012451	-0.69418335	0.6253967
696613713804371	-0.053771973	-0.5040283	0.564682
696613718870289	0.08097839	-0.32400513	0.5108795
696613723966724	0.21307373	-0.17700195	0.46932983
696613729032642	0.32279968	-0.08804321	0.42245483
696613734098560	0.39256287	-0.059280396	0.3686676
696613739164478	0.41600037	-0.068878174	0.30474854
696613744230396	0.4069519	-0.104034424	0.22485352
696613749296314	0.3877716	-0.15942383	0.14016724
696613754362232	0.39151	-0.23558044	0.0549469
696613759428150	0.4293213	-0.32028198	-0.02708435
696613764524586	0.5012207	-0.40975952	-0.098983765
696613769590504	0.59976196	-0.47421265	-0.15757751
696613774656422	0.712677	-0.4901886	-0.199646
696613779722340	0.8319855	-0.44384766	-0.23747253
696613784788258	0.951828	-0.32453918	-0.28327942
696613789854176	1.0796661	-0.14344788	-0.34346008
696613794950611	1.2330627	0.08505249	-0.43667603
696613800016529	1.414154	0.3130188	-0.5570526
696613805082447	1.6154938	0.50157166	-0.6950073
696613810148365	1.8274841	0.6363373	-0.84413147
696613815214283	2.0389404	0.70610046	-1.0060577
696613820280201	2.2178955	0.7338104	-1.1781006
696613825346119	2.3558502	0.7359314	-1.3698425
696613830412037	2.4575806	0.7103729	-1.5919495
696613835508472	2.5449371	0.64219666	-1.8433533
696613840574390	2.6413422	0.5314026	-2.0958252
696613845640308	2.765976	0.380661	-2.3227234
696613850706226	2.9140472	0.19796753	-2.507553
696613855772144	3.0637207	0.022735596	-2.6428375
696613860838062	3.1686554	-0.08325195	-2.7360535
696613865903980	3.1878204	-0.03265381	-2.791977
696613870969898	3.098343	0.22567749	-2.8031616
696613876066334	2.9167175	0.67414856	-2.7584229
696613881132252	2.683426	1.238205	-2.6588135
696613886198170	2.4432068	1.7149048	-2.5139465
696613891264088	2.241867	1.9268951	-2.348816
696613896330006	2.1262817	1.7921448	-2.207138
696613901395924	2.1374664	1.2951965	-2.111267
696613906492359	2.223755	0.5532379	-2.0494843
696613911558277	2.28714	-0.1807251	-1.9877014
696613916624195	2.258377	-0.6979065	-1.9291077
696613921690113	2.1023254	-0.8688812	-1.8790436
696613926756031	1.856247	-0.7202759	-1.8763733
696613931821949	1.5904541	-0.32826233	-1.9850311
696613936887867	1.3252106	0.21821594	-2.1448212
696613941984303	1.1707458	0.5420532	-2.2779846
696613947050220	1.1808624	0.4690857	-2.4026184
696613952116138	1.2852631	0.102630615	-2.6433716
696613957182056	1.3869934	-0.21694946	-2.938446
696613962278492	1.4104309	-0.38632202	-3.1541595
696613967344410	1.3331909	-0.42041016	-3.2388458
696613972410328	1.2437134	-0.33891296	-3.1525726
696613977476246	1.1973724	-0.21853638	-2.9283295
696613982542164	1.1537018	9.0026855E-4	-2.6566772
696613987608082	1.1158905	0.28692627	-2.4644012
696613992704517	1.0881805	0.42434692	-2.3648071
696613997770435	1.0519714	0.57614136	-2.284378
696614002836353	0.9864502	0.84884644	-2.188507
696614007902271	0.9172058	1.1854706	-2.1213837
696614012968189	0.8825989	1.5604553	-2.028717
696614018034107	0.8484955	1.8608551	-1.8747864
696614023100025	0.8080292	2.0541992	-1.7341614
696614028196461	0.77127075	2.1543274	-1.6063385
696614033262379	0.72706604	2.209732	-1.4880829
696614038328297	0.6652832	2.2693787	-1.3884888
696614043394215	0.5784607	2.3343658	-1.2899475
696614048460133	0.4719391	2.4163818	-1.203659
696614053526051	0.35421753	2.5218506	-1.1200409
696614058591969	0.24502563	2.6150665	-1.0183105
696614063657887	0.16459656	2.6502075	-0.9293518
696614068754322	0.099090576	2.6619263	-0.8563843
696614073820240	0.036239624	2.65448	-0.78448486
696614078886158	-0.02607727	2.6326294	-0.6992645
696614083952076	-0.08200073	2.6230469	-0.6337433
696614089017994	-0.1374054	2.6203918	-0.5868683
696614094083912	-0.18959045	2.6022797	-0.54000854
696614099149830	-0.24711609	2.5660553	-0.48408508
696614104246265	-0.30677795	2.5101318	-0.42655945
696614109312183	-0.37123108	2.4270477	-0.36689758
696614114378101	-0.43673706	2.308792	-0.30404663
696614119444019	-0.50491333	2.1543274	-0.23640442
696614124509937	-0.56404114	1.9530029	-0.15969849
696614129575855	-0.6141052	1.7133179	-0.08087158
696614134641773	-0.65830994	1.4571228	0.0016784668
696614139707691	-0.6956024	1.1940002	0.08477783
696614144804127	-0.736084	0.9207611	0.16360474
696614149870045	-0.77549744	0.63420105	0.24615479
696614154935963	-0.81437683	0.34498596	0.32125854
696614160001881	-0.86390686	0.064819336	0.38464355
696614165067799	-0.9294281	-0.19030762	0.437912
696614170133717	-1.0103912	-0.40496826	0.48371887
696614175230152	-1.1019897	-0.58180237	0.5316467
696614180296070	-1.19841	-0.72294617	0.57533264
696614185361988	-1.3001404	-0.84651184	0.613678
696614190427906	-1.4061279	-0.94558716	0.644577
696614195493824	-1.503067	-1.0110931	0.6685333
696614200559742	-1.5941467	-1.0494537	0.6967621
696614205625660	-1.6878967	-1.0435944	0.7351227
696614210691578	-1.7869568	-0.9684906	0.79530334
696614215757496	-1.8780365	-0.8113556	0.8917084
696614220853931	-1.9089355	-0.62068176	1.0099487
696614225919849	-1.8114624	-0.4268036	1.1542969
696614230985767	-1.5126495	-0.3090973	1.2997131
696614236051685	-1.0466003	-0.40122986	1.4078369
696614241117603	-0.55178833	-0.81881714	1.4190216
696614246183521	-0.16616821	-1.4771576	1.2565613
696614251249439	0.029312134	-2.1056519	0.89224243
696614256315357	0.15287781	-2.5653229	0.32765198
696614261411793	0.2578125	-2.4662476	-0.10644531
696614266477711	0.30575562	-1.7360077	-0.31469727
696614271543629	0.328125	-0.68885803	-0.42814636
696614276609547	0.33398438	0.24911499	-0.57196045
696614281675465	0.3169403	0.78440857	-0.7125702
696614286741383	0.250885	1.065628	-0.7621155
696614291837818	0.1321106	1.2792206	-0.74346924
696614296903736	-0.013824463	1.4075775	-0.6912689
696614301969654	-0.16989136	1.3926697	-0.612442
696614307035572	-0.32009888	1.2366028	-0.5240326
696614312101490	-0.45591736	1.0006561	-0.40205383
696614317167408	-0.54060364	0.75883484	-0.21296692
696614322233326	-0.5757599	0.4664154	0.03364563
696614327329762	-0.5869446	0.12979126	0.3106079
696614332395679	-0.5864105	-0.20523071	0.58810425
696614337461597	-0.59013367	-0.53652954	0.82141113
696614342527515	-0.5677643	-0.86782837	0.97213745
696614347593433	-0.47402954	-1.2103119	1.045105
696614352659351	-0.34458923	-1.4904633	1.0312653
696614357725269	-0.25457764	-1.6300201	0.9545593
696614362791187	-0.24552917	-1.6907349	0.86987305
696614367857105	-0.27268982	-1.7993927	0.7713318
696614372953541	-0.31529236	-1.9501343	0.644577
696614378019459	-0.36590576	-2.0044556	0.48957825
696614383085377	-0.37602234	-1.8963318	0.33564758
696614388151295	-0.34033203	-1.6976624	0.21580505
696614393217213	-0.30996704	-1.533081	0.1572113
696614398283131	-0.35897827	-1.4633026	0.14602661
696614403349049	-0.5043793	-1.5053864	0.1614685
696614408445484	-0.70199585	-1.6332092	0.21473694
696614413511402	-0.88520813	-1.820694	0.3244629
696614418577320	-1.0290222	-1.9799652	0.5066223
696614423643238	-1.1339569	-1.9991302	0.73617554
696614428709156	-1.2234344	-1.8595886	0.97639465
696614433775074	-1.3283691	-1.6097717	1.2001038
696614438840992	-1.4487457	-1.3376007	1.3993073
696614443906910	-1.5584564	-1.1064453	1.5958557
696614449003345	-1.6479492	-0.90138245	1.7854614
696614454069263	-1.6958771	-0.69099426	1.950058
696614459135181	-1.6708527	-0.47686768	2.0874634
696614464201099	-1.5675201	-0.29310608	2.1854706
696614469267017	-1.4157104	-0.14770508	2.2184906
696614474332935	-1.2399445	-0.035842896	2.1860046
696614479429371	-1.0673828	0.037124634	2.09227
696614484495289	-0.9203644	0.0541687	1.9457855
696614489561207	-0.80851746	-7.019043E-4	1.7828064
696614494627125	-0.73820496	-0.114151	1.6368561
696614499693043	-0.7264862	-0.2584839	1.4983826
696614504758961	-0.76589966	-0.40550232	1.3902588
696614509824879	-0.8457947	-0.5098877	1.2933197
696614514890797	-0.92889404	-0.5668793	1.1979675
696614519987232	-0.9768219	-0.6094971	1.1111603
696614525053150	-0.9747009	-0.5833893	1.0206146
696614530119068	-0.9022522	-0.542923	0.9412384
696614535184986	-0.8303528	-0.5077667	0.84217834
696614540250904	-0.8047943	-0.46940613	0.72073364
696614545316822	-0.8255615	-0.38632202	0.6104889
696614550382740	-0.8809509	-0.23664856	0.5316467
696614555479176	-0.9512634	-0.10189819	0.49116516
696614560545094	-1.0300903	-0.07632446	0.470932
696614565611012	-1.1030579	-0.23239136	0.4613495
696614570676929	-1.1584625	-0.5189514	0.45921326
696614575742847	-1.2069244	-0.7996521	0.49969482
696614580808765	-1.2596588	-0.97435	0.550827
696614585874683	-1.3182526	-1.0526428	0.5913086
696614590971119	-1.3731079	-1.0877991	0.6232605
696614596037037	-1.4173126	-1.0989838	0.6381836
696614601102955	-1.4354248	-1.0899353	0.6483002
696614606168873	-1.4189148	-1.0712891	0.66374207
696614611234791	-1.3778992	-1.0760803	0.67652893
696614616300709	-1.3219757	-1.1021729	0.6925049
696614621366627	-1.2655182	-1.1458588	0.7271271
696614626463062	-1.2255707	-1.1863403	0.7558899
696614631528980	-1.184021	-1.1927338	0.7707977
696614636594898	-1.1312866	-1.1858063	0.7825165
696614641660816	-1.0758972	-1.1916656	0.79956055
696614646726734	-1.0205078	-1.2145691	0.8134155
696614651792652	-0.9704437	-1.230545	0.8315277
696614656858570	-0.9278259	-1.2310791	0.85601807
696614661924488	-0.895874	-1.2188263	0.8847809
696614667020924	-0.87615967	-1.196991	0.91567993
696614672086842	-0.8601837	-1.1495819	0.9449768
696614677152760	-0.8410034	-1.0670319	0.97746277
696614682218678	-0.8175659	-0.958374	1.012085
696614687284595	-0.79200745	-0.83213806	1.0498962
696614692350513	-0.7632446	-0.6979065	1.0845184
696614697416431	-0.73501587	-0.57115173	1.1175537
696614702512867	-0.7142334	-0.4555664	1.1542969
696614707578785	-0.69718933	-0.3575592	1.1873169
696614712644703	-0.68388367	-0.30429077	1.202774
696614717710621	-0.6769562	-0.28459167	1.2011719
696614722776539	-0.6780243	-0.2994995	1.1894531
696614727842457	-0.6865387	-0.3495636	1.1660156
696614732908375	-0.69932556	-0.4241333	1.125534
696614738004810	-0.71476746	-0.5178833	1.078125
696614743070728	-0.7291565	-0.6137543	1.026474
696614748136646	-0.7392731	-0.69418335	0.96255493
696614753202564	-0.73820496	-0.74798584	0.8815918
696614758268482	-0.7137146	-0.7794037	0.7878418
696614763334400	-0.66630554	-0.8049774	0.68984985
696614768400318	-0.5853424	-0.82414246	0.58917236
696614773466236	-0.47349548	-0.82255554	0.4943695
696614778562672	-0.33233643	-0.7863312	0.42033386
696614783628590	-0.17095947	-0.7224121	0.36920166
696614788694508	-0.0037078857	-0.6494446	0.34204102
696614793760426	0.14329529	-0.5855255	0.32339478
696614798826344	0.25941467	-0.5279999	0.3132782
696614803892262	0.33451843	-0.47047424	0.31221008
696614808958179	0.37339783	-0.4129486	0.31700134
696614814054615	0.39842224	-0.35437012	0.3297882
696614819120533	0.42453003	-0.30056763	0.34043884
696614824186451	0.46340942	-0.26062012	0.3372345
696614829252369	0.52679443	-0.23345947	0.31700134
696614834318287	0.6034851	-0.2206726	0.27812195
696614839384205	0.6828613	-0.20629883	0.22592163
696614844450123	0.7675476	-0.17433167	0.16307068
696614849546558	0.85276794	-0.115737915	0.093826294
696614854612476	0.9555664	-0.025726318	0.013397217
696614859678394	1.0743408	0.0818634	-0.09365845
696614864744312	1.2272034	0.19584656	-0.22840881
696614869810230	1.4098969	0.29597473	-0.38287354
696614874876148	1.6027069	0.37321472	-0.5501251
696614879942066	1.795517	0.42967224	-0.7274933
696614885007984	1.9638367	0.474411	-0.9208374
696614890104420	2.0847473	0.5186157	-1.120575
696614895170338	2.1603699	0.5617676	-1.3421478
696614900236256	2.223755	0.5814667	-1.6026001
696614905302174	2.301529	0.5521698	-1.8769073
696614910368092	2.417633	0.4552307	-2.1293793
696614915434010	2.573166	0.31089783	-2.3344421
696614920530445	2.7558594	0.14364624	-2.4974213
696614925596363	2.9348297	-0.0049591064	-2.6103516
696614930662281	3.0637207	-0.061950684	-2.6774597
696614935728199	3.0962067	0.039779663	-2.7110138
696614940794117	3.0179138	0.3391266	-2.6897125
696614945860035	2.8666534	0.8121033	-2.6241913
696614950925953	2.669571	1.3639069	-2.5336456
696614955991871	2.460785	1.8470001	-2.4042206
696614961057789	2.2780914	2.1234436	-2.2422943
696614966154224	2.1427917	2.132492	-2.091568
696614971220142	2.0847473	1.8395538	-1.9664001
696614976286060	2.111908	1.2813416	-1.8646545
696614981351978	2.177414	0.6155548	-1.8023376
696614986417896	2.2029877	0.045639038	-1.7815704
696614991483814	2.1257477	-0.27926636	-1.791153
696614996580250	1.8935242	-0.18392944	-1.8534698
696615001615650	1.6229553	0.114349365	-1.9988861
696615006712086	1.44133	0.2586975	-2.1304474
696615011778004	1.3560944	0.22779846	-2.2124634
696615016843922	1.364624	0.0014343262	-2.2817078
696615021909840	1.4626312	-0.35862732	-2.4212646
696615026975758	1.6016388	-0.6409149	-2.6140747
696615032041676	1.6639557	-0.71655273	-2.792511
696615037107594	1.6373291	-0.6867218	-2.920868
696615042173512	1.5414581	-0.5466461	-2.9277954
696615047239429	1.4466553	-0.39857483	-2.824997
696615052335865	1.3630219	-0.31228638	-2.682785
696615057401783	1.268219	-0.24624634	-2.5171356
696615062467701	1.171814	-0.10189819	-2.3243256
696615067533619	1.095108	0.20596313	-2.1858368
696615072599537	1.0551605	0.5314026	-2.1181946
696615077665455	1.0381165	0.83180237	-2.0372314
696615082761890	1.0104218	1.1519165	-1.9211121
696615087827808	0.9678192	1.4326172	-1.8454895
696615092893726	0.9257355	1.6616516	-1.8007507
696615097959644	0.8713989	1.8427429	-1.6968842
696615103025562	0.81121826	1.9732361	-1.566925
696615108091480	0.75209045	2.0472717	-1.4593201
696615113157398	0.6727295	2.0973358	-1.3485413
696615118253834	0.57899475	2.1506042	-1.249466
696615123319752	0.4815216	2.2352905	-1.1488037
696615128385670	0.39523315	2.2970734	-1.05719
696615133451588	0.31266785	2.322647	-0.9820862
696615138517506	0.23597717	2.3652496	-0.92137146
696615143583424	0.16619873	2.398285	-0.8531952
696615148649342	0.10601807	2.4115906	-0.7706299
696615153745777	0.05593872	2.4265137	-0.69073486
696615158811695	0.006942749	2.4552765	-0.63002014
696615163877613	-0.045791626	2.4797668	-0.5783539
696615168943531	-0.10383606	2.5010834	-0.52508545
696615174009449	-0.15977478	2.513321	-0.46969604
696615179075367	-0.21730042	2.4914856	-0.40844727
696615184141285	-0.27694702	2.4249115	-0.34346008
696615189207203	-0.3381958	2.3146515	-0.26782227
696615194303638	-0.40104675	2.1607208	-0.18580627
696615199369556	-0.46443176	1.9631195	-0.1053772
696615204435474	-0.52941895	1.7260895	-0.020690918
696615209501392	-0.5880127	1.4720306	0.06880188
696615214567310	-0.6492615	1.2099762	0.15507507
696615219633228	-0.71051025	0.94525146	0.23657227
696615224729664	-0.77389526	0.68426514	0.30688477
696615229795582	-0.83940125	0.43925476	0.36280823
696615234861500	-0.91238403	0.22140503	0.40541077
696615239927418	-0.9970703	0.033920288	0.4421692
696615244993336	-1.0982666	-0.12745667	0.46879578
696615250059254	-1.2069244	-0.26275635	0.49543762
696615255125172	-1.3214417	-0.3809967	0.52578735
696615260191090	-1.4423523	-0.48912048	0.5524292
696615265287525	-1.5685883	-0.5823364	0.5774536
696615270353443	-1.6846924	-0.6712799	0.60409546
696615275419361	-1.7789764	-0.7431793	0.6371155
696615280485279	-1.8375549	-0.75917053	0.679718
696615285551197	-1.8572693	-0.68193054	0.7532196
696615290617115	-1.854599	-0.5402527	0.86880493
696615295683033	-1.8093262	-0.3889923	1.0142212
696615300779469	-1.6324921	-0.32400513	1.1670837
696615305845387	-1.2596588	-0.4268036	1.2799988
696615310911304	-0.7733612	-0.72080994	1.2858582
696615315977222	-0.35951233	-1.2433319	1.1202087
696615321043140	-0.09692383	-1.7924652	0.7463074
696615326109058	0.052215576	-2.0529327	0.2594757
696615331205494	0.12892151	-1.8468018	-0.15757751
696615336271412	0.19282532	-1.2316132	-0.4180298
696615341337330	0.25674438	-0.3767395	-0.5751648
696615346403248	0.3211975	0.44404602	-0.68966675
696615351469166	0.36114502	0.9484558	-0.7615814
696615356535084	0.32279968	1.2163696	-0.7727661
696615361601002	0.18644714	1.3905334	-0.73654175
696615366666920	-0.012237549	1.4161072	-0.6790161
696615371732838	-0.22102356	1.2312775	-0.6012573
696615376829273	-0.38720703	0.94898987	-0.5192261
696615381895191	-0.4777527	0.6874695	-0.4302826
696615386961109	-0.50279236	0.45204163	-0.2907257
696615392027027	-0.5011902	0.20809937	-0.059036255
696615397092945	-0.47828674	-0.0949707	0.231781
696615402158863	-0.42715454	-0.46089172	0.5140686
696615407224781	-0.32382202	-0.81881714	0.7393799
696615412290699	-0.1416626	-1.0861969	0.86880493
696615417387135	0.025054932	-1.2694244	0.8805237
696615422453053	0.015472412	-1.3450623	0.77560425
696615427518970	-0.18907166	-1.359436	0.56840515
696615432584888	-0.41436768	-1.4398651	0.37080383
696615437650806	-0.54486084	-1.5511932	0.19448853
696615442716724	-0.61782837	-1.6001892	0.007537842
696615447782642	-0.67855835	-1.5810242	-0.10484314
696615452879078	-0.6956024	-1.5149689	-0.10270691
696615457944996	-0.6343384	-1.4260254	-0.054244995
696615463010914	-0.5677643	-1.3684998	-0.00843811
696615468076832	-0.5661621	-1.3413391	0.013397217
696615473142750	-0.6311493	-1.3141632	0.0315094
696615478208668	-0.6929321	-1.3834076	0.11354065
696615483274586	-0.7280884	-1.5538483	0.34150696
696615488371021	-0.77175903	-1.6763611	0.71061707
696615493436939	-0.8495331	-1.5975342	1.1095581
696615498502857	-0.96990967	-1.3285522	1.4206085
696615503568775	-1.1233063	-1.039856	1.6443176
696615508634693	-1.2974701	-0.8731537	1.8296814
696615513700611	-1.4668427	-0.7980499	1.9953308
696615518766529	-1.5914917	-0.72454834	2.161499
696615523862965	-1.6580658	-0.56422424	2.3260956
696615528928883	-1.6644592	-0.31814575	2.4432678
696615533994801	-1.615448	-0.04437256	2.5055847
696615539060719	-1.5185089	0.2544403	2.5178375
696615544126637	-1.4055939	0.5697479	2.4587097
696615549192554	-1.2980042	0.7886658	2.3623047
696615554258472	-1.2074585	0.8483124	2.2429962
696615559324390	-1.1696472	0.7620392	2.063507
696615564420826	-1.1957397	0.54844666	1.8254089
696615569486744	-1.2516632	0.24963379	1.5915833
696615574552662	-1.2644501	-0.15888977	1.4323273
696615579618580	-1.2106476	-0.6068268	1.3471069
696615584684498	-1.1472626	-0.9935303	1.2730713
696615589750416	-1.1030579	-1.3455963	1.2006378
696615594816334	-1.0641785	-1.6108398	1.0765381
696615599882252	-1.0354156	-1.724823	0.8911743
696615604978687	-1.008255	-1.6646423	0.70635986
696615610044605	-0.9928131	-1.4499817	0.5391083
696615615110523	-0.9986725	-1.1426544	0.3841095
696615620176441	-1.0119781	-0.84332275	0.24510193
696615625242359	-1.0231628	-0.7501068	0.13749695
696615630308277	-1.0343475	-0.8523712	0.11779785
696615635404713	-1.0732269	-0.9818115	0.184906
696615640470631	-1.1360779	-1.1059113	0.26800537
696615645536549	-1.2181091	-1.2374725	0.33085632
696615650602467	-1.3262329	-1.3583832	0.36280823
696615655668385	-1.4279633	-1.4132385	0.36920166
696615660734303	-1.5057373	-1.3977966	0.38198853
696615665830738	-1.5589905	-1.3413391	0.41394043
696615670896656	-1.5808258	-1.2742157	0.45814514
696615675962574	-1.5792389	-1.2518463	0.5124817
696615681028492	-1.5424805	-1.2555847	0.59077454
696615686094410	-1.4647217	-1.2369385	0.6759949
696615691160328	-1.3565979	-1.2103119	0.7473755
696615696226246	-1.233551	-1.1889954	0.7958374
696615701292164	-1.1147766	-1.1687622	0.8304596
696615706358082	-1.0029297	-1.1527863	0.8624115
696615711424000	-0.8894806	-1.1511841	0.8874512
696615716489918	-0.78507996	-1.1570435	0.9050293
696615721586353	-0.69825745	-1.1565094	0.9135437
696615726652271	-0.6332855	-1.1320038	0.91781616
696615731718189	-0.593338	-1.0680847	0.9215393
696615736784107	-0.57629395	-0.96795654	0.9295349
696615741850025	-0.5800171	-0.85557556	0.95243835
696615746915943	-0.5965271	-0.7458496	0.99290466
696615751981861	-0.6226349	-0.6547699	1.0440369
696615757047779	-0.6503296	-0.5865936	1.0930481
696615762144215	-0.675354	-0.53759766	1.1356506
696615767210133	-0.7014618	-0.50935364	1.1729431
696615772276051	-0.7275543	-0.515213	1.1979675
696615777341969	-0.7536621	-0.54397583	1.2033081
696615782407887	-0.7792206	-0.57966614	1.1979675
696615787473804	-0.802124	-0.62387085	1.1835938
696615792539722	-0.8111725	-0.68566895	1.155899
696615797636158	-0.8133087	-0.7602234	1.1100922
696615802702076	-0.8010559	-0.8513031	1.0435181
696615807767994	-0.7733612	-0.9509125	0.965744
696615812833912	-0.71850586	-1.0313416	0.8815918
696615817899830	-0.63594055	-1.0787506	0.8000946
696615822965748	-0.52674866	-1.0739441	0.7143402
696615828031666	-0.39253235	-0.99458313	0.630188
696615833128101	-0.24339294	-0.8582306	0.55882263
696615838194019	-0.08732605	-0.6947174	0.50076294
696615843259937	0.05593872	-0.5402527	0.4666748
696615848325855	0.18377686	-0.42147827	0.4394989
696615853391773	0.2785797	-0.35542297	0.41394043
696615858457691	0.3393097	-0.33518982	0.39050293
696615863523609	0.37765503	-0.3383789	0.36280823
696615868620045	0.40055847	-0.34265137	0.3175354
696615873685963	0.4223938	-0.3453064	0.262146
696615878751881	0.45329285	-0.3522339	0.20355225
696615883817799	0.49484253	-0.369812	0.13217163
696615888883717	0.550766	-0.39857483	0.060272217
696615893949635	0.616272	-0.43426514	-0.010040283
696615899015553	0.69244385	-0.47740173	-0.06703186
696615904111988	0.79045105	-0.49977112	-0.11230469
696615909177906	0.91082764	-0.4667511	-0.1485138
696615914243824	1.0556946	-0.37460327	-0.18048096
696615919309742	1.2170868	-0.23345947	-0.22042847
696615924375660	1.3992462	-0.05290222	-0.28434753
696615929441578	1.5894012	0.1329956	-0.36050415
696615934507496	1.779007	0.28053284	-0.44360352
696615939573414	1.955307	0.40304565	-0.54319763
696615944669849	2.114563	0.48931885	-0.6555786
696615949735767	2.2775574	0.5159607	-0.7631836
696615954801685	2.448532	0.50956726	-0.88249207
696615959867603	2.6269684	0.49838257	-1.027359
696615964933521	2.8181763	0.4733429	-1.184494
696615969999439	2.9981995	0.41741943	-1.3607941
696615975065357	3.1579895	0.3401947	-1.5605316
696615980161793	3.278366	0.24963379	-1.7847595
696615985227711	3.340149	0.17294312	-2.0335083
696615990293629	3.3231049	0.14897156	-2.2886353
696615995359547	3.2075348	0.21821594	-2.5134125
696616000425465	2.9950104	0.4152832	-2.6721344
696616005491383	2.7302856	0.74072266	-2.745636
696616010557301	2.4602509	1.1950684	-2.745102
696616015653736	2.2056427	1.7447357	-2.6891785
696616020719654	2.001114	2.1974792	-2.6092834
696616025785572	1.8796844	2.2773743	-2.5352478
696616030851490	1.8738251	1.8464661	-2.4745178
696616035917408	1.9893951	1.0097046	-2.41008
696616040983326	2.1555786	0.032852173	-2.3078156
696616046049244	2.2812805	-0.83106995	-2.186905
696616051145679	2.2791595	-1.3610382	-2.080902
696616056211597	2.1406708	-1.4782257	-2.0106049
696616061277515	1.906311	-1.2571716	-2.044693
696616066343433	1.5787354	-0.6515808	-2.1656036
696616071409351	1.2607574	0.20063782	-2.2960968
696616076475269	1.045044	0.70451355	-2.4414978
696616081541187	1.0045624	0.5228882	-2.6774597
696616086607105	1.0567627	-0.028396606	-2.9624176
696616091703541	1.1004333	-0.5322571	-3.2010345
696616096769459	1.078598	-0.7612915	-3.3379211
696616101835377	0.9923096	-0.76875305	-3.3214111
696616106901295	0.9374542	-0.66542053	-3.114746
696616111967213	0.951828	-0.34265137	-2.8031616
696616117033131	0.97047424	0.012619019	-2.5592194
696616122099049	0.9406433	0.12181091	-2.4468231
696616127195484	0.871933	0.086120605	-2.37706
696616132261402	0.7728729	0.19744873	-2.3030243
696616137327320	0.6737976	0.5266113	-2.2087402
696616142393238	0.59124756	0.81903076	-2.045227
696616147459156	0.5134735	1.078949	-1.8657227
696616152525074	0.4650116	1.3633728	-1.7032776
696616157590992	0.45648193	1.6440735	-1.5573273
696616162656910	0.45968628	1.8949432	-1.4406891
696616167753345	0.4415741	2.129303	-1.3490753
696616172819263	0.38137817	2.3157196	-1.2260284
696616177885181	0.30628967	2.4398193	-1.1104584
696616182951099	0.22158813	2.5500793	-1.0055237
696616188017017	0.1512909	2.6422272	-0.8963318
696616193082935	0.099090576	2.7258453	-0.7743683
696616198179371	0.06286621	2.7823029	-0.6486664
696616203245289	0.033569336	2.8078766	-0.5714264
696616208311207	-0.002105713	2.849945	-0.52349854
696616213377125	-0.04472351	2.9042816	-0.47608948
696616218443043	-0.09425354	2.943695	-0.43188477
696616223508961	-0.15603638	2.976181	-0.3945923
696616228574879	-0.22528076	3.00708	-0.3652954
696616233640797	-0.29452515	3.022522	-0.33120728
696616238706715	-0.36216736	3.005478	-0.2902069
696616243772633	-0.42555237	2.9554138	-0.24066162
696616248869068	-0.4777527	2.879242	-0.17834473
696616253934986	-0.5198364	2.7647247	-0.1133728
696616259000904	-0.55018616	2.6145325	-0.045181274
696616264066822	-0.5704346	2.4281006	0.027252197
696616269132740	-0.5730896	2.192688	0.10235596
696616274198658	-0.56829834	1.9103851	0.1875763
696616279295094	-0.5635071	1.587616	0.27172852
696616284361012	-0.5688324	1.2435303	0.3532257
696616289426929	-0.58906555	0.88720703	0.42938232
696616294492847	-0.6295471	0.5345917	0.48957825
696616299558765	-0.689209	0.2038269	0.5412445
696616304624683	-0.7595215	-0.07899475	0.5822449
696616309690601	-0.8399353	-0.30749512	0.6078186
696616314756519	-0.9294281	-0.48165894	0.61953735
696616319822437	-1.0189056	-0.6036377	0.6158142
696616324918873	-1.1110535	-0.6702118	0.5843811
696616329984791	-1.1989288	-0.67767334	0.5412445
696616335050709	-1.2809601	-0.6659546	0.49543762
696616340116627	-1.3384857	-0.6137543	0.4629364
696616345182545	-1.3821564	-0.5040283	0.45761108
696616350248463	-1.4306335	-0.3921814	0.4943695
696616355314381	-1.4812317	-0.3106842	0.5870514
696616360380299	-1.4796295	-0.30323792	0.6925049
696616365446217	-1.3384857	-0.42308044	0.7723999
696616370512135	-1.0258331	-0.6537018	0.80755615
696616375578053	-0.656723	-0.9903259	0.7697449
696616380643970	-0.35258484	-1.2896729	0.6019592
696616385740406	-0.15924072	-1.3988495	0.32125854
696616390806324	-0.06283569	-1.247055	0.009674072
696616395872242	-0.015960693	-0.8326721	-0.23001099
696616400938160	0.019195557	-0.22706604	-0.36476135
696616406004078	0.04423523	0.4499054	-0.46383667
696616411069996	0.063934326	0.94099426	-0.5735626
696616416166431	0.05114746	1.1876068	-0.6438751
696616421232349	-0.007965088	1.3564453	-0.64653015
696616426298267	-0.11129761	1.4730988	-0.6151123
696616431364185	-0.24925232	1.477356	-0.5767517
696616436430103	-0.38720703	1.3431396	-0.5437317
696616441496021	-0.50331116	1.1146393	-0.51283264
696616446561939	-0.5922699	0.83021545	-0.47183228
696616451627857	-0.656723	0.48399353	-0.3834076
696616456724293	-0.70358276	0.083465576	-0.24119568
696616461790211	-0.74832153	-0.32826233	-0.043060303
696616466856129	-0.79200745	-0.74212646	0.22166443
696616471922047	-0.82769775	-1.164505	0.5087433
696616476987965	-0.8356781	-1.532547	0.75749207
696616482053883	-0.7898712	-1.7786255	0.9348602
696616487119801	-0.7200928	-1.8601227	1.0163422
696616492185719	-0.69506836	-1.7850189	0.9971771
696616497251637	-0.74087524	-1.6364136	0.87945557
696616502348072	-0.77282715	-1.5474548	0.6866455
696616507413990	-0.6998596	-1.5826111	0.46614075
696616512479908	-0.5746918	-1.642273	0.23124695
696616517545826	-0.44366455	-1.6049805	0.06666565
696616522611744	-0.25404358	-1.5543823	0.018188477
696616527677662	-0.0143585205	-1.5133667	0.025115967
696616532774097	0.17312622	-1.4169617	0.062408447
696616537840015	0.20507813	-1.3045807	0.14176941
696616542905933	0.099624634	-1.243866	0.2706604
696616547971851	-0.029800415	-1.3162994	0.44110107
696616553037769	-0.15444946	-1.485672	0.6328583
696616558103687	-0.32221985	-1.6465302	0.8411102
696616563169605	-0.51930237	-1.6688995	1.0206146
696616568235523	-0.7078552	-1.5288239	1.1761322
696616573331959	-0.8990631	-1.3306732	1.3700104
696616578397877	-1.0988007	-1.1490479	1.6160889
696616583463795	-1.2985382	-0.96528625	1.887207
696616588529713	-1.4615173	-0.7485199	2.144455
696616593595631	-1.5611267	-0.4699402	2.3569794
696616598661549	-1.6117249	-0.12745667	2.5034637
696616603727467	-1.631958	0.24804688	2.57164
696616608793385	-1.6404877	0.62461853	2.541809
696616613889820	-1.6351624	0.9260864	2.4342194
696616618955738	-1.6085358	1.109848	2.2770844
696616624021656	-1.5808258	1.1742859	2.0848083
696616629087574	-1.5371552	1.0469971	1.8749542
696616634153492	-1.4870911	0.7540436	1.6592407
696616639219410	-1.4444733	0.35031128	1.4839935
696616644315845	-1.3640442	-0.1572876	1.3918457
696616649381763	-1.2319641	-0.6808624	1.3716125
696616654447681	-1.1062622	-1.1469269	1.3588257
696616659513599	-1.007721	-1.5868683	1.3162231
696616664579517	-0.92622375	-1.9565277	1.2107544
696616669645435	-0.87509155	-2.140808	1.0248718
696616674711353	-0.8452606	-2.1152496	0.83631897
696616679807789	-0.83781433	-1.9075165	0.68504333
696616684873707	-0.85272217	-1.565567	0.5689392
696616689939625	-0.8798828	-1.1618347	0.46879578
696616695005543	-0.9171753	-0.8843384	0.36706543
696616700071461	-0.95233154	-0.77993774	0.30155945
696616705137379	-0.98695374	-0.7708893	0.2967682
696616710203297	-1.0295563	-0.79751587	0.33457947
696616715269215	-1.0892181	-0.79644775	0.36280823
696616720365650	-1.1781616	-0.79112244	0.36813354
696616725431568	-1.2990723	-0.83106995	0.37080383
696616730497486	-1.4471436	-0.8955231	0.3883667
696616735563404	-1.596817	-0.9493103	0.42619324
696616740629322	-1.7203827	-0.9546356	0.46507263
696616745695240	-1.7901611	-0.9269409	0.50234985
696616750791676	-1.7954865	-0.93865967	0.54922485
696616755857594	-1.7443542	-1.0041809	0.59877014
696616760923512	-1.6538086	-1.0744781	0.64723206
696616765989429	-1.5265045	-1.1373291	0.6839905
696616771055347	-1.3704376	-1.1879272	0.6994324
696616776151783	-1.2032013	-1.2278748	0.7068939
696616781217701	-1.0396729	-1.2513123	0.7143402
696616786283619	-0.89320374	-1.2811432	0.73405457
696616791349537	-0.7749634	-1.3013916	0.75961304
696616796415455	-0.68707275	-1.2822113	0.79104614
696616801481373	-0.6215668	-1.2145691	0.8325958
696616806577808	-0.5784149	-1.1101685	0.8869171
696616811643726	-0.5635071	-0.9796753	0.95669556
696616816709644	-0.5677643	-0.8395996	1.0381775
696616821775562	-0.58906555	-0.7059021	1.1276703
696616826841480	-0.62475586	-0.58392334	1.21875
696616831907398	-0.6737671	-0.4752655	1.298645
696616836973316	-0.7200928	-0.3879242	1.3604279
696616842069752	-0.76963806	-0.3287964	1.4040985
696616847135670	-0.81277466	-0.32400513	1.4302063
696616852201588	-0.85165405	-0.35916138	1.4408569
696616857267506	-0.88201904	-0.4268036	1.4264679
696616862333424	-0.90545654	-0.51841736	1.3865204
696616867399342	-0.91345215	-0.62919617	1.3268738
696616872465260	-0.9022522	-0.7538452	1.2560272
696616877531178	-0.86283875	-0.88220215	1.1644135
696616882627613	-0.78775024	-0.9866028	1.0653534
696616887693531	-0.675354	-1.0350647	0.9561615
696616892759449	-0.52674866	-0.9961853	0.8442993
696616897825367	-0.354187	-0.8523712	0.73298645
696616902891285	-0.17095947	-0.639328	0.62753296
696616907957203	-0.0037078857	-0.40283203	0.5348511
696616913023121	0.14169312	-0.19030762	0.44963074
696616918089039	0.24502563	-0.040649414	0.37452698
696616923185474	0.29776	0.0099487305	0.30314636
696616928251392	0.31214905	-0.015609741	0.24082947
696616933317310	0.30841064	-0.07739258	0.184906
696616938383228	0.3078766	-0.14503479	0.14016724
696616943449146	0.33184814	-0.212677	0.09968567
696616948515064	0.4000244	-0.27980042	0.053878784
696616953580982	0.50442505	-0.34158325	0.0059509277
696616958677418	0.6338501	-0.39164734	-0.0388031
696616963743336	0.7840576	-0.42520142	-0.07128906
696616968809254	0.9374542	-0.41455078	-0.09365845
696616973875172	1.0913849	-0.34318542	-0.12081909
696616978941090	1.2612915	-0.22599792	-0.15811157
696616984007008	1.4503784	-0.08538818	-0.21722412
696616989072926	1.6602325	0.056289673	-0.29553223
696616994138844	1.889801	0.18252563	-0.37062073
696616999204762	2.1401367	0.29544067	-0.45744324
696617004270679	2.3787537	0.41156006	-0.5724945
696617009336597	2.5619812	0.53619385	-0.7013855
696617014402515	2.687683	0.6571045	-0.8329468
696617019498951	2.780899	0.74339294	-0.99594116
696617024564869	2.875702	0.77427673	-1.2116547
696617029630787	2.9779663	0.7380676	-1.4609222
696617034696705	3.0940857	0.6491089	-1.7176514
696617039762623	3.2000732	0.52394104	-1.9685211
696617044828541	3.2698517	0.3918457	-2.2151337
696617049894459	3.278366	0.31622314	-2.4548187
696617054960377	3.1862183	0.36628723	-2.6566772
696617060026295	3.003006	0.5697479	-2.7701416
696617065092213	2.7745056	0.9276886	-2.8010254
696617070188648	2.541748	1.3788147	-2.7802582
696617075254566	2.3297577	1.829422	-2.7216644
696617080320484	2.145996	2.132492	-2.6470947
696617085386402	2.0229645	2.1250458	-2.5831757
696617090452320	1.9936676	1.7436676	-2.5283203
696617095518238	2.066101	1.0555115	-2.4798584
696617100614674	2.1907349	0.26934814	-2.4228516
696617105680592	2.2669067	-0.35276794	-2.3557434
696617110746510	2.225357	-0.674469	-2.2934265
696617115812428	2.0463867	-0.6520996	-2.2662659
696617120878345	1.730011	-0.3144226	-2.3094025
696617125944263	1.3385315	0.28585815	-2.397293
696617131010181	1.0349274	0.8658905	-2.4958344
696617136076099	0.9006958	1.0869446	-2.618866
696617141172535	0.9241333	0.80836487	-2.8404388
696617146238453	1.0386505	0.2464447	-3.126999
696617151304371	1.1174774	-0.22972107	-3.3613586
696617156370289	1.1142883	-0.4598236	-3.4561615
696617161436207	1.0610199	-0.42466736	-3.3938446
696617166502125	1.0248108	-0.2164154	-3.1973114
696617171598560	1.031723	0.114349365	-2.9091492
696617176664478	1.0253296	0.4499054	-2.6417694
696617181730396	1.0019073	0.6043701	-2.4782562
696617186796314	0.9688721	0.6182251	-2.3839722
696617191862232	0.89271545	0.6155548	-2.300888
696617196928150	0.80270386	0.8243561	-2.2300415
696617201994068	0.7457123	1.1524506	-2.1155243
696617207090504	0.70895386	1.4730988	-1.9765167
696617212156422	0.68019104	1.7505951	-1.8476105
696617217222340	0.6583557	1.986023	-1.7400208
696617222288258	0.6215973	2.178833	-1.6580048
696617227354176	0.5582123	2.3572693	-1.5946198
696617232420094	0.47566223	2.528778	-1.5120544
696617237486012	0.3867035	2.657135	-1.3970032
696617242551929	0.29457092	2.7759094	-1.3027344
696617247617847	0.2189331	2.862732	-1.2212372
696617252714283	0.15075684	2.8867035	-1.1306915
696617257780201	0.08258057	2.8744507	-1.041214
696617262846119	0.015472412	2.8739166	-0.9607849
696617267912037	-0.041000366	2.895752	-0.8942108
696617272977955	-0.08946228	2.910675	-0.83135986
696617278043873	-0.14059448	2.926117	-0.7674408
696617283109791	-0.20291138	2.9442291	-0.7109833
696617288175709	-0.26789856	2.9559479	-0.6555786
696617293272144	-0.33766174	2.9554138	-0.5895386
696617298338062	-0.40957642	2.9351654	-0.516037
696617303403980	-0.4761505	2.8696594	-0.4313507
696617308469898	-0.52835083	2.735962	-0.34080505
696617313535816	-0.5656433	2.531433	-0.24440002
696617318601734	-0.59599304	2.2816315	-0.14372253
696617323667652	-0.60717773	2.0003967	-0.03933716
696617328764088	-0.60931396	1.7106476	0.070388794
696617333830006	-0.611969	1.4214325	0.18330383
696617338895924	-0.6130371	1.1316833	0.29356384
696617343961842	-0.6183624	0.83180237	0.39582825
696617349027760	-0.64019775	0.54737854	0.4831848
696617354093678	-0.68600464	0.2922516	0.54815674
696617359159595	-0.7579193	0.07279968	0.59928894
696617364256031	-0.8447418	-0.104034424	0.6344452
696617369321949	-0.94114685	-0.2441101	0.6600189
696617374387867	-1.0498047	-0.36395264	0.6781311
696617379453785	-1.1557922	-0.4555664	0.6877136
696617384519703	-1.2644501	-0.50509644	0.6802521
696617389616138	-1.3704376	-0.52053833	0.66267395
696617394682056	-1.4732361	-0.50935364	0.64723206
696617399747974	-1.5643158	-0.44224548	0.6456299
696617404813892	-1.6442108	-0.3506317	0.6701355
696617409910328	-1.6916199	-0.24624634	0.7292633
696617414976246	-1.6873627	-0.11947632	0.8182068
696617420042164	-1.5685883	0.0019683838	0.92419434
696617425108082	-1.2985382	0.044036865	1.0110168
696617430174000	-0.9294281	-0.10508728	1.045639
696617435239918	-0.578949	-0.53652954	0.9545593
696617440305836	-0.33340454	-1.1565094	0.7090149
696617445371754	-0.18054199	-1.6523895	0.36653137
696617450468189	-0.109176636	-1.8073883	0.041625977
696617455534107	-0.0750885	-1.5613098	-0.1719513
696617460600025	-0.01914978	-0.9807434	-0.28381348
696617465665943	0.057540894	-0.27926636	-0.37542725
696617470731861	0.13743591	0.31355286	-0.50271606
696617475797779	0.18112183	0.72795105	-0.59432983
696617480863697	0.15927124	1.0837402	-0.6092529
696617485929615	0.075653076	1.3868103	-0.5826111
696617491026051	-0.045791626	1.5641785	-0.54852295
696617496091969	-0.17788696	1.5817566	-0.5112457
696617501157887	-0.27748108	1.4880066	-0.46704102
696617506223804	-0.3451233	1.2872009	-0.40844727
696617511289722	-0.4207611	0.9516449	-0.31843567
696617516355640	-0.5203552	0.46748352	-0.18527222
696617521421558	-0.63700867	-0.14556885	-0.0015106201
696617526517994	-0.76164246	-0.8438568	0.24403381
696617531583912	-0.8591156	-1.5703583	0.564682
696617536649830	-0.94007874	-2.1914063	0.90982056
696617541715748	-0.97789	-2.5003357	1.1995697
696617546781666	-0.9549866	-2.4742432	1.4152832
696617551847584	-0.9006653	-2.201004	1.5889282
696617556913502	-0.82289124	-1.8329468	1.6927948
696617562009937	-0.71051025	-1.5112457	1.6778717
696617567075855	-0.54273987	-1.3386688	1.5692139
696617572141773	-0.2838745	-1.2486572	1.394516
696617577207691	0.027709961	-1.1655579	1.1979675
696617582273609	0.28018188	-1.0537109	0.96095276
696617587339527	0.29882813	-0.81455994	0.6951752
696617592405445	0.027191162	-0.5434418	0.45335388
696617597471363	-0.3850708	-0.44703674	0.26107788
696617602567799	-0.71318054	-0.63612366	0.14656067
696617607633717	-0.8782959	-0.99246216	0.15402222
696617612699635	-0.9725647	-1.3077698	0.2775879
696617617765553	-1.0956116	-1.4563751	0.44696045
696617622831470	-1.247406	-1.4425354	0.597702
696617627897388	-1.3688507	-1.3850098	0.7388458
696617632963306	-1.439682	-1.356247	0.9103546
696617638059742	-1.470047	-1.3274841	1.1148834
696617643125660	-1.4886932	-1.2326813	1.3359222
696617648191578	-1.4956055	-1.0712891	1.5569763
696617653257496	-1.4775085	-0.8800659	1.746582
696617658323414	-1.4279633	-0.6627655	1.8935852
696617663389332	-1.3411407	-0.42308044	1.9931946
696617668455250	-1.2372894	-0.15782166	2.028885
696617673521168	-1.1456757	0.11328125	2.0033112
696617678617603	-1.071106	0.32154846	1.9388733
696617683683521	-1.0061188	0.42967224	1.8291473
696617688749439	-0.9736328	0.4302063	1.6544342
696617693815357	-0.9906769	0.32154846	1.4163513
696617698881275	-1.0631104	0.102630615	1.1697388
696617703947193	-1.1557922	-0.18286133	0.98439026
696617709043629	-1.2218323	-0.41241455	0.8720093
696617714109547	-1.2234344	-0.5274658	0.7974396
696617719175465	-1.1568604	-0.5897827	0.72340393
696617724241383	-1.0476685	-0.6382599	0.62805176
696617729307301	-0.93315125	-0.63453674	0.5055542
696617734373219	-0.8580475	-0.5535736	0.38996887
696617739439137	-0.83781433	-0.39378357	0.30368042
696617744505054	-0.8575134	-0.22972107	0.26533508
696617749601490	-0.89852905	-0.13012695	0.26426697
696617754667408	-0.94859314	-0.12319946	0.2871704
696617759733326	-1.0125122	-0.27127075	0.31007385
696617764799244	-1.0892181	-0.5024414	0.32818604
696617769865162	-1.1707001	-0.67607117	0.36013794
696617774931080	-1.2458038	-0.75224304	0.40382385
696617780027515	-1.3203735	-0.7628937	0.4554901
696617785093433	-1.3832245	-0.7666168	0.48425293
696617790159351	-1.4295654	-0.80337524	0.50608826
696617795225269	-1.4577942	-0.85769653	0.534317
696617800291187	-1.4684448	-0.9328003	0.5620117
696617805357105	-1.4588623	-1.0499878	0.5779877
696617810423023	-1.4151917	-1.1522522	0.59503174
696617815488941	-1.3379517	-1.2151031	0.6211395
696617820585377	-1.2410126	-1.230011	0.6435089
696617825651295	-1.1339569	-1.2081757	0.66960144
696617830717213	-1.0231628	-1.1730194	0.70635986
696617835783131	-0.9256897	-1.1570435	0.74523926
696617840849049	-0.85006714	-1.1586456	0.78305054
696617845914967	-0.7904053	-1.1655579	0.81607056
696617850980885	-0.75471497	-1.1767426	0.84324646
696617856046803	-0.7414093	-1.18367	0.8773346
696617861143238	-0.7467346	-1.163971	0.9226074
696617866209156	-0.769104	-1.1091003	0.9716034
696617871275074	-0.80319214	-1.0174866	1.0206146
696617876340992	-0.84046936	-0.90138245	1.0776062
696617881406910	-0.87350464	-0.7905884	1.14151
696617886472828	-0.897995	-0.68885803	1.2011719
696617891538746	-0.9059906	-0.61642456	1.2501678
696617896604664	-0.9033203	-0.5833893	1.2832031
696617901701099	-0.8884125	-0.59298706	1.2997131
696617906767017	-0.8671112	-0.63505554	1.2975769
696617911832935	-0.8495331	-0.6957855	1.2832031
696617916898853	-0.8330231	-0.7746124	1.2549591
696617921964771	-0.8138428	-0.85983276	1.2171478
696617927030689	-0.7888031	-0.9328003	1.1654816
696617932096607	-0.7589874	-0.98339844	1.1122284
696617937162525	-0.719574	-1.0196228	1.0552368
696617942258961	-0.6710968	-1.0441284	0.99238586
696617947324879	-0.6077118	-1.0372009	0.9295349
696617952390797	-0.5368805	-0.99086	0.86135864
696617957456715	-0.4553833	-0.9061737	0.78518677
696617962522633	-0.36323547	-0.79537964	0.71380615
696617967588551	-0.26150513	-0.674469	0.646698
696617972654469	-0.1459198	-0.55836487	0.5870514
696617977750904	-0.025009155	-0.47633362	0.52845764
696617982816822	0.09162903	-0.43585205	0.46826172
696617987882740	0.19389343	-0.41508484	0.3963623
696617992948658	0.2743225	-0.4044342	0.3175354
696617998014576	0.33291626	-0.4044342	0.2429657
696618003080494	0.38084412	-0.4044342	0.18118286
696618008146412	0.41973877	-0.40550232	0.12365723
696618013212330	0.4527588	-0.40922546	0.0783844
696618018308765	0.48098755	-0.40975952	0.037902832
696618023374683	0.5172119	-0.39431763	-9.765625E-4
696618028440601	0.5656738	-0.369812	-0.035064697
696618033506519	0.6365204	-0.33891296	-0.0627594
696618038572437	0.73825073	-0.28245544	-0.0861969
696618043638355	0.8687439	-0.18711853	-0.11123657
696618048704273	1.0301361	-0.05076599	-0.14585876
696618053770191	1.2224121	0.11274719	-0.19645691
696618058836109	1.4402618	0.27041626	-0.2699585
696618063902027	1.6692963	0.40463257	-0.37010193
696618068967945	1.8914032	0.4967804	-0.4883423
696618074064381	2.1055145	0.5356598	-0.6060486
696618079130299	2.3164368	0.5345917	-0.7189636
696618084196217	2.5321503	0.52926636	-0.83721924
696618089262135	2.751068	0.51649475	-0.97943115
696618094328053	2.9667816	0.47174072	-1.1397552
696618099393970	3.165985	0.3918457	-1.3187103
696618104459888	3.3327026	0.2975769	-1.5168457
696618109525806	3.4536133	0.23632813	-1.7299042
696618114622242	3.4956818	0.24858093	-1.9541473
696618119688160	3.4237823	0.38226318	-2.187973
696618124754078	3.2261658	0.6485748	-2.412735
696618129819996	2.9316254	1.0214233	-2.5815887
696618134885914	2.6147156	1.4512634	-2.6609497
696618139951832	2.3526611	1.8773651	-2.651352
696618145017750	2.1672974	2.2656555	-2.6124725
696618150083668	2.0362701	2.4451447	-2.585312
696618155180103	1.9654388	2.2326355	-2.5655975
696618160246021	1.9611664	1.5998688	-2.5650787
696618165311939	2.0117645	0.6682892	-2.571457
696618170377857	2.0778198	-0.3463745	-2.5411072
696618175443775	2.1177673	-1.1964569	-2.460678
696618180509693	2.0874023	-1.7312164	-2.3600159
696618185575611	1.9617004	-1.8601227	-2.3413696
696618190641529	1.6751556	-1.4558411	-2.4723969
696618195737965	1.2202759	-0.4859314	-2.6465607
696618200803883	0.916687	0.40144348	-2.7973022
696618205869801	0.8687439	0.75671387	-2.9863892
696618210935719	1.0098877	0.61608887	-3.2500305
696618216001637	1.1499786	0.21661377	-3.4881287
696618221067554	1.174469	-0.12852478	-3.5381927
696618226163990	1.1276093	-0.3506317	-3.3757324
696618231229908	1.0370483	-0.45770264	-3.1046295
696618236295826	0.9566345	-0.33625793	-2.8351135
696618241361744	0.97154236	0.11595154	-2.589035
696618246427662	1.0647583	0.50743103	-2.4004822
696618251493580	1.1313324	0.58200073	-2.267868
696618256559498	1.1212158	0.49198914	-2.1219177
696618261625416	1.0695496	0.49198914	-1.9690552
696618266721851	1.0114899	0.70983887	-1.8753204
696618271787769	0.9283905	1.065094	-1.8417511
696618276853687	0.8357239	1.4384766	-1.7666626
696618281919605	0.7787323	1.860321	-1.6313629
696618286985523	0.8484955	2.6491547	-1.4683838
696618292051441	0.96728516	3.4134827	-1.3011322
696618297117359	0.7915039	3.3186646	-1.12323
696618302183277	0.42453003	3.3634033	-0.93681335
696618307279713	0.41973877	3.006546	-0.98794556
696618312345631	0.4772644	2.7657928	-0.9623871
696618317411549	0.41281128	2.8659363	-0.82922363
696618322477467	0.31906128	2.8696594	-0.76423645
696618327543385	0.22000122	2.750351	-0.7466583
696618332609303	0.111343384	2.6257172	-0.7232361
696618337705738	-0.045791626	2.481369	-0.6795502
696618342771656	-0.31903076	2.2502136	-0.63694763
696618347837574	-0.51290894	2.1564636	-0.63002014
696618352903492	-0.48147583	2.3759155	-0.6151123
696618357969410	-0.5869446	2.115448	-0.64546204
696618363035328	-0.7669678	1.670166	-0.68647766
696618368101246	-0.7169037	2.035019	-0.546402
696618373167164	-0.71318054	2.1969452	-0.42388916
696618378263599	-0.7275543	2.1170502	-0.34666443
696618383329517	-0.6961365	2.0643158	-0.25663757
696618388395435	-0.66204834	1.9439392	-0.1565094
696618393461353	-0.6199646	1.7718964	-0.041992188
696618398527271	-0.5709686	1.5865479	0.0826416
696618403593189	-0.5288849	1.38414	0.23017883
696618408659107	-0.5097046	1.1316833	0.37771606
696618413725025	-0.51716614	0.8355408	0.50183105
696618418821461	-0.56510925	0.53512573	0.5763855
696618423887379	-0.65086365	0.2576294	0.60995483
696618428953297	-0.7589874	0.020080566	0.6211395
696618434019215	-0.8841553	-0.1764679	0.6094208
696618439085133	-1.0125122	-0.33358765	0.5779877
696618444181568	-1.13768	-0.4310608	0.5359192
696618449247486	-1.2617798	-0.47686768	0.49064636
696618454313404	-1.376297	-0.48007202	0.44963074
696618459379322	-1.4689789	-0.4321289	0.40914917
696618464475758	-1.5339661	-0.336792	0.40222168
696618469541676	-1.5749664	-0.2622223	0.42726135
696618474607594	-1.6053314	-0.21055603	0.43737793
696618479673512	-1.6117249	-0.1695404	0.44377136
696618484739429	-1.5632629	-0.1418457	0.47465515
696618489805347	-1.4386139	-0.108291626	0.53271484
696618494871265	-1.21492	-0.06248474	0.59716797
696618499937183	-0.9161072	-0.06513977	0.6546936
696618505033619	-0.5853424	-0.18444824	0.6504364
696618510099537	-0.27001953	-0.3975067	0.5545502
696618515165455	-0.015960693	-0.6094971	0.36813354
696618520231373	0.1401062	-0.68885803	0.13537598
696618525297291	0.20935059	-0.71336365	-0.199646
696618530363209	0.23118591	-0.6531677	-0.44093323
696618535429127	0.20349121	-0.49497986	-0.5549164
696618540495045	0.14382935	-0.34423828	-0.63960266
696618545591480	0.08151245	-0.23078918	-0.6955261
696618550657398	0.008010864	-0.19030762	-0.7232361
696618555723316	-0.057510376	-0.18444824	-0.7125702
696618560789234	-0.120895386	-0.14770508	-0.6736908
696618565855152	-0.16563416	-0.05076599	-0.59806824
696618570921070	-0.20077515	0.10316467	-0.49845886
696618576017506	-0.24072266	0.24697876	-0.3876648
696618581083424	-0.29666138	0.31729126	-0.26889038
696618586149342	-0.38560486	0.30503845	-0.10910034
696618591215260	-0.5001221	0.20117188	0.10021973
696618596281178	-0.6141052	0.0056915283	0.3425598
696618601347095	-0.72969055	-0.25636292	0.599823
696618606413013	-0.86390686	-0.515213	0.82992554
696618611478931	-1.0146484	-0.7437134	1.0088959
696618616544849	-1.1568604	-0.96635437	1.1202087
696618621610767	-1.263916	-1.1740875	1.139389
696618626676685	-1.3113251	-1.3439941	1.0807953
696618631742603	-1.2830963	-1.4473267	0.99024963
696618636808521	-1.2127838	-1.4436035	0.87306213
696618641904957	-1.12117	-1.373291	0.70262146
696618646970875	-0.94647217	-1.3013916	0.5236664
696618652036793	-0.6599121	-1.2390594	0.3372345
696618657102711	-0.32061768	-1.1554413	0.14762878
696618662168629	-0.067092896	-0.9839325	0.02671814
696618667234547	0.009613037	-0.7501068	-0.007904053
696618672300465	-0.0750885	-0.53492737	0.020858765
696618677396900	-0.2646942	-0.33625793	0.08477783
696618682462818	-0.49053955	-0.2041626	0.17904663
696618687528736	-0.68388367	-0.18286133	0.29516602
696618692594654	-0.8026581	-0.2579651	0.42459106
696618697660572	-0.8857422	-0.4044342	0.58384705
696618702726490	-0.9656372	-0.56048584	0.7814636
696618707822926	-1.0668488	-0.66381836	0.99983215
696618712888844	-1.1856232	-0.70217896	1.2102203
696618717954762	-1.312912	-0.6835327	1.4211426
696618723020679	-1.4317017	-0.6547699	1.6166229
696618728086597	-1.519577	-0.6009674	1.7609711
696618733152515	-1.5723114	-0.5056305	1.8616333
696618738218433	-1.5760345	-0.39537048	1.9409943
696618743284351	-1.5201111	-0.2867279	2.0059814
696618748350269	-1.407196	-0.19030762	2.0437927
696618753416187	-1.2537994	-0.114151	2.045929
696618758482105	-1.0950775	-0.080062866	1.9814758
696618763578541	-0.9517975	-0.09124756	1.8536377
696618768644459	-0.85006714	-0.14237976	1.7007751
696618773710377	-0.8095856	-0.2206726	1.5479126
696618778776295	-0.82502747	-0.28138733	1.4073029
696618783842213	-0.86816406	-0.29896545	1.2997131
696618788908131	-0.864975	-0.35437012	1.2725372
696618793974049	-0.81544495	-0.46888733	1.267746
696618799039967	-0.7707062	-0.608963	1.1894531
696618804136402	-0.7392731	-0.76608276	1.0328522
696618809202320	-0.7142334	-0.9381256	0.87413025
696618814268238	-0.7099762	-1.1245575	0.73565674
696618819334156	-0.75205994	-1.262497	0.6078186
696618824400074	-0.8356781	-1.3173676	0.5055542
696618829465992	-0.9379425	-1.2848663	0.4421692
696618834531910	-1.0524597	-1.196991	0.4006195
696618839628345	-1.1882782	-1.1218872	0.3755951
696618844694263	-1.3209076	-1.0622253	0.3755951
696618849760181	-1.3997345	-0.9881897	0.3883667
696618854826099	-1.4151917	-0.83000183	0.407547
696618859892017	-1.420517	-0.61961365	0.42512512
696618864957935	-1.456192	-0.44863892	0.45121765
696618870023853	-1.5339661	-0.41401672	0.4901123
696618875089771	-1.6101227	-0.47421265	0.53378296
696618880186207	-1.659668	-0.5136261	0.5801239
696618885252125	-1.6740417	-0.5221405	0.6285858
696618890318043	-1.6585999	-0.55036926	0.66799927
696618895383961	-1.6101227	-0.59724426	0.6839905
696618900449879	-1.532898	-0.6590271	0.696228
696618905515797	-1.4444733	-0.7458496	0.69996643
696618910612232	-1.3582001	-0.85876465	0.7058258
696618915678150	-1.2841492	-0.98446655	0.72605896
696618920744068	-1.2223663	-1.0957947	0.74098206
696618925809986	-1.170166	-1.1932678	0.7654724
696618930875904	-1.1339569	-1.2811432	0.8016968
696618935941822	-1.1126556	-1.3376007	0.85069275
696618941007740	-1.0956116	-1.3445282	0.9108887
696618946073658	-1.0774994	-1.2902069	0.9827881
696618951170094	-1.0636444	-1.1863403	1.0653534
696618956236012	-1.0444794	-1.0345306	1.1548309
696618961301929	-1.008255	-0.8491821	1.2400513
696618966367847	-0.9549866	-0.67341614	1.31781
696618971433765	-0.895874	-0.5370636	1.380661
696618976499683	-0.83888245	-0.4443817	1.4264679
696618981565601	-0.78826904	-0.3921814	1.4520416
696618986631519	-0.7445984	-0.38365173	1.4600372
696618991727955	-0.7078552	-0.44224548	1.4488373
696618996793873	-0.67855835	-0.5370636	1.4296722
696619001859791	-0.65937805	-0.6478424	1.3891907
696619006925709	-0.6535187	-0.7527771	1.3289948
696619011991627	-0.6577759	-0.845459	1.2581635
696619017057545	-0.6689606	-0.9200134	1.172409
696619022153980	-0.6806793	-0.9716797	1.078659
696619027219898	-0.6876068	-0.99671936	0.9726715
696619032285816	-0.68388367	-0.99938965	0.8538971
696619037351734	-0.65618896	-0.97114563	0.726593
696619042417652	-0.5912018	-0.91522217	0.60035706
696619047483570	-0.4862671	-0.83425903	0.4831848
696619052549488	-0.34405518	-0.74798584	0.38464355
696619057615406	-0.17893982	-0.6691437	0.3095398
696619062711842	-0.015960693	-0.6174774	0.26000977
696619067777760	0.1251831	-0.58392334	0.22431946
696619072843678	0.22053528	-0.55303955	0.2003479
696619077909595	0.27539063	-0.5056305	0.18597412
696619082975513	0.3046875	-0.45663452	0.17425537
696619088041431	0.32333374	-0.43266296	0.16253662
696619093107349	0.35209656	-0.44970703	0.1407013
696619098203785	0.39949036	-0.5040283	0.10926819
696619103269703	0.47087097	-0.5770111	0.08796692
696619108335621	0.5688782	-0.64038086	0.06826782
696619113401539	0.6908417	-0.6569061	0.04322815
696619118467457	0.8319855	-0.61535645	0.009674072
696619123533375	0.9875183	-0.51148987	-0.04359436
696619128599293	1.1499786	-0.36820984	-0.1250763
696619133665211	1.317749	-0.21427917	-0.23161316
696619138761646	1.4754181	-0.07527161	-0.36317444
696619143827564	1.636795	0.025405884	-0.51071167
696619148893482	1.8200226	0.055236816	-0.66729736
696619153959400	2.0266876	0.04031372	-0.84254456
696619159025318	2.2264252	0.018478394	-1.0374756
696619164091236	2.3920746	0.01687622	-1.2452087
696619169157154	2.5129852	0.025939941	-1.47052
696619174253590	2.6003265	3.6621094E-4	-1.7128601
696619179319508	2.6679688	-0.0630188	-1.9530792
696619184385426	2.7452087	-0.14077759	-2.1682587
696619189451344	2.8506622	-0.23078918	-2.348297
696619194517262	2.9779663	-0.29684448	-2.4947662
696619199583179	3.084488	-0.30696106	-2.5980988
696619204649097	3.1281738	-0.21481323	-2.6673431
696619209715015	3.0759735	0.041915894	-2.7072906
696619214811451	2.9295044	0.47227478	-2.6902466
696619219877369	2.71698	0.99638367	-2.6082153
696619224943287	2.4874115	1.5141144	-2.4825134
696619230009205	2.2812805	1.8981323	-2.3397675
696619235075123	2.1332092	2.0243683	-2.2055511
696619240141041	2.0767517	1.8443451	-2.1043396
696619245206959	2.115631	1.3639069	-2.0217896
696619250272877	2.1981964	0.6704254	-1.9493561
696619255369312	2.2674408	-0.03211975	-1.8966217
696619260435230	2.271698	-0.5248108	-1.8630676
696619265501148	2.1731567	-0.6782074	-1.8619995
696619270567066	1.9814148	-0.49977112	-1.9109955
696619275663502	1.7364044	-0.12852478	-2.0164642
696619280729420	1.4881897	0.31355286	-2.1394958
696619285795338	1.3486481	0.53300476	-2.2577362
696619290891773	1.3108215	0.45310974	-2.4196625
696619295957691	1.3385315	0.13352966	-2.6912994
696619301023609	1.3981781	-0.26541138	-2.9901123
696619306089527	1.4242859	-0.5301361	-3.1802673
696619311155445	1.3699493	-0.6686249	-3.2383118
696619316221363	1.2751465	-0.7325287	-3.1791992
696619321287281	1.2160187	-0.66223145	-3.0092926
696619326353199	1.2090912	-0.47740173	-2.7637482
696619331419117	1.2032318	-0.20469666	-2.5016937
696619336485035	1.1846008	0.11595154	-2.33284
696619341581470	1.1563568	0.37054443	-2.25029
696619346647388	1.1148224	0.57507324	-2.1666565
696619351713306	1.0610199	0.79559326	-2.0414886
696619356779224	1.0082855	1.0853424	-1.9408264
696619361845142	0.9694061	1.4214325	-1.8790436
696619366911060	0.9086914	1.6898804	-1.7815704
696619372007496	0.8277283	1.8640442	-1.6580048
696619377073414	0.74357605	1.9833527	-1.5328369
696619382139332	0.6477051	2.0563354	-1.4049988
696619387205250	0.5523529	2.1388855	-1.2878265
696619392271168	0.4580841	2.2480774	-1.2095184
696619397337086	0.35954285	2.338623	-1.15094
696619402403004	0.2689972	2.398819	-1.0784912
696619407468922	0.1875	2.4520721	-0.9820862
696619412565357	0.1278534	2.5016022	-0.898468
696619417631275	0.076187134	2.5500793	-0.8270874
696619422697193	0.022918701	2.5878906	-0.7525177
696619427763111	-0.03514099	2.6022797	-0.6816864
696619432829029	-0.09799194	2.6171875	-0.61351013
696619437894947	-0.16082764	2.6326294	-0.55758667
696619442960865	-0.2284851	2.6326294	-0.50112915
696619448026783	-0.29719543	2.6038818	-0.43614197
696619453123219	-0.36323547	2.5341034	-0.36210632
696619458189137	-0.4308777	2.4110565	-0.28593445
696619463255054	-0.5001221	2.2326355	-0.20710754
696619468320972	-0.5746918	2.0052032	-0.12348938
696619473386890	-0.64393616	1.7516632	-0.033996582
696619478452808	-0.705719	1.4789581	0.06452942
696619483518726	-0.7632446	1.1923981	0.16786194
696619488584644	-0.8213043	0.90211487	0.26852417
696619493650562	-0.8782959	0.61076355	0.36706543
696619498746998	-0.93208313	0.33485413	0.45707703
696619503812916	-0.9906769	0.08718872	0.5247345
696619508878834	-1.057251	-0.124801636	0.5763855
696619513944752	-1.1355591	-0.29205322	0.61686707
696619519010670	-1.2245026	-0.42573547	0.6488342
696619524076588	-1.3240967	-0.5322571	0.6728058
696619529173023	-1.4210358	-0.6174774	0.6855774
696619534238941	-1.5137177	-0.6851349	0.6978302
696619539304859	-1.596817	-0.7511749	0.71221924
696619544370777	-1.6692505	-0.82839966	0.7196655
696619549436695	-1.7214508	-0.9061737	0.7377777
696619554502613	-1.7661896	-0.9381256	0.7766571
696619559568531	-1.7986755	-0.92907715	0.85868835
696619564664967	-1.7715149	-0.89338684	0.979599
696619569730885	-1.6090698	-0.8715515	1.1202087
696619574796803	-1.2601929	-0.95144653	1.2528381
696619579862720	-0.77815247	-1.1692963	1.2927856
696619584928638	-0.32807922	-1.5581207	1.1745453
696619589994556	-0.027679443	-2.0769043	0.8469696
696619595060474	0.108673096	-2.424179	0.37132263
696619600126392	0.17684937	-2.2675781	-0.0388031
696619605222828	0.24023438	-1.5698242	-0.29711914
696619610288746	0.31906128	-0.4933777	-0.47183228
696619615354664	0.39204407	0.6086273	-0.6566467
696619620420582	0.4389038	1.3133087	-0.8297577
696619625486500	0.4373169	1.6579132	-0.8947449
696619630552418	0.3755188	1.8661804	-0.8739624
696619635618336	0.2578125	1.9593964	-0.8196411
696619640684254	0.103881836	1.8981323	-0.741333
696619645780689	-0.04737854	1.699997	-0.65452576
696619650846607	-0.18533325	1.3857422	-0.5543823
696619655912525	-0.3184967	0.9889374	-0.41004944
696619660978443	-0.4404602	0.600647	-0.1991272
696619666044361	-0.5262146	0.21928406	0.06932068
696619671110279	-0.60717773	-0.20149231	0.37399292
696619676176197	-0.71318054	-0.5956421	0.677063
696619681272633	-0.8410034	-0.97435	0.9007721
696619686338551	-0.90971375	-1.342392	1.0275269
696619691404469	-0.8836212	-1.6183014	1.09198
696619696470387	-0.8010559	-1.740799	1.1500397
696619701536304	-0.7003937	-1.6870117	1.172409
696619706602222	-0.58055115	-1.6199036	1.0648193
696619711668140	-0.4638977	-1.6886139	0.84536743
696619716734058	-0.3930664	-1.8217621	0.59609985
696619721799976	-0.3547058	-1.8638458	0.37452698
696619726896412	-0.28227234	-1.7743683	0.21739197
696619731962330	-0.15924072	-1.6012573	0.12579346
696619737028248	-0.06442261	-1.3839417	0.067733765
696619742094166	-0.08520508	-1.1682281	0.02671814
696619747160084	-0.21835327	-1.0393372	0.01020813
696619752226002	-0.38986206	-1.0861969	0.0549469
696619757322437	-0.55178833	-1.3253479	0.18118286
696619762388355	-0.6961365	-1.642273	0.3798523
696619767454273	-0.82769775	-1.8089905	0.6110077
696619772520191	-0.9235687	-1.7200317	0.838974
696619777586109	-1.0007935	-1.5101776	1.0632172
696619782652027	-1.0892181	-1.3152313	1.3156891
696619787717945	-1.1755066	-1.133606	1.5686798
696619792783863	-1.2340851	-0.90245056	1.8126373
696619797880299	-1.2809601	-0.58766174	2.0517883
696619802946217	-1.3336945	-0.23399353	2.25206
696619808012135	-1.3677826	0.08718872	2.3756256
696619813078053	-1.3832245	0.3567047	2.4022522
696619818143970	-1.3864288	0.5809326	2.3250275
696619823209888	-1.3720398	0.7146301	2.189743
696619828275806	-1.3326263	0.7338104	2.0342102
696619833372242	-1.2814941	0.66082764	1.8621674
696619838438160	-1.2394104	0.49838257	1.6651001
696619843504078	-1.2079926	0.24858093	1.4728088
696619848569996	-1.1824188	-0.057159424	1.331665
696619853635914	-1.151001	-0.3271942	1.2432556
696619858701832	-1.1094513	-0.52534485	1.1830597
696619863767750	-1.054596	-0.69685364	1.1170197
696619868833668	-0.97309875	-0.84332275	1.0083618
696619873930103	-0.8713684	-0.9120331	0.84217834
696619878996021	-0.7888031	-0.8854065	0.64297485
696619884061939	-0.7280884	-0.79112244	0.45069885
696619889127857	-0.6998596	-0.64624023	0.30900574
696619894193775	-0.71318054	-0.4912567	0.21899414
696619899259693	-0.7557831	-0.3767395	0.16893005
696619904325611	-0.8255615	-0.3618164	0.15135193
696619909422047	-0.90971375	-0.45184326	0.1641388
696619914487965	-0.9933319	-0.6190796	0.20887756
696619919553883	-1.054596	-0.7884674	0.28077698
696619924619801	-1.1131744	-0.86408997	0.36280823
696619929685719	-1.1664429	-0.8294678	0.42512512
696619934751637	-1.2282257	-0.77194214	0.45388794
696619939817554	-1.2894897	-0.76075745	0.47679138
696619944883472	-1.3320923	-0.7815399	0.51034546
696619949979908	-1.3582001	-0.8097687	0.5577545
696619955045826	-1.360321	-0.8257446	0.6120758
696619960111744	-1.3400879	-0.8427887	0.65841675
696619965177662	-1.2974701	-0.8582306	0.6919708
696619970243580	-1.2410126	-0.8688812	0.7180786
696619975309498	-1.1717682	-0.8838043	0.7388458
696619980405933	-1.1019897	-0.9434509	0.7505646
696619985471851	-1.040741	-1.0446625	0.76441956
696619990537769	-0.99121094	-1.16716	0.77879333
696619995603687	-0.95552063	-1.2800751	0.805954
696620000669605	-0.94114685	-1.3743591	0.84324646
696620005735523	-0.95072937	-1.422287	0.87945557
696620010801441	-0.97895813	-1.4174957	0.91993713
696620015897877	-1.0178375	-1.3605042	0.9694824
696620020963795	-1.0455322	-1.2566376	1.0312653
696620026029713	-1.057251	-1.1293488	1.0999756
696620031095631	-1.0449982	-0.99458313	1.1708069
696620036161549	-1.0087891	-0.8609009	1.2368622
696620041227467	-0.9480591	-0.74638367	1.2949066
696620046293385	-0.88201904	-0.6632843	1.3497772
696620051359303	-0.8191681	-0.61428833	1.3961182
696620056455738	-0.76589966	-0.5967102	1.4291382
696620061521656	-0.7275543	-0.6078949	1.4355316
696620066587574	-0.69667053	-0.6371918	1.4184875
696620071653492	-0.66630554	-0.6728821	1.3817291
696620076719410	-0.6279602	-0.70111084	1.3268738
696620081785328	-0.5784149	-0.72454834	1.2549591
696620086851246	-0.51823425	-0.73999023	1.1702728
696620091917164	-0.45910645	-0.72561646	1.0738678
696620096983082	-0.40585327	-0.66967773	0.97320557
696620102049000	-0.3573761	-0.5732727	0.87094116
696620107114918	-0.30145264	-0.4678192	0.76760864
696620112180836	-0.23274231	-0.3809967	0.6642761
696620117246754	-0.15550232	-0.34158325	0.5545502
696620122312672	-0.07987976	-0.34797668	0.43470764
696620127378590	-0.012237549	-0.37088013	0.31860352
696620132475025	0.037841797	-0.39057922	0.21580505
696620137540943	0.07458496	-0.4044342	0.12684631
696620142606861	0.10334778	-0.416687	0.05708313
696620147672779	0.13478088	-0.43692017	0.0038146973
696620152738697	0.17098999	-0.4710083	-0.040924072
696620157835133	0.21679688	-0.5178833	-0.06968689
696620162901051	0.28497314	-0.562088	-0.09312439
696620167966969	0.37393188	-0.5913849	-0.11495972
696620173032887	0.48631287	-0.5983124	-0.1250763
696620178098804	0.62480164	-0.56422424	-0.124557495
696620183164722	0.7915039	-0.48965454	-0.117630005
696620188230640	0.98272705	-0.37832642	-0.11123657
696620193296558	1.1792603	-0.23718262	-0.13360596
696620198362476	1.3720856	-0.103500366	-0.1921997
696620203458912	1.5574341	-0.0060272217	-0.2854004
696620208524830	1.7401276	0.021148682	-0.39033508
696620213590748	1.9158936	-0.010284424	-0.49845886
696620218656666	2.0735626	-0.052368164	-0.6097717
696620223722584	2.2104492	-0.082717896	-0.7328186
696620228788502	2.3398743	-0.08911133	-0.8851471
696620233854420	2.4740906	-0.07527161	-1.0699768
696620238950855	2.6264343	-0.06674194	-1.2713013
696620244016773	2.79953	-0.07846069	-1.4657135
696620249082691	2.9870148	-0.108291626	-1.6558685
696620254148609	3.1606598	-0.1461029	-1.8492126
696620259214527	3.2874298	-0.16261292	-2.0409546
696620264280445	3.3311005	-0.12799072	-2.2300415
696620269346363	3.2719727	0.0035705566	-2.3925018
696620274412281	3.1052704	0.26667786	-2.493164
696620279508717	2.8527985	0.6469879	-2.5315094
696620284574635	2.5678406	1.1050415	-2.5166016
696620289640553	2.3073883	1.5780182	-2.459076
696620294706470	2.112442	1.9348907	-2.3925018
696620299772388	1.9792786	2.0238342	-2.3434906
696620304838306	1.919632	1.7298279	-2.287033
696620309904224	1.9510498	1.0864105	-2.2193909
696620314970142	2.033081	0.25656128	-2.15654
696620320066578	2.1097717	-0.49497986	-2.1000824
696620325132496	2.1183014	-0.9349365	-2.0681305
696620330198414	2.0261536	-1.039856	-2.0649261
696620335264332	1.8471832	-0.8731537	-2.1144714
696620340330250	1.6027069	-0.40071106	-2.2300415
696620345396168	1.3113556	0.2272644	-2.3733215
696620350462086	1.0019073	0.5697479	-2.5592194
696620355558521	0.81707764	0.4621582	-2.826065
696620360624439	0.8208008	0.09944153	-3.1253967
696620365690357	0.9220123	-0.25901794	-3.367752
696620370756275	0.99923706	-0.43319702	-3.4684143
696620375822193	1.0008392	-0.49551392	-3.400238
696620380888111	0.9465027	-0.48059082	-3.23938
696620385954029	0.87939453	-0.31282043	-3.0593567
696620391050465	0.82240295	-0.068344116	-2.872406
696620396116383	0.7994995	0.18466187	-2.6401672
696620401182301	0.8042908	0.4648285	-2.4335175
696620406248219	0.81814575	0.68107605	-2.2790527
696620411314137	0.79789734	0.77001953	-2.1341705
696620416380054	0.7462311	0.8392639	-1.9850311
696620421445972	0.6727295	0.985199	-1.8300323
696620426511890	0.6130829	1.2824097	-1.7043457
696620431608326	0.5917816	1.6754913	-1.6308289
696620436674244	0.59124756	2.0238342	-1.5232391
696620441740162	0.55874634	2.2805634	-1.4012756
696620446806080	0.49909973	2.43396	-1.3064575
696620451871998	0.40216064	2.5250397	-1.2286987
696620456937916	0.2881775	2.6347656	-1.1647797
696620462003834	0.20188904	2.7620697	-1.0625153
696620467069752	0.13743591	2.8195953	-0.95173645
696620472166187	0.07086182	2.8249207	-0.868103
696620477232105	-0.006378174	2.8249207	-0.82069397
696620482298023	-0.07720947	2.8552704	-0.76904297
696620487363941	-0.1416626	2.910675	-0.7125702
696620492429859	-0.21090698	2.9245148	-0.66304016
696620497495777	-0.2828064	2.9037476	-0.6044464
696620502561695	-0.34779358	2.8760529	-0.5378723
696620507627613	-0.40690613	2.8366394	-0.47555542
696620512724049	-0.46603394	2.7881622	-0.41430664
696620517789967	-0.5219574	2.7130585	-0.3455963
696620522855885	-0.56936646	2.5964203	-0.26623535
696620527921803	-0.6103821	2.4222412	-0.18260193
696620532987720	-0.64712524	2.194275	-0.08886719
696620538053638	-0.672699	1.925827	0.0059509277
696620543150074	-0.6934662	1.6227722	0.10821533
696620548215992	-0.7099762	1.2914734	0.21633911
696620553281910	-0.72595215	0.9734802	0.33085632
696620558347828	-0.7499237	0.6693573	0.43470764
696620563413746	-0.77975464	0.34924316	0.5252533
696620568479664	-0.8244934	0.055755615	0.5939636
696620573545582	-0.88308716	-0.19244385	0.6408386
696620578611500	-0.9512634	-0.39804077	0.67652893
696620583707935	-1.0322266	-0.5658264	0.70103455
696620588773853	-1.1264954	-0.6957855	0.7090149
696620593839771	-1.2234344	-0.79325867	0.70103455
696620598905689	-1.3182526	-0.8582306	0.6754608
696620603971607	-1.3922882	-0.86143494	0.63923645
696620609037525	-1.453537	-0.81988525	0.60995483
696620614103443	-1.4998779	-0.77301025	0.6120758
696620619169361	-1.5366211	-0.71069336	0.6546936
696620624265797	-1.5648499	-0.6270752	0.75749207
696620629331715	-1.5483398	-0.5317383	0.89331055
696620634428150	-1.4221039	-0.43266296	1.0610809
696620639494068	-1.12117	-0.3287964	1.2176819
696620644559986	-0.6833496	-0.29310608	1.3172913
696620649625904	-0.24499512	-0.43426514	1.3076935
696620654691822	0.02079773	-0.7746124	1.0749359
696620659757740	0.118270874	-1.2875366	0.5082092
696620664823658	0.08470154	-1.6230927	-0.11442566
696620669889576	-0.0010528564	-1.4420013	-0.546402
696620674986012	-0.04737854	-0.798584	-0.7269592
696620680051929	-0.026611328	0.071746826	-0.7503967
696620685117847	0.027709961	0.7817383	-0.75465393
696620690183765	0.047424316	1.1907959	-0.7631836
696620695249683	-0.0026397705	1.4837494	-0.73547363
696620700315601	-0.11503601	1.6850891	-0.67103577
696620705381519	-0.2524414	1.73143	-0.60232544
696620710477955	-0.39518738	1.6089172	-0.54852295
696620715543873	-0.5187683	1.3314209	-0.49526978
696620720609791	-0.61357117	0.94792175	-0.4111023
696620725675709	-0.6700287	0.5463104	-0.2752838
696620730741627	-0.705719	0.17347717	-0.063827515
696620735807545	-0.7248993	-0.24783325	0.18650818
696620740873463	-0.73820496	-0.6936493	0.43151855
696620745969898	-0.7264862	-1.0819397	0.64723206
696620751035816	-0.656723	-1.422287	0.8251343
696620756101734	-0.55178833	-1.6721039	0.95562744
696620761167652	-0.47668457	-1.7482605	1.0040894
696620766233570	-0.45591736	-1.6571808	1.0227356
696620771299488	-0.42608643	-1.5043182	1.0584259
696620776365406	-0.32807922	-1.3716888	1.076004
696620781461842	-0.18693542	-1.2694244	1.0669403
696620786527760	-0.009567261	-1.214035	1.0046234
696620791593678	0.17684937	-1.1607666	0.883728
696620796659595	0.25515747	-1.0553131	0.76174927
696620801725513	0.13957214	-0.8928528	0.6717377
696620806791431	-0.12780762	-0.7346649	0.6019592
696620811857349	-0.40264893	-0.6877899	0.5385742
696620816923267	-0.6061096	-0.8411865	0.49169922
696620822019703	-0.7344818	-1.1511841	0.49969482
696620827085621	-0.8356781	-1.4372101	0.5774536
696620832151539	-0.93315125	-1.5687714	0.6877136
696620837217457	-1.0471344	-1.5517273	0.7969055
696620842283375	-1.1776276	-1.4611816	0.8981018
696620847349293	-1.3118591	-1.3232269	1.0152893
696620852445728	-1.4503326	-1.1469269	1.1590881
696620857511646	-1.5536652	-0.98713684	1.3353882
696620862577564	-1.6234436	-0.848114	1.5186157
696620867643482	-1.6511383	-0.7335968	1.6773376
696620872709400	-1.6330261	-0.6505127	1.7838745
696620877775318	-1.5717773	-0.5812683	1.8270111
696620882841236	-1.4487457	-0.54771423	1.8323364
696620887907154	-1.2862854	-0.5567627	1.8222198
696620892973072	-1.1233063	-0.6158905	1.806778
696620898038990	-0.9890747	-0.71336365	1.776947
696620903135426	-0.91185	-0.8246765	1.710907
696620908201344	-0.91078186	-0.95251465	1.6102295
696620913267262	-0.9784241	-1.0632935	1.4919891
696620918333179	-1.090271	-1.0856628	1.3625641
696620923399097	-1.1936035	-1.0313416	1.2219391
696620928465015	-1.2261047	-0.9642334	1.1100922
696620933530933	-1.1797638	-0.8081665	1.0174103
696620938596851	-1.0625763	-0.6020355	0.92526245
696620943662769	-0.92729187	-0.42573547	0.8091583
696620948759205	-0.8298187	-0.27127075	0.6562805
696620953825123	-0.77708435	-0.124801636	0.49649048
696620958891041	-0.7557831	0.029663086	0.37080383
696620963956959	-0.755249	0.16122437	0.3010254
696620969022877	-0.7936096	0.1873169	0.26000977
696620974088795	-0.87882996	0.006225586	0.231781
696620979185230	-0.9949341	-0.37194824	0.22059631
696620984251148	-1.1286316	-0.8305359	0.25628662
696620989317066	-1.2687073	-1.1820679	0.33137512
696620994382984	-1.3917542	-1.3466644	0.39422607
696620999448902	-1.4828339	-1.3700867	0.42565918
696621004514820	-1.5467377	-1.3040466	0.42619324
696621009580738	-1.5808258	-1.2491913	0.40489197
696621014677174	-1.5739136	-1.2353363	0.41340637
696621019743092	-1.5286407	-1.2507782	0.45921326
696621024809010	-1.4673767	-1.3003235	0.5002289
696621029874928	-1.3922882	-1.3711548	0.5300598
696621034940845	-1.296936	-1.4329376	0.5545502
696621040006763	-1.1786957	-1.466507	0.5822449
696621045072681	-1.0503235	-1.4670258	0.61846924
696621050138599	-0.92729187	-1.4547882	0.6648102
696621055235035	-0.8287506	-1.4451904	0.71487427
696621060300953	-0.7579193	-1.4425354	0.76335144
696621065366871	-0.7153015	-1.4420013	0.8150177
696621070432789	-0.68388367	-1.4207001	0.869339
696621075498707	-0.6631012	-1.3695679	0.92100525
696621080564625	-0.6487274	-1.2870026	0.96681213
696621085630543	-0.63700867	-1.180481	1.0067596
696621090696461	-0.6279602	-1.0617065	1.0498962
696621095792896	-0.62475586	-0.9370575	1.0941162
696621100858814	-0.6242218	-0.8161621	1.1308594
696621105924732	-0.6231537	-0.71229553	1.1681519
696621110990650	-0.628479	-0.6446533	1.1894531
696621116056568	-0.63061523	-0.6169586	1.1995697
696621121122486	-0.6417999	-0.6169586	1.1953125
696621126218922	-0.65937805	-0.64305115	1.1740112
696621131284840	-0.6769562	-0.69685364	1.1479034
696621136350758	-0.69506836	-0.7703552	1.1127472
696621141416676	-0.70944214	-0.84439087	1.0680084
696621146482594	-0.70944214	-0.8992462	1.012619
696621151548512	-0.69667053	-0.93226624	0.94869995
696621156614429	-0.67056274	-0.93226624	0.8762665
696621161680347	-0.6215668	-0.8981781	0.7985077
696621166776783	-0.55604553	-0.83213806	0.71221924
696621171842701	-0.47561646	-0.74957275	0.62272644
696621176908619	-0.372818	-0.66116333	0.5412445
696621181974537	-0.25350952	-0.5716858	0.48051453
696621187040455	-0.12940979	-0.48805237	0.43312073
696621192106373	-0.015426636	-0.41722107	0.3952942
696621197172291	0.071395874	-0.36235046	0.3633423
696621202238209	0.118270874	-0.31015015	0.3260498
696621207334644	0.13317871	-0.26594543	0.2914276
696621212400562	0.12731934	-0.23664856	0.26533508
696621217466480	0.1251831	-0.2318573	0.24189758
696621222532398	0.1401062	-0.24571228	0.22698975
696621227598316	0.17845154	-0.259552	0.20941162
696621232664234	0.23651123	-0.26275635	0.18811035
696621237730152	0.3158722	-0.26275635	0.16574097
696621242826588	0.4112091	-0.2472992	0.14123535
696621247892506	0.5187988	-0.21109009	0.11087036
696621252958424	0.6349182	-0.13864136	0.072525024
696621258024342	0.76808167	-0.03211975	0.021392822
696621263090260	0.90283203	0.09037781	-0.060638428
696621268156178	1.0471802	0.20596313	-0.16822815
696621273222095	1.2032318	0.27574158	-0.2976532
696621278288013	1.3742065	0.26402283	-0.42495728
696621283384449	1.5558319	0.1873169	-0.54852295
696621288450367	1.7337341	0.104766846	-0.6859436
696621293516285	1.9009857	0.044570923	-0.8340149
696621298582203	2.0719604	3.6621094E-4	-1.0097809
696621303648121	2.2498627	-0.03211975	-1.1994019
696621308714039	2.4570465	-0.068878174	-1.3842316
696621313779957	2.701004	-0.12213135	-1.5631866
696621318876392	2.969452	-0.19883728	-1.7416229
696621323942310	3.228302	-0.28245544	-1.915268
696621329008228	3.431244	-0.3298645	-2.0904999
696621334074146	3.527649	-0.27500916	-2.2609406
696621339140064	3.482376	-0.059280396	-2.4164734
696621344205982	3.2794342	0.31941223	-2.5315094
696621349271900	2.9625244	0.80996704	-2.58638
696621354337818	2.6056519	1.3601837	-2.5821228
696621359403736	2.2935333	1.8816223	-2.5501556
696621364500172	2.0884705	2.271515	-2.5309906
696621369566090	1.9968567	2.3332977	-2.5048828
696621374632008	2.0053864	1.9844208	-2.4676056
696621379697926	2.0921936	1.302124	-2.4329834
696621384763844	2.2147064	0.40623474	-2.4058075
696621389829762	2.318039	-0.49179077	-2.3754578
696621394926197	2.3451996	-1.1463928	-2.3349762
696621399992115	2.2610474	-1.3503876	-2.3237915
696621405058033	2.0304108	-1.0489197	-2.412201
696621410123951	1.6879272	-0.5066986	-2.5810547
696621415189869	1.3635559	-0.012954712	-2.7030182
696621420255787	1.1915131	0.25230408	-2.7829132
696621425321705	1.1899261	0.282135	-2.952835
696621430418140	1.2889862	0.06694031	-3.2180786
696621435484058	1.3603668	-0.24996948	-3.4188843
696621440549976	1.3220062	-0.52427673	-3.4779968
696621445615894	1.2256012	-0.65104675	-3.4044952
696621450681812	1.1920471	-0.61961365	-3.1978455
696621455747730	1.2421112	-0.4401245	-2.9363098
696621460813648	1.3166809	-0.1887207	-2.6566772
696621465910084	1.3656921	0.086120605	-2.4180603
696621470976002	1.3619537	0.31515503	-2.2795868
696621476041920	1.3044434	0.4536438	-2.2018127
696621481107838	1.2090912	0.60224915	-2.110199
696621486173756	1.1164093	0.8696289	-2.0100708
696621491239674	1.0445099	1.158844	-1.915268
696621496305592	0.9832611	1.4134369	-1.7608032
696621501371510	0.9406433	1.6941376	-1.615387
696621506467945	0.9060211	1.9279633	-1.5008698
696621511533863	0.83891296	2.0877533	-1.3884888
696621516599781	0.756897	2.2267761	-1.2915497
696621521665699	0.6892395	2.3732452	-1.1743622
696621526731617	0.6317291	2.5245056	-1.0422821
696621531797535	0.57206726	2.63797	-0.96450806
696621536863453	0.50068665	2.750885	-0.9139099
696621541929371	0.42559814	2.849411	-0.85798645
696621547025806	0.3488922	2.9032135	-0.7924652
696621552091724	0.27113342	2.9362335	-0.7408142
696621557157642	0.19282532	2.989502	-0.6902008
696621562223560	0.115600586	3.0630035	-0.6364136
696621567289478	0.04475403	3.1434326	-0.5895386
696621572355396	-0.023956299	3.231842	-0.5357361
696621577421314	-0.0947876	3.295761	-0.4782257
696621582487232	-0.15550232	3.2989655	-0.40631104
696621587583668	-0.20983887	3.2345123	-0.32641602
696621592649586	-0.2716217	3.134903	-0.26463318
696621597715504	-0.3419342	2.992157	-0.19699097
696621602781422	-0.41383362	2.7908325	-0.10058594
696621607847340	-0.48414612	2.5383606	0.00541687
696621612913258	-0.55711365	2.242218	0.107681274
696621617979176	-0.63967896	1.9050598	0.2083435
696621623045094	-0.7248993	1.5135803	0.3020935
696621628141529	-0.8133087	1.0949249	0.37771606
696621633207447	-0.8990631	0.69226074	0.4283142
696621638273365	-0.98428345	0.3295288	0.45761108
696621643339283	-1.0727081	0.016342163	0.46826172
696621648405201	-1.1717682	-0.25476074	0.47200012
696621653471119	-1.2751007	-0.4859314	0.46826172
696621658537037	-1.390686	-0.6766052	0.454422
696621663633472	-1.5057373	-0.82788086	0.43737793
696621668699390	-1.6175842	-0.9503784	0.4320526
696621673765308	-1.723053	-1.0473175	0.44696045
696621678831226	-1.8301086	-1.1043091	0.46400452
696621683897144	-1.9238434	-1.1474609	0.5055542
696621688963062	-1.9632568	-1.1847382	0.5859833
696621694028980	-1.8940277	-1.2358704	0.677063
696621699094898	-1.6719055	-1.2838135	0.77453613
696621704191334	-1.3251648	-1.3525238	0.8565521
696621709257252	-0.94273376	-1.5272217	0.89437866
696621714323170	-0.62049866	-1.725357	0.87786865
696621719389088	-0.40637207	-1.8281555	0.7750702
696621724455006	-0.27322388	-1.7450714	0.5939636
696621729520924	-0.18907166	-1.4137726	0.39157104
696621734586842	-0.14006042	-0.8491821	0.21313477
696621739683277	-0.113967896	-0.17433167	0.04109192
696621744749195	-0.09265137	0.38172913	-0.15864563
696621749815113	-0.080947876	0.71195984	-0.28753662
696621754881031	-0.11343384	0.93460083	-0.31523132
696621759946949	-0.20184326	1.0879974	-0.30937195
696621765012867	-0.30784607	1.1401978	-0.2822113
696621770078785	-0.40371704	1.0714874	-0.23640442
696621775144703	-0.483078	0.90530396	-0.1842041
696621780241138	-0.56030273	0.680542	-0.112838745
696621785307056	-0.6188965	0.380661	-0.017486572
696621790372974	-0.691864	-0.0017547607	0.10661316
696621795438892	-0.77656555	-0.4736786	0.32392883
696621800504810	-0.85272217	-1.0446625	0.62646484
696621805570728	-0.92729187	-1.5746307	0.9273987
696621810636646	-0.9747009	-1.963974	1.188385
696621815733082	-0.98428345	-2.234558	1.3742828
696621820799000	-0.9533844	-2.3485413	1.5393982
696621825864918	-0.8772278	-2.2723694	1.6528473
696621830930836	-0.79307556	-2.0715637	1.619812
696621835996754	-0.6694946	-1.9037933	1.4621582
696621841062672	-0.466568	-1.8462677	1.2203522
696621846128590	-0.2082367	-1.8143158	0.94018555
696621851225025	0.045822144	-1.7168427	0.6600189
696621856290943	0.21360779	-1.5293579	0.4389801
696621861356861	0.15341187	-1.2401276	0.29995728
696621866422779	-0.15177917	-0.8726196	0.22592163
696621871488697	-0.54060364	-0.5802002	0.19448853
696621876554615	-0.8287506	-0.53279114	0.19343567
696621881620533	-0.96084595	-0.72720337	0.24349976
696621886686451	-1.0039978	-1.0196228	0.3798523
696621891782887	-1.0524597	-1.2177582	0.60409546
696621896848804	-1.1451416	-1.2534485	0.8400421
696621901914722	-1.2719116	-1.1511841	1.0584259
696621906980640	-1.4114532	-0.9850006	1.2629547
696621912046558	-1.5376892	-0.78952026	1.457367
696621917112476	-1.6255798	-0.59458923	1.6656189
696621922178394	-1.6820374	-0.40496826	1.8749542
696621927274830	-1.709198	-0.22653198	2.0528564
696621932340748	-1.6905518	-0.07527161	2.1561737
696621937416141	-1.6282349	0.04298401	2.1838837
696621942482059	-1.5403595	0.14151001	2.1338043
696621947547977	-1.4444733	0.21928406	2.0171661
696621952613895	-1.3454132	0.24751282	1.8531189
696621957679813	-1.2623138	0.21714783	1.666687
696621962745731	-1.1877441	0.095184326	1.4983826
696621967842166	-1.1115875	-0.08538818	1.3652191
696621972908084	-1.0130463	-0.3218689	1.2965088
696621977974002	-0.9171753	-0.529068	1.2714844
696621983039920	-0.84846497	-0.6355896	1.2459106
696621988105838	-0.8101196	-0.6382599	1.1745453
696621993171756	-0.79626465	-0.55729675	1.04245
696621998237674	-0.7845459	-0.4443817	0.8405762
696622003334110	-0.7749634	-0.33518982	0.6243286
696622008400028	-0.7776184	-0.27980042	0.46879578
696622013465945	-0.79626465	-0.27713013	0.3921051
696622018531863	-0.86125183	-0.39485168	0.3633423
696622023597781	-0.9667053	-0.72454834	0.35801697
696622028663699	-1.0641785	-1.0877991	0.39317322
696622033729617	-1.1477966	-1.3029785	0.45655823
696622038795535	-1.2271576	-1.3956604	0.48797607
696622043891971	-1.3097229	-1.406311	0.47998047
696622048957889	-1.3965454	-1.3780823	0.45388794
696622054023807	-1.4572601	-1.3221588	0.437912
696622059089725	-1.4918823	-1.2635651	0.45495605
696622064155643	-1.5243683	-1.2198944	0.48371887
696622069221561	-1.5568695	-1.1937866	0.5066223
696622074287479	-1.5669861	-1.1900635	0.5087433
696622079353397	-1.5472717	-1.2118988	0.5114136
696622084449832	-1.4881592	-1.2390594	0.5220642
696622089515750	-1.3917542	-1.2539825	0.5273895
696622094581668	-1.2697754	-1.2715607	0.5311127
696622099647586	-1.1392822	-1.3013916	0.54603577
696622104713504	-1.01091	-1.3216248	0.5620117
696622109779422	-0.88894653	-1.3290863	0.58065796
696622114845340	-0.7898712	-1.340271	0.60835266
696622119941776	-0.72436523	-1.3519897	0.6450958
696622125007694	-0.689209	-1.3455963	0.6839905
696622130073612	-0.67163086	-1.2902069	0.72766113
696622135139529	-0.6679077	-1.1874084	0.77986145
696622140205447	-0.67588806	-1.0590363	0.836853
696622145271365	-0.6977234	-0.9226837	0.90663147
696622150337283	-0.7163696	-0.7873993	0.99024963
696622155403201	-0.736084	-0.6616974	1.0829315
696622160469119	-0.7536621	-0.5509033	1.1590881
696622165565555	-0.7749634	-0.47579956	1.2155457
696622170631473	-0.80158997	-0.44491577	1.2496338
696622175697391	-0.8255615	-0.46568298	1.2629547
696622180763309	-0.8468628	-0.5354614	1.2586975
696622185829227	-0.85858154	-0.61854553	1.2368622
696622190895145	-0.8660431	-0.7090912	1.1915894
696622195991580	-0.8703003	-0.8001709	1.1319275
696622201057498	-0.87083435	-0.89019775	1.0557556
696622206123416	-0.8559265	-0.97062683	0.9726715
696622211189334	-0.8106537	-1.0292053	0.8879852
696622216255252	-0.7275543	-1.0473175	0.7942352
696622221321170	-0.60292053	-1.0057678	0.6978302
696622226387088	-0.43727112	-0.9051056	0.60835266
696622231483524	-0.25032043	-0.76982117	0.5391083
696622236549442	-0.06123352	-0.6233368	0.4901123
696622241615360	0.111343384	-0.4901886	0.45335388
696622246681278	0.24343872	-0.39378357	0.424057
696622251747195	0.32279968	-0.34051514	0.39743042
696622256813113	0.35368347	-0.3271942	0.35694885
696622261879031	0.3488922	-0.32240295	0.30741882
696622266944949	0.32492065	-0.32240295	0.24615479
696622272041385	0.3004303	-0.32826233	0.1763916
696622277107303	0.29882813	-0.34423828	0.09649658
696622282173221	0.3243866	-0.3841858	0.008605957
696622287239139	0.38565063	-0.43798828	-0.08407593
696622292305057	0.4804535	-0.4864502	-0.16983032
696622297370975	0.614151	-0.5136261	-0.23854065
696622302436893	0.78352356	-0.49551392	-0.2854004
696622307533328	0.99497986	-0.41615295	-0.31204224
696622312599246	1.2410583	-0.28619385	-0.33174133
696622317665164	1.507904	-0.1253357	-0.3557129
696622322700565	1.7864685	0.02859497	-0.3956604
696622327797000	2.0756836	0.14364624	-0.46064758
696622332862918	2.3691711	0.20117188	-0.5426636
696622337928836	2.640274	0.18145752	-0.6326752
696622342994754	2.8538666	0.14097595	-0.7232361
696622348091190	3.0088654	0.119140625	-0.8329468
696622353157108	3.132965	0.09944153	-1.0012665
696622358223026	3.2629242	0.048309326	-1.2276306
696622363288944	3.401413	-0.029464722	-1.4774323
696622368354862	3.5329742	-0.10189819	-1.7400208
696622373451297	3.6128693	-0.12799072	-2.0004883
696622378517215	3.594757	-0.017211914	-2.254547
696622383583133	3.4456177	0.3401947	-2.4793243
696622388649051	3.162262	0.94685364	-2.6433716
696622393714969	2.7745056	1.6541901	-2.728592
696622398780887	2.3803558	2.2709808	-2.7371063
696622403846805	2.1161652	2.6875	-2.6870422
696622408912723	2.018692	2.860077	-2.6401672
696622413978641	2.0272217	2.6060028	-2.6263275
696622419044559	2.1055145	1.843277	-2.5810547
696622424110477	2.2440033	0.7343292	-2.49263
696622429206912	2.3798218	-0.4321289	-2.3988953
696622434272830	2.4234924	-1.3349457	-2.3078156
696622439338748	2.3164368	-1.7503967	-2.2428284
696622444404666	2.0586395	-1.6598511	-2.2401733
696622449470584	1.6778107	-1.2023163	-2.3205872
696622454536502	1.2602234	-0.42945862	-2.4532166
696622459602420	0.9955139	0.33273315	-2.602356
696622464698856	0.9699402	0.66882324	-2.7674713
696622469764774	1.0546265	0.5266113	-3.0247345
696622474830692	1.1457062	0.22354126	-3.290512
696622479896610	1.1867218	0.008361816	-3.4178162
696622484962528	1.1568909	-0.16793823	-3.353897
696622490028445	1.0998993	-0.26701355	-3.1467133
696622495094363	1.0610199	-0.25636292	-2.8942413
696622500160281	1.0775299	-0.09603882	-2.6012878
696622505256717	1.1403809	0.20968628	-2.3259125
696622510322635	1.1920471	0.44618225	-2.143753
696622515388553	1.1792603	0.41423035	-2.0409546
696622520454471	1.1062927	0.24911499	-1.9472198
696622525520389	1.0109558	0.27999878	-1.8417511
696622530586307	0.93692017	0.50849915	-1.7320404
696622535652225	0.87939453	0.8158264	-1.6414948
696622540718143	0.85276794	1.1694946	-1.5866241
696622545814578	0.81814575	1.4976044	-1.4785004
696622550880496	0.7664795	1.7692413	-1.3304291
696622555946414	0.70895386	1.9737701	-1.2079315
696622561012332	0.6205292	2.1223755	-1.1413422
696622566078250	0.49856567	2.2358246	-1.1200409
696622571144168	0.38084412	2.3434143	-1.1003265
696622576210086	0.27272034	2.4882965	-1.057724
696622581276004	0.17526245	2.5969543	-0.9900818
696622586372440	0.08843994	2.607605	-0.9362793
696622591438358	0.0074768066	2.5889587	-0.8942108
696622596504276	-0.07295227	2.5889587	-0.8404083
696622601570194	-0.14431763	2.6225128	-0.7743683
696622606636112	-0.20344543	2.671524	-0.6960602
696622611702029	-0.24978638	2.7183838	-0.6268158
696622616767947	-0.2897339	2.750885	-0.5661011
696622621864383	-0.31689453	2.7684631	-0.49526978
696622626930301	-0.34033203	2.7567444	-0.41430664
696622631996219	-0.3616333	2.704544	-0.32481384
696622637062137	-0.38667297	2.5980225	-0.23001099
696622642128055	-0.4154358	2.4163818	-0.11975098
696622647193973	-0.43780518	2.146347	0.00541687
696622652259891	-0.45484924	1.8059845	0.13909912
696622657356326	-0.46870422	1.4267578	0.27438354
696622662422244	-0.48947144	1.0416718	0.40489197
696622667488162	-0.52142334	0.6847992	0.51194763
696622672554080	-0.5704346	0.39291382	0.59503174
696622677619998	-0.6380768	0.15483093	0.6562805
696622682685916	-0.7179718	-0.047561646	0.68717957
696622687751834	-0.8213043	-0.19776917	0.6866455
696622692817752	-0.94007874	-0.2819214	0.66641235
696622697914188	-1.0657806	-0.32614136	0.6285858
696622702980106	-1.1866913	-0.35916138	0.57266235
696622708046024	-1.3006744	-0.3841858	0.5156708
696622713111942	-1.4013367	-0.40922546	0.46879578
696622718177860	-1.4929504	-0.43373108	0.4277954
696622723243778	-1.5755005	-0.45770264	0.4102173
696622728309695	-1.6511383	-0.49923706	0.424057
696622733406131	-1.6969452	-0.5301361	0.46081543
696622738472049	-1.6990814	-0.51734924	0.4986267
696622743537967	-1.6234436	-0.4832611	0.5540161
696622748603885	-1.4625854	-0.4278717	0.64404297
696622753669803	-1.2271576	-0.36714172	0.7377777
696622758735721	-0.9368744	-0.38632202	0.8027649
696622763801639	-0.65405273	-0.5237427	0.7915802
696622768867557	-0.4053192	-0.69099426	0.6717377
696622773963992	-0.21942139	-0.71336365	0.47253418
696622779029910	-0.07614136	-0.60417175	0.12205505
696622784095828	0.043167114	-0.35862732	-0.2667694
696622789161746	0.10334778	0.12820435	-0.5384064
696622794227664	0.14382935	0.6459198	-0.68540955
696622799293582	0.17951965	0.9969177	-0.7541199
696622804359500	0.17312622	1.2621765	-0.75146484
696622809455936	0.11720276	1.4698944	-0.6997986
696622814521854	0.022384644	1.5732269	-0.6337433
696622819587772	-0.07827759	1.5460663	-0.5724945
696622824653690	-0.1651001	1.3969269	-0.518692
696622829719608	-0.24765015	1.1370087	-0.45211792
696622834785526	-0.34458923	0.7812042	-0.35038757
696622839851444	-0.45484924	0.37480164	-0.20445251
696622844947879	-0.5608368	-0.04437256	-0.02494812
696622850013797	-0.6833496	-0.48272705	0.19929504
696622855079715	-0.82821655	-0.92533875	0.470932
696622860145633	-0.94966125	-1.3599701	0.74098206
696622865211551	-1.0167694	-1.7376099	0.963089
696622870277469	-1.041275	-1.9517212	1.1079559
696622875343387	-1.0380859	-1.944809	1.2086334
696622880409305	-0.991745	-1.7637024	1.3114319
696622885475223	-0.87934875	-1.6081848	1.3673553
696622890571658	-0.6854706	-1.5804901	1.3391266
696622895637576	-0.4074402	-1.6502533	1.2219391
696622900703494	-0.081466675	-1.7003326	1.0142212
696622905769412	0.19763184	-1.6513214	0.76760864
696622910835330	0.32759094	-1.4840851	0.5540161
696622915901248	0.18537903	-1.1751556	0.4144745
696622920967166	-0.19332886	-0.7927246	0.35269165
696622926033084	-0.58587646	-0.53279114	0.344162
696622931129520	-0.8234253	-0.49816895	0.35427856
696622936195438	-0.91877747	-0.62867737	0.39370728
696622941261356	-0.9533844	-0.8023071	0.4831848
696622946327274	-0.99121094	-0.9008484	0.6014252
696622951393192	-1.0652466	-0.87794495	0.7345886
696622956489627	-1.167511	-0.80870056	0.8869171
696622961555545	-1.2767029	-0.74212646	1.0605621
696622966621463	-1.3704376	-0.6792755	1.2597656
696622971687381	-1.4386139	-0.59724426	1.4808044
696622976753299	-1.4812317	-0.4864502	1.7103729
696622981819217	-1.502533	-0.34423828	1.9298096
696622986885135	-1.5147858	-0.15089417	2.092804
696622991951053	-1.4998779	0.07546997	2.1694946
696622997047488	-1.453537	0.2768097	2.1540527
696623002113406	-1.4013367	0.43553162	2.0704193
696623007179324	-1.3475342	0.5186157	1.9393921
696623012245242	-1.3027954	0.49731445	1.7913208
696623017311160	-1.2740326	0.364151	1.6246185
696623022377078	-1.2751007	0.13513184	1.441925
696623027442996	-1.3070526	-0.120010376	1.2778625
696623032508914	-1.3448792	-0.34477234	1.1511078
696623037574832	-1.3379517	-0.5722046	1.0797272
696623042671268	-1.2889557	-0.71229553	1.0216675
696623047737186	-1.1696472	-0.78526306	0.9439087
696623052803104	-1.0087891	-0.84065247	0.83099365
696623057869022	-0.8878784	-0.8140259	0.6743927
696623062934940	-0.82289124	-0.69099426	0.5055542
696623068000858	-0.80584717	-0.4901886	0.3867798
696623073066776	-0.8340759	-0.25157166	0.33351135
696623078132694	-0.90119934	-0.12107849	0.30795288
696623083198612	-0.9816284	-0.23825073	0.2909088
696623088264529	-1.0561829	-0.4901886	0.30155945
696623093330447	-1.1307526	-0.7197571	0.3617401
696623098396365	-1.2042542	-0.8438568	0.43312073
696623103492801	-1.2788239	-0.8571625	0.46614075
696623108589237	-1.3635254	-0.81455994	0.470932
696623113655154	-1.4546051	-0.7762146	0.4736023
696623118721072	-1.536087	-0.79112244	0.4751892
696623123786990	-1.5749664	-0.8161621	0.48051453
696623128852908	-1.5744476	-0.84225464	0.48957825
696623133918826	-1.552063	-0.9035034	0.4943695
696623138984744	-1.5062714	-0.9727478	0.49916077
696623144050662	-1.4300995	-1.0339966	0.52046204
696623149116580	-1.3246307	-1.086731	0.53964233
696623154182498	-1.197876	-1.1389313	0.5545502
696623159248416	-1.0700378	-1.20018	0.56307983
696623164314334	-0.9581909	-1.2736816	0.5774536
696623169380252	-0.86816406	-1.3493195	0.6078186
696623174446170	-0.8053131	-1.4047089	0.6413727
696623179512088	-0.7680359	-1.4276123	0.68504333
696623184608524	-0.752594	-1.4084473	0.72766113
696623189674442	-0.7579193	-1.3392029	0.773468
696623194740360	-0.7722931	-1.2151031	0.8251343
696623199806278	-0.78775024	-1.0601044	0.88212585
696623204872195	-0.7957306	-0.90296936	0.946579
696623209938113	-0.79519653	-0.75756836	1.0147552
696623215004031	-0.785614	-0.62760925	1.0877228
696623220069949	-0.7722931	-0.5248108	1.1585541
696623225166385	-0.7627106	-0.46035767	1.2155457
696623230232303	-0.7595215	-0.43426514	1.25177
696623235298221	-0.7632446	-0.44970703	1.266159
696623240364139	-0.7749634	-0.49816895	1.2634888
696623245430057	-0.7898712	-0.56848145	1.2539063
696623250495975	-0.8079834	-0.65423584	1.2357941
696623255592410	-0.8234253	-0.7490387	1.2059631
696623260658328	-0.832489	-0.83639526	1.1654816
696623265724246	-0.8356781	-0.9146881	1.1079559
696623270790164	-0.81970215	-0.97062683	1.0339203
696623275856082	-0.7802887	-0.98979187	0.94976807
696623280922000	-0.71051025	-0.9626312	0.8570862
696623285987918	-0.6045227	-0.9008484	0.7612152
696623291053836	-0.4596405	-0.8140259	0.6733246
696623296119754	-0.2881317	-0.702713	0.5982361
696623301216190	-0.11129761	-0.5903168	0.53804016
696623306282108	0.042633057	-0.47953796	0.47998047
696623311348026	0.14915466	-0.36235046	0.42033386
696623316413944	0.20082092	-0.25422668	0.35855103
696623321479862	0.21040344	-0.16740417	0.29570007
696623326545779	0.20507813	-0.12905884	0.2275238
696623331642215	0.1981659	-0.15621948	0.1572113
696623336708133	0.20135498	-0.23664856	0.08531189
696623341774051	0.21572876	-0.353302	0.018722534
696623346839969	0.24876404	-0.48112488	-0.037200928
696623351905887	0.3078766	-0.5956421	-0.085128784
696623356971805	0.39842224	-0.67500305	-0.12348938
696623362037723	0.52893066	-0.6963196	-0.14053345
696623367103641	0.69563293	-0.65530396	-0.14053345
696623372200076	0.8879242	-0.54078674	-0.14318848
696623377265994	1.0892487	-0.37460327	-0.16929626
696623382331912	1.2889862	-0.1972351	-0.2268219
696623387397830	1.492981	-0.042236328	-0.29711914
696623392463748	1.7124329	0.053634644	-0.3802185
696623397529666	1.939331	0.0738678	-0.4633026
696623402595584	2.1539917	0.05682373	-0.5586395
696623407661502	2.337738	0.038711548	-0.6736908
696623412757938	2.4884796	0.020614624	-0.8318939
696623417823856	2.6285553	-0.0033569336	-1.0465393
696623422889774	2.76651	-0.04862976	-1.2947388
696623427955692	2.908722	-0.13652039	-1.5514679
696623433021610	3.0567932	-0.25636292	-1.7927551
696623438087528	3.1872864	-0.37727356	-2.0335083
696623443153445	3.276245	-0.44384766	-2.2657318
696623448219363	3.2991486	-0.37246704	-2.475586
696623453315799	3.2309723	-0.122665405	-2.6396332
696623458381717	3.0717163	0.28425598	-2.7211304
696623463447635	2.8554535	0.809433	-2.7211304
696623468513553	2.6189728	1.4033203	-2.6779938
696623473579471	2.4059143	1.925827	-2.6167297
696623478645389	2.2466583	2.1836243	-2.5448303
696623483711307	2.176361	2.0387573	-2.4777222
696623488777225	2.1960602	1.4757538	-2.4207306
696623493873660	2.2647705	0.6469879	-2.3706665
696623498939578	2.320694	-0.19776917	-2.2955627
696623504005496	2.301529	-0.8246765	-2.2007446
696623509071414	2.1822205	-1.1192169	-2.1064758
696623514137332	1.9430695	-1.0105743	-2.0686646
696623519203250	1.6224213	-0.5610199	-2.1719818
696623524299686	1.2991028	0.036590576	-2.332306
696623529365604	1.0727386	0.4935913	-2.4697266
696623534431522	1.0572968	0.5601654	-2.6130066
696623539497440	1.1867218	0.22886658	-2.8340454
696623544563358	1.315628	-0.23506165	-3.093979
696623549629276	1.3710175	-0.6009674	-3.2473755
696623554695194	1.3443909	-0.7602234	-3.2527008
696623559761112	1.2900543	-0.6563721	-3.114212
696623564857547	1.2644958	-0.38578796	-2.8675995
696623569923465	1.2591553	-0.092315674	-2.601822
696623574989383	1.2415924	0.104766846	-2.380783
696623580085819	1.190979	0.22140503	-2.2162018
696623585151737	1.1350555	0.30610657	-2.1181946
696623590217654	1.0828552	0.43818665	-2.0675964
696623595283572	1.013092	0.6725464	-2.0036774
696623600349490	0.94117737	1.0198212	-1.9307098
696623605415408	0.9097595	1.4091797	-1.8279114
696623610481326	0.8991089	1.7276917	-1.6691895
696623615577762	0.8825989	1.9135895	-1.5536041
696623620643680	0.8298645	1.9961395	-1.488617
696623625709598	0.7451782	2.066986	-1.4215088
696623630775516	0.6477051	2.1857605	-1.3101959
696623635841434	0.5491638	2.3205109	-1.2057953
696623640907352	0.45541382	2.4531403	-1.1488037
696623645973270	0.37393188	2.5692596	-1.0939484
696623651069705	0.3020172	2.65448	-1.0332184
696623656135623	0.21520996	2.6976166	-0.9772949
696623661201541	0.113464355	2.707199	-0.9192352
696623666267459	0.025054932	2.719452	-0.85905457
696623671333377	-0.04951477	2.735962	-0.8143158
696623676399295	-0.1267395	2.7615356	-0.77809143
696623681465213	-0.19972229	2.7982788	-0.7285614
696623686531131	-0.26522827	2.829712	-0.66571045
696623691627567	-0.32435608	2.846756	-0.5975342
696623696693485	-0.3781433	2.8286438	-0.52082825
696623701759403	-0.42236328	2.7588654	-0.4414673
696623706825320	-0.4623108	2.6187897	-0.34985352
696623711891238	-0.5065155	2.4131927	-0.24919128
696623716957156	-0.5523224	2.1708374	-0.1485138
696623722023074	-0.6034546	1.9018707	-0.048919678
696623727088992	-0.66044617	1.6131744	0.0549469
696623732185428	-0.72276306	1.3170319	0.15774536
696623737251346	-0.7872162	1.0150299	0.25575256
696623742317264	-0.848999	0.7178192	0.3372345
696623747383182	-0.91664124	0.44511414	0.39849854
696623752449100	-0.9944	0.21342468	0.44377136
696623757515018	-1.0860138	0.033920288	0.4736023
696623762611453	-1.1829529	-0.11148071	0.49383545
696623767677371	-1.2825623	-0.22599792	0.5044861
696623772743289	-1.3853607	-0.32453918	0.5082092
696623777809207	-1.4886932	-0.41029358	0.501297
696623782875125	-1.5866852	-0.49604797	0.49543762
696623787941043	-1.6713867	-0.5706177	0.49809265
696623793006961	-1.7299652	-0.62387085	0.5220642
696623798072879	-1.7805634	-0.64624023	0.5598755
696623803169315	-1.8269043	-0.6313324	0.6211395
696623808235233	-1.868454	-0.58499146	0.7068939
696623813301151	-1.8652649	-0.50083923	0.8016968
696623818367069	-1.7321014	-0.40708923	0.90130615
696623823432987	-1.4146576	-0.36076355	0.99557495
696623828498904	-0.97735596	-0.4502411	1.0605621
696623833564822	-0.5533905	-0.6925812	1.0312653
696623838630740	-0.21090698	-1.0116272	0.8416443
696623843727176	0.034103394	-1.2337341	0.5114136
696623848793094	0.18377686	-1.1596985	0.16946411
696623853828494	0.25994873	-0.70643616	-0.085128784
696623858924930	0.29457092	0.013687134	-0.25291443
696623863990848	0.30680847	0.680542	-0.40951538
696623869056766	0.30096436	1.0549774	-0.5352173
696623874122684	0.25515747	1.2872009	-0.5740967
696623879188602	0.16992188	1.4789581	-0.5613098
696623884285037	0.06765747	1.5838776	-0.53041077
696623889350955	-0.03514099	1.5817566	-0.485672
696623894416873	-0.13687134	1.4730988	-0.4313507
696623899482791	-0.23699951	1.2733612	-0.36476135
696623904548709	-0.3461914	0.99479675	-0.28381348
696623909614627	-0.46284485	0.62994385	-0.1687622
696623914680545	-0.5965271	0.18252563	-0.009506226
696623919746463	-0.7786865	-0.3330536	0.19662476
696623924842899	-0.9816284	-0.8955231	0.454422
696623929908817	-1.1627197	-1.5037842	0.7447052
696623934974735	-1.294281	-2.0294952	0.9742737
696623940040653	-1.3422089	-2.3075256	1.1473694
696623945106570	-1.2814941	-2.2840881	1.34552
696623950172488	-1.1424713	-2.1056519	1.5580292
696623955238406	-0.91929626	-1.917633	1.6895905
696623960334842	-0.6210327	-1.8148346	1.6384583
696623965400760	-0.26896667	-1.8297577	1.4019775
696623970466678	0.13850403	-1.8734283	1.0371246
696623975532596	0.6018982	-1.819107	0.60835266
696623980598514	0.8383789	-1.5874023	0.24935913
696623985664432	0.5731354	-1.1794128	0.062942505
696623990730350	0.027709961	-0.7293396	-0.021224976
696623995796268	-0.4804077	-0.4624939	-0.045181274
696624000862186	-0.7978668	-0.49391174	-0.02015686
696624005958621	-0.95552063	-0.7602234	0.074645996
696624011024539	-1.0316925	-1.1080322	0.2387085
696624016090457	-1.08815	-1.3839417	0.43151855
696624021156375	-1.1691132	-1.5144348	0.644577
696624026222293	-1.2852173	-1.5378723	0.8911743
696624031288211	-1.3992004	-1.5272217	1.172409
696624036354129	-1.4609833	-1.4824829	1.4552307
696624041420047	-1.4913483	-1.342392	1.7268829
696624046516483	-1.5233154	-1.0744781	1.9793396
696624051582401	-1.5643158	-0.719223	2.1833496
696624056648319	-1.5787048	-0.35595703	2.3138428
696624061714237	-1.5531311	-0.024658203	2.3575134
696624066780154	-1.4972076	0.23951721	2.3164978
696624071846072	-1.406662	0.41423035	2.2110443
696624076942508	-1.2889557	0.50849915	2.065094
696624082008426	-1.1829529	0.5612335	1.8925323
696624087074344	-1.1094513	0.5686798	1.7013092
696624092140262	-1.074295	0.48399353	1.5292664
696624097206180	-1.0700378	0.33059692	1.3971863
696624102272098	-1.0753632	0.19424438	1.3252716
696624107338016	-1.090805	0.13671875	1.2943878
696624112403934	-1.1137085	0.029663086	1.2507019
696624117500369	-1.1222382	-0.17700195	1.139389
696624122566287	-1.0897522	-0.44224548	0.96520996
696624127632205	-1.0125122	-0.7117615	0.7905121
696624132698123	-0.94114685	-0.82307434	0.64990234
696624137764041	-0.9006653	-0.77993774	0.54815674
696624142829959	-0.9235687	-0.6936493	0.44003296
696624147895877	-0.9949341	-0.6505127	0.33032227
696624152961795	-1.0700378	-0.7362671	0.28237915
696624158058231	-1.1451416	-0.85983276	0.30741882
696624163124149	-1.2159729	-0.8997803	0.35375977
696624168190067	-1.2820282	-0.8923187	0.3633423
696624173255985	-1.3699036	-0.9317322	0.3329773
696624178321903	-1.4689789	-0.9919281	0.29942322
696624183387820	-1.5712433	-1.0260162	0.29623413
696624188453738	-1.6655273	-1.0489197	0.30847168
696624193550174	-1.7470093	-1.0494537	0.32499695
696624198616092	-1.7981415	-1.02388	0.34309387
696624203682010	-1.7896271	-1.0185547	0.37878418
696624208747928	-1.7241058	-1.0585022	0.42991638
696624213813846	-1.614914	-1.1362762	0.49116516
696624218879764	-1.4769745	-1.2145691	0.5524292
696624223945682	-1.3278351	-1.2715607	0.6094208
696624229011600	-1.1904144	-1.2976532	0.6685333
696624234108035	-1.0785675	-1.3008575	0.73031616
696624239173953	-0.99121094	-1.279541	0.7905121
696624244239871	-0.93421936	-1.2518463	0.8496399
696624249305789	-0.897995	-1.2166901	0.91249084
696624254371707	-0.87402344	-1.164505	0.96894836
696624259437625	-0.85006714	-1.0755463	1.0222015
696624264503543	-0.8218384	-0.9530487	1.0717468
696624269599979	-0.7967987	-0.8108368	1.125534
696624274665897	-0.77389526	-0.68460083	1.1819916
696624279731815	-0.75205994	-0.5865936	1.2384491
696624284797733	-0.7334137	-0.51841736	1.2906494
696624289863651	-0.7163696	-0.4859314	1.3252716
696624294929569	-0.70732117	-0.5024414	1.3487091
696624299995487	-0.70518494	-0.5588989	1.3604279
696624305061404	-0.71157837	-0.63612366	1.36203
696624310157840	-0.719574	-0.73573303	1.3471069
696624315223758	-0.73127747	-0.845459	1.3108978
696624320289676	-0.7435303	-0.9466553	1.2533722
696624325355594	-0.7499237	-1.021759	1.187851
696624330421512	-0.74780273	-1.0670319	1.1106262
696624335487430	-0.73713684	-1.070221	1.0110168
696624340553348	-0.70251465	-1.0222778	0.90449524
696624345649783	-0.6231537	-0.9306793	0.7958374
696624350715701	-0.48786926	-0.7959137	0.6909027
696624355781619	-0.29559326	-0.6467743	0.6035614
696624360847537	-0.07455444	-0.5083008	0.5279236
696624365913455	0.1443634	-0.40176392	0.45707703
696624370979373	0.32066345	-0.32507324	0.37878418
696624376045291	0.43518066	-0.26168823	0.28398132
696624381141727	0.49217224	-0.22174072	0.17585754
696624386207645	0.5118866	-0.21748352	0.05973816
696624391273563	0.53318787	-0.24624634	-0.056900024
696624396339481	0.58218384	-0.3106842	-0.17834473
696624401405399	0.6695404	-0.3964386	-0.29978943
696624406471317	0.7872467	-0.48912048	-0.41056824
696624411537235	0.9342499	-0.56422424	-0.50164795
696624416603153	1.1260071	-0.59458923	-0.5868683
696624421699588	1.3582306	-0.55622864	-0.6651764
696624426765506	1.6282806	-0.43798828	-0.73228455
696624431831424	1.9233551	-0.25901794	-0.8217621
696624436897342	2.2141724	-0.09976196	-0.9496002
696624441963260	2.4815521	-0.015075684	-1.0806274
696624447029178	2.7068634	0.030197144	-1.2026062
696624452095096	2.878891	0.07333374	-1.3176422
696624457161014	3.0120544	0.12979126	-1.44281
696624462257449	3.1207123	0.19903564	-1.6068726
696624467323367	3.2187195	0.23526001	-1.7943573
696624472389285	3.3145905	0.19691467	-1.9871674
696624477455203	3.4003448	0.09465027	-2.1831818
696624482521121	3.450943	-0.014541626	-2.3866425
696624487587039	3.4296417	-0.03479004	-2.5815887
696624492652957	3.3018036	0.10795593	-2.7349854
696624497749393	3.0754395	0.39930725	-2.8148804
696624502815311	2.812317	0.7673645	-2.8138123
696624507881229	2.558792	1.206253	-2.7557526
696624512947147	2.3430634	1.6307526	-2.6561584
696624518013065	2.1854095	1.8368835	-2.5592194
696624523078983	2.115097	1.6307526	-2.492096
696624528144901	2.1545105	1.0288849	-2.4361725
696624533210819	2.256775	0.22247314	-2.3829193
696624538307254	2.3563843	-0.57966614	-2.333374
696624543373172	2.3936615	-1.1288147	-2.2913055
696624548439090	2.3068542	-1.2736816	-2.2753143
696624553505008	2.094864	-1.04039	-2.3216553
696624558570926	1.7816772	-0.4624939	-2.428711
696624563636844	1.3651581	0.40356445	-2.5347137
696624568702762	0.95236206	0.8840027	-2.7238007
696624573799197	0.743042	0.64378357	-3.0114136
696624578865115	0.7776642	0.0738678	-3.3784027
696624583931033	0.91082764	-0.42359924	-3.7283478
696624588996951	1.0168152	-0.69418335	-3.9152985
696624594062869	1.0439758	-0.8529053	-3.892395
696624599128787	1.0173492	-0.8854065	-3.688919
696624604194705	0.9875183	-0.7405243	-3.3784027
696624609260623	0.9976349	-0.30003357	-3.033249
696624614326541	1.0466461	0.22087097	-2.7477722
696624619392459	1.0652771	0.506897	-2.5176697
696624624488895	1.0461121	0.5963898	-2.3078156
696624629554813	1.0050964	0.727417	-2.1224518
696624634620731	0.93266296	1.0214233	-1.950943
696624639686649	0.85595703	1.4379425	-1.7938232
696624644752567	0.8160095	1.8917389	-1.6713104
696624649818485	0.822937	2.289627	-1.6052704
696624654884403	0.81440735	2.5703125	-1.5338898
696624659980838	0.76434326	2.7402344	-1.4113922
696624665046756	0.7057648	2.8531494	-1.280899
696624670112674	0.6349182	2.972458	-1.1727753
696624675178592	0.55448914	3.1098785	-1.0635834
696624680244510	0.49536133	3.2004242	-0.9762268
696624685310428	0.4426422	3.2579498	-0.89686584
696624690406863	0.38723755	3.2702026	-0.81910706
696624695472781	0.32919312	3.2669983	-0.7440033
696624700538699	0.28178406	3.2835083	-0.6678314
696624705604617	0.2386322	3.3069458	-0.5895386
696624710670535	0.18644714	3.3069458	-0.5229645
696624715736453	0.11613464	3.2877808	-0.4622345
696624720802371	0.03303528	3.2526245	-0.3999176
696624725868289	-0.05644226	3.2105408	-0.33973694
696624730964725	-0.15977478	3.1540833	-0.27742004
696624736030643	-0.27108765	3.0672607	-0.20391846
696624741096561	-0.37602234	2.9250488	-0.12135315
696624746162479	-0.47454834	2.7269135	-0.03453064
696624751228397	-0.5704346	2.4914856	0.056015015
696624756294315	-0.66470337	2.2230377	0.15028381
696624761360233	-0.755249	1.9183807	0.24082947
696624766426151	-0.83621216	1.5854797	0.33244324
696624771492069	-0.90278625	1.2339478	0.4118042
696624776588504	-0.96191406	0.8674927	0.4741211
696624781654422	-1.01091	0.49945068	0.52153015
696624786720340	-1.0567169	0.16282654	0.5497589
696624791786258	-1.1094513	-0.12693787	0.5700073
696624796852176	-1.1770935	-0.3756714	0.58277893
696624801918094	-1.2543335	-0.5802002	0.59077454
696624806984012	-1.3368835	-0.7559662	0.59928894
696624812080447	-1.4258423	-0.8997803	0.60302734
696624817146365	-1.5179749	-0.98127747	0.5955658
696624822212283	-1.6021423	-1.0105743	0.5817261
696624827278201	-1.678833	-0.99671936	0.56947327
696624832344119	-1.7432861	-0.9311981	0.57373047
696624837410037	-1.7858887	-0.8070984	0.613678
696624842475955	-1.8002777	-0.63612366	0.6988983
696624847572391	-1.756607	-0.45716858	0.80223083
696624852638309	-1.5877533	-0.35437012	0.91993713
696624857704227	-1.261261	-0.41189575	1.0301971
696624862770145	-0.8468628	-0.7005768	1.0951843
696624867836063	-0.49905396	-1.1410675	1.0403137
696624872901981	-0.31689453	-1.5453339	0.80755615
696624877967899	-0.2950592	-1.7850189	0.32125854
696624883033817	-0.27268982	-1.7461395	-0.20977783
696624888099735	-0.22155762	-1.1884613	-0.48088074
696624893196170	-0.15231323	-0.27926636	-0.57463074
696624898262088	-0.05644226	0.5463104	-0.64334106
696624903328006	0.031448364	1.0129089	-0.69073486
696624908393924	0.057006836	1.3340759	-0.68434143
696624913459842	0.0048065186	1.6110535	-0.6364136
696624918525760	-0.09851074	1.7676392	-0.5740967
696624923622195	-0.23274231	1.7255707	-0.50538635
696624928688113	-0.38027954	1.4645691	-0.4164276
696624933754031	-0.5198364	1.0666962	-0.2907257
696624938819949	-0.5975952	0.65657043	-0.11816406
696624943885867	-0.6167755	0.25177002	0.1103363
696624948951785	-0.6652374	-0.117874146	0.40594482
696624954017703	-0.7488556	-0.41189575	0.72605896
