accelerometer_timestamp	accelerometer_x_data	accelerometer_y_data	accelerometer_z_data
59059947337000	-0.08619126	2.598906	9.216479
59059951640000	-0.12569559	2.593519	8.992621
59059962413000	-0.20470424	2.52289	8.992023
59059971721000	-0.16400282	2.6018987	8.897452
59059982402000	-0.17238252	2.5683799	8.780735
59059991740000	-0.11611878	2.4420857	8.847174
59060004985000	0.034715924	2.380435	8.871116
59060011760000	0.12749124	2.2918496	8.938153
59060022441000	-0.05267244	1.8255788	9.203311
59060031779000	0.46267948	2.405574	9.947908
59060044078000	0.22924481	2.5031378	10.038888
59060051799000	0.050876785	2.168548	9.218275
59060063517000	0.08379706	2.5929205	8.781932
59060071818000	-0.21667525	2.77069	8.968081
59060082530000	-0.51235914	2.6683378	9.088988
59060091838000	-0.3441665	2.6743233	9.487623
59060102549000	-0.23463176	2.6437972	9.951499
59060111857000	-0.2753332	2.6234465	10.051457
59060123637000	-0.28909984	2.6192567	9.791088
59060132151000	-0.29209262	2.6563668	9.460688
59060142619000	-0.23822308	2.6396074	9.217676
59060151957000	-0.095768064	2.6024973	9.1272955
59060162608000	0.050278235	2.4875755	9.206305
59060171916000	0.11851298	2.497751	9.141062
59060185160000	-0.020949265	2.4498668	8.935161
59060192027000	-0.093972415	2.4253263	8.7532015
59060202647000	-0.011372458	2.4432828	8.769362
59060211985000	0.060453594	2.3744495	9.2625675
59060224284000	0.18555063	2.3187842	9.003994
59060232005000	0.2861071	2.2457612	9.097966
59060243693000	0.10414778	2.3415294	9.293693
59060252055000	0.032920275	2.3624785	9.566033
59060262675000	-0.26874915	2.172738	9.454702
59060272014000	-0.32441434	2.6360161	8.883087
59060282725000	-0.7954735	2.6629508	8.686164
59060292033000	-0.51595044	2.6970682	8.748413
59060303813000	-0.24839842	2.782661	8.658031
59060312053000	-0.23702596	2.7748797	8.717887
59060322764000	-0.3585317	2.690484	8.954913
59060332072000	-0.52852005	2.677316	8.998607
59060342753000	-0.79726917	2.7431567	8.528745
59060352092000	-1.0432734	2.7102363	8.77834
59060365306000	-0.9600749	2.801216	9.475652
59060372081000	-0.95349085	2.7575219	9.86471
59060382792000	-0.96187055	2.6833014	9.593566
59060392100000	-0.7649474	2.6791117	9.275137
59060404429000	-0.6787562	2.7455509	9.206305
59060412150000	-0.60094464	2.7665	9.236232
59060423838000	-0.58657944	2.7593174	9.354146
59060433207000	-0.57879823	2.7994204	9.374496
59060445109000	-0.5823896	2.7503393	9.137471
59060452861000	-0.5470751	2.758719	9.022549
59060463572000	-0.6727707	2.7964275	9.054871
59060472880000	-0.9540894	2.7383683	8.917204
59060484629000	-1.1168951	2.7485435	8.967483
59060493419000	-1.3174095	2.7263973	9.072827
59060504466000	-1.3227965	2.842516	9.277532
59060512919000	-1.3132197	2.8514943	9.346365
59060523661000	-1.5544355	2.7024553	9.488221
59060533000000	-1.127669	2.8443117	9.255385
59060545939000	-0.86969376	2.8413188	9.190742
59060552897000	-0.7098808	2.8293478	9.153033
59060563609000	-0.7541735	2.6982653	9.257779
59060572917000	-0.6739678	2.724003	9.279327
59060585215000	-0.635062	2.837129	9.285912
59060592936000	-0.8475474	2.7635074	8.9279785
59060604808000	-1.0672154	2.6402059	8.584411
59060613108000	-1.234211	2.6078842	8.831013
59060623759000	-1.3874398	2.690484	9.009979
59060633128000	-1.4203602	2.6623523	8.876503
59060643809000	-1.3425486	2.5881321	8.981249
59060653117000	-1.2868834	2.4115596	8.899846
59060664805000	-1.0965444	2.355296	9.240421
59060673076000	-0.9247604	2.2631192	9.317036
59060683757000	-0.6398504	2.356493	9.551069
59060693065000	-0.7284359	2.319383	9.74859
59060703807000	-0.96426475	2.2535424	9.454104
59060713298000	-0.6691794	2.3612814	9.5013895
59060726298000	-0.6422446	2.4001873	9.208698
59060733317000	-0.5823896	2.280477	9.076419
59060744029000	-0.56323594	2.2679076	9.205107
59060753947000	-0.79487497	2.0847511	9.143456
59060765117000	-0.55006784	2.3439236	8.953716
59060772837000	-0.7721301	2.3636756	8.889671
59060784739000	-1.0360907	2.268506	8.748413
59060793071000	-0.9427169	2.3259668	8.959702
59060803752000	-0.6727707	2.4049757	9.022549
59060813060000	-0.60932434	2.408567	9.102755
59060823924000	-0.7188591	2.280477	9.613917
59060833262000	-0.82779527	2.2278047	10.019135
59060844951000	-0.74878657	2.179322	10.272921
59060853251000	-0.6787562	2.1577742	10.164583
59060864238000	-0.6171055	2.220622	10.05864
59060873454000	-0.4261679	2.3570917	9.828796
59060884135000	-0.44113165	2.5342624	9.503185
59060893504000	-0.741604	2.4666264	9.171588
59060912639000	-0.8242039	2.4774003	8.863335
59060924113000	-1.1234791	2.3648727	9.075222
59060932628000	-1.2108675	2.3660698	9.117719
59060944896000	-1.3066356	2.4366987	9.04709
59060952678000	-1.4143747	2.492364	9.390657
59060964396000	-1.3826514	2.496554	9.479841
59060972667000	-1.3120226	2.5671828	9.374496
59060983409000	-1.3611037	2.697667	9.035119
59060992747000	-1.5382746	2.7724855	8.444349
59061003398000	-1.6334441	2.7736826	7.9768815
59061012767000	-1.4556746	2.7994204	8.069656
59061024516000	-1.2569559	2.7090392	8.421604
59061032756000	-1.0899603	2.7353754	9.123106
59061043437000	-0.9816227	2.7575219	9.74859
59061052775000	-1.0187328	2.6162639	9.771336
59061063487000	-1.0761937	2.582745	10.049662
59061072795000	-1.4257472	2.5851393	10.609306
59061084391000	-1.6394296	2.428319	10.714651
59061092875000	-1.3072342	2.5540147	10.438121
59061103526000	-0.9744401	2.9011738	10.111312
59061112834000	-0.99060094	3.252523	10.25676
59061125102000	-1.1546037	3.2202013	10.431537
59061132853000	-1.2318168	3.09271	10.522516
59061144816000	-1.4820108	3.1148565	10.456676
59061152873000	-1.9997569	3.3854012	9.725247
59061163585000	-2.247557	3.968988	8.962095
59061172892000	-2.2092497	4.3179426	8.262989
59061183543000	-2.3289597	4.471172	7.229292
59061192912000	-2.5809495	4.350863	5.989694
59061204692000	-2.5737667	3.911527	7.1251445
59061212931000	-2.4875755	4.1066546	7.7560163
59061223735000	-2.1511903	4.5394063	7.802105
59061232859000	-1.7220296	4.747103	7.602189
59061251719000	-1.1031284	4.283227	6.9348054
59061263926000	-0.8583213	3.933075	7.2388687
59061272960000	-0.93732995	3.9217024	7.327454
59061283641000	-1.3521254	4.1293993	7.281366
59061292979000	-1.7531542	4.545392	6.8103065
59061305308000	-2.1068976	4.7536874	3.389591
59061313029000	-3.0418332	4.659715	4.995502
59061324046000	-3.3997664	5.4899044	3.8349125
59061333018000	-4.297592	5.494693	4.1222167
59061343699000	-4.466982	5.0302176	4.2610803
59061353007000	-3.6403837	4.959589	4.8141413
59061513987000	-8.376115	3.8355112	-1.7501614
59061523906000	-8.189367	3.0358477	-2.0296845
59061543956000	-9.778519	4.0982747	0.7517793
59061553325000	-9.773131	1.0372878	4.8506527
59061564341000	-11.781867	-3.7547069	-4.1916485
59061573283000	-9.142858	-2.3038206	-15.474324
59061593333000	-11.95784	2.2284033	-4.225766
59061604045000	-12.848483	2.4522612	-1.2198458
59061613322000	-10.730812	1.9764135	-1.697489
59061624308000	-9.499594	2.1152773	-2.328361
59061633036000	-8.575432	2.2744915	-1.6250644
59061644114000	-8.073248	1.5903485	-0.5793968
59061653392000	-7.841609	0.78529817	-3.376423
59061665660000	-6.855198	0.42556936	-8.147469
59061684459000	-4.9296613	3.855862	0.39384618
59061700145000	-5.453393	6.528988	7.8625584
59061713420000	-8.519168	3.4332852	-2.1458032
59061724131000	-7.469909	4.9721584	0.06404489
59061733470000	-8.610147	4.271256	2.5240872
59061744548000	-8.957307	3.7122097	1.9015948
59061753489000	-7.849989	2.7808652	1.0660183
59061764171000	-7.019201	2.484583	1.6801311
59061773539000	-6.4924765	2.7132292	2.657564
59061784160000	-5.5701103	6.1866174	-0.074818805
59061793528000	-5.559935	5.2875943	7.743447
59061804301000	-3.341707	5.1822495	5.145738
59061813517000	-3.095703	5.097854	3.5745432
59061824229000	-3.1028855	4.606444	1.5370775
59061833537000	-3.447052	4.3837833	-0.5177461
59061845897000	-4.2293572	4.687248	-1.1665748
59061853556000	-5.434838	5.1397524	-1.0899603
59061864543000	-6.8103065	5.5030727	-1.2826935
59061873576000	-7.478289	6.719327	-1.0127473
59061884257000	-7.6003933	7.9972324	-0.26515785
59061893626000	-7.602189	9.16261	1.3958195
59061904246000	-8.183381	9.787497	3.6523547
59061913615000	-8.547898	9.937733	6.203377
59061925547000	-9.290101	10.688315	8.74542
59061933635000	-9.4774475	11.057621	10.465055
59061945292000	-9.773131	10.658986	10.084377
59061953685000	-11.044453	10.390237	9.40203
59061964335000	-11.174936	9.6767645	8.53054
59061973674000	-11.629236	9.023148	6.208165
59061984416000	-12.848483	9.036914	5.319318
59061993693000	-12.72997	8.555081	5.1780596
59062004405000	-11.943475	8.55987	3.503914
59062013713000	-12.203246	7.7308774	3.4650085
59062025920000	-11.6585655	6.3601966	-0.2741361
59062033732000	-11.462839	6.909666	-4.841076
59062044780000	-11.864467	9.541492	-5.391144
59062053782000	-12.29662	10.166379	-2.268506
59062064463000	-10.861296	10.370484	0.5758055
59062073802000	-9.285912	11.044453	2.148796
59062084452000	-8.659229	9.024344	2.8083985
59062093791000	-8.112753	7.162853	4.0132804
59062104808000	-7.1407065	6.4948707	5.129577
59062113810000	-6.4457893	5.556942	6.517017
59062124461000	-5.3923407	5.125387	6.871359
59062133830000	-4.049194	4.9757495	6.363788
59062144481000	-2.8820202	4.7429137	5.60722
59062153819000	-2.2254105	5.3881507	3.8379054
59062164592000	-2.5725696	7.1502833	2.203264
59062173869000	-4.007295	6.9689226	1.3970166
59062184520000	-4.5166616	7.067683	0.6715736
59062193858000	-4.3119574	8.327632	0.79607207
59062206157000	-3.928885	8.197148	2.136825
59062213908000	-3.3883939	7.8888946	3.1860838
59062224894000	-3.2794578	8.033145	3.894169
59062233928000	-3.2190042	7.599196	4.498705
59062244578000	-3.2878375	6.7959414	4.7578773
59062253947000	-3.1016884	5.8741736	5.7682304
59062264567000	-2.4636335	6.1704564	7.0593038
59062273936000	-2.606687	7.433398	7.747637
59062285014000	-3.3913867	8.110957	7.7081323
59062293986000	-4.1258082	7.2005615	7.602189
59062304789000	-3.489549	9.841366	6.1860185
59062313975000	-4.5082817	9.677961	4.6393642
59062324687000	-3.6290112	11.568184	3.5206735
59062334025000	-3.2495303	12.130223	3.2866404
59062345683000	-2.6593595	12.3516865	1.6759412
59062354045000	-2.0380642	11.21444	1.2683283
59062364665000	-1.2509704	10.694301	1.584363
59062374064000	-0.51355624	9.603143	2.718616
59062386332000	0.41180268	9.054871	3.572149
59062394084000	0.23942018	8.7849245	4.1635165
59062405101000	0.35194764	10.286688	4.57113
59062414103000	-0.093972415	12.167333	5.0308166
59062425151000	-1.7010803	13.538013	4.3580456
59062434123000	-3.442862	14.287398	3.9947255
59062444743000	-3.645172	15.000272	4.198831
59062454173000	-3.5511997	14.454394	3.6619315
59062465220000	-2.1051018	14.594455	3.8498764
59062474162000	-0.95229375	14.671668	3.5954924
59062484782000	-0.3776853	13.002311	3.0454245
59062494181000	0.090381116	12.914923	2.2188265
59062504832000	-0.50038815	11.752538	3.229778
59062514171000	-1.1366472	11.552023	3.221997
59062524974000	-1.417966	11.845313	3.554791
59062534221000	-1.46585	11.599309	4.2784386
59062544871000	-1.4496891	9.941324	4.072537
59062554393000	-1.6095021	8.582016	2.327164
59062566508000	-2.1170728	6.7318964	1.2785037
59062574412000	-2.3660698	4.497508	1.2228385
59062585337000	-0.9636662	4.422689	1.9620483
59062594310000	0.31902736	5.791574	4.38917
59062604960000	-0.54168814	3.466804	4.6279917
59062614390000	-0.9900024	-1.3359646	3.7852328
59062625163000	1.039682	-1.6286557	0.42916065
59062634318000	2.755726	-0.82121116	1.7962499
59062645366000	2.7742813	-0.19632454	2.144606
59062654307000	0.62847793	-0.10354923	1.3706805
59062665049000	-0.5506664	0.10235212	0.6386533
59062674296000	-1.4754268	1.809418	0.98341835
59062685008000	-2.005144	3.977966	1.8513165
59062694377000	-2.1152773	4.950012	1.3060371
59062705088000	-1.6591818	5.7658362	2.0805612
59062714427000	-0.4890157	6.7223196	2.4558525
59062725108000	-0.18495208	6.87914	0.87687635
59062734477000	-0.7667431	7.6788034	0.6775591
59062746623000	-0.8295909	10.366894	0.37948096
59062754405000	-2.8431146	11.592725	-0.17776948
59062765422000	-4.4556093	10.089765	-0.7386112
59062774424000	-4.004901	11.51611	0.789488
59062786937000	-3.5212722	13.24233	2.3026235
59062794413000	-3.311181	12.755708	3.1651347
59062805064000	-3.6499605	12.730569	3.1830912
59062814616000	-4.3819876	13.054983	3.7313633
59062825633000	-5.283405	12.211027	3.5087025
59062834666000	-5.2702365	11.890802	4.3658266
59062845378000	-5.327099	11.382035	3.9252937
59062854899000	-5.448006	10.373477	3.752911
59062865519000	-6.0639143	10.11251	2.9281087
59062874888000	-5.5000796	11.514315	2.337938
59062885661000	-5.5880666	11.238981	2.083554
59062895182000	-5.8262897	11.894394	2.143409
59062905711000	-5.2241483	12.188282	1.9991584
59062915171000	-3.697246	12.865841	0.017357962
59062927287000	-1.780089	13.760076	-0.5602432
59062935283000	-0.9235633	13.153146	-0.7194576
59062946299000	-0.427365	12.306197	-1.7226281
59062955302000	-0.81402856	13.063962	-1.3102269
59062965983000	-0.8996213	14.068928	-1.0564415
59062975474000	-0.9235633	15.531186	-0.9648633
59062986155000	-0.5638345	15.784972	-0.7679402
59062995494000	0.98820674	14.727932	-0.87687635
59063014628000	2.5899277	13.379397	-1.1133038
59063025309000	3.3063924	12.029068	-2.6126726
59063034678000	2.9299042	9.784504	-4.6040497
59063045390000	2.0727801	9.169194	-5.7299232
59063054698000	0.66379243	7.6949644	-4.525041
59063065471000	-1.1522095	5.8023477	-3.8911762
59063074778000	-2.730587	4.3939586	-3.1028855
59063085337000	-3.8660371	3.389591	-2.6928782
59063094767000	-3.517681	3.9552212	-0.09876082
59063106974000	-3.7337575	2.895787	1.7836803
59063114726000	-4.673482	0.1316811	2.6461914
59063125743000	-4.308366	0.3513491	2.719813
59063134776000	-2.9358897	3.9510314	4.187459
59063145457000	-2.8622682	4.968567	6.009446
59063154796000	-3.0011318	5.767632	6.5906386
59063165477000	-3.3393128	5.6826377	7.4735007
59063174815000	-3.5913026	6.4505777	8.987833
59063185801000	-3.6409822	8.4108305	10.373477
59063194896000	-4.1479545	10.350134	10.5123415
59063205424000	-5.8693852	10.623073	10.499173
59063214824000	-7.1730285	9.083601	10.092757
59063225505000	-7.256227	8.067263	9.886257
59063234813000	-7.177218	7.5136037	11.119271
59063247386000	-5.892729	6.952163	11.942877
59063254863000	-5.0158525	5.7179523	11.259332
59063265483000	-3.7684734	4.3568487	8.936956
59063274852000	-0.7182605	5.2235494	1.5586253
59063287120000	-0.7140707	8.274361	-6.919243
59063294871000	-3.6182373	11.422736	-5.2540755
59063305919000	-4.6279917	12.124237	-4.5220485
59063314921000	-3.9989154	12.167932	-4.650737
59063325602000	-3.7618895	9.980828	-2.5594015
59063334941000	-2.9299042	9.272743	0.49919105
59063345561000	-2.1146786	7.7530236	2.8526914
59063354991000	-1.9297266	6.5146227	4.9583917
59063366008000	-2.540248	5.7107697	5.9011087
59063374980000	-3.1693244	3.970185	5.828684
59063385661000	-4.1557355	4.9386396	5.3683987
59063394999000	-4.56275	6.211756	4.611831
59063405650000	-4.167108	9.037513	3.5182793
59063415019000	-5.7502737	7.739856	2.6390088
59063425731000	-5.3486466	6.237494	0.7673417
59063435038000	-4.39755	5.8634	0.931943
59063445720000	-3.3620577	6.284181	0.9756372
59063455088000	-3.028665	7.2544312	1.6675615
59063467296000	-3.6421793	8.207323	2.337938
59063475108000	-3.6529531	8.323442	2.8281507
59063486033000	-3.7972038	9.822212	3.6230257
59063495097000	-3.551798	7.4992385	3.095703
59063505748000	-4.023456	8.215105	3.0963013
59063515086000	-4.3400893	6.9928646	2.6928782
59063525737000	-5.357026	8.019379	2.724003
59063535167000	-5.883152	9.111135	2.6509798
59063546153000	-5.9226565	8.015787	4.6806645
59063555125000	-5.3043537	7.5722613	5.819706
59063565806000	-5.046977	7.301118	6.839636
59063575145000	-5.1996074	8.040328	5.86759
59063587596000	-4.7907977	11.145607	3.2393548
59063595195000	-4.0019083	11.234193	2.4636335
59063605937000	-1.4927847	10.397419	1.0235212
59063615275000	0.54647654	9.363124	0.5518635
59063625834000	-0.25079262	8.506598	-1.9027919
59063635203000	-3.127426	7.893683	-2.44029
59063647532000	-1.9626468	10.879252	-1.8459295
59063655253000	-0.8218097	14.669872	-0.5967548
59063666240000	-0.47884035	15.015236	-0.065242
59063675273000	-1.2719196	13.542203	0.3866636
59063685954000	-1.8237832	12.837709	0.83497787
59063695292000	-1.5705963	12.970588	1.501763
59063705973000	-1.1067197	13.447633	2.0141222
59063715342000	-1.0582372	13.447034	2.1960814
59063726359000	2.204461	18.066048	2.9454668
59063735331000	0.4878186	16.347609	2.7234044
59063746013000	-1.2587515	13.080122	1.3551182
59063755290000	-2.6007016	11.547833	0.60573304
59063765941000	-1.5945383	11.525687	0.5398925
59063775340000	-1.5717934	12.418724	0.41000703
59063786082000	2.111686	14.9386215	0.27952304
59063795359000	3.7792473	14.643537	-1.578976
59063806041000	3.3159695	13.418902	1.6478093
59063815348000	1.2192472	13.448231	2.7563248
59063827647000	-0.23163901	13.995306	1.2509704
59063835429000	1.7076644	12.755708	0.023343466
59063846415000	1.4053963	11.148601	-0.42916065
59063855418000	1.6346412	10.732009	-1.2641385
59063866069000	1.5161282	10.353127	-2.042254
59063875438000	1.1731589	10.475829	-3.0921116
59063886119000	0.60932434	11.08276	-3.4913447
59063895457000	-1.7549498	10.387244	-1.8339585
59063906535000	-9.910199	-0.019153614	6.1926026
59063915477000	-12.768278	-5.607819	15.901091
59063926188000	0.4369418	1.1677719	8.772355
59063935527000	-0.17537527	9.43914	-9.409811
59063946208000	-10.414778	16.143503	-8.608951
59063955516000	1.7190368	18.883068	-7.0826473
59063966288000	6.8599863	17.973871	-3.8271315
59063975535000	6.180033	10.041881	-2.6809072
59063986247000	2.4019828	5.8244944	-0.85173726
59063995585000	-0.7128736	5.310938	0.05207389
59064007853000	-2.8491	4.507085	0.5686229
59064015666000	-2.107496	5.084686	0.28670564
59064026652000	-1.484405	5.7383027	0.78170687
59064035655000	-1.1779473	6.775591	0.14425065
59064046306000	-1.5310919	7.7733746	-1.8956091
59064055705000	-2.088941	8.943541	-3.228581
59064066325000	-2.3391352	10.17835	-4.745308
59064075694000	-3.582923	10.388441	-2.6324248
59064086772000	-1.5987282	7.255628	-0.6063316
59064095713000	-0.03172317	5.6203885	-4.4657845
59064106364000	0.40402153	5.7400985	-3.776853
59064115733000	0.077213004	5.653309	-2.520496
59064126384000	-0.8062474	5.108628	-2.6390088
59064135783000	-1.5227122	4.6680946	-3.4967315
59064146495000	-1.7034745	5.044583	-3.0974984
59064155772000	-1.6873137	4.3640313	-1.8794483
59064166423000	-1.8686744	1.7304093	1.7723078
59064175761000	-2.0967221	2.5809495	-4.4077253
59064188060000	-3.1675289	2.753332	-6.166865
59064195842000	-3.7098155	3.799598	-4.064756
59064206828000	-2.505532	5.6305637	-3.2585084
59064215861000	-4.092888	7.0904284	-3.2184057
59064227183000	-5.6790466	7.313089	-4.1383777
59064236522000	-6.0363812	7.6572556	-5.7125654
59064247233000	-4.9200845	8.922591	-4.373608
59064256541000	-5.4527946	10.490793	-4.7536874
59064269786000	-7.626131	11.218631	-5.6545057
59064276561000	-7.790134	11.509526	-2.7299886
59064287150000	-9.1590185	11.407174	-9.046491
59064296580000	-8.965687	10.148422	-9.043498
59064307261000	-8.500613	9.064447	-7.2286935
59064316600000	-6.9000893	8.036138	-6.3099184
59064327311000	-6.3703723	6.208165	-6.4828997
59064336619000	-5.7670336	7.241862	-7.135918
59064347300000	-5.6778493	9.939528	-6.035184
59064356639000	-5.1050367	11.013328	-5.7598505
59064368846000	-2.6898856	10.724228	-5.0667295
59064376658000	-2.3026235	10.588357	-5.081693
59064387675000	-3.1082723	11.203667	-5.027225
59064396708000	-3.3955765	11.903373	-4.0934863
59064407328000	-4.023456	12.607267	-2.3612814
59064416697000	-4.6142254	15.2492695	0.8714894
59064427348000	-4.5382094	16.744448	1.1725603
59064436717000	-2.070386	15.031397	0.635062
59064447795000	0.20470424	9.51755	-2.0141222
59064456736000	0.5434838	6.554127	-2.4809916
59064467448000	0.6967127	5.0481744	-1.6226702
59064476756000	0.4830302	4.763264	-1.0726024
59064487468000	0.25079262	5.149329	-1.4317327
59064496775000	-0.3705027	5.864597	-1.6687586
59064507365000	-1.3940239	7.392098	-0.55246204
59064516703000	-2.3744495	8.203134	-0.0017956513
59064527324000	-3.9695864	8.0445175	1.1905168
59064536723000	-4.3478703	6.2620344	0.8026561
59064548991000	-3.7098155	4.2640734	2.4372973
59064556743000	-3.3087866	5.3678	3.2704794
59064567790000	-3.8444893	6.1824274	1.8752584
59064576762000	-4.3754034	5.8825536	1.0474633
59064587413000	-4.0503907	5.3157263	-0.2741361
59064596782000	-3.1962593	4.863222	-0.54049104
59064607463000	-2.1296425	7.5812397	1.1438298
59064616801000	-2.5647886	8.62152	1.6514006
59064627848000	-4.049194	8.2169	1.1827357
59064636821000	-3.8881836	7.7865424	2.8113914
59064647471000	-2.8981812	8.556877	3.904943
59064656810000	-5.6467247	7.3472066	-5.391742
59064667521000	-2.759916	7.759608	-4.5118732
59064676829000	0.3764882	9.138668	-1.8872294
59064687632000	0.22505496	8.798691	-0.5662287
59064696879000	0.005985504	8.726267	-0.13587095
59064709330000	0.040102877	9.249998	-0.12569559
59064716868000	-0.19871874	9.428965	-0.1933318
59064729106000	-0.008978256	9.038112	0.25737667
59064736888000	0.56323594	8.253412	0.31244332
59064747905000	0.7158663	7.7823524	0.4297592
59064756907000	-0.6793547	8.156446	-0.3309984
59064767619000	0.21787235	8.938153	0.41299978
59064776957000	0.878672	8.746018	0.3657143
59064787608000	-1.7621324	9.018359	1.276708
59064796977000	-2.6856956	9.533711	2.296638
59064807963000	-1.946486	9.69113	2.8078
59064816996000	0.46627077	9.902418	2.783858
59064827678000	0.090381116	10.063428	2.5959132
59064836985000	1.8477252	12.066776	0.6374562
59064847636000	2.0907366	12.23437	-0.017357962
59064857005000	2.4714148	12.113463	1.3275849
59064867808000	2.0147207	11.805809	3.0783448
59064877055000	1.5873557	11.975797	3.7068229
59064887706000	1.0714053	12.85806	2.8909986
59064897075000	0.70509243	13.752893	1.4227544
59064909282000	0.6973112	14.064738	0.6368576
59064917094000	0.9528923	14.08868	0.50876784
59064928141000	1.7561469	13.914502	0.79966336
59064937114000	1.7543513	13.679272	1.0480618
59064948008000	0.6242881	14.407108	1.7052702
59064957316000	-0.46327803	16.245855	0.9816227
59064967997000	-1.2617443	17.174208	0.3716998
59064977336000	-1.2826935	16.931196	1.882441
59064988566000	-1.508347	16.581043	1.5059528
59064997538000	-1.2138603	15.7586355	0.3597288
59065008311000	-0.61052144	14.905103	-0.08798691
59065017650000	0.4782418	14.000094	-0.87448215
59065028453000	1.2635399	12.90355	-0.6398504
59065037822000	2.235586	11.953052	0.07182605
59065048594000	2.7138276	11.10311	0.16879122
59065057841000	2.996942	10.86788	0.2681506
59065068705000	3.0520086	11.203667	0.9588778
59065078044000	2.5276785	12.230181	2.7060466
59065090342000	1.858499	13.460202	4.216788
59065098246000	0.49200845	14.325706	4.7896004
59065109263000	-2.4462755	14.329297	3.5392287
59065118266000	-0.90381116	15.972318	0.4405331
59065128978000	0.55126494	15.818491	-2.043451
59065148082000	1.5376761	14.768035	-2.835932
59065157389000	2.7377696	13.879786	-2.3092074
59065168467000	4.150947	13.992912	0.25617957
59065177409000	4.3478703	13.348273	3.1800983
59065188029000	4.1641154	12.084733	4.8386817
59065197429000	3.3423057	10.744578	4.5160627
59065208140000	2.345719	9.187749	1.0654198
59065217479000	1.536479	7.6602483	-2.0069396
59065228190000	0.5955577	6.441001	-2.4600422
59065237468000	-0.28431144	5.9023056	-1.1773487
59065248179000	-0.6159084	5.7059813	-0.64463884
59065257487000	-1.13964	5.33488	-0.077811554
59065269725000	-1.5173253	5.117606	1.1911154
59065277507000	-1.2958617	4.8069587	1.5903485
59065288554000	-1.1240777	3.9402575	1.536479
59065297526000	-0.6823475	3.378817	0.88405895
59065308238000	-0.036511578	3.0998926	0.65242
59065317576000	0.65421563	2.8006175	0.79367787
59065328257000	1.3000516	2.493561	0.997185
59065337565000	1.7513585	2.4720132	0.748188
59065348674000	1.9069817	2.705448	0.015562311
59065357615000	1.7806876	2.5474305	-0.9331401
59065368296000	1.5729905	2.2242134	-2.066196
59065377604000	1.4951789	1.7968484	-3.4901476
59065388255000	0.93613285	1.5849615	-4.172495
59065397654000	0.65301853	1.3748703	-5.3139305
59065408366000	0.57640404	1.4562732	-6.2087636
59065417643000	-0.020949265	2.3451207	-6.5188127
59065428355000	-1.1294646	4.027047	-6.3769565
59065437663000	-2.2254105	6.0782795	-6.6283474
59065449931000	-3.1124623	9.500193	-7.4483614
59065457682000	-3.5607765	15.003863	-8.042722
59065471080000	-3.4488475	19.51454	-7.301118
59065477702000	-3.4979286	19.608511	-7.270592
59065488353000	-2.8389246	19.608511	-8.1319065
59065497752000	-2.1332338	18.360535	-8.4347725
59065508311000	-1.4514848	11.738173	-7.1903863
59065517711000	-0.55844754	7.7626004	-6.892308
59065528727000	-0.6206968	5.4102974	-6.770204
59065537730000	-1.0259154	3.3686419	-6.2769985
59065548442000	-1.2467805	2.0745757	-6.3392477
59065557750000	-1.074398	4.3927617	-6.453571
59065568461000	-1.186327	8.710705	-7.2047515
59065577769000	1.1216835	11.289858	-7.8835077
59065588542000	3.6661212	13.739126	-6.992266
59065597789000	4.085107	17.580624	-5.1660886
59065608409000	3.881001	19.608511	-4.0396166
59065617869000	4.408324	19.608511	-3.0974984
59065630107000	4.160524	17.949928	0.44711718
59065637858000	4.2461166	8.910022	4.557363
59065648845000	4.620809	1.8734628	6.0627174
59065657847000	5.2319293	-2.3942018	5.947197
59065668559000	6.569091	-3.86484	4.7255554
59065677897000	6.26383	-1.4903905	1.3880384
59065688609000	2.2780828	3.5805287	-4.291008
59065697856000	-2.0404584	9.216479	-5.358822
59065708934000	-5.6060233	12.375628	0.50517654
59065717875000	-6.4864907	15.734095	8.783129
59065728526000	-6.724714	18.40782	12.958616
59065737895000	-7.1107793	18.0032	10.31063
59065748607000	-5.309741	15.004462	3.4620156
59065757914000	-1.7932571	11.143812	-1.9907787
59065768626000	0.688333	7.926005	-4.2341456
59065777934000	2.0967221	6.0040593	-3.603872
59065788585000	2.653374	4.9781437	-1.7723078
59065797953000	2.7365725	5.01286	-1.168969
59065810222000	2.717419	5.8454432	-0.31783026
59065817973000	1.8836381	7.255628	0.9020155
59065828990000	1.364695	9.000402	2.3720553
59065837993000	0.23942018	9.785102	2.429516
59065848643000	-1.3072342	9.48882	2.2505496
59065858012000	-1.3042414	9.727043	1.5562311
59065868663000	-1.1073183	9.759365	0.87927055
59065878032000	-0.88645315	9.667787	0.42437226
59065889079000	-0.6931214	9.0716305	0.046088383
59065898051000	-0.66379243	8.204929	-0.110731825
59065908702000	-0.38486794	7.619547	0.6404489
59065918040000	-0.027533319	7.4681134	1.6136919
59065928721000	0.43873745	7.8942814	2.3535004
59065938060000	1.3796587	8.443152	1.9608512
59065948832000	2.0081367	8.620323	0.58538234
59065958079000	1.6334441	8.938752	-0.80205756
59065968760000	0.3321955	8.980052	-1.1875241
59065978129000	-1.4622587	8.157045	-0.0796072
59065990397000	-3.040636	7.8613615	1.0390835
59065998118000	-4.1132383	8.914211	0.5793968
59066009257000	-3.7325604	10.511743	0.22744916
59066018229000	-2.2732944	11.265916	1.2934675
59066028941000	-0.6452374	11.218032	2.4720132
59066038249000	0.5327099	11.054627	2.2451627
59066051005000	0.9259575	11.048642	1.4873978
59066058299000	0.059855044	10.938509	1.4939818
59066069346000	-0.9983821	11.11149	1.151611
59066078288000	-1.3611037	11.708245	0.0712275
59066088939000	-1.3329718	12.316971	-0.9008184
59066098307000	-1.1258733	12.423512	-1.2240356
59066109019000	-1.2683283	12.533048	0.3298013
59066118327000	-1.0372878	14.641741	1.4347254
59066129100000	-0.39145198	16.581642	0.09696517
59066138347000	-0.7787141	15.249867	-0.03172317
59066149058000	-1.2958617	13.800179	0.7918822
59066158366000	-0.7942764	13.200431	0.6560113
59066170665000	0.14185645	13.191453	-0.29508537
59066178386000	1.3928268	13.274053	-1.1150994
59066189372000	3.156755	12.667721	-1.8309658
59066198405000	4.613028	12.187684	-2.484583
59066209086000	3.7433343	11.880029	-1.1258733
59066218425000	1.8309658	11.894993	2.1122844
59066229136000	0.9660604	13.636176	5.5778913
59066238444000	0.8146271	15.890915	6.8749504
59066249522000	1.3581109	18.123508	5.1960163
59066258464000	1.1569979	19.401413	3.1232362
59066269145000	0.4225766	18.15643	0.712275
59066278483000	-0.0023942017	15.816096	-2.529474
59066289164000	-0.2825158	14.547768	-4.2981906
59066298533000	-0.06344634	14.481329	-3.1759086
59066309275000	1.0528502	15.061923	0.16519992
59066318522000	2.291251	15.50904	3.7978024
59066329173000	3.5847185	14.973936	5.5407815
59066338542000	3.4596214	13.523049	6.2446766
59066350840000	3.168726	11.903373	2.2337902
59066358561000	3.0268695	10.915166	-0.6183026
59066369548000	2.493561	9.365519	-1.2719196
59066378581000	1.6807296	7.301717	0.74758947
59066389293000	1.941099	4.899135	1.3581109
59066398631000	-1.3545196	2.734777	0.79248077
59066409282000	0.5153519	4.257489	1.043872
59066418650000	2.658761	3.6212301	2.6060886
59066429698000	2.6629508	1.7669208	3.1196449
59066438639000	2.134431	0.35254622	2.4768016
59066449351000	1.5927427	-0.6242881	2.3612814
59066458659000	2.1745336	-0.9624691	1.8788497
59066469340000	2.2864625	-1.0432734	0.99658644
59066478679000	1.9883845	-0.7248446	0.048482586
59066489451000	1.8261774	-0.21188685	-0.878672
59066498698000	1.7405846	0.47105917	-1.7663223
59066509288000	2.0039468	1.216853	-3.019687
59066518657000	1.9177556	1.513734	-4.8141413
59066530864000	2.0057425	2.3523033	-6.517017
59066538646000	2.0135236	3.8977604	-7.419631
59066549662000	0.83258367	4.8057613	-8.667608
59066558665000	-0.41060558	7.2005615	-8.929175
59066569316000	-1.0600328	10.447099	-9.275137
59066578685000	-1.780089	14.210186	-8.777742
59066589366000	-1.6741456	18.12291	-6.731298
59066598704000	-1.3180081	19.608511	-5.692813
59066612101000	-0.6841431	19.608511	-9.084799
59066618693000	-0.31124622	18.176779	-10.447698
59066629374000	0.63206923	13.466786	-9.888053
59066638743000	0.88645315	10.560823	-8.786121
59066649394000	0.81881696	9.952697	-8.667608
59066658763000	-0.6841431	10.125079	-8.749012
59066669505000	0.35075054	10.940904	-10.568604
59066678752000	2.2990322	11.770494	-10.597934
59066689463000	2.4025815	14.929045	-7.3124905
59066698802000	3.4889505	18.189947	-4.747702
59066711039000	4.672883	18.19713	-5.4976854
59066718821000	2.569577	15.411476	-5.8598084
59066729838000	-0.8194155	9.824607	-4.1198225
59066738841000	-0.6266823	2.260725	2.5504234
59066749522000	2.4187422	-3.2626984	7.000047
59066758860000	4.9583917	-2.8113914	5.834071
59066769572000	5.81791	0.4201824	5.567716
59066778880000	3.0466216	4.9679685	1.0839748
59066789958000	-1.0235212	9.783905	-4.585495
59066798900000	-3.3752258	13.660716	-4.0821137
59066809581000	-4.51726	16.333843	4.028843
59066818919000	-4.8039656	17.495628	9.011775
59066829600000	-3.9785647	16.515802	7.8625584
59066838939000	-2.9993362	13.375208	3.764882
59066849711000	-1.9728222	9.718663	-0.78888947
59066858958000	-1.3347675	7.6590514	-1.882441
59066869578000	-0.8146271	6.503849	-2.3157916
59066878978000	-0.82121116	4.720767	-2.8203697
59066891246000	-1.0324994	4.1545386	-3.0442274
59066898997000	0.91697925	6.5230026	-0.36631286
59066910075000	3.5847185	8.828619	2.9640217
59066919017000	3.4584243	9.816227	1.5969325
59066929698000	2.6617537	9.692925	1.0827777
59066939036000	1.271321	8.806473	0.29747957
59066949687000	0.32441434	8.257003	0.25797522
59066959056000	-0.2765303	7.9475527	0.4165911
59066970164000	-0.53091425	7.5812397	0.5117606
59066979075000	-0.6422446	7.215525	0.31304187
59066989695000	-0.9091981	6.6708446	0.59735334
59066999095000	-0.6326678	6.493075	0.45669398
59067009868000	-0.3393781	6.5864487	1.4508862
59067019389000	0.41838676	7.4136457	2.4558525
59067030192000	1.4191631	7.961319	2.878429
59067039409000	2.8868086	8.619126	2.6264393
59067050151000	4.1078515	8.785523	1.0654198
59067059611000	3.2824504	8.325836	-0.61411273
59067071971000	0.40821138	8.264784	-0.8403648
59067079631000	-1.79206	8.814254	-0.6655881
59067090648000	-2.6437972	9.270947	-0.43275195
59067099803000	-2.9777884	9.658808	0.44232875
59067110514000	-1.9548657	10.73979	1.0893618
59067119822000	-0.6937199	11.729194	1.4550761
59067132945000	0.36152446	11.4837885	1.7513585
59067140086000	1.5711949	11.456854	1.8207904
59067151164000	1.7447745	11.855488	1.4514848
59067160197000	0.80804306	12.035652	1.4802152
59067171000000	-0.5602432	11.743559	1.8764555
59067180308000	-1.1540052	12.091916	1.8166006
59067190959000	0.7326257	14.082096	0.9708488
59067200297000	-1.2743138	11.355699	-2.903568
59067219401000	-3.6727054	9.6923275	-2.3092074
59067230143000	-3.7181952	13.895349	1.5376761
59067239421000	-2.0153193	18.164808	1.2497733
59067251750000	-1.6980876	16.335638	-0.6572084
59067259440000	-1.4383167	14.983513	-0.049081136
59067270457000	-0.7224504	14.504672	-1.1282675
59067279460000	1.1731589	14.359823	-0.10594343
59067290171000	3.2369606	13.612234	1.5167267
59067299479000	4.610634	13.849259	1.4682442
59067310222000	3.8564603	13.824719	0.8996213
59067319499000	2.3511062	13.891757	2.5288756
59067330577000	1.335366	14.496293	4.473566
59067339518000	1.3371617	16.536152	4.743512
59067350261000	1.0594343	18.051682	4.0653543
59067359538000	0.4345476	18.051085	3.2489316
59067370250000	0.0700304	17.435175	2.2517467
59067379557000	1.0049661	16.649878	0.32680854
59067390330000	2.421735	15.154698	-1.4856021
59067399577000	3.3387144	12.944251	-1.560421
59067410289000	4.4077253	12.065579	-0.6787562
59067419597000	3.7223852	11.611878	0.6973112
59067431926000	2.9299042	11.046248	1.9883845
59067439616000	1.9327193	9.009381	1.9548657
59067450663000	1.8746599	7.650073	1.5077485
59067459636000	1.2671312	6.7761893	0.31364042
59067470347000	1.3706805	6.6882024	-0.6368576
59067479686000	1.3443443	7.1365166	0.40761283
59067490428000	0.8110358	7.3633676	1.8070238
59067499705000	0.2172738	7.350199	3.366846
59067510753000	-0.9091981	5.8107276	3.5470097
59067519725000	-0.004189853	4.789002	3.98874
59067530406000	0.08259996	2.6497827	3.7002387
59067539744000	1.4772224	2.344522	3.8385038
59067550303000	1.8393455	1.8800468	4.0857053
59067559642000	1.858499	1.7645266	3.8001966
59067570414000	2.1254525	2.9107506	3.477578
59067579661000	1.7818847	3.8235402	2.3852234
59067590281000	2.2798786	4.743512	0.908001
59067599681000	2.6408045	4.795586	-0.52612585
59067611979000	2.8461072	4.2275615	-1.8046296
59067619700000	3.1411927	3.5727475	-2.959832
59067630687000	3.518878	3.5691562	-3.5823243
59067639720000	3.518878	4.3634324	-3.3680432
59067650431000	3.240552	5.855619	-3.4302924
59067659739000	2.7880478	7.727885	-5.0960584
59067670390000	1.9027919	9.727641	-7.44896
59067679759000	0.0700304	13.687651	-10.83077
59067693065000	-2.046444	17.571047	-13.302783
59067699778000	-2.8724434	19.527708	-13.676877
59067710399000	-1.946486	18.63048	-14.000693
59067719798000	-0.3633201	15.912463	-11.145009
59067730479000	0.6218939	14.112023	-7.650073
59067739817000	1.4640543	12.736554	-5.858013
59067750499000	1.8626889	10.340557	-5.1439424
59067759806000	1.062427	7.8996687	-4.811148
59067770518000	-0.21547815	8.867524	-3.8468835
59067779857000	1.899799	10.7356	-6.2345014
59067792155000	3.4195185	11.303625	-8.5778265
59067799876000	2.882619	14.031817	-9.288305
59067810893000	2.1164744	16.656462	-8.373122
59067819896000	2.4355016	17.146076	-6.117784
59067830577000	2.5779567	10.436325	-0.21667525
59067839915000	6.408081	4.647744	7.4232225
59067850596000	8.214506	2.670732	9.34038
59067859935000	11.469423	3.019687	9.329605
59067871013000	10.821792	3.1304188	3.2603042
59067879924000	6.880337	5.3522377	-6.2644286
59067890605000	2.2284033	9.972448	-7.1861963
59067899974000	-1.7735049	13.648147	0.30585927
59067910655000	-3.3243492	15.71135	6.927623
59067919993000	-4.048595	16.804901	10.238804
59067930705000	-4.964976	16.948553	7.740454
59067940043000	-6.6415157	13.950415	3.1842883
59067950694000	-6.4362125	10.86788	0.55006784
59067960063000	-4.743512	8.207323	-0.8822633
59067971660000	-2.3834279	6.1764417	-1.3724761
59067979411000	-0.11791443	5.204396	0.12449849
59067990458000	1.9542671	5.3636103	1.7657237
59067999461000	3.0137014	6.235698	1.7567455
59068010203000	3.2441432	7.433398	1.0253168
59068019511000	3.3602622	9.043498	0.8750807
59068030192000	2.1428106	9.244612	0.061650693
59068039531000	1.4077905	8.6257105	-0.24001873
59068050608000	0.694917	8.338406	0.021547815
59068059550000	0.24720132	8.871116	-0.85473
59068070231000	-0.2220622	9.036316	-1.0324994
59068079570000	-0.0047884034	8.887876	-0.44592008
59068090281000	0.2896984	7.926005	0.43035775
59068099589000	0.74519527	6.7785835	1.42455
59068110331000	1.3802572	6.0998273	1.7585411
59068119609000	1.7723078	6.351817	1.4514848
59068130290000	2.1146786	7.0251865	1.7262194
59068139628000	2.2517467	7.8326306	0.2813187
59068151957000	1.6130934	8.491635	-1.1510124
59068159617000	0.31603462	8.915408	-0.74519527
59068171000000	-1.2473791	8.9842415	-0.18195933
59068180369000	-2.914342	8.665215	0.50876784
59068191050000	-3.8217444	9.12131	0.84096336
59068200450000	-3.3680432	10.292673	1.4580688
59068211070000	-1.376666	11.298238	2.819771
59068220408000	0.20231004	10.947487	3.1723173
59068233714000	0.95708215	10.836756	2.4785974
59068240428000	0.9648633	11.234792	2.1350293
59068251078000	0.4417302	11.924321	1.685518
59068260417000	-0.034715924	12.738949	0.4285621
59068271067000	-0.2088941	13.303382	-0.64942724
59068280436000	-0.3597288	13.528437	-0.45848963
59068291209000	-0.6362591	15.293562	1.4454993
59068300456000	-0.19632454	18.282124	1.7064673
59068311168000	0.035913024	17.91222	1.3335704
59068320506000	0.14963761	16.417042	1.1857284
59068332774000	0.79248077	15.543158	0.42317516
59068340556000	1.4891934	14.862007	0.0035913025
59068351512000	1.8950106	13.479954	-0.39264908
59068360576000	2.9951463	12.286445	-1.2808979
59068371196000	3.7828386	12.166735	-2.7593174
59068380565000	2.7527335	12.879009	-1.7776948
59068391276000	1.353921	13.628395	1.6927006
59068400584000	0.1364695	15.363592	5.00448
59068411601000	-1.1534066	17.132309	6.851008
59068420573000	-1.6328455	19.032707	6.247669
59068431315000	-0.7918822	19.605518	3.2495303
59068440593000	0.19632454	18.179771	-0.18315643
59068451304000	1.3006501	15.875952	-2.9191303
59068460673000	2.2631192	14.924256	-3.715801
59068471446000	3.9845502	15.780782	-1.9446903
59068480693000	7.045537	16.737864	1.887828
59068491313000	7.323863	15.850812	6.355408
59068500682000	5.693412	13.946225	8.2354555
59068513041000	3.750517	10.919355	4.4915223
59068520732000	2.4486697	7.9822683	-0.28550854
59068531718000	1.9877859	5.8185086	-2.2092497
59068540721000	0.7380127	3.728969	-2.337938
59068551371000	0.3854665	4.018069	-0.8319851
59068560710000	-0.24061728	4.848857	1.1701661
59068571330000	-0.96426475	4.8428717	3.0148985
59068580729000	-1.1893197	3.9815574	4.7099934
59068591777000	-0.36391866	2.9358897	4.5675383
59068600749000	0.20350714	2.4768016	3.7672763
59068611400000	0.2172738	1.6968905	2.546832
59068620768000	0.59615624	0.9163807	2.2301989
59068631389000	1.0869676	0.48362875	2.5288756
59068640757000	1.3401544	0.50397944	2.5372553
59068651530000	1.5813702	0.8948329	2.3654714
59068660777000	1.7136499	0.8762778	1.8285716
59068671458000	1.881244	0.47524905	0.0664391
59068680827000	1.9297266	0.013766659	-2.0697873
59068693034000	2.2613235	-0.6015432	-4.209605
59068700816000	2.5611973	-0.12808979	-5.5964465
59068711894000	1.9560628	2.349909	-5.8424506
59068720866000	0.5602432	4.623802	-5.8322754
59068731486000	-0.5518635	6.4667387	-5.946
59068740855000	-0.91219085	8.611345	-7.017405
59068751506000	-1.0899603	12.777855	-8.352173
59068760875000	-0.65421563	18.86631	-8.766968
59068774241000	-0.5823896	19.608511	-8.231265
59068780925000	-0.9864111	19.608511	-9.714474
59068791575000	-1.186327	19.503765	-11.395203
59068800944000	-2.1350293	13.511079	-10.669162
59068811595000	-3.2692823	7.5255747	-8.857947
59068820964000	-3.2333694	5.427057	-8.187572
59068831706000	-2.4169466	4.0521865	-7.1610575
59068840953000	-1.0929531	3.5272577	-6.59423
59068851634000	-0.45250413	6.640917	-6.3123126
59068861003000	0.25737667	10.51713	-8.655039
59068873240000	1.1372458	12.0488205	-9.099164
59068880992000	2.5187001	13.596671	-7.374141
59068892192000	4.3448777	16.965313	-4.4807487
59068901072000	4.12102	17.702728	-2.3157916
59068911692000	3.7433343	14.32391	-1.8680758
59068921031000	4.997896	8.284536	3.9863458
59068932628000	6.333262	3.8025908	7.507618
59068941203000	6.4858923	1.8136078	6.2859764
59068952128000	7.7051396	1.7531542	2.6276364
59068961070000	6.797737	3.506907	-3.8720226
59068971751000	2.8987796	7.477092	-8.5700445
59068981089000	-0.91578215	11.410167	-4.2036195
59068991740000	-3.9193082	13.187263	4.7644615
59069001139000	-5.5461683	14.490307	10.520123
59069011760000	-4.992509	15.897499	11.432912
59069021037000	-5.5539494	15.887324	9.011177
59069031718000	-5.995081	13.866019	4.587889
59069041056000	-4.2143936	11.319187	0.41240123
59069053294000	-2.1883004	8.707113	-2.1350293
59069061076000	-0.7433996	6.535572	-2.2583308
59069072123000	0.5793968	5.415684	-1.3174095
59069081126000	2.2649148	5.363012	-0.31304187
59069091868000	3.2555158	6.3272767	0.10534488
59069101115000	3.675698	7.73387	0.36152446
59069111857000	2.919729	8.986037	1.2563573
59069121318000	1.5945383	9.463082	0.90620536
59069132426000	0.5351041	9.371504	-0.2777274
59069141337000	-0.24959552	8.91062	-1.1228806
59069152049000	-1.086369	8.606557	-1.1252748
59069161540000	-1.1049241	8.901043	-0.2148796
59069172252000	-0.46866497	8.769362	-0.025737667
59069181559000	0.32321724	8.160038	0.3321955
59069192363000	0.99538934	7.189189	1.0235212
59069201732000	1.5029601	6.2925606	1.7208325
59069212443000	2.4762032	6.5098343	2.3439236
59069221812000	3.0813377	7.638102	2.2948422
59069234080000	2.40318	8.683171	-0.38307226
59069241984000	0.7751228	9.080608	-2.0482395
59069252971000	-1.6406267	8.924387	-0.97144735
59069262004000	-3.3728316	8.742428	0.6961141
59069272868000	-4.390966	9.160215	1.977012
59069282176000	-4.098873	10.359112	1.9818004
59069292888000	-2.0440497	11.208455	1.7699136
59069302195000	0.08439561	11.139622	2.247557
59069321360000	1.2401965	10.900202	2.1691468
59069332011000	1.2180501	11.219828	2.2870612
59069341349000	0.025139118	11.8578825	1.8884265
59069352061000	-0.9876082	12.44087	0.048482586
59069361369000	-1.525705	13.043611	-1.323395
59069372081000	-1.3395559	13.108254	-1.7250223
59069381389000	-1.216853	12.389396	-0.34596214
59069392070000	-0.9223662	13.61762	1.5269021
59069401408000	-0.32022446	16.988058	1.1767502
59069413676000	0.05267244	17.476475	-0.3405752
59069421428000	0.25857377	16.127342	-0.011971008
59069432505000	0.7320272	15.085865	0.4782418
59069441447000	2.0057425	14.302362	-0.7978677
59069452128000	2.955642	13.074137	-1.8351556
59069461467000	3.9971197	12.155961	-2.4905684
59069472148000	4.272453	12.2559185	-1.7776948
59069481486000	2.879626	11.94168	1.6879122
59069492595000	1.5652094	13.035232	5.6509147
59069502055000	0.51475334	15.717336	7.2687964
59069512248000	0.41240123	18.786104	6.083068
59069521647000	0.10354923	19.608511	4.3239284
59069532298000	-0.27234045	19.307442	2.3529017
59069541667000	-0.02633622	16.510414	-0.85293436
59069552470000	0.5129577	14.360422	-3.7463272
59069561656000	1.4305356	14.347853	-4.208408
59069572337000	2.3540988	14.894329	-2.2810757
59069581675000	5.1559134	15.632341	1.1510124
59069593913000	8.575432	16.136919	5.0547585
59069601695000	7.565677	14.322713	7.0706763
59069612712000	5.535993	11.063007	4.098873
59069621745000	4.220978	8.429984	0.18136078
59069632335000	3.5212722	7.0784574	-0.8714894
59069641734000	2.0009542	5.489306	-1.2162545
59069652446000	-0.044891283	4.2957964	-1.0546459
59069661754000	-1.2838906	3.8780081	0.020350715
59069672801000	-1.340753	3.6014779	2.4349031
59069681773000	-0.6997054	2.9801826	4.250905
59069692485000	0.16639702	2.3403323	3.976769
59069701793000	0.3345897	1.7441759	3.1717186
59069712504000	0.7086837	1.2066777	2.498948
59069721873000	0.830788	0.6691794	1.9865888
59069732554000	1.074398	0.023343466	1.3694834
59069741893000	1.4359225	-0.06584055	0.8002619
59069752513000	1.9614497	0.25258827	0.13706805
59069761912000	2.043451	0.3477578	-0.5303157
59069774119000	1.8986019	0.48841715	-1.4083891
59069781901000	1.5735891	0.52732295	-2.633622
59069792888000	1.2623428	0.31543607	-3.899556
59069801951000	1.411382	0.18375498	-4.9386396
59069812571000	1.5729905	1.7172412	-4.71538
59069821940000	1.1659763	3.8355112	-4.596867
59069832591000	-0.13587095	5.927445	-3.9977183
59069841960000	-1.2797008	8.615535	-4.845266
59069852977000	-2.2631192	14.195222	-7.6093717
59069861979000	-3.6535518	19.513342	-10.554239
59069874858000	-4.771644	19.608511	-9.880272
59069881999000	-3.306991	19.608511	-9.526528
59069892619000	-1.2120646	19.106329	-11.612476
59069902049000	-0.5291186	12.376227	-11.349114
59069912730000	-0.65421563	7.5549035	-9.674371
59069922038000	-0.7098808	5.8663926	-9.116522
59069932628000	-0.47405192	4.847061	-8.55149
59069942057000	-0.5201403	4.573524	-6.901885
59069954264000	-1.0301052	8.200141	-4.4274774
59069962046000	1.1659763	11.435306	-6.0980315
59069973063000	3.4685998	12.497134	-7.165247
59069982066000	3.3806129	13.686454	-7.013814
59069992747000	2.4319103	16.372747	-7.665635
59070002147000	3.2609026	17.467497	-7.7189064
59070012706000	3.6134489	15.912463	-6.4900823
59070022044000	3.5805287	11.312004	-0.21308395
59070033030000	4.390966	5.6724625	5.9029045
59070042064000	4.2598834	1.3958195	6.7534447
59070052714000	4.1575313	-0.5781997	6.327875
59070062053000	4.8201265	0.050876785	3.4955344
59070072764000	3.9665937	2.6509798	-1.8830396
59070082133000	0.93613285	7.7919292	-6.5110316
59070092784000	-2.6593595	12.027272	-3.9893386
59070102092000	-4.9536033	13.992313	4.4993033
59070112773000	-4.759074	15.576676	10.50037
59070122111000	-4.812944	16.351799	10.729615
59070134379000	-5.1780596	15.239693	6.7893577
59070142131000	-4.4047327	12.476185	1.4808137
59070153148000	-2.3894134	9.474455	-2.5079262
59070162150000	-0.6440403	7.0964136	-3.9133227
59070172770000	0.25258827	5.4881086	-2.9257145
59070182139000	0.985214	4.953005	-1.2449849
59070192851000	1.5358804	5.603629	0.14664486
59070202189000	1.83336	7.339425	0.5279215
59070213206000	2.5133133	9.156625	0.5931635
59070222209000	2.802413	10.117896	1.5502456
59070232890000	2.0057425	10.263344	1.9357121
59070242228000	1.174356	9.739613	1.6172832
59070252940000	0.87328506	9.099762	0.8074445
59070262248000	0.34476504	8.435969	0.56802434
59070272990000	0.21787235	8.073248	0.6536171
59070282267000	0.89603	7.9248075	0.027533319
59070292949000	1.0630256	7.2340803	-0.12868834
59070302287000	1.258153	6.4242415	1.0534488
59070314555000	1.5041572	6.0824695	3.0172927
59070322337000	2.094328	6.549339	3.994127
59070333354000	2.980781	7.674015	2.3678656
59070342357000	3.3123782	8.656835	-0.89303726
59070353007000	2.4905684	9.064447	-1.8764555
59070362407000	0.87448215	9.088389	-0.10175357
59070373057000	-1.049259	8.944737	1.6382325
59070382396000	-3.0921116	9.306861	1.4694413
59070393443000	-3.964798	10.386047	0.11192893
59070402415000	-2.1679497	11.27669	0.54168814
59070413096000	0.43634325	11.046846	2.5953147
59070422435000	1.6968905	10.532093	3.3081882
59070435008000	1.079785	11.11149	2.8868086
59070442454000	-1.3180081	12.182297	2.7024553
59070453166000	-3.1190462	13.087904	1.4700398
59070462474000	-3.4859576	13.765463	-0.077213004
59070473094000	-2.677316	14.033014	-0.95708215
59070482524000	-2.11827	13.998299	-0.11671733
59070494700000	-1.9722236	15.547347	0.87448215
59070502482000	-1.7806876	17.246632	-0.037708677
59070513621000	-2.3690627	16.30571	0.038307227
59070523265000	-2.9215245	14.952987	0.5602432
59070533427000	-2.095525	14.095862	0.019752163
59070542704000	-0.53570265	12.592902	-1.0779893
59070553416000	0.6721721	12.005724	-1.1971009
59070562693000	2.6162639	12.227188	-0.23104046
59070573771000	4.993108	13.197438	0.25378537
59070582744000	5.893926	13.814544	1.881244
59070593303000	5.456984	14.638149	4.1401734
59070602763000	3.952827	16.039955	5.530606
59070613414000	3.1711202	17.281946	5.137358
59070623118000	3.2423477	18.331804	3.406949
59070633464000	2.484583	18.031332	2.1721394
59070642161000	1.54845	16.046537	0.6075287
59070652751000	1.3204023	14.577097	-1.9255368
59070662150000	1.3880384	14.543578	-3.8456864
59070674510000	1.5616181	15.264233	-3.2543187
59070693339000	7.939771	18.061857	3.4081461
59070712748000	5.7748146	13.187861	7.6213427
59070722331000	3.9504328	10.258555	4.256292
59070742167000	1.0989386	5.266645	-2.086547
59070753398000	-0.60094464	3.9444473	-2.8257565
59070772929000	-0.93373865	3.9606082	1.6531962
59070782451000	-0.30645782	3.192668	4.4394484
59070802165000	0.2861071	1.8620903	2.8766334
59070812907000	0.94211835	1.2964603	2.2756886
59070833781000	1.436521	-0.37229836	1.4095862
59070842906000	1.9087774	-0.700304	1.3227965
59070862925000	2.2176294	-0.5518635	0.37828386
59070873973000	2.1571758	-0.31064767	-0.33877954
59070882975000	1.9416976	-0.17717093	-1.5125369
59070902995000	0.9744401	-0.40402153	-4.6806645
59070913615000	0.99419224	0.3866636	-5.477335
59070923014000	0.5021838	2.516306	-5.4539914
59070943034000	-1.7316064	7.743447	-7.247847
59070953654000	-2.3080103	13.083714	-9.419388
59070963023000	-2.1033063	19.369091	-10.940305
59070975688000	-2.1428106	19.608511	-8.294712
59070983073000	-0.90141696	19.608511	-6.987478
59071003062000	-0.8158242	13.277644	-11.045051
59071014933000	-1.0295067	7.1670427	-10.375273
59071022960000	-1.8154035	4.9865236	-10.158598
59071035228000	-1.9961656	3.5452142	-9.642648
59071042979000	-1.9674352	3.3512838	-7.4615297
59071053996000	-0.7380127	6.913856	-5.8065376
59071062999000	2.3157916	10.061633	-7.666234
59071073680000	4.1395745	11.434708	-7.382521
59071083018000	4.635773	13.694834	-6.3643866
59071093699000	5.2235494	17.422007	-5.303157
59071103038000	5.291186	19.29906	-4.423288
59071114085000	4.3646297	16.328455	-1.5711949
59071123057000	4.753089	9.102755	4.9518075
59071133708000	5.0787005	3.0538042	7.482479
59071143077000	5.027225	0.7086837	7.1107793
59071153758000	5.6425347	1.1857284	3.4943373
59071163096000	4.964976	4.3382936	-2.7114334
59071173900000	1.8393455	9.451111	-6.165668
59071183116000	-2.124854	12.926893	-2.4642322
59071193797000	-4.111443	13.857639	6.057929
59071203166000	-4.0013094	14.558542	12.148778
59071215403000	-3.9438488	14.747684	12.0093155
59071223155000	-4.8069587	13.957598	6.9707184
59071234202000	-4.887164	11.61547	1.0079589
59071243205000	-3.389591	9.482835	-2.0787656
59071253856000	-1.5921441	7.9475527	-2.553416
59071263194000	-0.4961983	6.3709707	-1.508347
59071273875000	0.4225766	5.5880666	-0.093373865
59071283244000	1.0480618	5.740697	0.5374983
59071294444000	2.0129251	6.993463	0.65242
59071303416000	3.0699651	8.346786	1.0360907
59071314067000	2.7252002	8.758589	1.2054806
59071323436000	1.596334	8.492832	0.504578
59071334330000	0.6596026	8.232463	0.54408234
59071343638000	-0.207697	8.24204	0.6871359
59071354411000	-0.24420857	8.631097	0.93852705
59071363658000	-0.6386533	8.376115	1.4083891
59071374492000	-0.79248077	7.8062944	1.6484078
59071383860000	-0.3824737	7.5854297	1.8183962
59071396098000	0.22385786	7.3789296	1.8405426
59071403849000	1.4341269	7.6644382	1.8537107
59071415080000	2.4187422	8.145074	0.88944596
59071424052000	2.3062148	8.591593	-0.4938041
59071434733000	1.1504139	9.218275	-1.2503718
59071444102000	-0.85173726	9.715072	-0.38486794
59071454936000	-2.690484	9.537302	-0.024540568
59071464274000	-4.1024647	9.045893	0.15682021
59071475352000	-4.07553	9.45171	1.0366893
59071484294000	-2.6503813	10.164583	1.8968062
59071504313000	-0.32441434	10.878056	2.6563668
59071516093000	1.5568297	11.340137	2.2780828
59071523509000	2.0763714	11.692682	1.4401124
59071534251000	0.89603	11.900978	1.6424223
59071543498000	-0.89603	11.972205	1.8471266
59071554118000	-2.0296845	12.140398	1.0384849
59071563517000	-2.3995886	12.44087	-0.32621
59071575755000	-2.0572178	12.669517	-1.2689269
59071583567000	-1.7501614	12.451046	-0.66738373
59071594554000	-1.6897079	13.867216	1.4586674
59071603556000	-1.110311	17.618332	1.5059528
59071614238000	-0.28491	18.349161	0.5069722
59071623576000	0.05925649	16.464926	0.682946
59071634257000	0.62249243	15.390527	1.3311762
59071643596000	1.7651252	14.823101	0.62847793
59071654643000	3.1908724	14.448409	-1.8620903
59071663615000	4.622605	14.351443	-3.6134489
59071674296000	5.5467668	14.578294	-1.988983
59071683635000	5.0134583	12.9484415	1.7884687
59071694346000	3.6727054	12.491747	5.9567738
59071703654000	1.8495208	14.477737	7.091027
59071714427000	0.90021986	17.034147	4.9188876
59071723674000	0.13826515	19.164387	2.8323407
59071734294000	-1.2623428	19.363705	1.6543933
59071743693000	-1.0606314	18.033127	-0.7332243
59071755961000	-0.142455	16.229095	-3.8762126
59071763774000	0.8798691	15.106814	-4.332308
59071774760000	2.396596	15.060127	-1.3599066
59071783732000	5.2660465	15.20797	2.0207062
59071794352000	8.564658	15.036784	4.301183
59071803782000	7.9313917	13.390172	7.0545154
59071814433000	6.0758853	10.195708	4.55856
59071823771000	4.213795	6.6654577	0.362123
59071834849000	3.1477766	5.115212	0.16879122
59071843791000	1.3227965	4.2754455	1.0444705
59071854472000	-0.11851298	3.9839516	0.5446809
59071863841000	-1.1719618	3.4404678	1.2677298
59071874431000	-1.2868834	2.5288756	2.110489
59071883830000	0.038905777	2.0937295	2.6001031
59071894572000	0.8319851	1.192911	2.6737247
59071903849000	1.1007342	0.27473465	2.4361002
59071914531000	1.2000936	-0.5129577	1.875857
59071923869000	1.0169371	-0.8331822	1.7322049
59071936107000	1.0390835	-0.99658644	1.6639702
59071943889000	1.1348516	-0.9295488	1.602918
59071954905000	1.1899183	-0.4770447	1.1923125
59071963908000	1.0869676	-0.39444473	0.40880993
59071974589000	1.01574	-0.66139823	-1.055843
59071983928000	1.1079168	-0.9564836	-3.305794
59071994609000	1.0205284	-0.32321724	-5.177461
59072003978000	0.62847793	1.4161704	-6.1938
59072015025000	0.34955344	3.5805287	-6.6480994
59072024089000	-0.18555063	5.99149	-6.589442
59072034739000	-1.1091139	9.9951935	-6.589442
59072044078000	-2.143409	17.084425	-8.12233
59072054789000	-2.6126726	19.608511	-8.686164
59072064128000	-2.4181437	19.608511	-9.489418
59072076823000	-1.0474633	19.608511	-11.659163
59072084117000	-0.8858546	17.984644	-13.838486
59072094737000	-0.52492875	10.701483	-12.771271
59072104136000	-0.3681085	6.695385	-10.337564
59072116435000	0.1364695	4.9757495	-8.423999
59072124156000	0.7835025	4.1258082	-6.969521
59072135173000	0.88765025	6.4960675	-4.6220064
59072144175000	1.4927847	10.156802	-5.9226565
59072154857000	3.6254199	11.484387	-7.025785
59072164225000	5.035605	12.549209	-5.8639984
59072174876000	5.5030727	16.79353	-5.156512
59072184214000	5.00867	19.582176	-3.7762547
59072195262000	3.1986535	18.997393	-5.337274
59072204234000	1.4628572	13.268067	-0.8900445
59072214946000	2.2463598	5.381567	7.5321584
59072224254000	3.7098155	0.06584055	8.836999
59072234965000	5.1277814	-0.88645315	5.771223
59072244273000	4.9422307	0.4417302	0.7254431
59072255046000	2.3834279	3.9612067	-4.4753613
59072264323000	-0.8038532	8.75799	-5.209184
59072274974000	-3.5116954	11.765107	1.555034
59072284312000	-4.5232453	13.841478	8.622718
59072296550000	-4.0282445	16.101604	10.991181
59072304332000	-4.935048	16.527773	8.776545
59072315348000	-5.4605756	14.791977	3.7163997
59072324351000	-4.1623197	12.096106	-0.20829555
59072335002000	-2.4438813	9.313444	-1.6921021
59072344401000	-1.1947067	6.813898	-1.5765818
59072355052000	-0.034117375	5.3767786	-0.40462008
59072364421000	0.95109665	5.2983685	0.2220622
59072375438000	1.9752164	6.5247984	0.39444473
59072384410000	3.072958	7.915829	0.30466217
59072395060000	3.2980127	9.053075	1.4664485
59072404429000	2.1655555	9.3583355	1.536479
59072415110000	0.8858546	9.136273	1.0313023
59072424449000	-0.16340427	8.726267	-0.0688333
59072435191000	-0.30765492	8.920197	-0.35314476
59072444468000	-0.34835634	9.021352	0.46267948
59072455150000	0.04129998	8.84059	0.9463082
59072464488000	0.7721301	8.116942	0.55246204
59072476756000	1.1240777	7.161656	0.5470751
59072484507000	1.8746599	6.9108634	1.1976994
59072495555000	2.6479871	7.4806833	2.244564
59072504527000	2.8520927	8.173206	1.8848352
59072515208000	2.1930888	8.419808	-0.59376204
59072524546000	1.0085574	8.754398	-1.520318
59072535228000	-0.56563014	9.339182	0.049081136
59072544566000	-1.797447	9.509171	1.4772224
59072555583000	-3.068768	9.355942	1.8309658
59072564616000	-4.268263	9.944317	0.9163807
59072575267000	-3.9175124	10.850522	0.11372458
59072584605000	-1.822586	11.173141	0.93732995
59072597178000	0.03172317	11.354502	2.4821887
59072604625000	0.86729956	11.621455	2.885013
59072615306000	0.55964464	11.976396	2.8221653
59072624644000	-0.49559975	12.732365	1.6903064
59072635325000	-1.1534066	13.323732	-0.57760113
59072644664000	-1.0187328	13.423092	-2.1535845
59072656962000	-0.7128736	12.974179	-2.2409728
59072664683000	-1.0821792	12.539632	-0.57999533
59072675731000	-1.240795	14.932037	0.8762778
59072684703000	-1.1683705	17.632696	0.14844051
59072695384000	-0.8242039	16.72709	-0.0688333
59072704722000	-0.516549	15.031397	0.9552865
59072715464000	0.56682724	13.358448	1.5586253
59072724742000	1.9883845	11.98298	1.18094
59072735789000	3.1358056	11.836933	0.35553896
59072744761000	4.920683	13.014282	-0.4309563
59072755442000	5.085284	13.917495	0.87687635
59072764811000	3.875614	13.708002	3.3249476
59072775431000	2.7820623	14.435241	4.7644615
59072784800000	2.100912	16.059706	4.644751
59072795543000	1.7106571	17.864935	3.177704
59072804820000	0.99060094	18.51855	1.8561049
59072815471000	0.35254622	17.535133	0.64703304
59072824839000	0.6039374	16.07886	-1.1713632
59072837077000	1.1611878	15.258846	-2.7018566
59072844859000	1.5227122	14.839861	-2.4199393
59072855876000	3.0160956	15.062521	-0.094570965
59072864909000	6.169858	15.540763	3.4715924
59072875499000	6.8186865	14.66688	5.9651537
59072884898000	5.7347116	12.471995	5.377377
59072895549000	4.095282	9.639654	2.5246856
59072904918000	2.8574798	7.323863	-0.038905777
59072915995000	1.9434932	5.793968	-0.33399114
59072924937000	0.85054016	4.8021703	-0.7104794
59072935618000	-0.032920275	4.7279496	0.019752163
59072944957000	-0.4405331	5.029021	2.6779146
59072955577000	-0.78888947	4.4741645	4.8722005
59072964976000	-0.30406362	3.4727895	4.7536874
59072975718000	0.3453636	2.461838	3.775656
59072984996000	0.8463503	1.5741876	2.7335799
59072995616000	1.0935516	0.8403648	1.8237832
59073005015000	1.1007342	0.2896984	1.3820529
59073017253000	1.3335704	0.107140526	1.3335704
59073025035000	1.5735891	-0.06284779	0.65421563
59073035991000	1.6705543	-0.091578215	-0.006584055
59073045054000	1.4909891	-0.25378537	-1.0857705
59073055705000	1.5676036	-0.4997896	-2.146402
59073065074000	1.6992847	-0.9876082	-3.252523
59073075724000	1.7764976	-0.7445967	-3.9935284
59073085124000	1.477821	1.0390835	-4.0318356
59073096171000	0.5351041	3.2848446	-3.870227
59073105113000	0.030526072	5.2480903	-4.184466
59073115794000	-0.95109665	7.8170686	-4.95899
59073125132000	-1.7160441	12.783241	-6.987478
59073135753000	-2.759916	19.193117	-10.29387
59073145152000	-4.016872	19.608511	-10.278308
59073157878000	-2.8921957	19.608511	-9.539098
59073165171000	-0.074818805	19.608511	-11.453262
59073175822000	0.23463176	14.553155	-11.720815
59073185191000	-0.55485624	8.05589	-9.701305
59073197429000	-1.3838485	5.9388175	-8.915408
59073205241000	-0.90261406	5.7825956	-9.255983
59073216227000	-1.103727	6.637924	-7.107786
59073225261000	-0.49919105	9.361329	-5.3300915
59073235850000	1.7447745	11.653777	-6.1123967
59073245219000	3.5332432	13.325528	-6.766014
59073255900000	2.9167361	15.842433	-7.08145
59073265269000	3.152565	18.419191	-7.5962033
59073276317000	4.7177744	17.737444	-6.821679
59073285289000	4.258686	14.471752	-4.1796775
59073295939000	4.396951	8.247426	1.9009962
59073305278000	6.078878	2.56419	6.2967505
59073315959000	6.256049	-0.7942764	6.8306575
59073325328000	5.6365495	-1.8884265	6.269217
59073336131000	5.1020436	-0.08140286	2.349909
59073345317000	2.348712	4.3873744	-4.4879313
59073355937000	-1.5209166	9.917382	-7.867347
59073365367000	-5.023035	13.453618	-0.78290397
59073377604000	-6.1076083	15.208568	9.108741
59073385386000	-4.268263	17.304092	12.32116
59073396373000	-4.4478283	17.340605	10.04607
59073405375000	-4.9200845	14.670471	4.8255134
59073416087000	-3.8391025	10.879252	-0.16160862
59073425425000	-1.9578584	7.780557	-3.0681696
59073436046000	-0.5177461	5.692813	-3.3387144
59073445445000	0.41958386	4.791396	-1.977012
59073456492000	1.0175357	4.9972973	-0.36032736
59073465495000	1.3192052	6.0226145	0.47225627
59073476298000	1.3964181	7.6823945	0.4381389
59073485637000	1.8148049	9.448717	0.8391677
59073496287000	2.328361	10.455479	1.5077485
59073505748000	1.8237832	10.1460285	1.8507179
59073516551000	0.93613285	9.458294	1.4143747
59073525767000	0.3597288	8.72507	0.6751649
59073536601000	0.014963761	8.385093	0.51595044
59073545970000	0.6194997	8.547898	0.3274071
59073558207000	0.58897364	7.9750857	-0.18375498
59073566020000	0.9068039	7.191583	-0.16280572
59073577189000	0.9888053	6.130952	0.95349085
59073586192000	1.4413095	5.953781	2.6264393
59073596843000	2.3648727	6.6630635	3.582923
59073606395000	3.38181	7.639898	1.2204443
59073617076000	3.4835634	8.347384	-1.5933412
59073626414000	2.4253263	8.829217	-0.724246
59073637462000	0.61890113	9.141062	1.6011224
59073656169000	-2.023699	9.179369	2.6114755
59073665538000	-4.3873744	9.920973	0.8242039
59073676249000	-4.596867	10.721235	-0.74519527
59073685557000	-1.7609353	10.839748	1.1336545
59073698283000	1.4131776	10.659584	3.5236664
59073705577000	3.2680852	11.195287	3.0573955
59073716258000	2.4528596	12.0248785	2.2942438
59073725627000	-0.76554596	12.692262	1.9812019
59073737864000	-3.0160956	13.344682	0.8619126
59073745616000	-3.8109705	13.596073	0.59256494
59073756633000	-3.663727	14.147338	1.555034
59073765696000	-2.746748	15.880141	1.827973
59073776317000	-1.6011224	16.751032	1.0941502
59073785655000	-1.1647792	16.682798	1.2186487
59073796336000	-0.9648633	17.198149	1.3545196
59073805674000	-0.2100912	17.943344	0.43634325
59073816783000	-0.011372458	16.634912	-0.31902736
59073825694000	0.18076223	14.393342	-0.7374141
59073836345000	1.2198458	12.034455	-1.8297687
59073845744000	2.866458	10.809821	-3.5715504
59073856364000	3.964798	10.721235	-3.271078
59073865764000	4.3580456	11.881226	-0.36511576
59073876536000	3.942053	13.483545	3.4769795
59073885783000	2.8221653	15.685014	7.365163
59073896373000	2.1721394	17.143084	8.579023
59073905772000	2.791639	18.049887	5.367202
59073918071000	3.482965	18.27195	0.54647654
59073925792000	3.0789435	17.072454	-2.765303
59073936808000	2.1499932	15.117588	-4.5621514
59073945811000	1.9111716	14.116213	-4.9601874
59073956492000	2.1499932	14.69561	-2.9257145
59073965861000	4.6980224	16.795923	1.5586253
59073976512000	7.6225395	17.81286	6.9371996
59073985850000	6.9719152	15.677832	9.683349
59073996928000	4.096479	11.914744	7.0724716
59074006022000	2.1829133	8.334216	2.4732103
59074016673000	0.6745663	5.016451	-0.88166475
59074025981000	-1.258153	2.9322984	-2.5169046
59074036631000	-1.8207904	2.741361	-1.6053122
59074046000000	-1.8866309	2.847903	-0.23822308
59074056743000	-1.401805	2.4139538	2.3588872
59074066020000	-0.65900403	2.303222	4.445434
59074076671000	0.04070143	1.9979613	3.7511156
59074086070000	0.6440403	1.5005659	2.285864
59074098307000	0.8924387	0.96665895	1.9716251
59074106059000	1.1510124	0.25857377	2.0231004
59074117106000	2.055422	0.091578215	2.007538
59074126078000	2.492364	-0.090381116	2.166154
59074136760000	2.6964695	0.2813187	2.7275944
59074146098000	2.6928782	0.55126494	2.1386206
59074156779000	2.5905263	0.57760113	0.5626374
59074166148000	2.4091654	0.25917232	-1.5466543
59074177165000	2.2158337	-0.16400282	-3.7732618
59074186137000	2.168548	0.90979666	-5.379173
59074196818000	1.5173253	3.4476504	-6.2003837
59074206157000	0.0023942017	5.457583	-6.9246297
59074216807000	-1.6412252	7.5531077	-7.762002
59074226176000	-2.2798786	11.849503	-9.304466
59074236918000	-2.6497827	18.372505	-11.150395
59074246196000	-2.4708161	19.608511	-10.399814
59074258860000	-2.3062148	19.608511	-9.177573
59074266246000	-1.532289	19.608511	-10.774507
59074278483000	-2.6270378	14.562732	-10.348937
59074286235000	-3.7511156	8.257602	-8.664616
59074297252000	-3.122039	5.5126495	-8.8806925
59074306254000	-1.6358383	4.226963	-9.039309
59074316935000	-0.7338228	6.3823433	-7.5950065
59074326274000	0.86251116	10.204686	-8.309675
59074336955000	2.2948422	11.928512	-8.914211
59074346293000	2.421735	12.881404	-8.91481
59074357310000	2.4223335	16.36796	-9.005191
59074366313000	3.157952	19.480423	-7.1484876
59074376994000	3.5637693	18.248007	-4.426879
59074386332000	4.156933	11.737574	1.1917139
59074397044000	4.9045224	4.534618	6.575675
59074406352000	5.513248	0.623091	6.7588315
59074417094000	6.049549	-0.5386954	6.731298
59074426371000	7.7877398	0.53809685	4.3406878
59074437083000	7.347805	3.6098576	-1.8507179
59074446391000	3.4476504	9.11293	-8.265982
59074458659000	-1.1845313	13.707403	-5.1882353
59074466441000	-4.1611223	15.374965	5.5150437
59074477458000	-4.3544545	16.523582	12.9167185
59074486430000	-4.817134	16.307507	12.805986
59074497142000	-5.917868	14.435241	7.15986
59074506450000	-5.1642933	11.377845	0.61411273
59074517161000	-3.3883939	8.471284	-2.6461914
59074526469000	-2.4390929	6.2500634	-2.396596
59074537516000	-1.8710686	4.783615	-1.3359646
59074546489000	-1.3880384	4.707599	-0.004189853
59074557139000	-0.7661445	5.9388175	0.66738373
59074566539000	0.16639702	8.013393	1.0833763
59074577128000	0.90021986	9.458294	1.347337
59074586528000	1.3359646	9.69951	1.3868413
59074597331000	1.5155296	9.162011	1.1055226
59074606547000	0.35434186	8.007407	0.95588505
59074617259000	0.7368156	7.9888525	0.7290344
59074626567000	0.41000703	7.736264	0.9648633
59074638835000	0.52612585	7.7189064	0.7811083
59074646586000	1.1097125	7.553706	0.25079262
59074657603000	1.6316484	6.950966	0.23822308
59074666636000	2.4558525	6.579266	1.3024458
59074677287000	3.560178	6.9330096	0.9900024
59074686625000	3.879804	7.5345526	-1.371279
59074697368000	2.8395233	7.967903	-2.260725
59074706645000	0.8170213	8.97287	-0.15023616
59074717723000	-1.3790601	9.770737	0.7020996
59074726664000	-3.8905778	9.3733	0.56922144
59074737346000	-5.3438582	9.134478	1.049259
59074746684000	-4.3185415	9.511565	2.0739772
59074757365000	-1.5951369	10.408194	2.843713
59074766734000	1.0851719	11.574768	2.3475149
59074779368000	1.9590555	11.878233	1.6077064
59074786723000	0.44951138	11.56579	1.4814123
59074797404000	-1.8926164	11.692682	1.7489643
59074806743000	-2.8760347	12.750919	1.174356
59074819041000	-2.801216	13.43626	0.16460137
59074826762000	-2.2056582	13.42788	-0.23223756
59074837779000	-2.134431	13.977349	0.9463082
59074846782000	-2.0470424	16.679207	1.3515269
59074857432000	-2.0548236	17.262194	0.54288524
59074866832000	-2.3409307	15.947179	1.3503298
59074877482000	-1.7615339	15.404294	1.5831659
59074886821000	0.109534726	15.437214	0.21667525
59074897899000	1.6705543	15.731102	-0.1400608
59074906840000	3.5356374	14.744691	0.5189432
59074917521000	6.097433	13.33271	-0.6003461
59074926860000	6.931214	12.893374	-0.87448215
59074937541000	5.7269306	13.01488	0.83617496
59074946879000	3.9055414	14.541782	3.2573113
59074957621000	2.7102363	16.445772	4.799177
59074966929000	2.641403	18.01158	4.6004586
59074977549000	2.315193	18.498201	2.8772318
59074986918000	1.8357542	17.686567	0.3298013
59074999156000	1.5155296	16.312893	-2.5258827
59075006938000	1.4323312	15.406688	-4.1521444
59075017894000	1.4975731	15.143925	-3.3632548
59075026957000	2.1571758	15.30673	-0.6877344
59075037639000	4.655525	15.691598	3.1573534
59075047007000	6.5307837	15.14153	5.3761797
59075057628000	5.421071	12.758701	5.9160724
59075067027000	3.738546	9.781511	3.0412347
59075078044000	2.2296004	7.2328835	0.17896658
59075087016000	0.9588778	5.1906295	-0.59855044
59075097667000	-0.641646	3.8672342	-0.3657143
59075107035000	-1.4095862	3.8097734	0.3250129
59075117717000	-1.5873557	3.5643678	1.9859903
59075127055000	-1.1761516	2.771887	4.010288
59075137797000	-0.20649989	2.336741	4.594473
59075147075000	0.48123455	1.608305	3.5098996
59075157725000	1.0839748	0.8936358	2.4756045
59075167125000	1.4502877	0.1436521	2.304419
59075179301000	1.4652514	-0.7284359	2.331354
59075187114000	1.6885108	-1.0594343	2.1799207
59075198069000	1.7375919	-1.2413936	1.5466543
59075207133000	1.5502456	-1.4287399	0.81283146
59075217814000	1.8064252	-0.90500826	0.33518824
59075227153000	1.8291701	-0.80804306	-0.748188
59075237803000	1.6711528	-0.985214	-2.3786395
59075247172000	1.3706805	-0.79726917	-4.270657
59075258189000	1.0103531	1.2114661	-5.4474072
59075267222000	0.29149407	3.657143	-6.0022635
59075277812000	-0.46986207	6.295553	-6.701969
59075287211000	-1.7076644	10.0825815	-7.896077
59075297831000	-2.5767596	17.397467	-10.380061
59075307231000	-3.0813377	19.608511	-12.351088
59075319926000	-2.433706	19.608511	-11.586141
59075327250000	-0.035314474	19.608511	-9.633071
59075337870000	0.44891283	17.186777	-8.646061
59075347270000	0.87567925	9.738416	-9.009381
59075359507000	0.38486794	7.313089	-11.42932
59075367289000	-0.79487497	9.252393	-11.147403
59075378306000	0.99778354	11.560403	-8.081628
59075387309000	4.0653543	12.4289	-6.579266
59075397899000	4.1814733	14.168287	-5.1529207
59075407328000	3.5458126	17.352575	-6.621763
59075418040000	3.8786068	18.517355	-8.227076
59075427348000	4.5681367	16.888699	-8.602965
59075438395000	1.9177556	12.37084	-4.771045
59075447368000	4.1802764	4.9404354	2.224812
59075458018000	6.171055	-0.272939	5.5760956
59075467418000	5.7400985	-2.0392613	6.0118403
59075478038000	4.5783124	-1.8112136	6.6247563
59075487407000	3.965995	0.79966336	3.4919431
59075498210000	1.7052702	6.1040173	-2.2505496
59075507335000	-1.4903905	11.655573	-2.3169887
59075518046000	-3.9612067	14.874577	5.0900726
59075527537000	-4.370615	17.027563	11.283873
59075539744000	-4.4837413	18.336592	11.373655
59075547557000	-5.6539073	16.027983	7.478289
59075558574000	-5.363012	11.818378	2.1601684
59075567759000	-3.4506433	8.115746	-1.8447324
59075578410000	-1.2922704	5.8358665	-3.196858
59075587840000	0.2765303	4.6022544	-3.0370448
59075598460000	1.8351556	4.0892963	-2.2852654
59075608012000	2.2547395	4.478953	-1.42455
59075619059000	2.0733786	5.674258	-0.93972415
59075628032000	1.1145009	7.4208283	-0.23283611
59075638926000	-0.18674773	8.955511	1.4131776
59075648265000	-0.6745663	10.009559	2.6443958
59075658885000	-0.5650316	10.5680065	2.099715
59075668315000	-0.25079262	10.67395	1.0594343
59075679210000	-0.58657944	9.760562	0.7302315
59075688487000	-0.9020155	8.351574	-0.1376666
59075699107000	-0.35075054	7.8188643	-0.581791
59075708476000	-0.0688333	7.430405	-0.3453636
59075727610000	0.56682724	7.144298	-0.044891283
59075738627000	1.477821	6.9844847	1.1121067
59075747660000	2.6623523	7.2544312	2.5073278
59075758311000	3.6008794	7.8248496	1.2599486
59075767650000	3.503914	8.189965	-1.4215573
59075778361000	2.6007016	8.8328085	-2.0769699
59075787669000	0.7966706	9.70789	-0.46387658
59075798686000	-1.2946646	9.820416	1.1055226
59075807689000	-3.3848026	9.209297	1.541866
59075818370000	-5.108628	9.050082	1.1779473
59075827678000	-4.44304	9.61272	0.97862995
59075840281000	-2.0775685	10.038289	1.9446903
59075847667000	0.6727707	10.95048	2.9346926
59075858378000	2.0883424	11.883021	2.6623523
59075867686000	1.8118122	12.097302	2.5258827
59075878367000	-0.31304187	12.320562	2.5701754
59075887706000	-1.8387469	13.230358	1.4969746
59075899913000	-2.2756886	13.657125	0.20290859
59075907725000	-2.010531	13.368624	-0.1412579
59075918773000	-1.7136499	13.34947	1.1127052
59075927745000	-1.3467385	15.262437	2.0141222
59075938426000	-1.0660183	16.329653	1.6005238
59075947764000	-1.1384429	15.325285	1.4760253
59075958445000	-0.7224504	15.3193	1.110311
59075967784000	0.50278234	15.559319	-0.17058687
59075978831000	1.7735049	15.713146	-1.7621324
59075987803000	2.8383262	14.785991	-2.9113493
59075998454000	3.6409822	13.0041065	-2.4103625
59076007792000	4.4167037	12.421717	-0.61291564
59076018473000	4.6579194	12.06139	1.3599066
59076027873000	3.8175547	12.993333	4.298789
59076038554000	2.4438813	15.87236	6.0465565
59076047801000	2.6192567	18.480843	4.7896004
59076058482000	2.653374	19.591753	2.6318262
59076067820000	1.951873	19.0764	1.4449008
59076080150000	1.5957354	16.683994	-0.11372458
59076087870000	1.5502456	14.600441	-2.932897
59076098857000	1.8429368	14.059351	-4.4017396
59076107859000	2.1583729	14.690223	-2.6234465
59076118541000	3.2321723	15.482105	1.110311
59076127940000	6.0363812	15.756242	3.9306808
59076138560000	7.169437	14.749479	6.1584854
59076147929000	5.2498856	12.014703	5.370793
59076158976000	3.50152	8.849568	1.4431051
59076167918000	2.4498668	6.7001734	-0.57400984
59076178599000	0.7517793	4.771644	-0.3657143
59076187938000	-0.7092823	3.5847185	-0.3489549
59076198649000	-1.0552444	2.818574	0.6440403
59076207957000	-0.80445176	2.1499932	2.3834279
59076218699000	-0.12389994	1.620276	3.6715083
59076228007000	0.45489833	1.2791022	3.799598
59076238658000	0.98820674	0.91219085	3.4356794
59076247996000	1.3976152	0.27234045	2.8311436
59076260264000	1.3575124	-0.28670564	2.2936451
59076268046000	1.5352819	-0.48362875	1.8818425
59076279002000	1.6783354	-0.55485624	1.4909891
59076288035000	1.8142064	-0.4333505	1.0869676
59076298716000	1.8590976	-0.45789108	0.45190558
59076308085000	1.7902644	-0.095169514	-0.3477578
59076318736000	1.3736732	-0.077811554	-1.7298107
59076328074000	0.9475053	-0.374094	-3.904943
59076339152000	0.85054016	-0.11312603	-5.9400144
59076348094000	1.632247	1.7555484	-6.725911
59076358775000	0.88765025	3.4422636	-7.1544733
59076368174000	0.54527944	6.203377	-7.418434
59076378825000	-0.39324763	10.86369	-8.450335
59076388133000	-1.4790181	18.418594	-10.466252
59076401133000	-2.260725	19.608511	-10.539874
59076408183000	-2.2290018	19.608511	-9.152434
59076418834000	-1.7022774	19.608511	-9.428367
59076428202000	-1.3868413	15.888521	-10.127473
59076440440000	-0.825401	9.211093	-9.589376
59076448192000	-0.50038815	6.4978633	-9.985617
59076459178000	-0.18016368	5.3181205	-10.629059
59076468211000	-0.7026982	6.4128695	-8.15106
59076478923000	0.7104794	8.943541	-7.7769656
59076488231000	3.080739	10.242993	-7.7332716
59076498851000	3.4290953	11.326968	-6.8001313
59076508372000	3.2160115	15.365388	-7.3059063
59076519389000	3.9390604	19.120693	-6.749853
59076528422000	4.753089	19.437326	-6.209362
59076539073000	3.572149	16.152481	-1.7316064
59076548411000	3.457826	8.5700445	4.8817773
59076559092000	4.3424835	2.1625626	6.169858
59076568461000	4.0857053	-1.2066777	5.949591
59076579234000	4.171298	-1.4065934	3.8181531
59076588450000	3.6050692	0.9648633	-0.61052144
59076599131000	1.134253	5.8005524	-5.651513
59076608500000	-2.1284454	10.712257	-4.2221746
59076620768000	-3.9552212	13.390172	4.573524
59076628520000	-3.2543187	15.392921	11.729793
59076639506000	-2.7377696	17.00362	12.254722
59076648509000	-3.970185	16.613365	7.681796
59076659221000	-4.2012253	13.968969	1.5328877
59076668528000	-3.2692823	10.332177	-2.6461914
59076679240000	-2.2906525	7.441777	-3.3225534
59076688578000	-1.536479	5.770026	-2.4492683
59076699595000	-0.37828386	5.2247467	-1.435324
59076708567000	0.39863458	5.130774	-0.9744401
59076719218000	0.8996213	6.351817	-0.5554548
59076728618000	2.0679917	8.363545	0.20949265
59076739207000	2.309806	9.44752	0.84934306
59076748607000	1.9494787	9.464878	1.95307
59076759379000	1.2186487	9.009979	2.4193408
59076768626000	0.33279404	8.498817	2.6198552
59076779338000	0.3417723	8.256405	2.3906105
59076788646000	0.12449849	7.4256167	2.1170728
59076800883000	0.13108255	6.8222775	1.8064252
59076808665000	0.92655605	6.743269	1.2904748
59076819651000	1.5095441	6.7079544	1.4933833
59076828685000	2.178125	7.21373	1.8351556
59076839335000	3.0256724	8.349778	0.037110128
59076848704000	2.6426	8.647258	-2.0141222
59076859416000	1.1498153	8.55987	-1.7423803
59076868724000	-0.3250129	8.983644	-0.49440265
59076879802000	-2.1170728	9.088389	0.11432313
59076888743000	-4.099472	9.115923	0.8331822
59076899363000	-4.648941	9.847352	1.8195933
59076908763000	-3.151368	10.402806	2.694674
59076919444000	-0.41240123	10.937312	3.0508115
59076928813000	1.6077064	11.476007	1.7824832
59076941783000	1.9458874	11.680113	1.2138603
59076948802000	0.3453636	11.632229	1.7824832
59076959483000	-1.5119383	12.177508	1.6555905
59076968821000	-2.1350293	13.129204	0.18495208
59076981120000	-1.7435774	13.713987	-1.0582372
59076988871000	-1.0055647	13.3464775	-1.2096704
59076999888000	-0.84335756	13.311163	0.45908818
59077008860000	-1.067814	16.388311	1.6705543
59077019450000	-0.99778354	18.34976	0.037110128
59077028788000	-1.1480197	17.137695	-0.16280572
59077039500000	-1.0785879	15.740081	0.7074866
59077048808000	0.46148238	14.6441345	-0.3842694
59077059855000	1.4730326	13.575722	-1.1384429
59077068827000	2.4534583	12.849681	-1.0432734
59077079509000	4.5418005	13.464991	-0.842759
59077088878000	4.943428	13.757083	1.5035586
59077099528000	3.7840357	13.7086	5.523423
59077108897000	2.3852234	15.345635	6.6247563
59077119609000	1.7525556	17.632696	4.753089
59077128886000	1.1629834	19.011757	2.1894975
59077139506000	-0.05626374	18.594568	0.9427169
59077148906000	-0.90979666	16.52059	-0.13826515
59077161174000	-0.45968673	14.824298	-2.0099323
59077168925000	0.59256494	14.350845	-3.4662056
59077179942000	1.1168951	14.350246	-2.9173348
59077188945000	1.8195933	14.456788	-0.362123
59077199626000	4.88058	15.042171	2.9825768
59077208964000	7.693767	15.310321	6.4457893
59077219615000	6.5601125	12.91612	6.6295447
59077228984000	4.7919946	10.163984	3.6403837
59077240092000	3.2722752	7.6428905	1.311424
59077249003000	1.8842367	5.5898623	0.31603462
59077259654000	0.28311434	4.4675803	-0.40402153
59077269023000	-1.4263457	4.1718965	0.35913026
59077279673000	-2.100912	3.9498343	2.3080103
59077289042000	-1.1480197	3.6349967	4.8907557
59077299785000	-0.026934769	2.7252002	5.111022
59077309062000	0.61112	1.8154035	4.257489
59077319712000	0.86610246	0.8475474	3.3704374
59077329081000	1.2743138	0.47285482	2.554613
59077341319000	1.2174516	0.11911154	1.8010383
59077349101000	1.4951789	-0.24420857	0.8403648
59077360118000	1.7956513	-0.2148796	-0.08619126
59077369120000	1.751957	-0.48362875	-1.06123
59077379741000	1.8375498	-0.9864111	-2.2104468
59077389109000	2.2816741	-1.417966	-3.4278982
59077399791000	2.8101943	-0.97264445	-3.9324763
59077409160000	2.4073699	1.2814964	-3.4745853
59077420237000	1.4030021	3.2561142	-3.4919431
59077429179000	0.50876784	4.7123876	-3.743933
59077439830000	-0.688333	6.7187285	-4.6722846
59077449199000	-1.6861166	10.063428	-6.8863225
59077459819000	-2.6060886	16.473305	-9.4774475
59077469218000	-2.9897594	19.608511	-9.472659
59077481974000	-3.0250738	19.608511	-7.6231384
59077489268000	-0.88525605	19.608511	-12.102091
59077499888000	-0.45609543	17.157448	-13.256096
59077509257000	-2.6809072	9.017162	-9.740809
59077521617000	-4.7387238	4.844667	-6.9946604
59077529368000	-3.8025908	3.693056	-6.2626333
59077540446000	-2.2110453	4.5082817	-5.815516
59077549388000	-1.3084313	8.057087	-4.5681367
59077560283000	0.5979519	10.434529	-6.965331
59077569560000	1.7980455	12.4869585	-7.833828
59077580241000	2.054225	15.376162	-8.641273
59077589763000	3.0556	19.424158	-8.629301
59077600840000	4.088698	19.608511	-6.5966244
59077609782000	4.6351743	19.570803	-5.6856303
59077620463000	4.8021703	12.426505	3.3554738
59077629985000	6.079477	2.5049336	9.691729
59077640605000	5.9717374	-2.4863784	9.404425
59077650065000	7.8505874	-3.1830912	5.575497
59077660960000	8.642469	-2.0488381	-0.32022446
59077670237000	4.88058	1.8956091	-5.8717794
59077680888000	-0.3669114	8.010401	-5.3037553
59077690440000	-4.0013094	12.442666	2.903568
59077702678000	-4.1611223	17.017986	12.028469
59077710429000	-3.882198	19.558832	14.433445
59077721476000	-5.470751	18.87409	9.341577
59077740275000	-5.798158	15.35641	1.9674352
59077749614000	-4.6112323	10.602722	-2.6605566
59077760325000	-2.9574378	6.88752	-3.6176388
59077769572000	-1.4772224	4.471172	-3.6978445
59077780650000	-0.6979098	3.2920272	-2.8089972
59077789653000	0.07062895	3.6092591	-1.7106571
59077800303000	0.74758947	5.291186	-0.7260417
59077809672000	0.6404489	7.5309615	0.28431144
59077820323000	-0.050876785	9.150639	1.4688427
59077829692000	-0.6344634	9.722255	2.2786815
59077840403000	-0.6751649	9.721058	1.8938135
59077849681000	-0.717662	9.132084	1.1791444
59077860453000	-0.5117606	8.535928	0.712275
59077869731000	0.31364042	7.8876977	0.1921347
59077881968000	0.6171055	7.328053	-0.1921347
59077889750000	1.0959458	7.095815	-0.26874915
59077900798000	1.5699978	6.827665	0.22385786
59077909709000	2.2026656	6.927024	1.2473791
59077920421000	3.0496144	7.291541	1.5352819
59077929759000	3.7726634	7.901464	-0.39803603
59077940471000	3.5110967	8.264784	-1.6717514
59077949809000	1.9147629	8.589797	-0.98820674
59077960856000	-0.6739678	8.841188	1.3162124
59077969767000	-3.2160115	9.234436	2.6719291
59077980479000	-5.301361	10.073005	1.9710265
59077989848000	-5.4384294	10.8948145	0.90381116
59078000499000	-2.8862102	11.234193	1.4437037
59078009776000	0.08379706	11.262923	2.6767175
59078022502000	1.9500773	11.288661	2.9113493
59078029796000	1.673547	11.253346	2.7377696
59078040416000	-0.9367314	11.705252	2.1697452
59078049785000	-2.6246436	12.935872	0.8002619
59078062022000	-3.369839	13.926473	-0.45549688
59078069774000	-3.3482912	14.107235	-0.24061728
59078080851000	-3.1669302	13.740324	1.352724
59078089824000	-2.7808652	15.041573	2.2415714
59078100627000	-1.8884265	16.736069	1.0642227
59078109904000	-1.7160441	15.95915	0.8170213
59078120585000	-1.323395	15.471332	0.8762778
59078129924000	-0.2885013	15.023616	-0.39803603
59078140971000	1.3970166	15.303139	-2.1254525
59078149974000	2.7688942	14.871584	-3.5703533
59078160594000	4.1659107	13.09329	-2.814384
59078169963000	5.4917	12.298415	-0.19572599
59078180644000	6.079477	12.273875	2.0685902
59078189982000	5.441422	13.042414	4.26946
59078200755000	4.283227	15.148114	5.455787
59078210063000	3.8720226	17.423204	4.466982
59078220683000	3.6661212	18.916588	2.066196
59078230143000	2.866458	18.650232	0.24121583
59078242289000	2.0733786	16.23568	-1.4736311
59078250102000	1.3569138	13.693637	-2.9412768
59078261027000	1.3281834	13.255498	-3.6619315
59078270121000	1.8590976	14.415488	-2.6084828
59078280772000	2.4636335	15.925033	0.99179804
59078290141000	3.863643	16.299725	5.2235494
59078300761000	6.781576	15.600019	6.361394
59078310130000	6.9599442	13.572131	5.0721164
59078321177000	4.836886	10.388441	1.6035166
59078330150000	3.007716	7.626131	-0.05805939
59078340800000	1.0013748	5.3857565	-0.089184016
59078350200000	-0.8774749	3.9025488	-0.7541735
59078360850000	-1.2605472	3.3662477	0.0700304
59078370219000	-0.74758947	3.1621418	1.8207904
59078380931000	-0.01616086	2.9083564	3.25791
59078390239000	0.8439561	2.4426842	3.5033157
59078400859000	1.0324994	1.6639702	3.0669725
59078410228000	1.2755109	0.8206126	2.2260091
59078422404000	1.5807717	0.11911154	1.620276
59078430247000	1.9542671	-0.81881696	0.93613285
59078441203000	1.8118122	-1.4089876	0.31304187
59078450328000	1.5676036	-1.1480197	0.11671733
59078460948000	1.6017209	-0.6063316	-0.06584055
59078470317000	1.3545196	-0.18315643	-0.58897364
59078480937000	1.2545617	0.16579847	-1.5101427
59078490336000	1.0773908	0.31543607	-2.396596
59078501292000	0.84814596	0.55246204	-3.6487634
59078510325000	0.8912416	0.9283517	-4.7135844
59078520976000	0.9696517	2.1871033	-5.430648
59078530375000	0.18315643	4.173692	-6.007052
59078540995000	-0.91697925	6.740875	-7.2508397
59078550425000	-2.6509798	11.980585	-9.776723
59078561076000	-3.6110547	19.02313	-12.941258
59078570414000	-4.514866	19.608511	-12.062587
59078583018000	-3.4207156	19.608511	-9.27394
59078590434000	-1.3808558	19.608511	-8.380304
59078602641000	-0.80564886	14.559739	-9.760562
59078610423000	-0.010773907	8.376713	-10.7769
59078621379000	0.0676362	5.9364233	-11.713632
59078630412000	0.22744916	5.246893	-10.619482
59078641124000	-0.060453594	7.355586	-5.722142
59078650462000	2.1619642	9.964667	-5.5868697
59078661113000	4.4448357	10.843938	-6.053739
59078670451000	4.56694	11.702858	-5.981913
59078681498000	4.0575733	15.897499	-7.147889
59078690501000	4.1575313	19.343353	-7.221511
59078701121000	3.3871968	19.314026	-8.316858
59078710521000	1.1085154	14.601638	-3.5691562
59078721202000	1.9548657	6.4068837	5.507262
59078730510000	3.946243	0.6691794	8.192958
59078741282000	4.831499	-1.6047137	8.467094
59078750560000	5.751471	-0.8714894	5.191228
59078761271000	4.8165355	1.8201919	-0.61650693
59078770549000	1.6400281	6.806117	-6.0148335
59078782756000	-1.8974048	11.442489	-3.228581
59078790599000	-3.7379475	13.863625	5.505467
59078801616000	-3.776853	15.898696	11.764508
59078810618000	-4.063559	16.898275	11.529877
59078821299000	-4.7896004	15.676036	6.3368535
59078830607000	-4.237737	12.648567	0.7344214
59078841288000	-2.5839422	9.446921	-2.36188
59078850657000	-1.3383588	7.007828	-2.6354175
59078861705000	-0.5153519	5.415086	-1.894412
59078870646000	0.374094	5.0397944	-0.64703304
59078881327000	0.6560113	5.577293	0.03172317
59078890666000	1.4215573	7.2963295	-0.23582886
59078901469000	2.1266496	8.673594	0.1364695
59078910746000	2.171541	9.335591	0.95229375
59078921458000	1.6394296	9.532514	1.4443022
59078930705000	0.82719666	9.117719	1.9536686
59078942302000	0.023942016	8.407239	1.9321208
59078950785000	0.17776948	7.7907324	1.5711949
59078963023000	0.2908955	7.177218	1.3611037
59078970744000	0.3286042	6.791752	1.3054385
59078981730000	0.7966706	6.8905125	1.0875661
59078990764000	1.38325	7.189189	1.6394296
59079001536000	2.1505916	7.8667483	1.2066777
59079010661000	2.8089972	8.684967	-0.23582886
59079021342000	2.475006	8.744822	-1.2671312
59079030711000	1.1318588	8.849568	-0.1364695
59079041758000	-0.6440403	9.396643	0.86370826
59079050700000	-2.4588451	9.430161	0.1921347
59079061381000	-4.6244006	9.074623	-0.26396075
59079070720000	-5.179257	9.48044	0.7433996
59079081401000	-3.5781345	10.070012	2.48159
59079090739000	-0.89543146	11.168951	3.0304608
59079103404000	0.98341835	12.325949	2.0326772
59079110759000	1.3910311	12.682685	1.6286557
59079121379000	0.092775315	12.665926	1.5095441
59079130778000	-1.6567876	13.167511	0.6691794
59079142985000	-2.469619	13.897143	-0.7565677
59079150798000	-2.3756466	14.03481	-1.8118122
59079161876000	-2.1535845	13.489531	-1.3874398
59079170817000	-2.1470003	14.334085	0.43754035
59079181498000	-1.8555063	17.17301	1.0815806
59079190837000	-1.3204023	16.961721	0.3196259
59079201518000	-1.1976994	15.568895	1.0348936
59079210856000	-0.12569559	14.785991	0.56563014
59079221904000	1.3449428	14.3179245	-0.85891986
59079230876000	2.3008277	13.696031	-1.1282675
59079241526000	3.9534256	13.730148	-0.23163901
59079250895000	5.357026	14.137162	0.760159
59079261546000	4.8997335	14.041394	2.3888147
59079270915000	3.323152	15.096639	4.0827127
59079281657000	1.9602526	17.180193	4.6058455
59079290934000	1.9381063	18.850746	3.5889084
59079301585000	1.0606314	18.86212	2.7724855
59079310954000	0.12928689	17.473482	2.0638018
59079323192000	0.6560113	16.19917	-0.3824737
59079330973000	1.2294226	15.364191	-3.1316159
59079341990000	1.1923125	14.925453	-3.192668
59079350993000	2.0739772	15.513828	-0.8050503
59079361644000	6.187814	16.79772	3.4392707
59079371013000	8.232463	16.05432	7.0808516
59079381663000	6.4421983	13.032238	6.7121444
59079391032000	3.852869	9.19972	2.2098482
59079402079000	2.3942018	6.341043	-0.58119243
59079411021000	1.3724761	3.7062242	-1.6232687
59079421702000	0.3238158	2.618658	-2.231396
59079431071000	0.011372458	3.4195185	-0.3866636
59079441722000	-0.85173726	3.7445314	2.8694508
59079451091000	-1.2791022	3.3423057	6.1040173
59079461894000	-0.7188591	2.5330653	6.0465565
59079471110000	0.022744916	1.6256629	3.9827545
59079481761000	0.57999533	0.9044097	2.6761189
59079491130000	1.2084733	0.35793316	1.7178397
59079504161000	1.3180081	-0.22924481	0.8206126
59079511241000	1.1959038	-0.2777274	0.51595044
59079522227000	1.3700819	-0.20829555	0.35553896
59079531230000	1.6998832	0.04070143	0.15083471
59079541942000	1.9387048	0.13347675	-0.5327099
59079551280000	1.8375498	0.23942018	-1.5502456
59079562114000	1.7369933	0.17477672	-2.7072437
59079571483000	1.9416976	-0.10295067	-3.9564183
59079582560000	1.8273745	1.3323733	-4.1036615
59079591502000	0.66738373	3.6822822	-4.0695443
59079602336000	-0.38367084	5.7023897	-4.7680526
59079611674000	-1.412579	8.069656	-5.9723363
59079622325000	-2.421735	12.722788	-7.8428063
59079631938000	-3.2483332	19.058445	-10.562021
59079644542000	-4.361038	19.608511	-10.157999
59079651927000	-3.4129345	19.608511	-9.613318
59079662577000	-0.95109665	19.586964	-11.6352215
59079672099000	-0.43514615	14.359823	-12.438477
59079684367000	-1.2246342	7.955932	-11.022306
59079692119000	-1.3623008	5.583278	-10.436924
59079703105000	-0.74639237	4.729147	-10.975619
59079712321000	-1.3365631	6.5643024	-7.7093296
59079722941000	-0.011971008	10.198701	-5.1846437
59079732341000	3.5368345	11.543644	-5.8041434
59079742991000	4.9398365	12.353482	-5.185242
59079762553000	4.563947	15.389929	-6.335656
59079771495000	4.8733974	18.306067	-6.6564794
59079782145000	5.300164	18.048689	-6.8252707
59079791545000	3.7936125	15.077485	-3.958214
59079802195000	4.024653	9.141062	3.3291376
59079811534000	4.0384197	3.8977604	6.7486563
59079822245000	3.4410665	0.8924387	5.592855
59079831523000	2.6922798	0.33399114	2.2218192
59079842234000	2.1517887	2.5264814	-0.9864111
59079851573000	-0.35075054	6.491279	-2.15538
59079863810000	-2.8682537	10.237606	0.931943
59079871592000	-3.5075054	12.443863	7.049727
59079882579000	-2.4756045	14.156915	10.786477
59079891612000	-2.5821466	14.626777	9.063251
59079902293000	-3.2321723	13.752893	4.461595
59079911601000	-2.92751	12.182896	0.049081136
59079922252000	-1.7741034	10.065224	-3.342904
59079931651000	-1.0019734	7.9984293	-3.626617
59079942668000	-0.533907	6.87914	-2.4420857
59079951671000	-0.15263036	6.4828997	-1.2234371
59079962291000	0.46088383	6.813898	-0.94570965
59079971690000	0.7404069	7.4986396	-0.15562311
59079982341000	1.2336124	8.588001	0.84575176
59079991679000	1.3126211	8.93935	1.1647792
59080002513000	0.7517793	8.598177	1.2473791
59080011638000	0.7260417	8.46889	1.1965023
59080022258000	0.587178	8.701726	1.3449428
59080031627000	0.47345337	8.820239	1.2030864
59080043956000	0.700304	8.727464	1.3994108
59080051677000	0.6362591	8.086416	0.7392098
59080062693000	1.002572	7.319673	-0.24600422
59080071666000	0.97623575	6.3685765	0.017956512
59080082408000	1.0295067	5.877765	1.7908629
59080091716000	1.6867151	6.361394	3.7870286
59080102427000	2.6821043	7.499837	2.9532478
59080111705000	3.0238767	8.276755	-0.2765303
59080122783000	2.0440497	8.871116	-1.6980876
59080131724000	0.22325931	9.67856	-0.5781997
59080142466000	-1.9554642	9.814431	0.8122329
59080151744000	-4.3957543	9.796474	1.2318168
59080162486000	-5.377377	10.395624	0.66139823
59080171763000	-3.8612487	10.753557	1.2659341
59080182597000	-0.7320272	11.167754	2.7665
59080191874000	1.7770962	11.40059	2.980781
59080204448000	2.6132712	11.534067	2.1386206
59080211833000	0.9391256	11.978191	1.6879122
59080224070000	-1.5951369	12.950237	0.7062895
59080231883000	-2.8892028	13.752295	-0.59615624
59080242808000	-2.9759927	13.652337	-0.85772276
59080251902000	-2.5049336	13.259687	0.4261679
59080262523000	-2.3199813	14.693814	1.9961656
59080271922000	-1.8782512	17.241245	1.3784616
59080282542000	-1.7160441	17.012001	0.9259575
59080291942000	-1.6639702	16.403873	1.3850456
59080302928000	-0.55844754	15.804126	0.87089086
59080311961000	1.5622166	14.944607	-0.50517654
59080322520000	3.2722752	13.724163	-2.1092918
59080331950000	4.9200845	12.901754	-2.3768437
59080342570000	6.543952	13.041217	-0.5494693
59080352000000	6.755839	12.61445	1.9997569
59080362712000	5.3396683	13.4195	3.9773676
59080372020000	3.4081461	15.570092	4.0078936
59080382640000	2.9502552	18.14745	2.2415714
59080392070000	1.70946	19.558233	1.407192
59080404246000	0.30107087	19.015947	1.2443863
59080412028000	0.14844051	16.66544	-0.712275
59080423045000	0.9576807	14.83567	-3.4213142
59080432048000	1.5400703	14.372393	-3.9959226
59080442729000	2.327164	15.102624	-1.9500773
59080452067000	3.8600516	15.638926	1.721431
59080462657000	5.755062	15.541362	4.43885
59080472056000	7.807492	14.750078	4.551976
59080483134000	6.5265937	12.7730665	4.3688197
59080492076000	3.9827545	10.362105	2.0512323
59080503062000	2.4833858	8.277354	0.3681085
59080512217000	0.98341835	6.315904	0.79128367
59080522837000	-0.7092823	4.484938	1.1629834
59080532206000	-1.2467805	3.0597897	1.9919758
59080542918000	-0.79726917	2.2218192	2.6426
59080552226000	0.6183026	1.5634137	3.052607
59080562877000	1.2785037	0.3250129	3.1639376
59080572245000	1.4532804	-0.44891283	2.669535
59080584483000	1.7483658	-0.86969376	1.7064673
59080592234000	1.8914193	-1.5376761	0.6835446
59080603251000	1.7034745	-2.1164744	0.23163901
59080612254000	1.2946646	-2.0757728	0.29508537
59080622966000	0.95468795	-1.6627731	0.3286042
59080632274000	0.91578215	-1.1109096	-0.08439561
59080642985000	1.2557588	-0.34715924	-0.54049104
59080652324000	1.2228385	0.45190558	-1.1228806
59080663340000	0.85293436	0.5859809	-2.336741
59080672343000	0.82480246	0.95109665	-4.1216183
59080682933000	0.8038532	2.2517467	-5.667674
59080692393000	0.5554548	4.1982327	-6.5188127
59080702983000	-0.09816227	6.977302	-7.3310456
59080712413000	-1.6831238	13.359047	-9.340978
59080723063000	-2.9843724	19.505562	-11.15698
59080732402000	-3.66253	19.608511	-10.802039
59080745005000	-3.2728736	19.608511	-11.155783
59080752421000	-1.365892	19.519327	-10.915166
59080764628000	-0.45310268	13.357251	-9.937134
59080772471000	-0.01316811	7.309498	-9.870096
59080783458000	0.54527944	5.1822495	-10.757148
59080792491000	1.1348516	3.8762126	-11.207857
59080803141000	0.18914193	5.0439844	-7.943961
59080812510000	0.7308301	10.04607	-6.291962
59080823130000	3.8121676	11.9746	-7.1945763
59080832499000	4.8500543	11.675324	-5.7790046
59080843608000	4.3688197	13.933057	-5.97892
59080852702000	4.140772	15.165472	-6.4404025
59080863200000	3.4757824	14.411299	-7.197569
59080872538000	2.043451	13.1477585	-3.3728316
59080883220000	1.8411411	9.314642	3.977966
59080892741000	2.4343045	5.0403934	5.8412538
59080903392000	2.5031378	2.6928782	5.035006
59080912669000	2.8119898	2.64679	3.4368765
59080923289000	2.9119477	4.530428	0.025737667
59080932628000	1.4083891	8.628104	-2.7976246
59080944865000	-1.1133038	11.595717	-0.2789245
59080952647000	-2.8993783	12.750919	6.2686186
59080963786000	-2.9526494	13.845669	10.513538
59080972636000	-2.6868927	14.675858	10.052056
59080983317000	-3.5380316	13.700221	5.7903767
59081003306000	-2.0811598	9.472659	-2.5995045
59081023784000	-0.078410104	6.27221	-2.3906105
59081043315000	1.0007763	5.973533	0.12749124
59081052684000	1.1306617	7.057508	0.90381116
59081072642000	1.4449008	9.872491	1.1139023
59081083384000	1.2898762	10.006566	1.2372037
59081092692000	0.90859956	9.464878	1.1683705
59081112712000	0.19273324	8.385093	1.043872
59081124949000	0.32920274	7.823054	1.0779893
59081143748000	0.18195933	6.7085533	1.3772645
59081163432000	1.1282675	6.4122705	2.2619221
59081172770000	1.927931	6.964134	2.7688942
59081183452000	2.8933928	7.793725	0.45250413
59081203837000	1.8902222	8.899846	-2.087744
59081212809000	0.24540567	9.414599	-0.23343466
59081232829000	-3.8708255	10.053851	0.09935937
59081243510000	-4.807557	10.933122	-0.5506664
59081252848000	-3.5745432	11.07438	1.01574
59081272868000	1.1677719	10.938509	3.2255883
59081285533000	1.2611457	10.960057	2.532467
59081306254000	-2.4791958	12.293029	1.2354081
59081343943000	-2.3056161	17.029358	1.4784195
59081363932000	-1.4449008	15.433024	3.1956608
59081384379000	0.8655039	16.420034	0.2837129
59081413340000	5.887342	13.662512	-0.51595044
59081433329000	6.7648168	13.311762	2.3660698
59081464061000	3.1812954	18.602348	2.8909986
59081485637000	0.8972271	18.364723	-0.11552023
59081506297000	0.7152678	14.987104	-3.793014
59081513102000	0.7649474	15.031996	-2.285864
59081523784000	1.7106571	15.770008	1.6932992
59081533122000	3.9318779	15.945383	5.4821234
59081543773000	6.600814	15.264832	6.939594
59081553111000	5.0679264	11.795633	3.0071173
59081564372000	3.3393128	8.948928	0.42437226
59081573344000	2.5115175	7.109582	-0.48841715
59081584025000	1.2401965	5.6215854	0.6051345
59081593516000	0.35314476	5.1720743	1.3958195
59081604136000	-0.095169514	4.561553	2.28347
59081613536000	-0.30226797	3.5523968	3.098097
59081624278000	0.18435353	2.315193	3.6619315
59081633738000	0.60333884	1.2012907	3.9432502
59081644420000	1.0468647	0.16998832	3.2872388
59081654246000	1.1839328	-0.56084174	2.4929626
59081669597000	1.5011644	-1.0971429	1.5400703
59081673930000	1.4742297	-1.6633717	1.22224
59081685527000	1.5119383	-1.7345991	0.95588505
59081695872000	1.5328877	-1.3874398	0.87687635
59081705912000	1.3754689	-0.81163436	0.25258827
59081716441000	1.1994951	-0.6679823	-0.5614403
59081725962000	1.1522095	-0.78410107	-1.8836381
59081735698000	1.09834	-1.0684125	-3.626617
59081754557000	1.2539631	-0.4189853	-5.0517654
59081765056000	1.2797008	1.7890673	-6.0740895
59081773845000	1.1312603	4.0737343	-7.2167225
59081785655000	0.777517	6.1806316	-7.678205
59081793376000	-0.0023942017	9.961076	-7.463924
59081805613000	-0.54527944	17.814058	-8.1881695
59081813609000	-1.8369513	19.608511	-9.665991
59081831126000	-3.1004913	19.608511	-10.442909
59081835612000	-1.827973	17.079039	-10.654198
59081854442000	-2.100912	8.558673	-9.190144
59081867350000	-2.9293058	4.3329067	-9.522937
59081873423000	-2.5330653	2.4013844	-11.173141
59081886393000	-1.7310078	2.4331074	-9.336189
59081893504000	-0.12689269	5.7389016	-6.3751607
59081906901000	2.954445	8.81964	-5.2367177
59081913462000	4.5783124	11.309011	-3.8522706
59081927531000	5.1966147	16.634912	-4.3837833
59081933543000	6.097433	19.608511	-5.0661306
59081945598000	6.4260373	19.608511	-6.88752
59081954844000	3.8301241	19.2416	-4.8907557
59081966807000	2.64679	9.8754835	4.032434
59081973552000	2.9059622	-0.61291564	7.6015906
59081986644000	4.4017396	-5.456984	7.1209545
59081993541000	5.353435	-5.6790466	4.1138372
59082006389000	3.5104983	-2.461838	-0.6500258
59082015422000	-0.676362	4.0384197	-4.969764
59082030009000	-3.9175124	10.109517	-1.8387469
59082034129000	-4.1880574	14.824897	8.195353
59082046519000	-2.7808652	19.063831	14.136564
59082053599000	-3.4063504	19.608511	12.792818
59082066996000	-5.218761	18.853142	6.903082
59082073649000	-4.585495	13.624804	0.320823
59082086345000	-1.9847932	8.41921	-3.3441012
59082093638000	-0.12868834	5.2480903	-3.6858735
59082107188000	1.2036849	3.494936	-3.6942532
59082113658000	2.2182279	3.1561563	-2.2409728
59082126811000	2.908955	4.268862	-1.2144588
59082133708000	3.2022448	6.3458314	-0.5363012
59082146464000	2.954445	8.876503	0.2681506
59082154246000	1.9393034	10.572795	1.3221979
59082166118000	0.6817489	11.306618	2.1057005
59082175425000	-0.52732295	11.097723	1.1348516
59082186625000	-0.6266823	9.909002	-0.30286652
59082194224000	-1.1791444	7.735666	-0.28191724
59082211253000	-0.5907693	6.723517	0.25558102
59082215251000	0.47285482	6.4140663	1.1270704
59082224742000	0.7158663	5.673061	1.7280151
59082235667000	0.66020113	5.433042	2.6898856
59082247294000	0.7793127	5.9878983	3.1812954
59082253795000	1.1629834	7.2873516	0.79367787
59082266154000	1.5646108	8.459313	-2.3762453
59082274241000	1.7310078	8.7292595	-2.3020248
59082289775000	1.2791022	8.9519205	0.05566519
59082294047000	-0.038307227	9.275736	1.7447745
59082304973000	-2.2373815	9.653421	0.5722142
59082315715000	-4.657321	9.890448	-0.7703344
59082325908000	-5.254674	9.888652	0.38067806
59082335734000	-3.1465795	9.909601	2.3439236
59082345713000	-0.24720132	10.841544	2.7856536
59082355418000	1.6172832	11.419744	2.5486276
59082370585000	1.5556326	10.899005	2.991555
59082374675000	-0.40222588	10.942101	3.2303767
59082386607000	-2.1212628	12.355278	2.2625206
59082395396000	-2.7665	13.464991	0.8948329
59082407206000	-2.6240451	13.6888485	0.16280572
59082413951000	-2.167351	13.014282	1.0408791
59082427653000	-1.6346412	13.397953	2.8078
59082434001000	-0.5303157	15.896901	2.4067712
59082446971000	0.130484	16.204556	1.0875661
59082453990000	-0.17178397	16.072874	1.2419921
59082466899000	-0.6596026	16.408062	0.89184016
59082474498000	-0.27593175	15.799935	0.054468088
59082485850000	0.4297592	15.493478	-0.74519527
59082494395000	1.6514006	14.772823	-1.4586674
59082507609000	3.2986114	13.200431	-1.8171991
59082514048000	4.497508	12.410943	-0.6823475
59082527049000	5.0020857	12.656349	1.0971429
59082534068000	4.784812	13.214796	3.0083144
59082546306000	4.510676	14.923059	4.048595
59082554576000	4.0719385	16.705542	4.1264067
59082571971000	3.7421372	17.942148	2.7766755
59082575785000	2.919729	18.231846	1.0546459
59082585093000	1.7393875	16.934189	-0.75477207
59082594127000	0.7433996	14.771028	-2.5372553
59082607005000	0.5177461	13.507487	-3.8307228
59082614146000	0.6967127	13.598467	-3.0400376
59082625163000	1.4089876	14.457387	0.5398925
59082635814000	2.2613235	14.521432	4.83509
59082646800000	3.3087866	13.649942	6.362591
59082654643000	4.8757915	12.388198	4.280234
59082667765000	5.2462945	10.31901	1.970428
59082674205000	3.50152	8.21271	1.0827777
59082687846000	1.5382746	6.0890536	0.7811083
59082694255000	-0.108936176	4.7830167	0.40821138
59082708659000	-0.4818331	4.7159786	0.84335756
59082714274000	-0.33399114	4.56275	2.8532898
59082725322000	-0.22744916	3.8456864	4.365228
59082736094000	0.5530606	3.13401	4.0904937
59082749308000	0.84216046	2.6144683	3.17531
59082754100000	1.0989386	2.1440077	2.1470003
59082765300000	1.6364368	1.2090719	1.2270284
59082774333000	2.1745336	0.40222588	0.7835025
59082784983000	2.6042929	0.52612585	1.021127
59082794352000	2.5157075	0.76075757	1.0785879
59082805034000	2.5330653	0.78529817	0.6775591
59082814372000	2.3475149	0.3238158	-0.3333926
59082825389000	2.1039047	-0.3286042	-1.7250223
59082834361000	1.9243397	-1.1797429	-3.1896753
59082845012000	1.9327193	-1.4694413	-4.7866077
59082854380000	1.3078327	0.30226797	-5.5976434
59082865031000	0.50397944	2.3409307	-5.6964045
59082874705000	-0.1933318	4.0785227	-6.0860605
59082886821000	-1.6286557	7.586028	-7.5231805
59082894420000	-3.389591	15.644313	-10.7769
59082907725000	-3.9318779	19.608511	-12.774861
59082914409000	-3.4877534	19.608511	-11.381436
59082931773000	-1.6382325	19.608511	-10.383653
59082935832000	0.5386954	19.05964	-9.783307
59082945445000	0.26036942	12.248137	-9.34038
59082955699000	-0.96665895	7.0461354	-9.746197
59082965861000	-1.2240356	4.7698483	-10.601525
59082976176000	-0.8738836	3.1370027	-8.968081
59082987651000	-0.8846575	4.803367	-4.472967
59082994487000	0.712275	7.5848308	-4.408324
59083008738000	3.084929	8.949526	-4.7441106
59083014506000	3.4799721	10.435128	-4.3999443
59083028666000	3.2148144	13.947422	-5.7137623
59083034556000	3.2561142	17.129316	-6.4386067
59083047923000	4.4077253	18.723854	-8.321647
59083055278000	4.184466	18.396448	-5.9388175
59083065959000	3.9731777	12.735357	2.6797101
59083076060000	4.260482	5.9465985	6.053739
59083086863000	4.0336313	1.6178818	5.846042
59083096141000	3.288436	0.19273324	3.068768
59083109843000	2.1362264	1.7770962	-0.6290765
59083114451000	-0.25139117	6.0597243	-1.6430209
59083128947000	-2.5390508	9.976639	1.0049661
59083134654000	-3.2638955	12.605472	6.7923503
59083147166000	-2.991555	14.827889	11.136629
59083154887000	-3.1974564	16.237476	11.347319
59083168193000	-3.9797618	15.111603	7.016208
59083174662000	-3.9348705	12.3038025	1.8483237
59083188212000	-2.4091654	9.264962	-1.8118122
59083194682000	-0.6512229	6.9348054	-2.9113493
59083208690000	0.88645315	5.533599	-3.1238346
59083214732000	1.8920178	5.2265425	-2.4378958
59083226237000	2.3864205	5.641338	-1.8818425
59083235942000	2.6072857	6.9288197	-1.2096704
59083245524000	2.36188	8.316259	-0.3609259
59083254802000	1.3790601	9.023148	1.0935516
59083267222000	0.36152446	9.526528	2.528277
59083276347000	-0.55605334	9.742605	2.1517887
59083292949000	-0.3585317	9.688137	1.1731589
59083295634000	-0.7715315	8.519168	0.23642741
59083305858000	-0.57879823	7.8583684	-0.12988544
59083316508000	-0.30585927	7.3286514	-0.16220717
59083328013000	-0.09935937	7.038953	-0.28491
59083334849000	0.10115502	7.0209966	-0.14185645
59083348765000	0.40162733	7.277176	0.9451111
59083354869000	1.2641385	7.8715367	1.2623428
59083368358000	1.9620483	7.9966335	0.06404489
59083374888000	2.099715	7.980473	-0.75357497
59083389109000	1.353921	8.747216	0.0053869537
59083394908000	-0.41958386	9.652225	1.2844892
59083407451000	-2.5061307	9.762358	1.2455834
59083415141000	-4.6220064	9.293094	0.39923313
59083428691000	-5.2020016	9.211691	0.07062895
59083434947000	-3.3010056	9.595961	0.83138657
59083447551000	-0.15143326	10.791864	2.143409
59083454966000	2.5210943	11.976396	2.3882163
59083475108000	3.484162	12.318168	2.1679497
59083479258000	2.059612	11.906365	2.2122424
59083485972000	-0.57999533	12.422316	1.9925743
59083495005000	-2.1811178	13.702615	0.5327099
59083507243000	-2.3959973	14.734516	-0.78290397
59083515483000	-1.6645688	14.489709	-0.61052144
59083527079000	-1.359308	13.566744	1.1073183
59083535838000	-1.3395559	14.960768	2.2098482
59083551432000	-1.228824	16.564882	1.0301052
59083555247000	-1.5227122	15.886725	0.729633
59083565715000	-1.6304513	15.516821	0.84096336
59083576609000	-0.6733692	15.046361	-0.13227965
59083586863000	0.7625532	15.313314	-1.5711949
59083595775000	1.6298528	14.936826	-2.1278467
59083608897000	3.335123	14.037205	-1.8614918
59083615275000	4.871003	14.079103	0.44592008
59083629161000	5.7496753	13.326725	3.2680852
59083635478000	5.647922	13.399749	5.832874
59083649699000	4.9027267	14.899117	5.8574142
59083655467000	4.9518075	16.601395	2.858677
59083667277000	4.292804	18.185757	0.10534488
59083677317000	2.5031378	18.300081	-1.3664906
59083687907000	0.84216046	16.983868	-1.6609775
59083696177000	0.30047232	15.313314	-1.99437
59083709422000	0.12749124	14.993689	-1.958457
59083715922000	0.4405331	15.608998	-0.5895722
59083728953000	2.6821043	16.109386	2.5001452
59083735942000	5.549161	15.5359745	5.2756233
59083748332000	4.000711	11.917139	2.9346926
59083756602000	3.0430303	8.607155	0.3309984
59083768535000	2.2122424	6.250662	0.17298107
59083776133000	1.0384849	4.678869	0.22445641
59083796763000	0.20530279	4.466982	0.7332243
59083807322000	-0.42197806	3.9917328	1.8429368
59083817057000	-0.694917	3.0472202	3.417723
59083830912000	-0.54647654	2.0093338	3.7301662
59083835246000	0.107140526	1.4981717	2.9945478
59083847117000	0.688333	0.97503865	2.3415294
59083855693000	1.0271125	-0.08020575	2.03567
59083871409000	1.4957775	-0.7038953	1.7729063
59083875926000	1.780089	-1.3293805	1.1779473
59083886454000	1.5520413	-1.4191631	0.7374141
59083897197000	1.7776948	-0.7966706	0.41718966
59083908305000	1.804031	-0.16519992	0.077213004
59083915385000	1.6903064	0.022146367	-0.5201403
59083928904000	1.2797008	0.20470424	-1.5352819
59083935466000	0.6584055	-0.11432313	-3.1848867
59083947703000	0.4770447	-0.17657238	-4.947019
59083955424000	0.16759412	1.4077905	-5.886145
59083972758000	-0.7368156	3.2860417	-7.8649526
59083975871000	-1.5813702	5.3582234	-10.981605
59083986094000	-2.3403323	8.978256	-13.046603
59083995494000	-2.1930888	16.71093	-11.914744
59084013316000	-1.5280992	19.608511	-8.759786
59084016093000	-2.3942018	19.608511	-6.389526
59084026439000	-2.9352913	19.608511	-5.7502737
59084037883000	-2.0213048	18.431763	-6.294955
59084046733000	-1.0660183	10.497377	-6.663662
59084057689000	-0.7433996	5.535993	-8.861539
59084067881000	-0.5057751	1.5849615	-9.394249
59084076152000	0.3609259	-1.4610616	-8.613141
59084089305000	0.8295909	2.055422	-6.933608
59084095591000	0.53450555	6.823475	-8.762179
59084107158000	1.1719618	8.954913	-9.490616
59084117808000	1.2282255	11.96622	-7.577648
59084127238000	1.4137762	17.038935	-5.4593782
59084136088000	2.2511482	19.608511	-2.837129
59084149211000	2.3732524	19.608511	-1.4802152
59084155619000	3.643975	17.16523	3.8426938
59084169871000	5.505467	8.364742	8.128315
59084175639000	5.7736173	2.7832594	7.28795
59084193278000	5.929839	1.0989386	4.8015714
59084196940000	7.0593038	0.94810385	0.33279404
59084206706000	5.805939	2.4115596	-5.577293
59084216899000	1.4862007	5.8544216	-6.357204
59084227244000	-2.7976246	8.619724	0.0053869537
59084237529000	-5.3259015	11.578958	8.330027
59084248912000	-5.0661306	14.984112	12.381016
59084255748000	-5.027225	16.87613	10.538677
59084267222000	-5.896919	15.883733	5.559935
59084276835000	-4.8775873	13.406931	1.2036849
59084287669000	-2.5839422	10.433931	-1.3664906
59084296550000	-0.52492875	7.0395517	-2.2260091
59084307689000	0.95468795	4.900931	-1.2252327
59084317576000	2.0626047	4.4556093	-0.45729253
59084328013000	2.758719	5.4671597	-0.5255273
59084337016000	3.0262709	7.404069	-0.033518825
59084348643000	2.3026235	9.191938	0.53570265
59084355876000	0.5021838	10.166978	1.555034
59084370524000	-0.8972271	10.369886	1.578976
59084375804000	-1.0414777	10.1544075	0.81642276
59084390391000	-0.96785605	8.980052	0.219668
59084395823000	-0.5530606	7.900267	0.26994625
59084407054000	0.16400282	7.237672	0.6745663
59084417704000	0.8355764	6.719327	1.1923125
59084428447000	1.3383588	6.2662244	1.7717092
59084435923000	2.0655975	6.5241995	2.504335
59084447947000	3.0238767	7.378331	0.7739257
59084456157000	3.0897174	8.009203	-2.0021513
59084469432000	1.9973627	8.250419	-2.6874914
59084475932000	0.2657564	8.682572	-0.7314286
59084488200000	-1.4359225	8.963891	1.0384849
59084495982000	-3.5404258	9.074024	1.1480197
59084509623000	-5.4551888	9.407417	0.7966706
59084515971000	-5.0840874	10.014946	1.7681179
59084528880000	-2.1146786	10.712855	2.5432408
59084536021000	1.0115502	11.500547	2.030283
59084554820000	1.8884265	11.657368	1.9458874
59084558177000	0.6973112	11.517307	2.6647465
59084567027000	-1.678934	11.89619	2.5839422
59084576671000	-2.9460652	12.8209505	1.1468226
59084588389000	-3.1585505	13.466786	-0.24600422
59084596110000	-2.291251	13.807362	-0.8086416
59084609629000	-1.2952632	13.248914	-0.16460137
59084616069000	-1.1426327	12.999917	1.6292542
59084629985000	-1.3730747	15.179238	1.3521254
59084636088000	-1.3694834	16.290747	-0.6727707
59084649272000	-1.6514006	15.193006	0.046088383
59084656108000	-1.567005	14.356831	0.9816227
59084670085000	0.10414778	13.679272	-0.43275195
59084676127000	1.738789	12.774263	-1.7142484
59084689128000	3.3087866	11.851897	-0.6278794
59084696147000	5.4282537	12.289437	0.3537433
59084710215000	6.615179	13.712192	1.8471266
59084716227000	5.9262476	15.008652	4.540005
59084730754000	4.450821	16.667234	5.9998693
59084736155000	4.1299977	18.387468	4.887164
59084750132000	4.3580456	19.399618	2.520496
59084756236000	3.4638114	19.01894	0.6374562
59084767527000	2.1877017	16.971897	-1.0121487
59084778087000	1.6208745	15.341446	-2.8491
59084788554000	1.5634137	15.084668	-3.9390604
59084796244000	1.5729905	15.797542	-2.0033484
59084809825000	2.3235726	16.762405	2.3756466
59084816295000	4.505289	16.385916	5.354632
59084827189000	7.469909	15.390527	5.5258174
59084837779000	6.019023	12.486361	2.1122844
59084848674000	3.4440591	9.211093	-0.7068881
59084856303000	1.9045875	6.8162923	-1.7776948
59084870036000	0.57041854	5.346851	-0.54408234
59084876353000	-0.3393781	4.851251	0.46746787
59084889628000	-0.7038953	4.2066126	1.7711107
59084896373000	-0.41599256	3.70802	3.6948519
59084910472000	0.19033903	2.92751	5.094861
59084916392000	0.4189853	1.6196774	5.0643353
59084929210000	0.7721301	0.81761986	4.200627
59084936381000	1.0893618	0.15801731	3.208829
59084948680000	1.1073183	-0.64942724	2.4827871
59084956401000	1.1174936	-1.2575544	1.6603789
59084969310000	1.8537107	-1.2958617	0.90979666
59084976420000	2.4438813	-1.2258313	0.1448492
59084989909000	2.858677	-0.6925228	-0.3333926
59084996440000	2.6737247	-0.23163901	-1.0265139
59085010234000	2.2092497	-0.17896658	-2.1152773
59085016490000	1.3485341	-0.5303157	-3.9211037
59085028880000	0.7284359	-0.47644615	-6.153697
59085037089000	0.6811504	0.7793127	-7.777564
59085050242000	0.694917	3.156755	-8.736442
59085056529000	-0.044292733	6.3584013	-9.038112
59085069072000	-1.9297266	11.78845	-9.850943
59085076548000	-3.3441012	17.798496	-10.583569
59085093852000	-2.0853498	19.608511	-10.851121
59085098155000	-1.1258733	19.608511	-11.294646
59085107524000	-1.6711528	19.608511	-9.296685
59085116954000	-0.5482722	18.288708	-7.5291657
59085128611000	1.0444705	12.078748	-7.1909847
59085137431000	2.4893713	7.671621	-9.099164
59085150370000	2.9334955	4.6800656	-11.173739
59085156627000	1.1043255	5.9651537	-9.337387
59085170909000	1.7286136	8.695741	-9.680356
59085176646000	3.2363622	9.087791	-9.944916
59085187602000	2.5492263	10.739192	-7.9475527
59085196727000	2.7299886	15.6317425	-7.455544
59085207347000	3.9085343	18.804659	-5.2498856
59085216716000	4.4597993	18.32043	-5.0212393
59085227458000	2.516306	14.3281	-1.7818847
59085236735000	2.9484594	7.140108	3.6774938
59085247447000	3.490746	1.3862427	5.157709
59085256724000	3.1783028	-0.8936358	5.2744265
59085269023000	2.5187001	-0.6099229	3.3345244
59085276774000	1.4269443	2.4343045	-1.1306617
59085287791000	-0.6051345	7.282563	-3.1890767
59085296763000	-2.1452048	11.364676	0.5081693
59085307505000	-2.8802247	13.59727	7.5112095
59085316783000	-2.456451	15.792154	12.126632
59085327433000	-2.3678656	17.376518	11.522695
59085336802000	-3.3842041	16.370953	7.076063
59085347880000	-3.5583823	13.100473	1.347337
59085356791000	-2.4313118	9.39365	-2.2391772
59085367503000	-0.46986207	6.7929487	-3.095703
59085378459000	0.8535329	4.9901147	-2.6485856
59085387492000	1.6921021	4.2969937	-1.7369933
59085396830000	2.4492683	4.8584337	-0.7224504
59085407573000	3.1675289	6.3218894	-0.038905777
59085416850000	3.0131028	7.841609	0.18614918
59085427531000	2.0374656	8.780735	0.45729253
59085436869000	0.5482722	9.220071	0.7930793
59085452678000	-0.676362	9.844358	1.2240356
59085456858000	-0.8242039	10.431537	0.87687635
59085468913000	-0.2669535	9.859323	0.2825158
59085477519000	-0.20111294	8.120534	-0.22026655
59085490184000	-0.34117374	6.7342906	-0.15562311
59085496928000	0.0035913025	6.408081	0.08319851
59085510386000	0.32621	6.4344172	0.741604
59085516917000	0.7823054	6.8970966	1.702876
59085531657000	1.3706805	7.3226657	2.658761
59085536937000	2.428319	7.941567	1.3036429
59085550181000	3.1124623	8.406641	-1.7770962
59085557597000	2.835932	9.102157	-2.700061
59085570598000	1.6759412	10.210073	-0.9923966
59085576976000	-0.44831428	10.111312	1.3946224
59085592265000	-2.7006595	9.615114	1.5568297
59085597026000	-4.9386396	9.7803135	0.6572084
59085609019000	-4.7267528	10.357915	0.93613285
59085618937000	-1.8501194	10.953473	2.3882163
59085635386000	1.1306617	11.705851	3.0142999
59085639598000	1.9069817	12.1523695	3.208829
59085648692000	0.55964464	12.640188	3.1848867
59085659068000	-1.8740613	13.5218525	2.4827871
59085668834000	-3.0280666	14.256872	0.14305355
59085679576000	-2.9747956	14.126389	-0.9451111
59085689799000	-1.8842367	13.496714	-0.31663316
59085699321000	-1.3706805	12.637794	1.8405426
59085710765000	-1.5041572	14.049175	3.0466216
59085718089000	-1.2006922	16.19857	1.5646108
59085733653000	-1.3221979	15.840038	1.0360907
59085737803000	-1.0726024	15.216349	1.3174095
59085750804000	-0.28072014	14.272435	1.1312603
59085758342000	1.3036429	13.920487	-0.2669535
59085770854000	3.079542	13.172897	-2.0841527
59085779643000	4.811747	11.810597	-2.4510639
59085790934000	5.9322333	11.68969	-1.2485762
59085798594000	6.211158	11.991958	1.5406688
59085815013000	5.3522377	13.382989	4.7620673
59085819102000	4.1701007	15.693394	6.0130377
59085842418000	4.088698	17.44595	4.614824
59085847697000	4.0581717	18.918383	1.9393034
59085859019000	3.198055	18.614319	-0.029927522
59085870067000	1.9087774	16.281769	-1.7142484
59085877269000	1.0540473	13.809755	-3.466804
59085890666000	0.8936358	13.154343	-4.237737
59085897288000	1.1761516	14.528016	-2.7162218
59085910838000	2.1260512	16.10759	1.1085154
59085917369000	5.085284	16.509218	4.8865657
59085929881000	6.7079544	14.826094	6.861782
59085939250000	5.1966147	12.017695	4.623802
59085950511000	3.3237505	9.193136	1.822586
59085957347000	0.9600749	6.3865333	0.18076223
59085971171000	-0.7074866	4.5016975	-1.3934253
59085977427000	-1.5777789	3.7361517	-1.2395979
59085992015000	-1.4508862	3.752911	0.6871359
59085997355000	-0.7188591	3.5362358	3.6361938
59086011119000	-0.23882163	2.7299886	4.9057193
59086017436000	0.22864626	1.8357542	4.373009
59086028483000	0.5117606	1.2455834	3.3518825
59086037852000	1.0821792	0.48482585	2.2278047
59086050303000	1.8561049	-0.3812766	1.2401965
59086057902000	2.0296845	-0.86969376	0.9331401
59086071452000	1.8189948	-0.8403648	1.2413936
59086077494000	1.4508862	-0.35793316	1.5095441
59086089579000	1.2958617	0.2873042	0.93852705
59086097850000	1.3437457	0.7517793	-0.4914099
59086110728000	1.3072342	0.5117606	-1.9129672
59086117564000	1.3928268	0.02873042	-3.3237505
59086128886000	1.4107834	-0.19572599	-4.732738
59086138011000	1.2934675	0.9163807	-5.8322754
59086150767000	0.46208093	3.2638955	-6.42903
59086157542000	-0.25079262	5.421071	-7.6267295
59086175120000	-0.97264445	8.825027	-8.404845
59086179149000	-1.7184383	16.669031	-9.285912
59086188609000	-2.2637177	19.608511	-10.673351
59086197612000	-3.3195608	19.608511	-8.91062
59086215098000	-2.4241292	19.608511	-8.471284
59086218760000	-0.78649527	18.371906	-8.811261
59086228312000	-0.28491	10.86369	-9.021352
59086238108000	-0.4914099	6.408081	-10.811018
59086249308000	-0.023343466	4.8362875	-12.517485
59086258769000	0.009576807	5.455787	-9.206305
59086268657000	2.4103625	7.845799	-7.289746
59086279460000	4.0503907	9.255983	-7.0048356
59086288768000	4.039018	11.585542	-6.7121444
59086298716000	3.66253	16.238672	-7.01142
59086309703000	3.705027	19.523518	-5.935226
59086319560000	3.1872811	19.529503	-4.8722005
59086331065000	0.9008184	15.42225	-0.54168814
59086337748000	1.9381063	6.884527	6.117185
59086351939000	3.7738605	0.30047232	7.764396
59086357798000	5.193622	-1.5412674	7.045537
59086369609000	5.8717794	-0.0724246	4.741118
59086379496000	4.833295	2.9083564	-0.46088383
59086390941000	1.459266	7.785944	-6.645705
59086397807000	-2.0093338	11.619659	-4.1437645
59086410777000	-4.148553	12.856863	5.7496753
59086417796000	-3.8193502	14.791977	12.068572
59086431956000	-3.537433	16.440384	11.747749
59086437846000	-4.2263646	15.246277	6.875549
59086449046000	-3.9516299	12.367847	1.1827357
59086458354000	-2.6982653	9.242217	-1.99437
59086470775000	-1.2018893	6.951565	-2.0745757
59086477855000	0.23702596	5.7365074	-1.3030443
59086491679000	1.5292963	5.374983	-0.79367787
59086497874000	1.7393875	5.6784477	-0.7224504
59086509745000	2.2343888	7.043741	-0.42916065
59086519481000	2.1110873	8.351574	0.31304187
59086533336000	0.6242881	9.136273	1.2814964
59086537883000	-0.65541273	9.443929	2.508525
59086549418000	-0.30705637	10.205285	2.7096379
59086558421000	0.24899697	10.402207	1.3431472
59086570842000	-0.50757074	9.5809965	0.40521863
59086577952000	-1.4083891	8.377911	0.4357447
59086591960000	-0.8678981	8.323442	0.095169514
59086597972000	-0.35314476	8.185177	-0.1592144
59086610301000	-0.020949265	7.41604	0.5327099
59086619395000	0.7445967	6.9479733	1.9746178
59086630992000	2.059612	7.009624	2.765303
59086638072000	2.9311013	7.252037	1.0253168
59086652263000	2.6629508	7.562086	-0.96426475
59086658030000	1.6017209	8.103774	-1.1438298
59086669261000	-0.320823	8.148665	-0.3866636
59086678538000	-2.1164744	7.4429746	0.047884032
59086691844000	-3.4733882	7.52737	0.45070848
59086698100000	-3.3955765	8.992023	0.79367787
59086712535000	-1.4155718	10.708666	1.7908629
59086718119000	1.0133458	11.548432	2.4893713
59086729564000	2.4839842	11.273697	1.8579005
59086739817000	2.2780828	11.175535	1.3718776
59086753550000	0.078410104	11.430517	1.7884687
59086758067000	-1.7004818	12.130223	1.5185224
59086768748000	-1.8722657	12.838308	-0.017357962
59086778636000	-1.4347254	12.922704	-0.54887074
59086794444000	-1.5508442	12.885593	1.2366052
59086798442000	-1.5197195	15.783176	2.5115175
59086808848000	-0.5781997	18.295292	0.9540894
59086819835000	-0.770933	17.600973	1.292869
59086829844000	-1.4024036	17.213114	2.5103204
59086839305000	-1.06123	16.85518	3.228581
59086852366000	-1.0043676	15.222335	3.152565
59086858256000	0.7380127	14.18325	0.9672575
59086870555000	3.7582982	13.878589	-1.7555484
59086878733000	6.42903	13.379397	-2.4193408
59086893809000	7.183802	12.98196	0.44352585
59086898265000	6.2380924	14.194025	3.5218706
59086909282000	4.307169	16.057312	4.8560395
59086919902000	3.329736	18.198925	4.780622
59086929911000	2.5605986	19.2003	4.4442368
59086939891000	2.030283	18.738817	2.4253263
59086950847000	1.7142484	17.150265	-0.61052144
59086958354000	1.2276269	15.462952	-3.383007
59086973277000	0.7445967	15.019425	-3.639785
59086978373000	1.5089456	16.371552	-0.32022446
59086989543000	5.448006	17.972673	4.285621
