linearaccelerometer_timestamp	linearaccelerometer_x_data	linearaccelerometer_y_data	linearaccelerometer_z_data
909752504304490	4.140519	0.73538685	-1.8140764
909752512605271	3.2797437	0.5244932	-1.7530069
909752520906053	2.0540972	0.12902641	-1.3129339
909752529206834	1.4976758	-0.22449541	-0.58890057
909752537507615	1.4970479	-0.58497953	0.35416412
909752545808396	1.7079794	-0.88411427	1.1820297
909752554109178	1.8574547	-0.971817	1.6707764
909752562409959	1.9178308	-0.7210965	1.7697754
909752570710740	2.2114906	-0.3221135	1.4060545
909752579011521	2.277769	0.27195358	0.7383652
909752587312303	1.9662127	0.89959	-0.020317078
909752595613084	1.5860875	1.2030926	-0.7131252
909752603913865	1.3485409	1.093904	-1.2993965
909752612214646	1.2765845	1.0508232	-1.2663832
909752620515428	1.2219427	0.5673356	-2.3084116
909752628816209	1.1295125	0.18307304	-2.1704683
909752637116990	1.0589278	-0.25008726	-1.7626257
909752645417771	1.0537202	-0.32008362	-1.7071962
909752653718553	0.94426674	-0.2844329	-1.8735008
909752662019334	0.9619753	-0.3498249	-1.8194246
909752670320115	1.1800452	0.018064976	-1.7792635
909752678620896	1.0284443	0.09002018	-1.3567543
909752686921678	0.8742888	0.13996983	-0.99229145
909752695222459	0.7726945	0.1769023	-0.7485409
909752703523240	0.7730069	0.13716507	-0.7214813
909752711824021	0.64969397	0.18803358	-0.68154144
909752720124803	0.0816651	0.4240904	-1.4941044
909752728425584	0.03642738	0.4243188	-1.9770823
909752736726365	-0.06652248	0.30011463	-2.327344
909752745027146	-0.17440927	0.07697773	-2.4159222
909752753327928	-0.15445733	0.0044841766	-2.350295
909752761628709	-0.33660835	-0.2720785	-1.8194046
909752769929490	-0.36770457	-0.32612944	-1.5709553
909752778230271	-0.11489463	-0.42781687	-1.4315615
909752786531053	0.5268932	-0.39928913	-1.490345
909752794831834	0.5500234	-0.46555948	-1.4334784
909752803132615	1.2194881	-0.23955488	-1.6824808
909752811433396	1.7554028	0.07400608	-1.9730425
909752819734178	2.4116242	0.38313246	-1.9653015
909752828034959	2.3175414	0.16379642	-1.6368837
909752836335740	2.1955707	-0.116663456	-1.2587376
909752844636521	2.15092	-0.13839388	-1.2291298
909752852937303	1.9820545	-0.32868624	-0.99261093
909752861238084	1.7743067	-0.32350588	-1.0064392
909752869538865	1.5831035	-0.035800457	-1.5858641
909752877839646	1.2561686	-0.18535185	-1.8675451
909752886140428	1.0428143	-0.2790079	-1.8280525
909752894441209	0.99585086	-0.26506186	-1.8137436
909752902741990	0.99309516	-0.2836089	-1.4727335
909752911042771	1.1338817	-0.5071368	-0.43946075
909752919343553	0.83574414	-0.6287575	-0.28460026
909752927644334	0.66290843	-0.6776142	-0.064704895
909752935945115	0.5398617	-0.4712143	-0.064959526
909752944245896	0.58319056	-0.48123837	-0.060199738
909752952546678	0.5133869	-0.0681386	-0.3949318
909752960847459	0.015368283	0.36215734	-1.4239197
909752969148240	-0.16661078	0.29394054	-1.5863495
909752977449021	0.03566283	0.32857037	-1.5963011
909752985749803	0.3870316	0.30360174	-1.3799171
909752994050584	0.3850966	0.2997594	-1.3672256
909753002351365	0.6461972	0.2083273	-1.0469904
909753010652146	0.7603124	0.056480885	-0.7869339
909753018952928	0.8345455	-0.14852142	-0.72327805
909753027253709	0.88760734	-0.34433937	-0.97402954
909753035554490	1.0421331	-0.40162373	-1.1444216
909753043855271	1.1792936	-0.34598875	-1.2356081
909753052156053	1.214314	-0.2614789	-1.3703537
909753060456834	1.1288011	-0.22660017	-1.4341345
909753068757615	0.97814715	-0.24947977	-1.0619211
909753077058396	0.39239383	-0.1020174	-0.3673582
909753085359178	0.39376396	-0.08646631	-0.3747387
909753093659959	0.46860605	-0.17606974	-0.22579765
909753101960740	0.71627396	-0.33888197	-0.29381847
909753110261521	0.96389127	-0.41560364	-0.3401537
909753118562303	0.9107295	0.015523434	0.16024303
909753126863084	0.8947886	0.03277874	0.14878368
909753135163865	0.7124218	0.21380854	-0.10546303
909753143464646	0.5154846	0.20704365	-0.684041
909753151765428	0.56328845	0.11415815	-1.2658758
909753160066209	0.83949244	0.042334557	-1.5387688
909753168366990	0.93969154	0.01063776	-1.3508816
909753176667771	0.906773	-0.10308647	-1.0774412
909753184968553	0.87212	-0.2025466	-0.63659954
909753193269334	0.7878691	-0.22275925	0.19716263
909753201570115	0.64581954	-0.14867067	0.8174486
909753209870896	0.5033058	-0.03406	0.814085
909753218171678	0.46249485	0.006345272	0.5405569
909753226472459	0.28944123	0.0066595078	0.112428665
909753234773240	0.12190056	-0.004172802	-0.5926151
909753243074021	0.017865181	0.038805485	-1.3342428
909753251374803	0.0053328276	0.12533808	-1.9885263
909753259675584	0.085591555	0.18479633	-3.0830183
909753267976365	0.98307407	-0.08673906	-3.7572136
909753276277146	0.9559969	-0.109182835	-3.713418
909753284577928	0.9041995	-0.21681595	-1.4681711
909753292878709	0.7675556	-0.18848133	0.14189339
909753301179490	0.67283225	-0.12205076	0.70710945
909753309480271	0.5128958	-0.07239294	0.43212318
909753317781053	0.14183903	0.043128967	0.16881847
909753326081834	-0.2817093	0.3079071	0.42914867
909753334382615	-0.77981865	0.55392075	0.9168043
909753342683396	-1.2541008	0.6880622	0.77765274
909753350984178	-1.2420105	0.67978716	0.7744751
909753359284959	-1.6463277	0.5136337	-1.4944172
909753367585740	-1.6613233	0.4962387	-1.4715452
909753375886521	0.9237081	-0.5042629	-3.300459
909753384187303	0.8548305	-0.5053792	-3.2655792
909753392488084	3.947676	-1.4086089	-3.0593195
909753400788865	3.8507628	-1.366991	-3.04698
909753409089646	4.176869	-1.6024132	-3.5164385
909753417390428	4.1148963	-1.5414629	-3.5194674
909753425691209	1.227094	-1.1019058	-2.6854677
909753433991990	0.2567656	-0.4019122	-1.6661501
909753442292771	-0.44529748	0.23616791	-0.71812534
909753450593553	-0.9755955	0.69427395	0.1932621
909753458894334	-1.312113	0.80267143	1.0322018
909753467195115	-1.3720129	0.3246107	1.4608307
909753475495896	-1.6353288	-0.39303398	0.9873667
909753483796678	-1.488711	-0.62169313	0.31800938
909753492097459	-0.9648907	-0.43641663	-0.496171
909753500398240	-0.24929696	-0.07092619	-1.2710075
909753508699021	-0.19513911	-0.03022194	-1.2906847
909753516999803	0.5213039	0.2759142	-1.8181906
909753525300584	1.2975838	0.2811532	-1.6341524
909753533601365	1.1771644	0.18116236	-0.9364805
909753541902146	1.0124536	0.11534166	-0.18295479
909753550202928	1.0431681	0.17898083	-0.21759129
909753558503709	0.74258465	0.18705177	0.1885109
909753566804490	0.27139527	0.22239447	0.085243225
909753575105271	-0.040359914	0.07201958	-0.63387585
909753583406053	0.53863883	0.23585033	-0.57002544
909753591706834	1.1567328	0.16143227	-0.41395378
909753600007615	1.5219519	-0.23481035	-0.23391342
909753608308396	1.5773749	-0.147686	-0.27271843
909753616609178	1.6726121	-1.6343462	0.43849945
909753624909959	1.618928	-1.8361189	0.8457155
909753633210740	1.7744846	-1.6743422	1.3128538
909753641511521	1.9783792	-1.2398958	1.7956676
909753649812303	1.9700515	-1.0895967	1.7340841
909753658113084	1.9840801	-0.48701954	2.3113136
909753666413865	1.044065	0.99588895	3.8076305
909753674714646	-0.13536447	2.1059709	4.440914
909753683015428	-1.1590686	2.5257785	4.666585
909753691316209	-1.7483411	2.2936714	3.3585844
909753699616990	-1.8919295	2.3280344	3.338585
909753707917771	-1.7329655	1.6142774	0.94829273
909753716218553	-0.6640161	0.5845778	-1.6515789
909753724519334	1.0158962	-1.1918597	-4.686409
909753732820115	1.4455192	-1.5468264	-4.8056993
909753741120896	1.8708527	-1.690314	-4.206094
909753749421678	1.5599759	-1.7024174	-4.1086435
909753757722459	1.7816219	-1.4957769	-2.792057
909753766023240	1.7678027	-0.9567461	-1.0422869
909753774324021	2.0575688	-0.34710383	0.25526237
909753782624803	1.3006878	-0.38468552	0.16963768
909753790925584	1.2332611	-0.26559353	0.1567812
909753799226365	0.41178083	-0.60551476	-0.6370964
909753807527146	-1.0447245	-0.35378647	-1.5034943
909753815827928	-2.835564	0.7289634	-2.0401382
909753824128709	-1.0261042	2.380754	-0.6036072
909753832429490	-0.2761376	2.321577	-0.88723564
909753840730271	-0.18962002	2.3386762	-0.91485214
909753849031053	0.090183735	1.8957429	-1.1712217
909753857331834	0.09028888	1.2143607	-0.9101305
909753865632615	-0.22672462	0.46201253	0.18071175
909753873933396	0.17179012	-0.22401118	1.6321669
909753882234178	0.19155717	-0.19051433	1.6118507
909753890534959	-0.25720906	0.04941368	-0.07496834
909753898835740	-1.1018643	0.50800824	-1.1233606
909753907136521	-1.1319556	0.72855115	-1.3584156
909753915437303	-0.03504491	0.5173435	-1.0708151
909753923738084	0.31663442	0.50086904	-0.25150776
909753932038865	0.23886657	0.13574982	0.7007971
909753940339646	-0.42825103	-0.30656707	1.1505156
909753948640428	-1.5566149	-0.5940187	1.0094042
909753956941209	0.10258031	-0.87768424	-0.8852253
909753965241990	6.068788	-1.4416823	-4.591893
909753973542771	9.688661	-2.3319168	-6.372696
909753981843553	0.08952522	-0.879547	-3.231966
909753990144334	-0.94003487	-0.060382724	-1.8020248
909753998445115	-0.86707115	0.31357598	-1.861309
909754006745896	-1.2010927	0.61389124	-1.9366674
909754015046678	-1.7909176	1.6005671	-0.13540077
909754023347459	-1.4523306	1.8891507	-0.673192
909754031648240	-1.1710298	1.8605326	-0.7145128
909754039949021	-1.1091912	2.0553298	-2.0599213
909754048249803	-1.4616809	2.2968144	-3.5622883
909754056550584	-1.7762307	2.4765139	-4.6506834
909754064851365	-1.7231071	2.4213738	-5.006316
909754073152146	-1.996198	2.0784733	-4.7546606
909754081452928	-0.96939677	1.3675587	-4.8938046
909754089753709	-0.8101454	0.75854707	-5.2161503
909754098054490	-0.8476852	0.3399303	-5.4995317
909754106355271	-0.65900946	0.39874768	-5.474408
909754114656053	-0.63385296	0.06947994	-5.0824203
909754122956834	-0.7487683	0.072879076	-4.01818
909754131257615	-1.0456587	0.15590215	-2.7180338
909754139558396	-1.4282413	0.08403182	-1.5220451
909754147859178	-1.4262228	-0.0059679747	-0.31198788
909754156159959	-1.2022474	-0.018831491	0.680171
909754164460740	-1.1804669	0.06890011	1.0044127
909754172761521	-1.410388	0.14129472	0.31215096
909754181062303	-0.8790498	0.0496341	-0.92719364
909754189363084	-0.33839893	-0.1446445	-1.8194685
909754197663865	0.03461504	-0.3132193	-2.0505333
909754205964646	0.16425896	-0.39014298	-1.8439283
909754214265428	-0.4156866	-0.63162	-1.1971016
909754222566209	-0.21318293	-0.4901291	-1.0767393
909754230866990	-0.63526535	-0.5949181	-0.08730507
909754239167771	-0.90790653	-0.8480593	1.2511573
909754247468553	-1.2299685	-0.9755956	2.2185798
909754255769334	-1.0300689	-0.79288447	2.3602257
909754264070115	-1.4573851	-0.8284431	2.7975526
909754272370896	-1.9553728	-1.0454233	2.7707434
909754280671678	-1.4485359	-0.7936413	2.293798
909754288972459	-0.26110792	-0.025706291	2.0927672
909754297273240	0.60080624	0.92376256	2.8934827
909754305574021	0.869421	0.9044064	3.199328
909754313874803	1.0549698	1.4991163	4.732918
909754322175584	1.1829596	0.65099776	5.5419593
909754330476365	1.6742086	-0.30278975	3.7025728
909754338777146	1.7769289	-0.40238845	3.8548527
909754347077928	1.3708506	-1.1403456	0.2770157
909754355378709	1.1103983	-0.88421583	-0.47283792
909754363679490	1.1032095	-1.0013336	-0.47373724
909754371980271	0.79981804	0.005457729	0.90718603
909754380281053	0.8052168	-0.10556626	0.9249091
909754388581834	0.12026596	-0.10702938	3.1754646
909754396882615	-0.40949917	-0.30311263	4.370962
909754405183396	-0.35435295	-0.43220538	4.4662786
909754413484178	-0.1577406	-0.71141523	4.0092854
909754421784959	-0.48740768	-0.38625264	1.6140947
909754430085740	-0.44900513	-0.6097263	1.7358928
909754438386521	-0.8476	-0.23848844	0.78086424
909754446687303	-0.74805737	-0.28353477	1.265408
909754454988084	-0.72195244	-0.55629754	1.4388967
909754463288865	-0.37124348	-0.5388148	1.9851336
909754471589646	0.24993229	0.044095278	3.0701811
909754479890428	0.23086548	-0.047424555	3.2761397
909754488191209	0.24487686	-0.3274517	3.5754178
909754496491990	0.19334221	-0.04180026	2.9202418
909754504792771	0.17030811	-0.30718732	3.2032123
909754513093553	-0.059713364	-0.16064787	2.5308595
909754521394334	-1.2124987	0.10455418	1.835366
909754529695115	-2.1502533	0.31590843	1.6222888
909754537995896	-1.7684841	0.119515896	1.2182366
909754546296678	-0.68615437	-0.22496891	0.651273
909754554597459	1.017312	-0.83689594	0.2979219
909754562898240	2.3603172	-1.0840325	0.24862015
909754571199021	2.2325	-1.2997365	0.4106865
909754579499803	3.0678062	0.2953539	1.1619008
909754587800584	3.1000867	0.39279366	1.254303
909754596101365	2.93681	0.532711	1.2291971
909754604402146	3.044207	0.94627666	1.450219
909754612702928	3.2816014	1.5141678	1.4068611
909754621003709	3.1372714	1.9452829	0.43723223
909754629304490	2.172997	2.1223364	-0.7027124
909754637605271	2.662589	1.3961744	-0.09257569
909754645906053	2.8285155	0.4869027	0.13262126
909754654206834	2.1413803	-0.026591778	-0.07593755
909754662507615	0.92319536	0.04050684	-0.19214407
909754670808396	-0.051217556	0.44173384	0.23635913
909754679109178	-0.2984538	0.4275198	0.36506486
909754687409959	-0.150805	0.23660517	0.2867796
909754695710740	0.23753405	0.21516228	0.8429394
909754704011521	0.22507238	0.2931075	1.3918061
909754712312303	-0.2677517	0.3427906	1.6064107
909754720613084	-0.9292693	0.32023525	1.5392885
909754728913865	-1.5627398	0.60077	1.493865
909754737214646	-2.0646996	0.68315125	1.5718544
909754745515428	-2.3493023	0.55035114	1.1550355
909754753816209	-2.1632643	0.33530807	0.7226932
909754762116990	-1.6702085	0.13233757	0.3046164
909754770417771	-1.8086939	0.05611801	0.24424344
909754778718553	-0.7472	0.024717331	0.4113692
909754787019334	-0.7054529	0.17314816	0.3803429
909754795320115	-0.65437937	0.1349802	0.387335
909754803620896	-0.8214598	0.0652256	0.28787816
909754811921678	-1.0026977	0.48152733	0.33462918
909754820222459	-1.3133726	0.85971546	0.8481175
909754828523240	-1.4452515	1.1891127	1.375957
909754836824021	-1.6858127	1.2591839	1.6651005
909754845124803	-2.0549235	1.1614914	1.7344474
909754853425584	-2.5534663	1.0533543	2.1345878
909754861726365	-2.6339362	1.0358868	2.036076
909754870027146	-3.3614895	0.9250574	2.3772967
909754878327928	-3.1258202	0.73471165	2.6309237
909754886628709	-2.654913	0.47409153	2.3751576
909754894929490	-2.3312542	0.3244629	1.5803568
909754903230271	-1.9994133	0.23686409	0.8066716
909754911531053	-1.5696466	0.16156101	0.37616444
909754919831834	-1.661226	0.14134026	0.33755255
909754928132615	-0.8613415	-0.16558361	1.1927078
909754936433396	-0.6789639	-0.22293186	0.50103426
909754944734178	-0.37923336	-0.268198	0.005894661
909754953034959	-0.0105752945	-0.3658476	-0.38504624
909754961335740	0.39947987	-0.5486851	-0.6228931
909754969636521	0.8613293	-0.8022928	-0.59910965
909754977937303	1.3839259	-0.8897953	-1.3699548
909754986238084	1.3820863	-0.99009895	0.12490821
909754994538865	1.0963308	-0.8491583	0.78104424
909755002839646	0.8299545	-0.80469704	0.9786098
909755011140428	0.74325407	-0.775053	0.8421204
909755019441209	0.54762805	-0.8803129	0.97137094
909755027741990	-7.778587	15.049812	10.986469
909755036042771	9.176455	-3.1114197	5.462966
909755044343553	9.123472	-3.055087	5.3120737
909755052644334	-2.3792663	-5.974533	-7.417056
909755060945115	-2.4579968	-5.9824514	-7.363093
909755069245896	-3.2603388	-4.7190676	-5.407774
909755077546678	1.0989883	0.8621664	2.100651
909755085847459	0.61156046	2.4819574	3.4384632
909755094148240	0.58187556	2.508318	3.336485
909755102449021	-0.6478099	2.0693388	2.010589
909755110749803	-0.37168866	0.62963104	-1.9044151
909755119050584	-0.38880664	0.6422577	-1.9375219
909755127351365	3.1535826	-1.4937983	-2.1964946
909755135652146	3.0957391	-1.49928	-2.1783788
909755143952928	1.5292692	-1.1909723	-0.48192286
909755152253709	0.5278567	-1.1508007	0.39806175
909755160554490	0.539345	-1.1354046	0.37030935
909755168855271	0.002752483	-1.0879974	0.9012933
909755177156053	-1.1395553	-0.99360657	0.89454365
909755185456834	-1.9262505	-0.800724	0.61069155
909755193757615	-2.4048429	-0.90782833	0.6504226
909755202058396	-2.6325984	-1.0813894	0.63458323
909755210359178	-2.4633536	-1.0595503	0.6428757
909755218659959	-2.3427806	-1.2650328	0.4363711
909755226960740	-0.9355401	-2.259285	0.18210125
909755235261521	-0.11237204	-2.4861345	-0.019076347
909755243562303	-0.06626904	-2.464735	-0.0320704
909755251863084	0.4503821	-1.6556349	-0.35065722
909755260163865	0.43217838	-1.654192	-0.35104704
909755268464646	0.31299877	-1.0732307	-1.3804436E-4
909755276765428	0.44384885	-0.5813637	0.08686662
909755285066209	0.18508387	-0.26428032	0.16256714
909755293366990	-0.11728883	0.043842316	-0.0047442913
909755301667771	-0.4868493	0.2793951	-0.21054983
909755309968553	-0.8358309	0.54407215	-0.31643915
909755318269334	-1.061373	0.86060333	-0.261029
909755326570115	-0.99141896	0.8478975	-0.20183802
909755334870896	-1.1237367	1.3304653	0.16210985
909755343171678	-1.0654542	1.1749249	0.15620399
909755351472459	-0.9818101	0.9579096	-0.023725986
909755359773240	-0.9279051	0.7949629	-0.21580386
909755368074021	-0.8753667	0.6182375	-0.2292645
909755376374803	-0.7727268	0.24907684	0.03494692
909755384675584	-0.9775493	-0.20353222	0.09742308
909755392976365	-1.0586386	-0.6616087	-0.26372647
909755401277146	-1.0833638	-0.89117813	-0.6046977
909755409577928	-0.8656459	-0.921257	-0.4996252
909755417878709	-0.42534137	-0.8149805	0.037756205
909755426179490	-0.02794218	-0.6153469	0.59209657
909755434480271	0.06905484	-0.3205042	1.0265148
909755442781053	0.27562308	-0.070542336	1.1298232
909755451081834	0.41087914	0.10857391	1.0652084
909755459382615	0.5741992	0.38430786	0.98260736
909755467683396	0.8187585	0.5770111	0.9679737
909755475984178	0.8290765	0.5705519	0.9906843
909755484284959	0.73168635	-0.4153328	-0.0048270226
909755492585740	0.6595273	-0.49542713	-0.25937176
909755500886521	0.7440808	-0.4851904	-0.1475861
909755509187303	0.5063119	-0.62811947	-0.27238727
909755517488084	-0.123306036	-0.8525677	-0.52424526
909755525788865	-0.7242296	-0.87476635	-0.13719058
909755534089646	-0.8754461	-0.9943075	0.85109186
909755542390428	-0.80452156	-1.1152716	1.5861123
909755550691209	-0.8722367	-1.2686567	2.1485941
909755558991990	-0.93685174	-1.3963099	2.3117836
909755567292771	-0.86225677	-1.4028358	2.1224566
909755575593553	-0.61252475	-1.2085524	1.9801943
909755583894334	0.0137348175	-0.98047733	2.3306155
909755592195115	0.47341466	-0.9053898	2.4599333
909755600495896	0.9053693	-0.8714199	2.381781
909755608796678	1.1952443	-0.9385433	2.2650275
909755617097459	1.1569669	-0.92995834	2.2086325
909755625398240	1.1074812	-1.4599218	2.3407922
909755633699021	0.8036511	-1.7179565	2.4213052
909755641999803	0.45933676	-2.060175	2.3671339
909755650300584	0.036609173	-2.2469902	2.2076018
909755658601365	-0.36557603	-2.3647985	2.2447557
909755666902146	-0.6353276	-2.4858818	2.6373255
909755675202928	-0.66094375	-2.4611378	2.5643246
909755683503709	-0.5542667	-2.6238642	3.5018103
909755691804490	-0.16263962	-2.4655857	3.3202066
909755700105271	0.18510413	-2.2415457	3.2333708
909755708406053	0.50288796	-2.007967	3.1689715
909755716706834	0.7905524	-1.797534	2.9811916
909755725007615	0.97827744	-1.6225758	2.6237054
909755733308396	1.1531713	-1.4177322	2.3295374
909755741609178	1.3059638	-1.3200445	1.9263935
909755749909959	1.4528663	-1.2950096	1.4886436
909755758210740	1.4615245	-1.2913914	1.1009316
909755766511521	1.3818412	-1.3050947	1.092083
909755774812303	1.1485744	-1.3302832	0.84177876
909755783113084	0.051344395	-1.7482929	0.7631993
909755791413865	-0.42038465	-2.1658125	0.94419813
909755799714646	-0.43199492	-2.157445	0.9294529
909755808015428	-1.30634	-2.6678858	1.4635606
909755816316209	-1.6690042	-2.5980206	1.5320406
909755824616990	-1.6744013	-2.574274	1.4906592
909755832917771	-1.2751236	-1.6398125	1.9755006
909755841218553	-0.9645051	-1.2015915	2.0851111
909755849519334	-1.0168545	-1.1920977	2.0451775
909755857820115	-0.67803335	-0.91891956	1.6124578
909755866120896	-0.6918255	-1.0054226	1.354949
909755874421678	-0.76764655	-1.0115614	1.3383336
909755882722459	-0.0054432154	-1.2238808	0.4859128
909755891023240	-0.06751704	-1.2303495	0.48012447
909755899324021	0.07058489	-1.5630827	-0.2870674
909755907624803	0.022629619	-1.5686407	-0.285563
909755915925584	-0.09763992	-1.6021042	-0.14529991
909755924226365	-0.5207186	-1.4893856	0.13126373
909755932527146	-1.1598282	-1.3739233	0.24123764
909755940827928	-1.1171446	-1.4650288	0.78022623
909755949128709	-1.183816	-1.4862404	0.80398655
909755957429490	0.5532273	-1.8273039	0.12813187
909755965730271	0.42513478	-1.8664398	0.17800093
909755974031053	1.5699905	-1.791215	-1.075911
909755982331834	2.9856768	-1.1211224	-2.1206355
909755990632615	2.796993	-1.1894627	-1.9988418
909755998933396	3.006281	-0.8569851	-2.2044902
909756007234178	3.123406	-0.44688225	-2.6329803
909756015534959	2.9705038	-0.50444984	-2.4978423
909756023835740	3.1005204	-0.65605354	-2.5962589
909756032136521	3.4142008	-0.86145306	-2.8261397
909756040437303	3.489149	-1.2883577	-3.0363827
909756048738084	2.5009012	-1.8746109	-2.8983214
909756057038865	1.3118985	-2.1556416	-2.0948887
909756065339646	0.29187322	-2.105013	-0.9185755
909756073640428	-0.44726002	-1.7193546	0.11781955
909756081941209	-0.98313844	-0.86080265	0.572582
909756090241990	-1.3725739	0.2680683	1.3781433
909756098542771	-1.2633817	0.96098614	1.4330482
909756106843553	-1.0260189	1.031745	0.88003755
909756115144334	-0.77314997	0.730113	0.022639513
909756123445115	-0.5416151	0.40947437	-0.71587324
909756131745896	-0.3699028	0.30027962	-0.8631973
909756140046678	-0.43526578	-0.09129143	-0.22345448
909756148347459	-1.0928895	-0.76788616	0.12747908
909756156648240	-1.5768123	-1.6584396	0.2663244
909756164949021	-1.6654532	-2.4633055	0.12610829
909756173249803	-1.5956323	-2.8263016	-0.056612253
909756181550584	-1.8623204	-2.5582771	0.38740373
909756189851365	-2.411046	-2.5103626	0.78978956
909756198152146	-2.7630804	-2.0524845	0.3814304
909756206452928	-2.8136554	-1.6122379	-0.17606151
909756214753709	-2.6224394	-1.2429466	-0.5474318
909756223054490	-2.1479433	-1.0564585	-0.6718415
909756231355271	-2.0718203	-1.0751276	-0.53464675
909756239656053	-0.06914288	-2.3602982	-1.5029279
909756247956834	1.6442946	-3.111084	-2.5652
909756256257615	4.373065	-2.6166658	-2.5187967
909756264558396	6.251495	-1.2417812	-2.2086873
909756272859178	4.7973146	1.3244581	-2.2985003
909756281159959	4.9686527	1.3159189	-2.2041173
909756289460740	3.3236244	2.0615702	-1.8251843
909756297761521	2.0267313	3.3035297	-0.65743864
909756306062303	-0.35789382	5.1958723	1.6184181
909756314363084	-2.7965724	7.3560963	5.4119153
909756322663865	-3.8950582	8.983864	8.919155
909756330964646	-3.730564	9.135149	7.031864
909756339265428	-0.5551965	5.52302	4.170296
909756347566209	1.1099203	2.384737	2.5517554
909756355866990	1.1406605	0.48154068	1.5340738
909756364167771	0.4461	-0.40900135	1.1088091
909756372468553	0.10906196	-0.92324066	1.0695106
909756380769334	0.48336005	-1.3909492	0.39350787
909756389070115	0.4856969	-2.0923872	-1.2957282
909756397370896	0.24814188	-2.3553953	-2.7027001
909756405671678	0.050313473	-2.0180225	-3.4423203
909756413972459	-0.022206426	-1.386303	-3.321421
909756422273240	-0.13372302	-0.8354349	-2.4675431
909756430574021	-0.74926615	-0.5556593	-1.4410639
909756438874803	-2.1584568	0.14695549	-0.12294868
909756447175584	-1.9983716	0.8168516	1.1293106
909756455476365	-1.2369337	1.4965677	1.5545859
909756463777146	-1.2176971	1.4959631	1.5545355
909756472077928	-0.66295624	1.9419279	1.4277779
909756480378709	-0.58228385	1.7622633	1.2773094
909756488679490	-0.47201228	1.7337141	0.74689823
909756496980271	0.010857344	1.4929962	0.24614793
909756505281053	0.0023201704	1.4920206	0.30230057
909756513581834	0.36385286	0.6646099	-0.6485576
909756521882615	0.35510004	0.66650295	-0.58574086
909756530183396	0.008086443	0.11518383	-0.2996658
909756538484178	-0.40566957	-0.6523838	0.21849132
909756546784959	-0.952523	-1.3731833	0.6748532
909756555085740	-0.95074594	-1.369216	0.6863277
909756563386521	1.1638597	-4.469179	1.0779386
909756571687303	4.1201887	-8.056878	1.2981467
909756579988084	2.3809578	-8.7907505	0.8019948
909756588288865	0.16947675	-8.651288	1.3158343
909756596589646	-0.4460051	-8.698637	1.2259848
909756604890428	-0.44956982	-8.683963	1.1875308
909756613191209	1.5193564	-8.525791	0.91455173
909756621491990	2.6517591	-6.813842	1.0759649
909756629792771	4.304582	-3.5230837	1.4288096
909756638093553	3.5486994	4.3044434	2.446277
909756646394334	2.8073342	15.378166	2.7379441
909756654695115	2.091189	21.18711	1.159932
909756662995896	1.832061	19.176556	-0.9452423
909756671296678	1.891866	19.145168	-0.9375509
909756679597459	0.9700912	3.401618	-1.1708219
909756687898240	0.14539278	-0.63988876	-0.71680164
909756696199021	-0.4716196	-2.985093	-0.18752486
909756704499803	-0.3622526	-2.953473	-0.090088904
909756712800584	-2.3765013	-3.7662544	0.3391359
909756721101365	-2.2595065	-3.7342777	0.36813658
909756729402146	-3.9212701	-1.3801451	0.6899818
909756737702928	-2.924894	-0.4584751	1.0348616
909756746003709	-2.8751428	-0.45235157	0.97995
909756754304490	-1.5239396	0.10126877	1.1124251
909756762605271	0.45539594	0.211689	1.2095323
909756770906053	0.40942883	0.19582272	1.1166172
909756779206834	-0.65791965	-0.986063	1.5302593
909756787507615	-0.69850063	-0.99643326	1.4395891
909756795808396	-1.1682043	-1.3189154	2.2215977
909756804109178	-1.1401107	-1.2329159	2.9721658
909756812409959	-0.7206049	-1.0116882	3.129249
909756820710740	-0.1385256	-0.76966476	2.665732
909756829011521	0.5067452	-0.35882187	1.3543028
909756837312303	0.49754715	-0.35967064	1.311525
909756845613084	0.3427211	-0.10057831	0.9580384
909756853913865	0.00331223	0.10057926	0.51165485
909756862214646	-0.44043422	0.2148304	0.14443587
909756870515428	-0.7960553	0.14683914	6.3559413E-4
909756878816209	-0.8154161	-0.17238712	0.20800833
909756887116990	-0.39306927	-0.57448006	0.94166934
909756895417771	-0.036414027	-0.7445364	1.649896
909756903718553	0.02615869	-0.7484474	1.6943942
909756912019334	-0.017227888	-0.67309	1.432358
909756920320115	-0.059577107	-0.5795126	1.1412671
909756928620896	-0.05999255	-0.47704315	0.93317795
909756936921678	0.090649486	-0.2996683	0.8283948
909756945222459	0.6418618	-0.182168	0.85450447
909756953523240	1.3081394	-0.02259636	0.9520186
909756961824021	1.4343144	0.17052937	0.91402024
909756970124803	1.2260895	0.3576479	0.74125427
909756978425584	0.9135395	0.4808979	0.50637513
909756986726365	0.88670945	0.47718716	0.48170906
909756995027146	0.6981919	0.25523853	0.32766676
909757003327928	0.5444586	0.08691025	0.27592593
909757011628709	0.37610924	-0.04690361	0.16773242
909757019929490	0.1651864	-0.19678783	-0.021210372
909757028230271	-0.06420958	-0.4081583	-0.20085204
909757036531053	-0.14696014	-0.6770134	-0.22318438
909757044831834	0.06678116	-0.717988	-0.64667046
909757053132615	0.4747703	-0.61440754	-1.1522977
909757061433396	0.8646523	-0.42669296	-1.6582891
909757069734178	1.0819378	-0.2571535	-1.983943
909757078034959	1.0724493	-0.18224144	-1.8734553
909757086335740	0.84673667	-0.128232	-0.9927671
909757094636521	0.5328945	-0.19102097	-0.23414375
909757102937303	-2.1795654	-1.1981478	4.016309
909757111238084	-2.9349813	-1.4432182	5.177896
909757119538865	-1.0946739	-0.6840105	2.9957535
909757127839646	1.0883958	0.22141838	1.4664187
909757136140428	1.7702165	0.68167496	2.1738904
909757144441209	1.7847006	0.66017437	2.9242418
909757152741990	1.0514994	0.08884525	1.8421335
909757161042771	0.46681714	-0.42485428	-1.1627171
909757169343553	0.19840991	-0.5938883	-4.392947
909757177644334	0.13042176	-0.41977596	-5.532107
909757185945115	1.2865202	-0.16477966	-4.1487856
909757194245896	1.8413285	0.23814392	-2.8192089
909757202546678	1.988217	0.34523296	-1.4959432
909757210847459	1.7338794	0.1679964	-0.4418558
909757219148240	1.097722	-0.11634159	0.29992402
909757227449021	1.1069751	-0.10694027	0.34587157
909757235749803	-0.51458406	-0.47120094	0.76586604
909757244050584	-0.7886361	-0.7215414	1.1120826
909757252351365	-0.7853662	-0.92809486	1.4021796
909757260652146	-0.23093665	-0.9860449	1.5963433
909757268952928	0.6417618	-0.8562927	1.6789126
909757277253709	1.2557224	-0.61384296	1.6479914
909757285554490	1.4552027	-0.46953964	1.4987683
909757293855271	1.4273645	-0.43965816	1.1891123
909757302156053	1.1000388	-0.22586346	0.77167106
909757310456834	1.1055696	-0.21460152	0.81790113
909757318757615	0.53114927	0.4050455	-0.009526014
909757327058396	0.5966606	0.43663025	-0.07311261
909757335359178	0.6178068	-0.012966156	0.21516252
909757343659959	0.6990814	-0.6770954	0.4893148
909757351960740	0.3853464	-0.83672523	0.7532425
909757360261521	0.08264363	-0.4395733	0.7110095
909757368562303	0.08282399	-0.44295597	0.6895938
909757376863084	1.037658	0.49261856	1.2443428
909757385163865	1.2519976	0.5839186	1.893777
909757393464646	1.2845446	0.39094448	2.3330746
909757401765428	0.45857477	-1.5292788	5.897695
909757410066209	-0.15327013	-2.8281746	8.498827
909757418366990	-0.06843603	-2.0547876	6.8532906
909757426667771	-0.06826651	-2.0521717	6.829655
909757434968553	-1.8077987	1.1266108	-6.340868
909757443269334	-1.753555	0.71085167	-7.5625005
909757451570115	-0.46137023	0.1334858	-5.350086
909757459870896	-0.48564327	0.16018105	-5.202735
909757468171678	0.62422	-0.65535927	0.31863403
909757476472459	0.6210288	-0.6657448	0.27017903
909757484773240	-0.9633585	0.016498566	2.2677052
909757493074021	-1.6016215	0.2552557	2.542269
909757501374803	-1.5494449	0.23235416	2.3841248
909757509675584	-2.011826	0.38194466	2.3455544
909757517976365	-1.545531	0.5990448	1.6926733
909757526277146	-1.4948467	0.59307194	1.6031529
909757534577928	-0.17323649	0.379776	-0.04881203
909757542878709	0.18492353	0.041454315	-1.3764808
909757551179490	0.19826293	0.047740936	-1.348476
909757559480271	0.2941692	-0.2532072	-2.1561007
909757567781053	0.162951	-0.3746395	-2.1640282
909757576081834	-0.049556613	-0.36179733	-1.5097466
909757584382615	-0.18846846	-0.37975597	-0.55294716
909757592683396	-0.37353468	-0.43765163	0.22309184
909757600984178	-0.7274791	-0.40036774	0.57747173
909757609284959	-0.8391148	-0.56837845	0.5819869
909757617585740	-0.5401572	-0.7736931	0.4011898
909757625886521	0.19346964	-0.97005653	0.15522575
909757634187303	1.2068161	-1.2557678	-0.121403456
909757642488084	2.2216146	-1.3154869	-0.45592618
909757650788865	2.5991726	-1.1378584	-0.5370507
909757659089646	2.6347241	-0.97176456	-0.44517255
909757667390428	2.401403	-0.81432915	-0.15365505
909757675691209	1.926054	-0.53245926	0.32235742
909757683991990	0.6541736	0.18689251	1.3317921
909757692292771	0.6728052	0.18054867	1.2940814
909757700593553	0.14131594	0.9798851	2.0728748
909757708894334	0.001992941	1.4222946	2.9437773
909757717195115	-0.31073987	1.2046709	3.4376066
909757725495896	-0.94993806	0.38610935	3.4181943
909757733796678	-1.1907507	-1.2245874	2.5866697
909757742097459	-1.1612293	-1.2327738	2.5095952
909757750398240	-0.101249576	-1.4334316	1.924777
909757758699021	0.62373066	-1.3124523	1.4492786
909757766999803	0.8973365	-0.999712	1.1600555
909757775300584	0.9976412	-0.6624594	1.0678312
909757783601365	1.3563464	-0.41043758	1.1153554
909757791902146	1.7125926	0.021443367	1.165538
909757800202928	0.9507334	0.7362461	1.3156422
909757808503709	-0.041614294	0.8166475	1.0784174
909757816804490	-0.7189357	0.58572006	0.40608191
909757825105271	-0.77001405	0.40305042	-0.5069983
909757833406053	-0.27718925	0.24016094	-1.3392557
909757841706834	0.11674285	-0.08714104	-2.01784
909757850007615	0.04055071	-0.2627077	-2.099327
909757858308396	-0.37682343	-0.38643265	-1.4586886
909757866609178	-0.9235178	-0.4105444	-0.36359668
909757874909959	-1.41724	-0.33779526	0.69898033
909757883210740	-1.7462984	-0.23644543	1.2882482
909757891511521	-1.2764592	0.04893303	1.2845676
909757899812303	-0.49197268	-0.14188004	0.77543354
909757908113084	0.17082846	-0.70359135	0.2622856
909757916413865	0.6390716	-1.0956154	0.057362676
909757924714646	0.62158954	-1.0930357	0.08828938
909757933015428	0.84864044	-0.9927082	0.22421038
909757941316209	0.46724176	0.2758398	0.7293025
909757949616990	0.68670607	0.47923756	1.0432987
909757957917771	1.0618935	0.49423122	1.1862097
909757966218553	1.2526909	0.5246649	1.1844407
909757974519334	1.027614	0.62530804	1.0131097
909757982820115	0.9906548	0.61786175	1.0128982
909757991120896	0.06809425	0.28352642	0.36551428
909757999421678	0.081864715	-0.09280014	0.46698093
909758007722459	0.012839198	-0.26535416	0.6461127
909758016023240	-0.10082352	-0.2880144	0.79272676
909758024324021	-0.071451545	-0.2436428	0.90735257
909758032624803	0.24874163	-0.13122368	1.0964878
909758040925584	0.52777493	0.1975975	1.0209036
909758049226365	0.41084492	0.57035637	0.44823802
909758057527146	0.4097489	1.1918201	0.19031262
909758065827928	0.52883637	1.7415695	0.42761064
909758074128709	0.569155	1.9065752	0.84221315
909758082429490	0.2335242	1.5380306	0.7358619
909758090730271	-1.0231718	1.0355396	0.09359181
909758099031053	-1.7741271	0.2549467	-0.36992216
909758107331834	-2.0312467	-0.4044628	-0.73317635
909758115632615	-1.9928875	-0.9390106	-1.0141162
909758123933396	-1.6742218	-1.4651661	-1.2573636
909758132234178	-1.520921	-1.4094458	-1.1550629
909758140534959	0.28069782	-2.0824642	-1.1934471
909758148835740	0.8019457	-1.6935959	-0.70815885
909758157136521	1.0200591	-1.1268158	0.0042705536
909758165437303	1.0832572	-1.0795479	0.11901975
909758173738084	1.6657023	-1.0199299	1.1642213
909758182038865	1.680114	-0.97727966	1.2989802
909758190339646	2.814854	-1.36131	0.7859256
909758198640428	2.382142	-1.2383509	0.254102
909758206941209	2.3151662	-1.1904335	0.454777
909758215241990	1.7310252	-0.86164474	0.13837218
909758223542771	0.9355931	0.047537804	0.9703429
909758231843553	0.85562515	0.09099007	1.1356094
909758240144334	0.33028173	-0.18095112	2.2015092
909758248445115	0.864738	-0.56698227	2.4742358
909758256745896	0.82585573	-0.5593214	2.5067048
909758265046678	1.6548438	-0.28192425	2.5858178
909758273347459	1.2247736	0.36120415	1.8780968
909758281648240	0.6729517	1.0441475	0.94992614
909758289949021	0.19942856	1.4585733	0.36078548
909758298249803	-0.33193135	1.6656828	0.052876234
909758306550584	-0.664824	1.2581024	-0.28112388
909758314851365	-0.684427	1.2276258	-0.33705568
909758323152146	-0.6498618	0.3071661	-0.38259435
909758331452928	-0.3112998	-0.7534914	0.2137909
909758339753709	-0.069230795	-1.5397081	1.252403
909758348054490	0.1307553	-1.2356997	1.049242
909758356355271	-0.15541959	-0.6486912	0.86479735
909758364656053	-0.5707184	0.009985924	0.29725432
909758372956834	-0.87816477	0.47460747	-0.577888
909758381257615	-0.9868014	0.54876804	-1.2434053
909758389558396	-0.9996115	0.2696991	-0.9304209
909758397859178	-1.3539387	0.07492733	-0.27067685
909758406159959	-1.7097809	-0.17861271	0.1030612
909758414460740	-1.7360762	-0.43149567	0.17306995
909758422761521	-1.4365165	-0.58252716	0.32026434
909758431062303	-1.0007638	-0.63320637	0.80396557
909758439363084	0.12631226	-0.6411228	1.3478416
909758447663865	0.057955027	-0.6656914	1.2684637
909758455964646	0.56878185	-0.4248247	0.54346824
909758464265428	1.2587482	-0.37445736	-0.43665838
909758472566209	0.94694173	-0.1321373	-0.14173806
909758480866990	-0.4313959	0.51384735	1.8257662
909758489167771	0.045580268	0.9910288	3.2066731
909758497468553	1.2430019	0.7954302	2.352943
909758505769334	2.211996	0.28264427	0.8964894
909758514070115	2.0949562	0.11081219	-0.5005344
909758522370896	1.0497439	0.26103973	-1.2863667
909758530671678	-0.085077286	0.3830881	-1.2058723
909758538972459	-0.08623457	0.1535654	-0.49530864
909758547273240	0.05432439	0.11120224	0.33083975
909758555574021	-0.22799444	-0.1398964	0.69189966
909758563874803	-0.5840564	-0.52065086	0.7953584
909758572175584	-0.70047545	-0.8762188	0.84005344
909758580476365	-0.50718594	-1.0458317	0.9649079
909758588777146	0.12293577	-0.6619158	1.1877762
909758597077928	0.14068544	-0.650589	1.2358754
909758605378709	0.53094447	-0.31079292	1.1875559
909758613679490	0.5524533	0.037481308	0.88536394
909758621980271	0.19513035	0.33489132	0.3518281
909758630281053	-0.26718867	0.53131485	-0.22300994
909758638581834	-0.30306244	0.5920706	-0.4818207
909758646882615	0.10970044	0.34881687	-0.547616
909758655183396	0.4856149	-0.100008965	-0.7608094
909758663484178	0.7503623	-0.5066004	-0.743788
909758671784959	0.80304766	-0.8229046	-0.378942
909758680085740	0.77918875	-1.08037	0.20401216
909758688386521	1.3906578	-1.187747	0.7729528
909758696687303	1.5990528	-0.894824	2.8205385
909758704988084	1.1459533	-0.26356125	2.2701411
909758713288865	0.7999971	0.36230087	1.0149817
909758721589646	0.949229	0.7429619	0.17989063
909758729890428	1.5188131	0.73712254	-0.09473002
909758738191209	1.9249989	0.3099203	-0.61350346
909758746491990	1.4166634	-0.031479836	-0.53957295
909758754792771	0.7946819	-0.15816975	0.71234703
909758763093553	0.08252537	-0.2515974	2.378943
909758771394334	-0.982345	-0.37104893	3.2825232
909758779695115	-2.4662085	-0.37769413	2.604775
909758787995896	-3.6824765	0.11672783	0.617514
909758796296678	-3.50267	-0.101566315	1.2396796
909758804597459	-1.877514	-1.6794662	0.50486857
909758812898240	-1.3407239	-2.3139505	-1.0093937
909758821199021	-2.941069	-1.1909075	-2.8904035
909758829482080	-5.7422037	0.81481075	-4.5383215
909758837782861	-7.1078434	1.8234062	-3.9357753
909758846083642	-5.04329	1.9000282	-1.1525776
909758854384423	-0.99517655	2.592023	0.9197563
909758862685205	2.6857822	2.9838085	2.3645887
909758870985986	4.800352	2.6015558	3.0218718
909758879286767	5.407241	1.5197315	2.685542
909758887587548	5.6964254	0.15530586	2.073452
909758895888330	5.34846	-1.2104568	0.83464515
909758904189111	3.7243857	-1.75208	-0.19397652
909758912489892	1.5990046	-1.8277416	-0.83634996
909758920790673	1.6025764	-1.7982521	-0.7087511
909758929091455	-1.3010299	-1.9148674	-1.5786402
909758937392236	-1.7916962	-2.02989	-1.7261591
909758945693017	-2.0729046	-1.3287945	-1.0932062
909758953993798	-1.794384	-0.63836765	-0.14890862
909758962294580	-1.7558293	-0.6216011	-0.11088061
909758970595361	-1.1140113	-0.4080038	0.7999735
909758978896142	-0.68988013	-1.2093973	4.386541
909758987196923	-0.87299705	-1.5365038	7.4365416
909758995497705	0.19100356	-1.9889479	10.426526
909759003798486	1.9975029	-1.6062708	6.344314
909759012099267	1.8825164	-1.6122627	6.356598
909759020400048	5.6795244	-0.018808365	-0.8643372
909759028700830	5.5584517	-0.013953209	-0.7949383
909759037001611	4.1551037	1.7813215	-2.4392095
909759045302392	1.7796874	2.317727	-0.9030299
909759053603173	0.9030358	2.160348	0.18840146
909759061903955	0.3241979	1.8469725	0.029117584
909759070204736	0.30360258	1.8133688	-0.08021808
909759078505517	-0.3191588	1.5867205	-1.1200054
909759086806298	-0.5129276	1.2642555	-1.8653061
909759095107080	-0.5224386	0.35212517	-2.2438176
909759103407861	-0.38706124	-0.55782604	-2.2819939
909759111708642	-0.13301599	-0.8074007	-2.095564
909759120009423	-0.7181074	-0.59022903	-1.4955505
909759128310205	-1.6271682	-0.3755951	-0.11845446
909759136610986	-1.61727	-0.5043974	1.8929073
909759144911767	-1.2856693	-0.11467075	2.7399313
909759153212548	-1.1995726	-0.106785774	2.7101924
909759161513330	-0.87585545	0.16731167	2.547275
909759169814111	-0.5508704	0.083981514	2.0440297
909759178114892	-0.041036367	-0.031991005	1.5558106
909759186415673	2.1589055	-0.2026329	0.9192914
909759194716455	3.3104417	-0.41003895	0.42337692
909759203017236	3.3000386	-0.39627743	0.51069295
909759211318017	3.0545876	0.33399963	0.023943782
909759219618798	1.8373549	0.7639885	-0.70268166
909759227919580	0.38568616	0.25549603	-1.6783845
909759236220361	-0.6365243	-0.75252724	-2.5579216
909759244521142	-1.0628318	-0.9903269	-2.4633265
909759252821923	-1.0108346	-1.8749332	-1.697264
909759261122705	-1.1350925	-2.870654	-1.0044918
909759269423486	-1.3398001	-3.551404	-0.3544383
909759277724267	-1.6425672	-3.4782057	0.19037938
909759286025048	-2.0240588	-2.340806	0.4867525
909759294325830	-0.24797606	0.97021866	1.6952655
909759302626611	-0.26797378	0.97130775	1.708792
909759310927392	0.24869585	1.7702122	2.532296
909759319228173	0.37340927	1.8418407	3.124666
909759327528955	0.3312509	1.5122585	3.387048
909759335829736	0.25630182	0.9335184	2.838074
909759344130517	0.28549445	0.523612	1.8132777
909759352431298	0.27882177	0.5005741	1.7352083
909759360732080	0.4506423	0.103404045	0.54593444
909759369032861	0.6432332	-0.165761	-0.48747373
909759377333642	0.7072692	-0.29057407	-1.1151862
909759385634423	0.5493495	-0.32208252	-1.2487605
909759393935205	0.21132159	-0.26054287	-1.0151367
909759402235986	-0.0073525906	-0.2636757	-0.98761356
909759410536767	-0.12326741	-0.30898857	-1.4505843
909759418837548	-0.2710485	-0.29618454	-1.496695
909759427138330	-0.49940407	-0.053375244	-0.31915593
909759435439111	-0.73419344	0.542325	2.0580912
909759443739892	-0.8990663	0.7841015	2.017791
909759452040673	-1.2491472	0.63299465	1.93866
909759460341455	-1.3546872	0.5120516	1.7307596
909759468642236	-1.2175423	0.55891705	1.4371735
909759476943017	-0.8245014	0.5211487	1.1074516
909759485243798	-0.13119423	0.00600338	0.7887857
909759493544580	0.30755973	0.23270988	0.6301889
909759501845361	0.65524244	0.20026493	0.5525334
909759510146142	0.9520756	-0.11548996	0.5709307
909759518446923	1.2127113	-0.444602	0.7006052
909759526747705	1.5044957	-0.68182087	0.93995833
909759535048486	1.8843552	-0.9229851	1.2340655
909759543349267	1.9639915	-0.7732277	1.3492767
909759551650048	2.0135508	-0.6384878	1.0760617
909759559950830	2.327363	-0.7359972	0.51808035
909759568251611	2.6013155	-0.8410702	-0.18930304
909759576552392	2.3478425	-0.72084427	-0.9467616
909759584853173	2.3820033	-0.7045469	-0.88604605
909759593153955	0.7666793	-0.31664753	-1.664972
909759601454736	0.68004	-0.23357582	-0.8186616
909759609755517	0.19704294	0.0792017	0.04785347
909759618056298	-0.43264866	0.45471096	0.7282777
909759626357080	-0.4244802	0.4532938	0.71882415
909759634657861	-0.41281796	0.45618916	0.9843261
909759642958642	0.03648746	0.08043194	0.5800382
909759651259423	0.49795842	-0.23501015	0.34215772
909759659560205	0.8984896	-0.47647667	0.31650853
909759667860986	1.1951519	-0.63739395	0.45413077
909759676161767	1.1785398	-0.63095284	0.48986292
909759684462548	1.311266	-0.7187824	1.0768894
909759692763330	1.3657115	-0.8197756	1.3660285
909759701064111	1.1875002	-0.8296547	1.354811
909759709364892	0.758566	-0.8061342	1.0729825
909759717665673	0.7007743	-0.81019306	1.0749446
909759725966455	-0.3495264	-0.6853266	0.15935647
909759734267236	-0.7722589	-0.5573664	-0.17622483
909759742568017	-1.1119459	-0.45430565	-0.44816065
909759750868798	-1.3788373	-0.39810085	-0.6286365
909759759169580	-1.6363726	-0.374959	-0.7914988
909759767470361	-1.6646807	-0.39127064	-0.8695086
909759775771142	-2.1280193	-0.44405556	-1.2301102
909759784071923	-2.2881012	-0.5520096	-1.3856497
909759792372705	-2.1693354	-0.6712351	-1.3212082
909759800673486	-1.929182	-0.58796215	-1.093477
909759808974267	-1.5793025	-0.5014763	-0.787354
909759817275048	-1.2183619	-0.45854092	-0.4784677
909759825575830	-1.2275696	-0.46593952	-0.5403694
909759833876611	-0.9912108	-0.40535355	-0.28978682
909759842177392	-0.99959105	-0.20288372	-0.18664539
909759850478173	-0.43885422	-0.59731674	-0.48355728
909759858778955	-0.4430037	-0.5979805	-0.49758548
909759867079736	-0.12833875	-0.7208395	-0.4349516
909759875380517	-0.22496867	-0.71066284	0.25105524
909759883681298	-0.55138975	-1.0357065	0.62195176
909759891982080	-2.2744145	-2.379241	-4.0921144
909759900282861	-2.6614053	-2.121048	-3.8446217
909759908583642	-2.6634974	-2.118741	-3.8525906
909759916884423	-2.3117971	-1.5519466	-2.8082051
909759925185205	-1.7171873	-0.7955818	-1.7243383
909759933485986	-1.4475226	0.18349457	-0.94722104
909759941786767	-1.6864591	2.777872	0.045781255
909759950087548	-1.7486616	3.6452541	0.0646466
909759958388330	-1.7994375	3.6300268	-0.011085093
909759966689111	-2.0098667	4.02466	-0.050919294
909759974989892	-2.0824895	3.75463	0.040175438
909759983290673	-1.6106277	2.8150015	0.26777127
909759991591455	-0.25228387	1.5761213	0.44955596
909759999892236	0.7626444	0.62049675	0.008472174
909760008193017	1.1235226	-0.0075941086	-0.62523437
909760016493798	1.246599	-0.5041666	-1.215547
909760024794580	1.2970413	-0.9259167	-1.6438948
909760033095361	1.3056539	-1.2621717	-1.8447745
909760041396142	1.2446622	-1.4789152	-1.7482553
909760049696923	0.9217738	-1.3268442	-0.5138557
909760057997705	0.96462286	-1.3215055	-0.48308674
909760066298486	0.78655076	-1.0490522	0.29800668
909760074599267	0.70620084	-0.7374897	1.0664679
909760082900048	0.7895895	-0.43980694	1.7544351
909760091200830	1.3537649	-0.05729866	2.551717
909760099501611	1.7663561	-0.14297962	2.6670287
909760107802392	1.7764006	-0.14284325	2.6341777
909760116103173	2.2410479	-0.15783405	2.5572798
909760124403955	2.7237172	-0.0979929	2.286702
909760132704736	3.4623704	-0.096241	1.5052154
909760141005517	3.4269776	-0.09786606	1.4842095
909760149306298	3.1033423	-0.2705803	1.1082225
909760157607080	2.4106166	-0.43903542	0.8870666
909760165907861	1.8391501	-0.59198475	0.79555327
909760174208642	1.5360771	-0.67204475	0.77528554
909760182509423	1.4434477	-0.63075256	0.74386346
909760190810205	1.4067246	-0.49257755	0.62745875
909760199110986	1.2070997	-0.3359785	0.39977193
909760207411767	0.9189333	-0.2502432	0.20983893
909760215712548	0.58871657	-0.18346882	0.2109881
909760224013330	0.28141204	-0.10990715	0.44688386
909760232314111	0.037546843	-0.022496223	0.85623825
909760240614892	-0.179397	0.080161095	1.2689971
909760248915673	-0.44973612	0.11619377	1.4466393
909760257216455	-0.7918243	0.21076202	1.3884468
909760265517236	-1.1117792	0.2797289	1.0810925
909760273818017	-1.4150277	0.26915646	0.5087805
909760282118798	-2.2369633	0.003227234	-0.9364065
909760290419580	-2.2584398	0.0061883926	-0.9860832
909760298720361	-2.5639665	-0.20305157	-1.1671162
909760307021142	-2.7951918	-0.3590765	-1.027071
909760315321923	-2.8861246	-0.44297314	-0.757183
909760323622705	-2.6969492	-0.44309235	-0.5019154
909760331923486	-2.1475153	-0.35318565	-0.33948427
909760340224267	-1.4255869	-0.16743374	-0.26611257
909760348525048	-1.1571537	-0.12021923	-0.15816796
909760356825830	-0.86989975	-0.23634052	0.09702742
909760365126611	-0.5375828	-0.44615078	0.4829573
909760373427392	-0.24671292	-0.602252	0.9771228
909760381728173	-0.24038404	-0.60103035	0.9752343
909760390028955	0.053040765	-0.3876648	2.064398
909760398329736	0.2829989	-0.1301899	2.3046277
909760406630517	0.27883297	-0.1314888	2.3174202
909760414931298	0.5543106	0.05031395	2.3893363
909760423232080	1.2615131	-0.26277542	2.1328907
909760431532861	1.2326386	-0.26590252	2.176318
909760439833642	1.1422361	-0.80430317	1.0328269
909760448134423	0.5994003	-0.9349108	0.6817417
909760456435205	0.5718629	-0.9362726	0.7392699
909760464735986	-0.17917782	-0.90452003	0.6172919
909760473036767	-0.1875969	-0.90455246	0.6551641
909760481337548	-0.41186506	-0.69192123	0.7153337
909760489638330	-0.3139633	-0.16935635	0.9784197
909760497939111	-0.30738944	-0.168396	0.961739
909760506239892	-0.15684134	-0.075512886	1.2283597
909760514540673	-0.013828024	-0.13014221	1.2497196
909760522841455	0.055294707	-0.20520306	1.0576422
909760531142236	0.05362934	-0.2653885	0.6634245
909760539443017	0.13844338	-0.33159828	-0.4330755
909760547743798	0.20264444	-0.34058666	-0.8877772
909760556044580	0.18900485	-0.32897854	-0.99032724
909760564345361	-0.11223529	-0.23651314	-1.1360263
909760572646142	-0.67392635	-0.0379467	-1.0779828
909760580946923	-1.2382209	0.19111156	-0.90732026
909760589247705	-1.6350735	0.46168137	-0.266248
909760597548486	-1.6700296	0.48343945	-0.3944149
909760605849267	-1.6783153	0.53857136	-0.08958173
909760614150048	-1.8981211	0.65904903	0.22748673
909760622450830	-2.1481087	0.75159454	0.50201344
909760630751611	-2.2438958	0.7535744	0.6360619
909760639052392	-2.2539215	0.7622366	0.59136176
909760647353173	-1.6348702	0.57869434	0.4293735
909760655653955	-1.0986087	0.5953512	0.20822525
909760663954736	-0.8772612	0.6218815	-0.040267706
909760672255517	-0.83183956	0.5949335	-0.21547556
909760680556298	-0.82261133	0.5227461	-0.26457417
909760688857080	-0.82170415	0.51326275	-0.22389317
909760697157861	-0.5887195	0.28943825	0.06924009
909760705458642	-0.39491144	0.07454014	0.31889105
909760713759423	-0.23566914	-0.018511772	0.40910923
909760722060205	-0.10701501	0.07941532	0.3634169
909760730360986	-0.005766481	0.42005348	0.18996274
909760738661767	0.066930294	1.0121956	-0.11653292
909760746962548	0.11162585	1.7312298	-0.52639675
909760755263330	-0.005721271	2.2252693	-0.74536955
909760763564111	-0.27302587	2.4143705	-0.7776753
909760771864892	-0.4286167	2.338354	-0.7390944
909760780165673	-0.53608453	2.1195345	-0.71809196
909760788466455	-0.8598505	1.8948898	-0.7603245
909760796767236	-1.3808994	1.672492	-0.8924328
909760805068017	-1.6954098	1.3097773	-0.936527
909760813368798	-1.9440176	0.7742424	-0.82128966
909760821669580	-2.1556387	0.19715214	-0.48234916
909760829970361	-2.297139	-0.3093481	0.09692764
909760838271142	-2.257386	-0.3118677	0.10226679
909760846571923	-2.4687078	-0.8532362	1.372679
909760854872705	-2.3299756	-0.9201498	1.5161701
909760863173486	-1.7467445	-1.044405	1.3924832
909760871474267	-1.1425107	-1.2046165	0.91724384
909760879775048	-0.7621187	-1.329813	0.017418504
909760888075830	-0.72777236	-1.3452349	0.12191248
909760896376611	-0.31872356	-1.2620468	-2.505735
909760904677392	-0.09517644	-1.0921555	-2.992291
909760912978173	0.05926934	-0.84716225	-3.1004453
909760921278955	0.08604044	-0.8636141	-2.909632
909760929579736	0.5488659	-0.32634068	-2.6646657
909760937880517	0.9068433	-0.022291183	-2.169777
909760946181298	1.3218663	0.35627937	-1.4738032
909760954482080	1.361243	0.7414913	-1.0461491
909760962782861	0.7794092	1.1183214	-0.87575686
909760971083642	0.8441249	1.1172047	-0.75009674
909760979384423	-0.21552998	1.8138447	-0.15678333
909760987685205	-0.13703871	1.8152647	-0.045380354
909760995985986	-0.5144264	2.1910849	1.1250317
909761004286767	-0.59385145	2.238657	1.6881986
909761012587548	-0.5123549	2.0338955	2.0920243
909761020888330	-0.2322331	1.7095623	2.2726588
909761029189111	0.23385793	1.3534575	2.1604316
909761037489892	0.3478589	1.3702507	2.2652621
909761045790673	1.8571951	0.54892635	1.087625
909761054091455	2.7713766	0.06782818	0.33508062
909761062392236	3.183897	-0.35050678	-0.27457798
909761070693017	3.2893925	-0.31449604	-0.13419175
909761078993798	3.4658647	-1.071496	-0.54440415
909761087294580	3.5668554	-1.0298414	-0.41534913
909761095595361	3.3113284	-1.7423954	-0.27800548
909761103896142	3.1816957	-2.015232	0.0079808235
909761112196923	3.2716095	-1.9753542	0.08963156
909761120497705	3.1145408	-2.2479267	0.19842243
909761128798486	2.3991454	-2.678833	0.1952672
909761137099267	2.4753618	-2.6482391	0.22570372
909761145400048	1.5913622	-2.8355656	0.15653872
909761153700830	1.0523815	-2.9052124	0.30559015
909761162001611	1.1090224	-2.8832474	0.31153297
909761170302392	0.7030308	-2.9079895	0.660563
909761178603173	0.028470993	-3.0521832	1.3268223
909761186903955	0.05457878	-3.0390673	1.3239801
909761195204736	-0.6927998	-3.1598177	1.3243959
909761203505517	-0.89573336	-3.090044	1.4156036
909761211806298	-0.90561557	-3.0850506	1.4193964
909761220107080	-1.1807728	-3.113101	1.3258078
909761228407861	-1.2265298	-3.1135044	1.3453505
909761236708642	-1.2377853	-3.2050915	1.1135573
909761245009423	-1.0160072	-3.297268	0.290241
909761253310205	-0.9078679	-2.875698	-0.24981427
909761261610986	-0.9836116	-1.9578152	-0.6348798
909761269911767	-1.0688207	-1.9679337	-0.6161947
909761278212548	-1.3495088	-0.5985117	-0.9302132
909761286513330	-1.815188	1.1423521	-1.6091788
909761294814111	-3.70512	4.6733456	-5.4733167
909761303114892	-4.9992323	5.091033	-6.7292447
909761311415673	-4.977314	5.082737	-6.7146697
909761319716455	-5.6916037	4.195011	-6.489262
909761328017236	-5.595247	2.6019497	-5.221481
909761336318017	-4.682867	1.0605392	-3.5395396
909761344618798	-1.9029361	-0.0272789	-0.49879932
909761352919580	-1.8779856	-0.033403397	-0.53931546
909761361220361	-1.0830741	0.2991047	0.5377872
909761369521142	-0.64357114	0.86968136	1.3665135
909761377821923	-0.24156237	1.4639835	1.9579391
909761386122705	0.32435775	2.0430937	2.3066123
909761394423486	0.32426918	2.022047	2.226025
909761402724267	1.4456214	4.592163	2.3363488
909761411025048	2.0383582	6.496043	2.4090762
909761419325830	3.455509	7.5346794	2.0281668
909761427626611	5.7515516	6.6701593	0.4833144
909761435927392	7.7523813	3.818552	-1.8989648
909761444228173	7.7038393	3.789729	-1.9887968
909761452528955	3.831423	-1.3047171	-2.2929688
909761460829736	2.0486248	-1.885994	-0.08561921
909761469130517	1.7338713	-1.8552217	1.8140454
909761477431298	2.4881203	-1.597455	3.110705
909761485732080	3.6241336	-1.3028126	3.6749969
909761494032861	4.3318973	-0.89230347	3.2130985
909761502333642	4.462304	-0.592762	1.9912785
909761510634423	4.5526466	-0.55876064	0.90192854
909761518935205	4.593021	-0.7556515	0.33652115
909761527235986	4.516699	-1.1445427	0.26684153
909761535536767	4.1942835	-1.6149769	0.4976058
909761543837548	4.091773	-1.6337528	0.43133408
909761552138330	3.0304828	-2.01262	1.1480396
909761560439111	2.9200914	-1.8880348	1.4319642
909761568739892	2.7213979	-1.4985342	1.5069613
909761577040673	2.3757246	-0.8452482	1.3204292
909761585341455	1.9126828	0.021903992	0.86589324
909761593642236	1.7645926	0.0060071945	0.7899562
909761601943017	0.791133	1.9738035	-0.19043815
909761610243798	0.5548144	2.5128174	-0.0058516264
909761618544580	0.09668553	2.4872618	0.42185867
909761626845361	-0.66437703	1.9667215	0.8361027
909761635146142	-1.6621636	1.0621367	1.0811408
909761643446923	-1.7448167	1.0610867	0.94777787
909761651747705	-3.8367472	-1.2081661	1.2322612
909761660048486	-4.414197	-1.9591188	1.4189078
909761668349267	-4.500539	-2.5893135	1.5876079
909761676650048	-4.439144	-2.929779	1.6513975
909761684950830	-4.5595317	-2.8408518	1.5803418
909761693251611	-4.777891	-2.4095278	1.4043047
909761701552392	-4.6968064	-1.8223429	1.4148309
909761709853173	-3.9851267	-1.4992905	1.4891198
909761718153955	-3.2903788	-1.2745543	1.3741565
909761726454736	-2.7822752	-1.051671	1.0567781
909761734755517	-2.4038062	-0.8260784	0.6818119
909761743056298	-2.3778026	-0.81871223	0.63793886
909761751357080	-1.6111473	-0.6147394	0.7243438
909761759657861	-1.0284423	-0.72817993	0.81214166
909761767958642	-0.39002007	-0.7884102	0.7082989
909761776259423	0.23016942	-0.8310585	0.50528765
909761784560205	0.7408724	-0.9072771	0.28293288
909761792860986	0.7164916	-0.8963051	0.21892989
909761801161767	1.031573	-0.79765606	-0.6719408
909761809462548	1.1871978	-0.6911955	-1.727345
909761817763330	1.6002425	-0.49435425	-2.9266968
909761826064111	1.5617781	-0.48405266	-2.9755912
909761834364892	2.5086617	0.2780733	-3.6920261
909761842665673	2.4621322	0.28868198	-3.7447724
909761850966455	1.2416795	0.93200684	-1.2983242
909761859267236	0.048734643	1.0657415	-0.1504767
909761867568017	0.019313253	1.0808182	-0.23065019
909761875868798	-0.8338511	1.1726418	0.49380994
909761884169580	-2.2994416	1.4261951	0.7732971
909761892470361	-2.989647	1.2783623	0.2969942
909761900771142	-3.1026127	0.98443127	-0.40187073
909761909071923	-2.889619	0.79924107	-1.0633864
909761917372705	-2.8598647	0.79585266	-1.0543838
909761925673486	-2.1964543	0.76681805	-1.4853022
909761933974267	-2.17218	0.7611122	-1.4647293
909761942275048	-2.2668343	1.229105	-0.6786442
909761950575830	-2.3779285	1.6811638	-0.21031642
909761958876611	-2.3195894	2.108797	0.012515068
909761967177392	-2.295906	2.1028872	0.020092487
909761975478173	-1.731772	2.5530157	0.048514605
909761983778955	-1.723394	2.543007	0.069253206
909761992079736	-1.4369084	1.9323225	0.19902396
909762000380517	-1.1594467	1.0404053	0.46341014
909762008681298	-0.9207442	0.14029026	0.6273347
909762016982080	-0.9039717	0.12240219	0.71313846
909762025282861	-0.6478435	-0.76831913	0.67691493
909762033583642	-0.34629312	-1.6111603	0.49972212
909762041884423	0.091616035	-2.7295876	0.13194954
909762050185205	-0.04753992	-2.3800793	0.27476692
909762058485986	0.019530565	-2.398018	0.47503293
909762066786767	-0.27109182	-1.5193987	0.50025153
909762075087548	-0.5420534	-0.26409435	0.21798158
909762083388330	-0.715739	1.2913046	-0.24716747
909762091689111	-0.0559749	5.024452	-0.8187647
909762099989892	1.4396834	6.7349977	-0.96417934
909762108290673	1.5153501	6.7338715	-0.73059833
909762116591455	3.5790114	7.500448	-1.1103401
909762124892236	5.4396753	7.251959	-1.4258517
909762133193017	6.1016207	6.1306744	-1.3144062
909762141493798	4.945986	4.3265734	-0.79497176
909762149794580	1.9464252	1.9900866	-1.0070741
909762158095361	0.7072309	0.28273773	-0.8914932
909762166396142	0.19635773	-0.92791176	-0.5803404
909762174696923	0.21703959	-1.7563086	-0.10242236
909762182997705	0.5612099	-2.2791386	0.51247513
909762191298486	1.0315878	-2.5306501	1.1989454
909762199599267	1.4898605	-2.4765244	1.7902919
909762207900048	1.8894382	-2.32689	1.9979005
909762216200830	2.0084999	-2.0440836	1.9217076
909762224501611	1.958955	-1.631422	1.7740386
909762232802392	1.8619931	-1.1952877	1.6077971
909762241103173	1.7862916	-0.8998108	1.3782396
909762249403955	1.6806433	-0.9142456	1.0616553
909762257704736	1.9848022	-1.3756361	0.6144967
909762266005517	2.4311876	-2.0132236	0.31168866
909762274306298	2.8323064	-2.8243723	0.2892506
909762282607080	3.0837934	-3.622511	0.4375279
909762290907861	3.1536515	-4.1910267	0.577235
909762299208642	2.9229074	-4.490568	0.7552264
909762307509423	2.6809764	-4.626549	0.9349444
909762315810205	2.4393787	-4.6445923	1.0815518
909762324110986	2.2474275	-4.626959	1.1056039
909762332411767	2.1038396	-4.577403	1.026187
909762340712548	1.9592538	-4.441457	0.9173291
909762349013330	1.7030168	-4.086982	0.7673211
909762357314111	1.1318321	-3.492957	0.78065467
909762365614892	0.43205595	-2.933053	0.99792624
909762373915673	-0.23025179	-2.38807	1.1438587
909762382216455	-0.6545408	-1.7839918	1.0925076
909762390517236	-0.728894	-0.96697426	0.9300175
909762398818017	-0.62259054	0.4708786	0.9109051
909762407118798	-1.2193828	2.628004	0.20588946
909762415419580	-2.783693	4.7035	-1.3120062
909762423720361	-4.681266	5.792383	-3.0126433
909762432021142	-5.746768	5.4288187	-4.40931
909762440321923	-5.1711836	3.7588902	-5.3671274
909762448622705	-4.0695786	1.8756886	-5.936173
909762456923486	-3.2703326	0.55846786	-5.7472987
909762465224267	-2.5131156	-0.36271477	-4.8143682
909762473525048	-1.6712866	-0.88168144	-3.305505
909762481825830	-0.81052804	-1.068059	-1.5546219
909762490126611	-0.8125839	-1.0475845	-1.4754927
909762498427392	0.38678288	-0.9283676	1.1681516
909762506728173	0.48345685	-0.66912746	1.533865
909762515028955	0.51705647	-0.37295246	1.5513034
909762523329736	0.5466392	0.00288105	1.3226519
909762531630517	0.53441095	-0.016961098	1.2522511
909762539931298	0.5449822	2.1216393	0.73524857
909762548232080	0.72720695	4.4348383	1.0012875
909762556532861	1.1781118	7.1234417	2.3820508
909762564833642	2.0997977	9.849484	3.3117533
909762573134423	3.6544874	11.296775	2.52629
909762581435205	3.5896783	11.237754	2.3865047
909762589735986	5.7494955	4.636224	-1.8415462
909762598036767	3.3636756	0.77987576	-2.0904226
909762606337548	2.0501301	-1.2831478	-0.86020875
909762614638330	1.6884196	-2.464713	0.796051
909762622939111	1.7189755	-2.4525204	0.79848945
909762631239892	2.0945716	-2.9769983	2.2689176
909762639540673	3.0403814	-2.836052	3.0983238
909762647841455	2.8902698	-2.6055822	2.2233396
909762656142236	3.0244637	-2.519392	1.347654
909762664443017	2.9672627	-2.452159	0.9188974
909762672743798	2.9091961	-2.4630213	0.86419165
909762681044580	3.120109	-2.4297152	1.2438865
909762689345361	3.2692852	-2.3463287	1.6497661
909762697646142	3.0064387	-1.9489164	2.0742157
909762705946923	2.9355397	-1.2625103	2.5841484
909762714247705	3.1623645	-0.51607895	3.0039563
909762722548486	3.4948235	0.2964325	3.2205923
909762730849267	3.3465698	0.27746964	3.1392677
909762739150048	3.647246	1.9057827	-0.6790798
909762747450830	2.1241481	2.2609186	-3.2630804
909762755751611	0.8821099	1.8318233	-2.2595
909762764052392	0.05383444	1.1668386	-0.6752864
909762772353173	-0.038813055	1.1596355	-0.7522949
909762780653955	-0.7167657	0.40638542	0.5211734
909762788954736	-1.507034	-0.43370056	1.3792015
909762797255517	-3.5295405	-1.8985033	2.204373
909762805556298	-4.328713	-2.033843	2.1501575
909762813857080	-4.299047	-2.0232668	2.010342
909762822157861	-4.806871	-1.9998264	1.7757545
909762830458642	-5.055682	-1.6964035	0.99758935
909762838759423	-5.0087857	-1.6862888	0.92443573
909762847060205	-3.7260544	-1.4241533	-0.13939768
909762855360986	-2.911193	-1.2513714	-0.48791736
909762863661767	-2.9028888	-1.2442961	-0.5320865
909762871962548	-2.7630787	-1.0418139	-0.64667016
909762880263330	-2.870112	-0.89104366	-0.5573417
909762888564111	-2.755658	-0.86182594	-0.34459746
909762896864892	-2.218429	-0.9753685	-0.109081745
909762905165673	-1.3546357	-1.072134	0.31397307
909762913466455	-0.62363875	-1.0624733	0.6702279
909762921767236	-0.12996045	-0.87104034	0.8972776
909762930068017	0.22918525	-0.61138153	0.96897304
909762938368798	0.5714285	-0.41854763	0.85487294
909762946669580	0.941171	-0.35981655	0.55071664
909762954970361	1.108984	-0.32783413	0.05109799
909762963271142	0.99942327	-0.2508297	-0.6542069
909762971571923	0.801661	-0.18061638	-1.4424037
909762979872705	0.55166036	-0.06932449	-1.972316
909762988173486	0.26341343	0.09194183	-2.0102375
909762996474267	-0.12850368	0.11348915	-0.8142375
909763004775048	-0.12438043	0.12068367	-0.8600601
909763013075830	-0.14679661	-0.025017738	-0.15037572
909763021376611	-0.3055734	-0.033988953	0.492854
909763029677392	-0.59440804	0.07809067	0.89324784
909763037978173	-0.89992917	0.16823864	0.95856214
909763046278955	-0.8727822	0.18351173	0.8797773
909763054579736	-1.2699978	-0.038352013	0.25358558
909763062880517	-1.697166	0.17068863	-0.41642523
909763071181298	-2.047602	0.56773186	-0.84878445
909763079482080	-2.2494168	1.0086594	-0.94801354
909763087782861	-2.355226	1.4191589	-0.8000648
909763096083642	-2.4675188	1.8322668	-0.6145861
909763104384423	-2.5189304	2.1757078	-0.74488854
909763112685205	-2.4991832	2.3466473	-1.1094654
909763120985986	-2.5001385	2.3130102	-1.5608778
909763129286767	-2.518229	2.1003218	-2.0101326
909763137587548	-2.5064907	1.7842426	-2.279313
909763145888330	-2.4024553	1.4979162	-2.0738475
909763154189111	-2.1588662	1.084979	-1.3476152
909763162489892	-2.0253346	0.5630226	-0.8804593
909763170790673	-2.1020176	0.049437523	-0.60778236
909763179091455	-2.2576761	-0.436553	-0.4545344
909763187392236	-2.2975335	-0.95098877	-0.35664308
909763195693017	-2.1095345	-1.5751896	-0.2830472
909763203993798	-1.5727654	-1.9843245	0.08204222
909763212294580	-0.97541726	-1.9692812	0.62003946
909763220595361	-0.7255723	-1.5932302	0.735855
909763228896142	-0.85947496	-0.83754253	0.43661714
909763237196923	-1.2900989	0.39802647	0.013774872
909763245497705	-1.9239938	2.2108364	-0.16759342
909763253798486	-1.6301255	4.0608435	-0.12916607
909763262099267	-0.27209473	5.8979673	-1.0286434
909763270400048	1.9980667	7.0379333	-2.3172903
909763278700830	4.580529	7.2455244	-2.7805789
909763287001611	4.588583	7.24109	-2.591813
909763295302392	6.3355694	5.007536	-1.8325598
909763303603173	2.6933827	3.0627384	-1.2127435
909763311903955	0.8357123	1.0827732	-0.66483784
909763320204736	-0.070162654	-0.33293915	-0.23686922
909763328505517	-0.3106326	-1.1487312	0.23170322
909763336806298	-0.14915478	-1.1167059	0.26232612
909763345107080	0.77359915	-1.9529543	1.3826993
909763353407861	1.8887693	-2.2409925	1.6399277
909763361708642	2.7646384	-2.4068375	1.6685528
909763370009423	3.0996764	-2.3755493	1.4936895
909763378310205	3.1684153	-2.3322906	1.62833
909763386610986	2.9985032	-1.9079895	0.93006027
909763394911767	2.7795067	-1.6460276	0.7528744
909763403212548	2.4460642	-1.4380913	0.7079382
909763411513330	2.1283824	-1.3897762	0.5940522
909763419814111	1.7720838	-1.5437565	0.44411516
909763428114892	1.821497	-1.5210314	0.46607625
909763436415673	1.4242339	-2.317318	0.38234103
909763444716455	1.514096	-2.8110008	0.577762
909763453017236	1.7936761	-3.340023	1.1485635
909763461318017	2.0607872	-3.8131657	1.5077626
909763469618798	2.2385585	-4.243861	1.6642002
909763477919580	2.2889347	-4.6793785	1.6313511
909763486220361	2.2682004	-4.675516	1.6224474
909763494521142	1.5513494	-5.1376553	1.4133067
909763502821923	0.42632675	-4.5880833	1.4463128
909763511122705	-0.3246498	-4.055497	1.5065314
909763519423486	-0.59728956	-3.6786156	1.4035306
909763527724267	-0.64416385	-3.6780977	1.4311782
909763536025048	-0.6068332	-3.4040852	1.1823443
909763544325830	-0.581892	-1.7560139	0.5149387
909763552626611	-0.9443636	0.5184641	0.44723105
909763560927392	-1.7061243	3.591547	0.3923694
909763569228173	-1.7932544	3.563737	0.39507914
909763577528955	-3.41579	6.710105	-1.2277713
909763585829736	-6.9584436	8.270354	-7.779632
909763594130517	-6.616147	5.1471786	-9.762344
909763602431298	-6.2180076	1.8413868	-8.5974
909763610732080	-5.608469	-0.37792492	-6.135672
909763619032861	-5.5369105	-0.3533535	-6.081753
909763627333642	-2.4680576	-2.8497458	-0.18426919
909763635634423	-2.4659114	-2.826645	-0.111534834
909763643935205	-0.57885814	-3.473814	2.390073
909763652235986	0.5961113	-3.6737938	4.2410755
909763660536767	1.0319598	-3.3111553	4.9678917
909763668837548	0.7067158	-2.3249025	4.3685617
909763677138330	0.09125161	-0.7109728	3.502895
909763685439111	-0.6520672	1.6356134	2.786047
909763693739892	-1.4070714	4.599187	2.4423084
909763702040673	-1.761518	7.4817944	3.1241894
909763710341455	-0.7664902	9.7423525	4.1158705
909763718642236	3.3217607	15.073772	7.7125807
909763726943017	9.028641	16.066887	-0.7796389
909763735243798	12.663548	10.679801	-12.911248
909763743544580	11.142763	2.6228447	-12.914151
909763751845361	6.027177	-1.0597963	-6.1778636
909763760146142	3.7628112	-2.8685951	-1.633435
909763768446923	2.7954113	-4.1516237	1.4854597
909763776747705	2.4208045	-4.9477167	3.5121825
909763785048486	2.13385	-5.292491	4.5598345
909763793349267	0.67484665	-4.6935215	4.1384497
909763801650048	0.68160415	-4.691659	4.051675
909763809950830	0.397233	-4.1103554	3.4980536
909763818251611	0.6459609	-3.5720282	2.9646277
909763826552392	1.0785741	-2.9956589	2.4124522
909763834853173	1.420838	-2.2074518	1.9670863
909763843153955	1.6365315	-1.1303282	1.7798271
909763851454736	2.1288233	-0.072369576	1.863346
909763859755517	2.7638822	1.139226	2.1692555
909763868056298	3.2236838	2.3726006	2.2988186
909763876357080	2.8507802	3.319995	0.722462
909763884657861	1.5070627	3.5042658	-1.8137578
909763892958642	-0.18751472	2.7071028	-3.0459
909763901259423	-0.87953097	1.4375534	-1.3849761
909763909560205	-1.4269307	0.19718266	0.0030095577
909763917860986	-2.0431583	-1.0093107	1.1001545
909763926161767	-2.6135204	-2.0764484	1.7721256
909763934462548	-3.07914	-2.8479128	2.025526
909763942763330	-3.605098	-3.4692793	1.9038441
909763951064111	-3.5617278	-3.4639606	1.7539586
909763959364892	-3.751007	-3.3500643	1.5426706
909763967665673	-3.9473374	-3.0016184	1.1556808
909763975966455	-3.390069	-2.6003933	0.87353855
909763984267236	-2.27692	-2.1641035	0.77480614
909763992568017	-1.390826	-1.6341219	0.7324341
909764000868798	-1.3029082	-1.0547485	0.45682216
909764009169580	-1.1504312	-0.69090176	0.2432605
909764017470361	-0.88868743	-0.53030014	0.16720837
909764025771142	-0.9043509	-0.5249958	0.10821289
909764034071923	-0.46710032	-0.5555315	0.27597606
909764042372705	-0.48848838	-0.5495205	0.2180968
909764050673486	-0.68299943	-0.5661411	0.65854096
909764058974267	-1.069122	-0.44441414	1.0736096
909764067275048	-1.1653055	-0.43512535	1.2611088
909764075575830	-1.162214	-0.42859745	1.2079366
909764083876611	-0.76629657	-0.47683048	1.0369915
909764092177392	-0.75952035	-0.47058582	0.9918325
909764100478173	-0.4455577	-0.31049538	-0.0033648014
909764108778955	-0.3900758	-0.082125664	-0.78075683
909764117079736	-0.20546564	0.20112324	-1.6221486
909764125380517	0.13415845	0.421834	-2.1653259
909764133681298	0.11713597	0.42600346	-2.1966922
909764141982080	0.7902182	0.5686178	-1.8289977
909764150282861	0.40158638	0.59416294	-1.0744909
909764158583642	-0.806756	0.6103649	-0.4107405
909764166884423	-1.9235765	0.5304289	0.09528375
909764175185205	-2.796916	0.3921013	0.30379474
909764183485986	-2.7852945	0.40513992	0.22589827
909764191786767	-3.3548305	0.30750656	0.2154975
909764200087548	-3.4122405	0.52658844	0.19319224
909764208388330	-2.715256	0.6974907	0.048412204
909764216689111	-2.1347537	0.89839745	-0.25596666
909764224989892	-2.1217809	0.9048748	-0.2947098
909764233290673	-1.9184804	1.1683702	-0.7074287
909764241591455	-2.0386481	1.4714842	-1.1381872
909764249892236	-2.3068001	1.9277735	-1.4854062
909764258193017	-2.1822078	1.9356289	-1.3518245
909764266493798	-2.0020795	1.9187393	-1.2729514
909764274794580	-2.0196924	1.911644	-1.2558877
909764283095361	-1.8320593	1.941699	-1.0791237
909764291396142	-1.6573083	1.8819132	-0.76673806
909764299696923	-1.554308	0.6957388	-0.27269053
909764307997705	-1.6247394	-0.026846886	-0.27710557
909764316298486	-1.6402732	-0.8760948	-0.45149255
909764324599267	-1.5870852	-0.8930464	-0.34794402
909764332900048	-1.6706034	-1.6097479	-0.5300182
909764341200830	-2.1510224	-1.5879927	-0.21231508
909764349501611	-1.8047943	-0.95671463	0.4524455
909764357802392	-1.5147336	-0.11675453	1.0918511
909764366103173	-1.6161568	1.1429472	1.6589713
909764374403955	-1.5171192	1.1302509	1.8621652
909764382704736	-1.7051232	2.6962748	2.5042877
909764391005517	-1.4627945	4.378623	3.0410082
909764399306298	-0.31429732	5.980672	2.8342319
909764407607080	2.2369013	6.9020033	0.12791994
909764415907861	5.270719	6.685441	-3.6021526
909764424208642	7.7133245	5.689315	-5.2028975
909764432509423	8.672649	4.190727	-4.5009418
909764440810205	7.2068124	2.540925	-2.568569
909764449110986	3.4015675	1.1535692	-1.3386333
909764457411767	0.36925942	-0.98928547	-0.04357767
909764465712548	0.4842084	-0.9797392	-0.06929928
909764474013330	0.35025358	-1.7319736	0.2609378
909764482314111	0.5279721	-2.172677	0.51218724
909764490614892	0.8835014	-2.3444185	0.75697094
909764498915673	1.6936009	-2.5091867	1.1805291
909764507216455	1.9032199	-2.5353184	1.3935647
909764515517236	1.9975675	-2.4966087	1.5145674
909764523818017	2.0354915	-2.3527412	1.6221974
909764532118798	1.8158965	-2.0324488	1.577084
909764540419580	1.3392147	-1.7304583	1.3810661
909764548720361	0.46971834	-2.3024893	0.55491865
909764557021142	0.5353267	-2.2721138	0.61371446
909764565321923	0.74399066	-2.8506393	0.27783573
909764573622705	1.2132299	-3.3738317	0.19556177
909764581923486	1.8020914	-3.7910938	0.34746075
909764590224267	2.296226	-4.0835857	0.66070855
909764598525048	2.4677463	-4.2497606	1.0583148
909764606825830	2.3663373	-4.3741493	1.238227
909764615126611	2.1921356	-4.481742	1.2878767
909764623427392	2.0329	-4.5749664	1.2508352
909764631728173	1.8554788	-4.589223	1.169928
909764640028955	1.6303115	-4.410537	1.0342486
909764648329736	1.3529322	-3.9473467	0.8043883
909764656630517	0.878484	-3.3015308	0.66404283
909764664931298	0.42998338	-2.6890955	0.6029874
909764673232080	0.11411524	-2.0505285	0.3375404
909764681532861	-0.10624206	-1.1271152	-0.19832397
909764689833642	-0.39912271	0.41347504	-0.8139055
909764698134423	-3.0423489	6.109188	-2.8167987
909764706435205	-3.0970552	6.079464	-2.8461938
909764714735986	-6.2917137	8.150233	-5.199703
909764723036767	-7.8801327	7.334772	-6.9624257
909764731337548	-8.235285	4.7528543	-7.417639
909764739638330	-8.234806	2.209589	-6.570379
909764747939111	-8.127918	2.2281399	-6.5298195
909764756239892	-6.555497	-0.26173782	-2.2712224
909764764540673	-4.5362263	-1.1424551	0.24090481
909764772841455	-2.2339706	-1.8518105	2.2057052
909764781142236	-2.2623808	-1.839529	2.280869
909764789443017	0.68907094	-2.3107147	3.4798877
909764797743798	0.6369678	-2.3075228	3.5170958
909764806044580	0.3838737	-0.51335526	2.252703
909764814345361	-0.2637111	1.4116163	1.9331838
909764822646142	-0.8982922	3.9876385	1.9674876
909764830946923	-1.2821435	6.652197	2.7673848
909764839247705	-0.8775562	9.144035	4.110003
909764847548486	-0.9121578	9.095132	3.982121
909764855849267	6.8621664	14.389799	4.6567
909764864150048	11.602126	9.132408	-3.4390445
909764872450830	12.035292	3.2661104	-7.9149413
909764880751611	9.227172	-0.78101635	-7.2974496
909764889052392	9.079473	-0.8017492	-7.3355665
909764897353173	3.7017064	-3.6435556	-1.4192351
909764905653955	2.9613411	-4.4431973	0.6114383
909764913954736	2.595395	-4.915262	2.2727814
909764922255517	2.2417076	-5.105362	3.2039032
909764930556298	2.246438	-5.102853	3.0862336
909764938857080	1.7404989	-4.9157124	3.3661568
909764947157861	1.2156187	-4.4101477	3.2946792
909764955458642	1.3287014	-3.2327204	2.8073967
909764963759423	1.3393874	-2.3848839	2.4270604
909764972060205	1.4934548	-1.4060154	2.2364097
909764980360986	1.3830974	-1.4127111	2.1834683
909764988661767	1.7251635	-0.25639153	2.2354276
909764996962548	2.2092936	1.0482931	2.3740704
909765005263330	3.1938603	3.0369263	0.41465643
909765013564111	2.1403284	2.9568424	-2.4833038
909765021864892	0.77348167	2.0967445	-3.1129081
909765030165673	0.64797854	2.0931091	-3.106596
909765038466455	-0.66093355	0.9054804	-2.0342164
909765046767236	-2.3293326	-1.1079779	0.27778566
909765055068017	-2.461918	-2.2123241	1.0096307
909765063368798	-2.5981581	-2.8988905	1.9267797
909765071669580	-3.09542	-3.0157223	2.5366282
909765079970361	-3.8067832	-2.8415194	2.8064313
909765088271142	-3.7649271	-2.8280888	2.6544232
909765096571923	-5.143874	-2.3836937	2.3968024
909765104872705	-5.903789	-2.1237507	1.9141749
909765113173486	-6.557115	-1.7320509	1.461646
909765121474267	-6.7593803	-1.285573	0.99663484
909765129775048	-6.655631	-1.2715273	0.91187024
909765138075830	-6.040631	-0.9945793	0.46277082
909765146376611	-4.6389832	-0.9887619	0.123948574
909765154677392	-2.1487563	-1.0738373	-0.009974718
909765162978173	-1.1754416	-1.1339321	-0.037976503
909765171278955	-0.3452004	-1.1669159	0.07296193
909765179579736	-0.40393028	-1.1576109	0.023334503
909765187880517	0.35119563	-1.1606712	0.1503228
909765196181298	1.0664312	-1.1649647	0.11330855
909765204482080	2.3380218	-1.1937609	-0.35426307
909765212782861	2.4736135	-0.96098614	-0.6242044
909765221083642	2.4123206	-0.9581671	-0.6240207
909765229384423	1.8856275	-0.4485321	-1.0549202
909765237685205	1.0383729	0.26097107	-1.5794197
909765245985986	0.45956895	0.9666195	-2.0296922
909765254286767	0.90717703	1.634244	-1.9918436
909765262587548	0.9016099	1.6305399	-1.9854369
909765270888330	0.26480883	1.7592983	-1.3897913
909765279189111	-0.5321053	1.7501001	-0.66865015
909765287489892	-1.3376155	1.713788	-0.0011636019
909765295790673	-2.1605353	1.7110558	0.4816903
909765304091455	-2.8170066	1.535038	0.63852465
909765312392236	-3.2685118	1.061163	0.36244822
909765320693017	-3.9649143	0.7358484	-0.14576137
909765328993798	-4.388119	0.45219135	-0.59402704
909765337294580	-4.407414	0.3048048	-0.8736017
909765345595361	-4.08957	0.46229935	-0.9958985
909765353896142	-3.5139189	0.97372913	-1.0520551
909765362196923	-3.0307722	1.5684843	-0.92878413
909765370497705	-2.7950027	1.9258051	-0.74667954
909765378798486	-2.595148	1.9366016	-0.49496722
909765387099267	-2.4437788	1.5725002	-0.3118925
909765395400048	-2.4465954	0.9315834	-0.32249355
909765403700830	-2.6064918	-0.28826714	-0.30997515
909765412001611	-2.573961	-0.30236912	-0.24762964
909765420302392	-2.3226025	-0.7902441	-0.10725784
909765428603173	-1.9041426	-1.1050301	-0.027340889
909765436903955	-1.3333406	-1.1891575	0.02610755
909765445204736	-0.7233204	-0.9784851	0.15973973
909765453505517	-0.912616	0.84262276	0.5994557
909765461806298	-0.8311257	0.8148403	0.8008071
909765470107080	-1.1964402	2.3701944	1.0749949
909765478407861	-1.3485953	4.128952	1.5417928
909765486708642	-1.2623746	4.108508	1.7767165
909765495009423	-0.85355276	8.001915	2.4629028
909765503310205	1.2685764	8.805996	1.3206745
909765511610986	5.320915	7.730237	-1.978916
909765519911767	8.414079	6.019249	-3.6472054
909765528212548	8.375121	6.0111046	-3.4693718
909765536513330	8.80394	3.987133	-3.2415664
909765544814111	2.585957	0.26809406	-1.5408227
909765553114892	0.946397	-0.9738989	-0.97983897
909765561415673	0.3370583	-1.8768625	-0.2147392
909765569716455	0.051511765	-2.448227	0.3935055
909765578017236	0.091326356	-2.7401524	0.88473934
909765586318017	0.55636966	-2.8866482	1.2730666
909765594618798	2.2999976	-3.0745583	1.4347969
909765602919580	2.405242	-3.0332117	1.5627589
909765611220361	2.8278594	-2.9025764	1.6739559
909765619521142	2.6815329	-2.4754448	1.7670043
909765627821923	2.1590605	-1.947998	1.7699567
909765636122705	1.659791	-1.5490284	1.6991371
909765644423486	1.711143	-1.514369	1.7995023
909765652724267	1.4160824	-1.6502905	1.3571322
909765661025048	1.7576277	-2.200076	1.2953427
909765669325830	2.1893876	-2.8892345	1.2859591
909765677626611	2.507832	-3.5599165	1.2448634
909765685927392	2.524829	-3.5404367	1.2715108
909765694228173	2.6906512	-4.0941715	1.2262067
909765702528955	2.564503	-4.7474203	1.217521
909765710829736	2.2734797	-4.9164867	1.1515138
909765719130517	2.25708	-4.9053793	1.1659751
909765727431298	1.7224929	-5.325062	0.9763863
909765735732080	1.4962776	-5.4635124	0.829865
909765744032861	1.4649775	-5.4558773	0.8420687
909765752333642	0.8686199	-5.277933	0.6217241
909765760634423	0.24624705	-4.7954187	0.5131247
909765768935205	0.19745827	-4.7982264	0.50588393
909765777235986	-0.7650707	-2.3409052	0.74807715
909765785536767	-1.4621162	0.16304684	0.7488997
909765793837548	-1.510387	0.1435728	0.7120671
909765802138330	-5.504158	7.991994	-3.2003574
909765810439111	-5.509879	7.962043	-3.2384934
909765818739892	-7.921215	9.094453	-6.6344767
909765827040673	-7.358667	6.235834	-6.50572
909765835341455	-7.2739625	6.2330074	-6.518158
909765843642236	-6.661717	3.2396173	-5.662588
909765851943017	-4.865916	-0.1631298	-2.3399682
909765860243798	-3.0861526	-0.743412	-0.30849385
909765868544580	-1.5210171	-0.8483782	1.1642997
909765876845361	-0.5896723	-0.57913876	1.9355993
909765885146142	-0.62113285	-0.5727196	1.9874642
909765893446923	-0.21906781	0.029780388	2.0330772
909765901747705	-0.08436608	2.7713366	1.0611763
909765910048486	-0.2259295	4.959341	0.87752104
909765918349267	-0.24091625	4.9362497	0.8371346
909765926650048	0.03941965	7.3101006	0.7338493
909765934950830	0.84848404	9.750553	1.0264723
909765943251611	2.3923469	11.353516	1.3183525
909765951552392	4.792361	10.807288	0.9719484
909765959853173	7.7979507	5.9058228	0.009820342
909765968153955	7.195653	0.68062973	-0.7651193
909765976454736	5.4770336	-2.7459517	-0.9468018
909765984755517	4.2347693	-4.165081	-0.48582685
909765993056298	3.7730367	-4.1777287	0.32601285
909766001357080	3.6314685	-3.6930895	1.0663509
909766009657861	4.026974	-3.1071987	1.5392442
909766017958642	4.4090066	-2.4927425	1.976854
909766026259423	4.3077326	-1.8796396	2.2638698
909766034560205	3.9395843	-1.3809137	2.4549444
909766042860986	3.6075215	-1.079628	2.6096096
909766051161767	3.5445888	-1.0067711	2.7626657
909766059462548	3.6818137	-1.1107187	2.8797264
909766067763330	3.8691711	-1.2984552	2.708316
909766076064111	3.8996725	-1.3037186	2.5010197
909766084364892	3.62613	-1.0664215	2.3847773
909766092665673	3.1164746	-0.5911274	2.406639
909766100966455	2.5544684	0.09463024	2.5663629
909766109267236	2.0104592	0.83999157	2.812416
909766117568017	1.5903289	1.4564857	3.0573559
909766125868798	1.3852972	1.983221	2.8958325
909766134169580	1.0249003	2.1349373	2.0211418
909766142470361	0.2925443	1.7886677	0.65277916
909766150771142	0.17619945	1.7802105	0.6128161
909766159071923	-1.7069576	-0.12670994	-1.5969625
909766167372705	-2.409712	-1.1475878	-2.0665467
909766175673486	-3.1126268	-1.9893007	-1.9947278
909766183974267	-3.7495935	-2.5769167	-1.5352424
909766192275048	-4.2859864	-2.8678703	-0.70431197
909766200575830	-4.706273	-2.8614635	0.591287
909766208876611	-4.7829123	-2.5336008	2.4176981
909766217177392	-4.9368787	-2.140726	3.668417
909766225478173	-4.8488903	-1.9659271	3.8895788
909766233778955	-4.4517746	-1.7291994	3.3683758
909766242079736	-3.8946972	-1.3698101	2.4789732
909766250380517	-3.4761865	-1.031497	1.498872
909766258681298	-3.4907448	-0.7081003	0.506457
909766266982080	-3.2856464	-0.53842354	-0.2573371
909766275282861	-2.7671835	-0.5288229	-0.96392953
909766283583642	-1.883584	-0.6155815	-1.5997976
909766291884423	-0.7360606	-0.709157	-2.183836
909766300185205	0.4922679	-0.725296	-2.7567964
909766308485986	1.7330832	-0.6538763	-3.2522016
909766316786767	2.6488335	-0.5022335	-3.4598775
909766325087548	2.7246082	-0.297307	-3.2820334
909766333388330	1.58282	-0.10103226	-2.723693
909766341689111	-0.3591454	0.053254128	-1.9744871
909766349989892	-0.40476012	0.06264019	-2.0060978
909766358290673	-3.0823317	0.38717747	-0.54452944
909766366591455	-3.2606192	0.46707058	-0.21210146
909766374892236	-2.9809158	0.33334446	-0.057419777
909766383193017	-2.6278238	0.2940874	0.18171215
909766391493798	-2.6217008	0.29661274	0.1675663
909766399794580	-2.5140784	0.46016598	0.50556207
909766408095361	-3.0910888	0.6450901	0.7360389
909766416396142	-3.3620338	0.6479902	0.47384953
909766424696923	-3.342616	0.68874454	0.12060189
909766432997705	-2.8932157	0.74614334	-0.32449603
909766441298486	-2.84298	0.74045086	-0.31007004
909766449599267	-2.1002016	0.83265686	-0.8604243
909766457900048	-0.8647686	1.3296509	-2.0864558
909766466200830	-0.8267859	1.6624804	-2.3868375
909766474501611	-0.8220591	1.6594782	-2.384066
909766482802392	-2.0179791	2.4730701	-1.60566
909766491103173	-2.1520352	2.6159286	-0.7742522
909766499403955	-2.1611345	2.6136847	-0.78618383
909766507704736	-1.6411296	2.0835667	0.45080495
909766516005517	-1.6287137	1.5422649	0.3793013
909766524306298	-1.6296943	1.533782	0.40215492
909766532607080	-1.91145	-0.20962429	-0.21934652
909766540907861	-1.9813045	-1.218935	-0.38023007
909766549208642	-1.9059354	-1.240552	-0.26075292
909766557509423	-1.6019545	-2.6585827	-0.049643397
909766565810205	-1.4946383	-2.6802607	0.121840954
909766574110986	-1.2944419	-2.6121225	0.50246966
909766582411767	-1.3098618	-1.7967119	0.882671
909766590712548	-1.2027674	-1.8112602	1.1093326
909766599013330	-1.4909797	-0.41987705	1.6786332
909766607314111	-2.2297077	4.070362	3.022059
909766615614892	-1.791523	7.0752287	3.8349662
909766623915673	-1.7308683	7.0656347	4.0876403
909766632216455	2.2432528	11.324456	-0.9788656
909766640517236	2.2444732	11.315425	-0.72006243
909766648818017	6.0192223	10.619466	-4.2747602
909766657118798	10.737863	3.8687668	-2.5180826
909766665419580	10.671406	3.8764458	-2.3588438
909766673720361	6.8683496	1.0984907	-0.57029295
909766682021142	3.4793859	-1.0629902	-0.29616916
909766690321923	1.3584104	-2.5124397	-0.4238069
909766698622705	0.2282778	-3.1541328	-0.17804015
909766706923486	0.42428303	-3.123643	-0.17376375
909766715224267	-0.6146363	-2.8877087	0.8708868
909766723525048	-0.32447147	-2.6847458	1.5037131
909766731825830	0.46031737	-2.5737295	2.0464025
909766740126611	1.3783958	-2.520504	2.289805
909766748427392	2.0168614	-2.4370584	2.1543286
909766756728173	2.1335769	-2.2379456	1.7605107
909766765028955	2.303432	-1.9812775	1.3822975
909766773329736	2.3996964	-1.8489008	1.2298768
909766781630517	2.4097393	-1.8434458	1.145854
909766789931298	2.402448	-2.0333805	1.0942945
909766798232080	2.3978698	-2.3987846	1.0674334
909766806532861	2.3535025	-2.8159876	1.0811608
909766814833642	2.3754873	-3.286767	1.3104861
909766823134423	2.3736587	-3.6222239	1.3557909
909766831435205	2.3856668	-3.8922148	1.453639
909766839735986	2.2317472	-4.061427	1.4839718
909766848036767	1.9621172	-4.1655474	1.3958447
909766856337548	1.9105406	-4.3295584	1.317913
909766864638330	1.6428525	-4.381915	1.3049884
909766872939111	1.4973097	-4.358629	1.1112518
909766881239892	1.1592566	-4.1895266	0.89851785
909766889540673	0.73808503	-3.880063	0.669214
909766897841455	0.34375763	-3.403926	0.34944344
909766906142236	0.2934326	-3.4144878	0.3157637
909766914443017	-0.57739866	-1.1009893	0.1230526
909766922743798	-1.8660011	1.8634491	-0.4681542
909766931044580	-5.0812464	5.3866205	-3.006579
909766939345361	-8.143898	7.686653	-5.928046
909766947646142	-8.988386	7.422656	-7.344899
909766955946923	-7.2637415	4.600195	-6.33634
909766964247705	-6.146392	2.6367474	-4.772704
909766972548486	-5.3899393	1.535449	-3.3042974
909766980849267	-4.250437	0.64611816	-1.5600882
909766989150048	-2.5199087	-0.207695	0.20092142
909766997450830	-0.58890605	-0.98841095	1.6650376
909767005751611	0.60901	-1.5297432	2.7151282
909767014052392	0.7643287	-1.5006447	2.9979692
909767022353173	0.23877478	-0.81488895	2.6146507
909767030653955	-0.16572762	0.23514366	2.1997256
909767038954736	-0.35259724	1.5618544	1.9793172
909767047255517	-0.40166068	3.2137594	1.9522778
909767055556298	-0.43368006	3.193615	1.9215078
909767063857080	0.38750482	8.793306	2.2118292
909767072157861	2.1514869	12.804848	3.079389
909767080458642	5.0963407	14.890167	1.099524
909767088759423	7.6219945	12.450954	-2.9367151
909767097060205	7.845732	5.988802	-6.0627956
909767105360986	4.643968	0.44403648	-4.655715
909767113661767	3.172825	-2.5139132	-2.1609197
909767121962548	2.8276148	-4.071809	-0.14645886
909767130263330	3.1555314	-4.731351	1.6135733
909767138564111	3.7699168	-4.902521	3.013824
909767146864892	3.7954898	-4.883769	3.0236309
909767155165673	4.31602	-4.676075	3.7806487
909767163466455	3.5837922	-3.1948862	3.2083583
909767171767236	3.1844373	-2.7147655	2.7435267
909767180068017	3.176061	-2.7194548	2.6820168
909767188368798	2.873718	-2.1924028	2.280084
909767196669580	2.8346472	-2.2049313	2.2035801
909767204970361	2.7692535	-1.9650221	2.1429605
909767213271142	2.7284508	-1.1371403	1.9794722
909767221571923	2.7739007	-0.6513214	2.0247254
909767229872705	2.6344366	-0.6731005	1.9678713
909767238173486	2.9238274	0.71788883	2.4229422
909767246474267	2.9258244	1.7397089	2.1643302
909767254775048	2.5484033	3.072585	0.4290818
909767263075830	1.3180965	3.799508	-2.2532597
909767271376611	0.22374053	3.1475115	-1.644061
909767279677392	-0.831975	2.059867	-0.41998613
909767287978173	-2.0775778	0.881588	0.4753098
909767296278955	-3.5411003	-0.30546093	0.8778468
909767304579736	-4.5991077	-1.4623079	1.0137835
909767312880517	-5.076951	-2.354105	1.1975448
909767321181298	-5.83792	-2.5831633	1.330103
909767329482080	-6.578605	-2.6055975	1.3241376
909767337782861	-6.9757886	-2.5878763	1.3143008
909767346083642	-6.8938427	-2.575406	1.1426833
909767354384423	-6.6184883	-2.4979048	1.3447943
909767362685205	-3.357619	-2.3765364	1.4294612
909767370985986	-2.3139577	-2.2711887	0.6623814
909767379286767	-2.3012025	-2.254119	0.5472157
909767387587548	-2.7319613	-1.2494898	-0.33364964
909767395888330	-2.738629	-1.2377052	-0.40629244
909767404189111	-3.283835	-0.39548397	-0.07469046
909767412489892	-2.6880124	-0.44881535	-0.0027729273
909767420790673	-2.6716447	-0.4409895	-0.04864335
909767429091455	-2.099835	-0.40553188	-0.08025038
909767437392236	-0.65398693	-0.51344395	0.06543791
909767445693017	-0.670314	-0.50646496	0.026335955
909767453993798	0.6021161	-0.7371998	-0.044338822
909767462294580	0.56867945	-0.73042774	-0.0779047
909767470595361	1.1599643	-0.7581034	-0.23686767
909767478896142	1.3589168	-0.7388954	-0.5192261
909767487196923	1.2241126	-0.55624866	-0.8706827
909767495497705	1.1017532	-0.30946827	-1.192357
909767503798486	1.2443597	-0.12704086	-1.3743517
909767512099267	1.2760197	0.06366253	-1.3697262
909767520400048	1.1830442	0.28070354	-0.980708
909767528700830	1.0428078	0.3883419	-0.42048585
909767537001611	0.5421678	0.54819775	0.2453382
909767545302392	-0.197499	0.689126	0.8576946
909767553603173	-0.86669105	0.6651573	1.2153649
909767561903955	-1.2546724	0.53792095	1.1874961
909767570204736	-1.4157324	0.42842102	0.98204386
909767578505517	-1.6719774	0.5269909	0.6789869
909767586806298	-1.9141458	0.68736744	0.23050976
909767595107080	-2.0800824	0.87814236	-0.311666
909767603407861	-2.1316104	1.1197119	-0.8561647
909767611708642	-1.9999282	1.3885374	-1.3471937
909767620009423	-1.9305345	1.6742287	-1.503308
909767628310205	-1.9357955	1.8681269	-1.2057915
909767636610986	-2.0696275	2.0340033	-0.67054105
909767644911767	-2.3436375	2.3306332	-0.1446011
909767653212548	-2.422604	2.9938993	0.33867693
909767661513330	-2.429329	2.9904757	0.32630777
909767669814111	-1.9908757	2.3227196	0.5110154
909767678114892	-1.6973964	1.4963961	0.6802263
909767686415673	-1.5304637	0.85561466	0.7298734
909767694716455	-1.4516535	0.4339018	0.5897107
909767703017236	-1.4036918	0.17565727	0.27518058
909767711318017	-1.151119	0.288661	0.12050724
909767719618798	-0.53273517	0.13392448	-0.023085713
909767727919580	-0.32620353	0.09773636	-0.13483071
909767736220361	-0.3798418	0.2252779	-0.15096283
909767744521142	-0.47187093	0.5289831	-0.1193707
909767752821923	-0.40722957	1.0044413	-0.11598134
909767761122705	-0.018477201	1.6638575	-0.04110998
909767769423486	0.70282394	2.3508577	-0.18418258
909767777724267	1.8122056	2.9784622	-1.1714096
909767786025048	3.1010146	3.4995766	-2.5216997
909767794325830	3.9717276	3.87914	-3.4835742
909767802626611	3.7509117	4.077899	-3.5893643
909767810927392	2.04572	4.029929	-3.2770026
909767819228173	0.16585404	3.4833221	-2.2270765
909767827528955	-0.8937949	2.6644678	-0.8924414
909767835829736	-1.2749147	1.7379789	0.4103019
909767844130517	-0.90725815	0.7112293	1.4541197
909767852431298	0.332106	-0.40349007	2.0993369
909767860732080	1.7192014	-1.0810232	2.4235916
909767869032861	2.4166784	-1.1628704	2.1700723
909767877333642	2.4500904	-0.9462843	1.9843576
909767885634423	2.2083917	-0.5783663	1.8627945
909767893935205	1.89985	-0.22941971	1.7432227
909767902235986	1.9723042	-0.18348503	1.9296073
909767910536767	0.73625064	-0.2394867	1.5085208
909767918837548	0.2983793	-0.41491222	1.2431487
909767927138330	0.30973148	-0.897872	0.7896712
909767935439111	0.41359258	-0.8480377	0.89040256
909767943739892	1.8272808	-2.2725983	0.20288324
909767952040673	2.8947158	-2.829564	0.16995573
909767960341455	3.6434112	-3.21916	0.53213906
909767968642236	3.8102958	-3.3249598	1.0735292
909767976943017	3.5814586	-3.359438	1.4502704
909767985243798	3.6184013	-3.31499	1.5310464
909767993544580	3.1068718	-3.4548998	1.5760295
909768001845361	2.7282743	-3.5568466	1.510674
909768010146142	2.2921598	-3.5433435	1.4181247
909768018446923	1.7353928	-3.5782747	1.2040806
909768026747705	1.1208894	-3.4516792	0.93842435
909768035048486	0.42790556	-3.0936728	0.6956136
909768043349267	0.43759727	-3.0564995	0.76628685
909768051650048	-0.2915635	-2.5473232	0.5258751
909768059950830	-1.6737018	-1.6793823	0.05808997
909768068251611	-2.3021414	-1.2535305	-0.23298097
909768076552392	-2.7953422	-0.9484453	-0.74615526
909768084853173	-2.7521691	-0.9232235	-0.7188215
909768093153955	-3.2309093	-0.5275202	-2.1302497
909768101454736	-3.185152	-0.50639534	-2.1106598
909768109755517	-3.1305027	0.45706844	-2.7508008
909768118056298	-2.8757546	0.9025755	-2.5623243
909768126357080	-2.8530865	0.9086571	-2.5525877
909768134657861	-2.7648442	1.1611586	-2.3494
909768142958642	-2.3728454	0.91460514	-1.7885642
909768151259423	-2.3822138	0.9051218	-1.7902598
909768159560205	-1.4128995	-0.031557083	-1.1518581
909768167860986	-1.3879943	-0.37239456	-0.83718944
909768176161767	-1.4137838	-0.3983469	-0.8744581
909768184462548	-1.5703883	-0.58465195	-0.33877325
909768192763330	-1.5100801	0.912796	1.7417588
909768201064111	-1.5328617	0.87270355	1.6644142
909768209364892	-1.4487197	7.949503	2.1714506
909768217665673	-1.473758	7.888796	2.0733743
909768225966455	-1.6223824	12.809714	1.4708927
909768234267236	-1.5420868	15.195472	0.7515347
909768242568017	-0.06648874	12.713794	0.768461
909768250868798	2.6796908	6.7290955	1.4971459
909768259169580	5.356826	1.1849298	1.9790025
909768267470361	7.1969595	-2.063589	1.0985808
909768275771142	8.173531	-4.1882925	0.43641114
909768284071923	8.230158	-4.843383	0.7651212
909768292372705	7.295314	-4.2176237	1.6286724
909768300673486	5.623131	-2.9587164	2.2375045
909768308974267	3.913022	-1.9745893	2.0381112
909768317275048	3.2452457	-1.6293087	1.7191259
909768325575830	3.1586626	-1.6462688	1.5728121
909768333876611	3.3580484	-1.7604485	1.491965
909768342177392	3.6437674	-1.8526449	1.6058574
909768350478173	3.808153	-1.7659664	1.845106
909768358778955	3.2742326	-0.4663	1.8117837
909768367079736	3.084601	-0.5112934	1.7029552
909768375380517	2.2928276	0.44253922	1.0795903
909768383681298	1.493467	1.412653	0.40119845
909768391982080	0.7166724	2.1844616	-0.13943923
909768400282861	-0.10653275	2.5848436	-0.40606958
909768408583642	-2.0413215	1.9043751	0.3428867
909768416884423	-2.183965	1.8863497	0.2654894
909768425185205	-2.905732	1.1682253	0.6707361
909768433485986	-3.258936	0.5482197	1.0847075
909768441786767	-3.3353143	0.041584015	1.5683148
909768450087548	-3.2055438	-0.37432003	2.0675943
909768458388330	-2.85922	-0.7036953	2.3791928
909768466689111	-2.305255	-1.0191555	2.115266
909768474989892	-1.8545239	-1.3757038	1.5191472
909768483290673	-1.5728434	-1.7323246	1.0231988
909768491591455	-1.4067913	-2.00568	0.6169331
909768499892236	-1.3718039	-2.116352	0.26406085
909768508193017	-1.576561	-2.0363579	0.0457471
909768516493798	-1.8322177	-1.5659113	0.0862779
909768524794580	-1.8964921	-1.1527519	0.2822098
909768533095361	-1.7641327	-0.9431896	0.5404693
909768541396142	-1.505369	-0.87926865	0.8995147
909768549696923	-1.2144314	-0.8891325	1.3517287
909768557997705	-0.9625973	-0.9744339	1.802017
909768566298486	-0.9466764	-1.0370502	2.2031827
909768574599267	-1.2381867	-0.9879608	2.2663121
909768582900048	-1.5342268	-1.0141869	2.105433
909768591200830	-1.7684474	-1.1401968	1.7483772
909768599501611	-1.7189454	-1.1248693	1.6557602
909768607802392	-1.8719238	-1.2905254	1.1222084
909768616103173	-1.8615457	-1.3773413	0.055682182
909768624403955	-1.5396901	-1.2478657	-0.64631426
909768632704736	-0.83693254	-1.0425129	-1.4133935
909768641005517	0.12049575	-0.7448511	-2.1237445
909768649306298	1.1377993	-0.3857193	-2.5660677
909768657607080	1.1070446	-0.357172	-2.6695392
909768665907861	2.4402184	0.3194828	-1.9960921
909768674208642	2.238257	0.77715683	-1.3705468
909768682509423	1.6030074	1.1174812	-0.8040316
909768690810205	1.5362881	1.136323	-0.8637128
909768699110986	-0.65023553	1.4434977	0.16953039
909768707411767	-1.716068	1.4613218	0.37338018
909768715712548	-2.5133905	1.3422031	0.46440148
909768724013330	-2.8819747	1.1503267	0.66012883
909768732314111	-3.1865094	1.0156164	0.807529
909768740614892	-3.146717	1.0069866	0.82149076
909768748915673	-3.5846305	0.80413723	0.813735
909768757216455	-3.6453419	0.7592478	0.67954946
909768765517236	-3.636535	0.72817993	0.3943746
909768773818017	-3.4426713	0.759799	0.105793
909768782118798	-3.087789	1.0317602	-0.08969307
909768790419580	-2.6229756	1.5236673	-0.16025019
909768798720361	-2.068779	2.0889158	-0.13446426
909768807021142	-2.083359	2.074912	-0.0962131
909768815321923	-0.8104274	2.7909355	0.28438163
909768823622705	-1.1395446	2.878725	0.74914145
909768831923486	-1.6927824	2.8800173	1.2090666
909768840243061	-1.7132722	2.8683214	1.2330031
909768848543842	-1.9689556	2.4857273	1.5408955
909768856844624	-1.9469794	2.4723034	1.5677819
909768865145405	-1.6063422	2.0642967	1.2224905
909768873446186	-1.0576587	1.7987547	1.1912661
909768881746967	-1.0076128	1.7798615	1.2475462
909768890047749	-0.28201774	1.3223734	0.78810453
909768898348530	1.3044591	0.34761143	-0.60605824
909768906649311	1.723566	0.015719414	-0.40367913
909768914950092	1.5290124	-0.12530804	-0.48059082
909768923250874	1.5790358	-0.08277416	-1.429941
909768931551655	1.5942181	-0.102155685	-1.316955
909768939852436	2.1777787	0.25669765	-3.8911297
909768948153217	2.203521	0.23518085	-3.7420127
909768956453999	2.2975113	1.0642853	-4.954093
909768964754780	2.4009323	1.5982485	-4.2130013
909768973055561	2.461394	1.5815535	-4.0600915
909768981356342	2.3061757	1.9706564	-3.0228171
909768989657124	1.7207989	2.1847143	-1.7297077
909768997957905	1.130222	2.1408825	-0.42158404
909769006258686	0.9972043	1.807951	0.66384166
909769014559467	1.2019317	1.3411579	1.5076855
909769022860249	1.2900476	1.1034994	1.7561185
909769031161030	1.4932934	0.8952131	1.9023104
909769039461811	1.7537749	0.8545675	2.0304847
909769047762592	1.9808493	0.91590405	2.223114
909769056063374	2.0211382	0.9248085	2.472363
909769064364155	0.38877022	0.6131592	2.1335986
909769072664936	0.4935726	0.64296246	2.3212314
909769080965717	-0.8660443	0.47963428	1.8844259
909769089266499	-1.5425622	0.109272	1.2539318
909769097567280	-1.0459958	-0.59617233	0.45628822
909769105868061	1.9736875	-2.5516834	-1.0551528
909769114168842	2.8910954	-3.0498161	-1.0663288
909769122469624	3.00369	-2.987423	-0.9207387
909769130770405	3.1000175	-3.2222786	-0.5493939
909769139071186	3.10425	-3.294588	0.16044712
909769147371967	3.139959	-3.3287115	0.88240695
909769155672749	3.034871	-3.4159803	1.3745949
909769163973530	2.7246108	-3.598853	1.8187058
909769172274311	2.3181124	-3.9797974	1.7512119
909769180575092	1.6896217	-4.18139	1.3900776
909769188875874	1.0405245	-4.192298	1.0341058
909769197176655	0.49096847	-4.0129614	0.8259325
909769205477436	0.07887006	-3.6720762	0.74060655
909769213778217	-0.2170875	-3.291811	0.59176636
909769222078999	-0.51386476	-2.9538622	0.18895411
909769230379780	-1.0008857	-2.4657717	-0.10250592
909769238680561	-1.5964439	-2.0134907	-0.19721413
909769246981342	-2.0578516	-1.6783113	-0.07426429
909769255282124	-2.2485008	-1.398531	0.20067644
909769263582905	-2.5712035	-0.5355587	0.40062523
909769271883686	-2.5544794	-0.52872753	0.40600896
909769280184467	-2.7722375	0.047291756	0.015375376
909769288485249	-2.9777877	0.6414652	-0.73706675
909769296786030	-3.124433	1.1686859	-1.7928374
909769305086811	-3.1852708	1.5509071	-2.9678469
909769313387592	-2.9173298	1.6729069	-3.8111084
909769321688374	-1.8689146	1.3194838	-3.8683245
909769329989155	-0.77514815	0.6242027	-3.2144065
909769338289936	-0.076812506	-0.17063808	-2.2988453
909769346590717	0.27732778	-0.94349575	-1.3667068
909769354891499	0.60432196	-1.6798534	-0.45219994
909769363192280	0.8878355	-2.3306313	0.44765735
909769371493061	1.0183878	-2.812027	1.1473615
909769379793842	1.0750895	-2.941104	1.9601276
909769388094624	1.026252	-2.4419022	2.8257442
909769396395405	0.91702294	-0.9053192	3.4938366
909769404696186	0.8476088	2.1983948	3.5887666
909769412996967	0.8834684	7.167243	2.8487296
909769421297749	1.7115026	14.230448	0.9233146
909769429598530	1.558367	19.891432	-1.6035562
909769437899311	0.9081397	18.56308	-2.9923544
909769446200092	0.8896768	18.473038	-3.1495616
909769454500874	0.675766	2.8523989	-0.34002423
909769462801655	1.9507253	-1.5051947	1.0435448
909769471102436	3.8620412	-4.205574	1.269285
909769479403217	5.421161	-5.855074	1.188664
909769487703999	6.077585	-6.6071424	1.2698104
909769496004780	5.4716988	-6.425539	1.624449
909769504305561	3.806191	-5.4344425	2.08375
909769512606342	2.2606816	-4.348526	2.542674
909769520907124	1.0475507	-3.301425	2.7510724
909769529207905	0.3143332	-2.3562565	2.8291378
909769537508686	0.3058071	-1.6183691	2.821262
909769545809467	0.90400267	-1.1189842	2.7820966
909769554110249	1.6865659	-0.7908268	2.7665863
909769562411030	2.337698	-0.43700314	2.8018966
909769570711811	2.724394	0.28726578	2.8385248
909769579012592	3.2674217	1.5335169	2.5105627
909769587313374	3.6667497	2.9959745	1.6335827
909769595614155	3.4056597	2.9513826	1.5508053
909769603914936	1.3891478	4.9349346	-0.00891006
909769612215717	-1.262635	4.247123	-0.025627792
909769620516499	-3.1820135	2.884369	0.2620352
909769628817280	-4.183539	1.5199461	0.68957686
909769637118061	-4.2613654	1.5080128	0.54955804
909769645418842	-4.4127326	0.18665504	1.0455092
909769653719624	-2.9952903	-1.8410072	1.9211612
909769662020405	-2.1808047	-2.234249	1.7074443
909769670321186	-1.6510925	-2.5040693	1.1684082
909769678621967	-1.5425725	-2.5178318	0.61194056
909769686922749	-1.6034169	-2.5056496	0.47948188
909769695223530	-1.28045	-2.2267742	-0.31328535
909769703524311	-1.193953	-1.9555359	-0.55571336
909769711825092	-1.5724511	-1.4165058	-0.7531039
909769720125874	-1.8140727	-1.0333443	-0.53117794
909769728426655	-1.8385798	-1.021122	-0.6203937
909769736727436	-1.8661884	-0.8510866	-0.1228987
909769745028217	-1.8275087	-0.71833515	0.7344228
909769753328999	-1.8386904	-0.5354471	1.7562267
909769761629780	-1.8754584	-0.40251064	2.4433258
909769769930561	-1.5080299	-0.56256866	2.7006755
909769778231342	-1.6409109	-0.8518343	2.471839
909769786532124	-1.6924708	-1.1710863	1.9591211
909769794832905	-1.670775	-1.2837133	1.3415349
909769803133686	-1.5449855	-1.1435356	0.7282816
909769811434467	-1.1790229	-0.9776459	0.112808466
909769819735249	0.12948267	-0.931798	-1.1560042
909769828036030	0.13815705	-0.9159441	-1.2149522
909769836336811	0.8025316	-0.77266407	-1.7235034
909769844637592	1.3626564	-0.5271177	-1.9662402
909769852938374	1.8351824	-0.28327942	-1.959986
909769861239155	2.4909186	-0.07246876	-1.2725127
909769869539936	2.13539	0.17245007	-0.7099724
909769877840717	2.0879645	0.18458939	-0.7493713
909769886141499	1.1803222	0.48533058	-0.19687748
909769894442280	0.17949012	0.7067127	0.21626115
909769902743061	-0.54645395	0.8063679	0.4599645
909769911043842	-1.0196323	0.88185215	0.62192535
909769919344624	-1.6758716	1.049531	0.57672715
909769927645405	-2.4205785	1.2226763	0.44908214
909769935946186	-3.0258608	1.2262554	0.34767628
909769944246967	-3.277473	1.0133648	0.32616472
909769952547749	-3.156176	0.6504688	0.4196968
909769960848530	-2.9166389	0.3160553	0.63316417
909769969149311	-2.8597488	0.28108692	0.6519985
909769977450092	-2.8444965	0.2785263	0.6566458
909769985750874	-2.8297539	0.5335207	0.46145058
909769994051655	-2.7498207	0.9272213	0.22001243
909770002352436	-2.5204558	1.3545465	0.0061638355
909770010653217	-2.1768982	1.7531872	-0.14992595
909770018953999	-1.7294433	2.1756735	-0.3513608
909770027254780	-1.7600421	2.1676493	-0.33137655
909770035555561	-1.7258289	2.1177034	-0.4059825
909770043856342	-1.6360794	1.8646793	-0.4524026
909770052157124	-1.5075862	1.4863911	-0.4370122
909770060457905	-1.5038722	1.472331	-0.39150023
909770068758686	-1.6889309	0.6530714	-0.07783222
909770077059467	-1.7366458	0.27250576	0.42198586
909770085360249	-1.7954785	0.0063581467	1.0564721
909770093661030	-1.8094815	-0.14121437	1.5998718
909770101961811	-1.6553565	-0.18437767	1.8311397
909770110262592	-1.2298946	-0.12391949	1.6312943
909770118563374	-1.1982555	0.16874886	0.8707894
909770126864155	-1.1089536	0.7116041	-0.0606215
909770135164936	-0.5841524	1.3096685	-0.8985642
909770143465717	0.4297344	1.8662558	-1.6819073
909770151766499	1.8216524	2.3449764	-2.4564095
909770160067280	3.3753314	2.76328	-3.0708761
909770168368061	4.44198	3.2733908	-3.2053173
909770176668842	4.5956125	3.5274343	-2.7392223
909770184969624	3.377935	3.499055	-2.0810258
909770193270405	1.7805631	3.1062174	-1.3285497
909770201571186	0.62976116	2.3777122	-0.5746475
909770209871967	-0.6665027	1.5142918	-0.014114782
909770218172749	-0.8192515	0.2517519	0.25169685
909770226473530	-0.4750399	-0.4946642	0.28176075
909770234774311	0.34899724	-0.9582491	0.22967133
909770243075092	1.2076066	-1.1138668	0.31958202
909770251375874	1.6232952	-0.95108795	0.68411267
909770259676655	1.4168191	-0.6763897	1.2358851
909770267977436	1.1052914	-0.45115757	1.7104475
909770276278217	0.71428525	-0.25072193	2.0078158
909770284578999	0.42590535	-0.16449451	1.9413997
909770292879780	0.36292958	-0.31388474	1.5194933
909770301180561	0.459221	-0.26848698	1.6774883
909770309481342	1.513301	-1.3848219	0.14790916
909770317782124	2.2892594	-1.8618469	-0.3365364
909770326082905	2.7330277	-2.3360605	-0.56973565
909770334383686	3.0956683	-2.744133	-0.40852952
909770342684467	3.2514822	-3.0818167	0.08178878
909770350985249	3.3117297	-3.049654	0.120694876
909770359286030	2.596619	-3.458539	1.424545
909770367586811	2.361377	-3.5678291	1.8658054
909770375887592	2.048578	-3.6322222	1.9841805
909770384188374	1.8060772	-3.6829844	1.9413202
909770392489155	1.8245811	-3.6669245	1.9466796
909770400789936	1.4735382	-3.7731752	1.7450747
909770409090717	1.4274578	-3.86333	1.5505283
909770417391499	1.2298129	-3.9164762	1.2797608
909770425692280	0.89629316	-3.770401	1.0546546
909770433993061	0.45955682	-3.4948845	0.9211552
909770442293842	0.05026436	-3.216155	0.93034816
909770450594624	-0.23836613	-3.0231895	1.078474
909770458895405	-0.50379896	-2.8537302	1.2387059
909770467196186	-0.68935513	-2.426921	1.2402039
909770475496967	-0.5726714	-1.6372824	1.2012134
909770483797749	-0.5341728	-0.27838707	1.3824186
909770492098530	-0.6120831	-0.30451775	1.3403653
909770500399311	-1.0967549	1.7419939	1.0857776
909770508700092	-2.5639167	4.385586	-0.48216748
909770517000874	-5.4249463	7.1341553	-3.4826388
909770525301655	-6.4992266	6.4406214	-8.334095
909770533602436	-6.4118776	6.4515524	-8.279778
909770541903217	-5.6739397	3.8924637	-8.275425
909770550203999	-5.018263	1.3215532	-6.7993693
909770558504780	-4.190647	-0.62969685	-4.5858526
909770566805561	-1.8997209	-2.6119766	0.10186863
909770575106342	-1.2096007	-2.8645706	1.8566983
909770583407124	-1.2437761	-2.8542414	1.9039159
909770591707905	-1.1086862	-2.649641	3.167678
909770600008686	-1.2148991	-2.0224028	3.9704432
909770608309467	-1.2801249	0.5334158	4.2254963
909770616610249	-1.4051461	3.2367086	3.72638
909770624911030	-1.4144068	3.2129421	3.6640806
909770633211811	-1.3803997	6.3501863	3.5607786
909770641512592	-0.954561	9.391652	3.9820168
909770649813374	0.79490924	13.101247	5.0540433
909770658114155	0.7154399	13.029898	4.9142756
909770666414936	8.807499	14.5000925	-1.0055648
909770674715717	8.925224	5.623559	-6.0054994
909770683016499	7.341099	-0.09009457	-6.3818693
909770691317280	5.6984677	-3.217945	-4.5967946
909770699618061	4.6588154	-4.743842	-2.375051
909770707918842	4.161062	-5.431614	-0.42552102
909770716219624	4.095623	-5.6758747	1.240813
909770724520405	4.139845	-5.1328917	2.540116
909770732821186	3.7961242	-4.1374865	3.2052095
909770741121967	3.1809149	-3.2744474	3.1864867
909770749422749	2.5807047	-2.7298374	2.7917378
909770757723530	2.5479174	-2.7341747	2.674084
909770766024311	2.1213331	-1.9384575	2.1525276
909770774325092	2.0855663	-1.4490128	1.8219615
909770782625874	2.2950902	-0.7269354	1.2011243
909770790926655	2.7272453	0.27197742	0.44381052
909770799227436	3.10639	1.4077044	-0.24343953
909770807528217	2.9428368	1.3914165	-0.2702526
909770815828999	2.1904314	2.7342453	-1.1162369
909770824129780	1.0374411	2.2542582	-1.0564518
909770832430561	0.07962026	1.6559038	-0.7425791
909770840731342	-0.074639864	1.6507797	-0.7817691
909770849032124	-1.8362612	0.12227249	0.1409607
909770857332905	-2.9836493	-0.94942	0.42623574
909770865633686	-3.8201618	-2.1776247	0.6793952
909770873934467	-4.035181	-3.207141	0.8556826
909770882235249	-4.821739	-3.6181784	0.87600565
909770890536030	-4.8098016	-3.6053972	0.7807285
909770898836811	-6.611654	-3.1936283	1.0436099
909770907137592	-7.133596	-2.7073898	1.2664282
909770915438374	-7.649708	-2.0611496	1.53548
909770923739155	-7.486027	-1.5737448	1.8688891
909770932039936	-6.161996	-1.4031668	2.082455
909770940340717	-4.864657	-1.3706818	2.040401
909770948641499	-4.8023815	-1.3534412	1.9357063
909770956942280	-3.978781	-1.2939882	1.6229035
909770965243061	-2.8132458	-0.6391077	0.88951504
909770973543842	-1.8386118	-0.43342113	0.5798565
909770981844624	-1.8655659	-0.42141247	0.50908756
909770990145405	-0.48424107	-0.48188496	0.3072163
909770998446186	2.1072419	-0.51418686	0.092920184
909771006746967	2.0286155	-0.5047207	0.044788122
909771015047749	3.1356955	-0.43472958	-0.6553929
909771023348530	3.6542232	-0.5497608	-1.3155186
909771031649311	3.58147	-0.5427046	-1.3369131
909771039950092	3.859815	-0.57631207	-1.9455065
909771048250874	3.555845	-0.012580872	-2.4217284
909771056551655	3.5127993	-0.008522034	-2.430122
909771064852436	2.4705663	0.8656664	-1.3693718
909771073153217	2.1467624	0.9940958	-0.7157284
909771081453999	2.1423602	0.99738216	-0.7393253
909771089754780	1.846535	1.0495443	-0.30693412
909771098055561	0.28085136	1.0020161	0.08731198
909771106356342	0.29095066	1.008048	0.04900503
909771114657124	-2.3023663	0.93533516	-0.28449297
909771122957905	-2.2696383	0.94243526	-0.32701087
909771131258686	-3.9452555	1.1289978	0.06340814
909771139559467	-5.7494407	0.87009716	1.2834039
909771147860249	-5.666717	0.88366985	1.2148712
909771156161030	-5.4694223	0.72936726	1.441025
909771164461811	-4.237062	1.4595537	0.7690983
909771172762592	-4.198586	1.4747133	0.702523
909771181063374	-3.5473416	2.1451445	0.066622734
909771189364155	-3.018349	2.553481	-0.5104897
909771197664936	-2.7632518	2.646019	-0.9050033
909771205965717	-2.7294593	2.4426088	-1.0668867
909771214266499	-2.5384293	1.2314539	-0.7403419
909771222567280	-2.3191133	0.28688335	-0.5258446
909771230868061	-2.3194413	0.26578617	-0.44972467
909771239168842	-2.01481	-0.5878544	-0.2158308
909771247469624	-1.6611388	-1.2778492	0.08733106
909771255770405	-1.3330908	-1.7601995	0.3654747
909771264071186	-1.1694527	-1.9571171	0.416561
909771272371967	-1.4275156	-1.5902414	0.49401844
909771280672749	-1.4129062	-0.982316	0.40488088
909771288973530	-1.4254112	-0.09874058	0.32703424
909771297274311	-1.541908	1.055891	0.44866598
909771305575092	-1.7521857	2.5349264	0.7890645
909771313875874	-1.6474062	2.5187263	1.0419146
909771322176655	-0.8988969	6.23862	1.0822363
909771330477436	1.0282016	7.348772	0.44233853
909771338778217	3.605612	7.3382273	-0.50186986
909771347078999	6.1049376	6.193407	-1.3573382
909771355379780	6.9925632	4.2416506	-1.4790411
909771363680561	6.9865394	4.238718	-1.3803632
909771371981342	1.5009313	0.2807665	-0.59751606
909771380282124	-0.21335506	-0.89459133	-1.0142736
909771388582905	-0.9683306	-1.5536795	-1.1743702
909771396883686	-1.0292337	-1.8075371	-0.955785
909771405184467	-0.5089867	-1.8748026	-0.43025774
909771413485249	0.5869466	-2.024847	0.1840223
909771421786030	1.5984606	-2.0486488	0.79483485
909771430086811	2.0181775	-1.8145475	1.2182692
909771438387592	2.0185614	-1.4462023	1.4266737
909771446688374	1.8493259	-0.98292637	1.4799956
909771454989155	1.6674638	-0.55441856	1.4929397
909771463289936	1.4869447	-0.39618492	1.5618889
909771471590717	1.5636289	-0.68037987	1.3087597
909771479891499	1.6414554	-1.2347488	1.0369937
909771488192280	2.0129862	-1.934762	0.9011042
909771496493061	2.5013213	-2.6312618	0.9091654
909771504793842	2.5264072	-2.60596	0.9563947
909771513094624	2.9270868	-3.1510763	1.0956042
909771521395405	3.325048	-3.4932737	1.5142865
909771529696186	3.3620577	-3.4788828	1.5105438
909771537996967	3.3194394	-3.4282293	1.4267657
909771546297749	3.2457767	-3.3715887	1.3108463
909771554598530	3.1637282	-3.3141603	1.1602819
909771562899311	3.1417093	-3.3039503	1.1845391
909771571200092	2.5107906	-3.0390377	0.8979354
909771579500874	1.8810487	-2.7565289	0.7648368
909771587801655	1.1987877	-2.460661	0.6598997
909771596102436	1.1654906	-2.4651957	0.651978
909771604403217	-0.20318604	-1.5915546	0.30730915
909771612703999	-0.8893175	-0.77924633	-0.12595034
909771621004780	-1.5456378	0.72918606	-0.6288359
909771629305561	-3.0809195	2.4774752	-1.741425
909771637606342	-5.2758875	3.7667837	-3.0976846
909771645907124	-5.263133	3.7563791	-3.1022289
909771654207905	-6.190795	3.5024414	-4.656887
909771662508686	-6.130947	3.5060759	-4.6483884
909771670809467	-4.1144295	1.342742	-3.8891003
909771679110249	-3.5930612	0.6808138	-2.6905026
909771687411030	-2.5545573	0.106962204	-1.0987501
909771695711811	-1.2286077	-0.3964548	0.4122007
909771704012592	-0.10518837	-0.7918434	1.2870574
909771712313374	-0.16343427	-0.78773594	1.3399556
909771720614155	0.3672645	-0.9872818	0.17472172
909771728914936	-0.0837394	-0.43996906	-0.2630694
909771737215717	-0.6271256	0.6238346	-0.10612512
909771745516499	-0.6360054	0.61104774	-0.13610387
909771753817280	-1.1470844	4.534898	1.4686337
909771762118061	-1.1453687	4.495885	1.3637822
909771770418842	0.81379914	11.866582	5.348841
909771778719624	2.6452322	13.788707	6.2020426
909771787020405	2.5987306	13.708801	6.00385
909771795321186	4.0682654	10.000985	3.6742754
909771803621967	4.9595575	-0.8171663	-1.6343658
909771811922749	4.9235945	-0.8365278	-1.724207
909771820223530	6.0398903	-3.0547628	-3.1488266
909771828524311	6.2223654	-3.0496244	-2.01748
909771836825092	6.1968584	-3.050993	-2.0477867
909771845125874	5.0562162	-2.5710697	1.3216662
909771853426655	5.0253735	-2.578308	1.2577543
909771861727436	3.8702269	-2.4719772	2.2963533
909771870028217	1.8958069	-2.7034817	2.7142792
909771878328999	1.8591073	-2.715541	2.6048608
909771886629780	1.5223546	-2.7618952	2.593375
909771894930561	1.98632	-2.3802586	2.3953848
909771903231342	1.8825246	-2.397542	2.2895293
909771911532124	2.010213	-1.9170036	1.9709983
909771919832905	2.0098348	0.3231573	0.52307457
909771928133686	1.8304498	1.8680544	-0.5924311
909771936434467	1.2328858	2.8286676	-1.3482873
909771944735249	1.0614774	2.811016	-1.3884166
909771953036030	-0.0046954155	2.818941	-1.5658032
909771961336811	-2.5122352	1.0063696	-0.09027502
909771969637592	-3.3174226	0.02841568	0.6967363
909771977938374	-3.8469658	-0.87016773	1.1470993
909771986239155	-3.8626091	-0.8688402	1.0118965
909771994539936	-4.127283	-1.726697	1.3433138
909772002840717	-4.130394	-2.5143204	1.5774162
909772011141499	-3.9630215	-3.1121635	1.6386071
909772019442280	-3.96954	-2.9931154	1.430978
909772027743061	-3.953084	-2.9803152	1.3302623
909772036043842	-3.7077641	-2.6470222	1.1230705
909772044344624	-3.3224318	-2.2452564	0.9081504
909772052645405	-2.6890135	-1.8168764	0.79061824
909772060946186	-1.8430524	-1.4375839	0.7898884
909772069246967	-1.4879487	-1.1809072	0.5476642
909772077547749	-2.0473583	-0.7344551	0.2509557
909772085848530	-2.4589472	-0.38433075	0.009000659
909772094149311	-2.5785942	-0.18911839	-0.16711962
909772102450092	-2.2998753	-0.19311047	-0.31333482
909772110750874	-1.601561	-0.3758459	-0.42599106
909772119051655	-0.6340002	-0.56471825	-0.34257638
909772127352436	0.20237195	-0.5414915	-0.18508673
909772135653217	0.9457702	-0.43195534	-0.10203421
909772143953999	1.5644346	-0.347497	-0.08619714
909772152254780	2.0238376	-0.2933159	-0.12276411
909772160555561	2.2641647	-0.20834064	-0.2284708
909772168856342	2.151106	-0.017877579	-0.51727223
909772177157124	1.7969303	0.23470688	-1.0766178
909772185457905	1.3888798	0.6334467	-1.5532492
909772193758686	1.2422215	0.9608135	-1.7865051
909772202059467	1.270359	1.1280699	-1.6723874
909772210360249	1.139143	1.1884489	-1.1606991
909772218661030	0.5442797	1.297885	-0.2813604
909772226961811	-0.3383624	1.308939	0.46713448
909772235262592	-1.1340348	1.0493784	0.78263927
909772243563374	-1.7794676	0.5651531	0.7313416
909772251864155	-2.3569653	0.03657341	0.47824836
909772260164936	-2.9601617	-0.33998394	0.19353652
909772268465717	-3.456246	-0.518569	-0.07747245
909772276766499	-3.612249	-0.6689291	-0.13394523
909772285067280	-3.4934216	-0.5594177	-0.09617448
909772293368061	-3.137604	-0.15722942	-0.12296605
909772301668842	-2.6894557	0.51287365	-0.30027986
909772309969624	-2.330694	1.3380022	-0.62392616
909772318270405	-2.1583655	2.0067387	-0.9876158
909772326571186	-2.0020237	2.1865158	-1.1800046
909772334871967	-1.9703664	2.0492477	-1.2455723
909772343172749	-2.0306935	1.6218548	-1.080709
909772351473530	-2.03037	1.6167326	-1.0710466
909772359774311	-2.2868156	0.18874264	-0.51499724
909772368075092	-2.4159985	-0.74682426	-0.53434753
909772376375874	-2.5314493	-1.4003372	-0.554901
909772384676655	-2.430838	-1.9032545	-0.46925533
909772392977436	-2.1539803	-2.164997	-0.33740854
909772401278217	-1.81609	-2.0348902	-0.11715615
909772409578999	-1.5520337	-1.3902731	0.3088132
909772417879780	-1.5991906	-0.19825935	1.041923
909772426180561	-2.0023532	1.5058575	1.5709993
909772434481342	-2.4677086	3.6263294	2.2028408
909772442782124	-2.6882975	5.967696	3.0503082
909772451082905	-2.302514	8.224167	3.8429918
909772459383686	-0.987121	9.9847555	3.94264
909772467684467	1.6325794	10.338957	1.666973
909772475985249	5.4725313	8.894363	-2.3804166
909772484286030	8.270994	6.6840677	-4.050544
909772492586811	8.262965	4.1358232	-3.9043362
909772500887592	8.218978	4.1287546	-3.7644556
909772509188374	2.1339028	0.06276989	-1.8967042
909772517489155	0.89081275	-1.0145283	-1.305167
909772525789936	0.4860798	-1.809866	-0.47441012
909772534090717	0.50280225	-2.2781992	0.41867357
909772542391499	0.66924715	-2.2408628	0.50644773
909772550692280	1.05849	-2.6529408	1.2165248
909772558993061	2.2825341	-3.5323105	1.5691667
909772567293842	2.516251	-3.629053	1.3834931
909772575594624	2.3837101	-3.292221	1.2450038
909772583895405	2.1048398	-2.751482	1.1898206
909772592196186	2.1722927	-2.7037354	1.3359532
909772600496967	1.8357637	-1.9227228	0.8532984
909772608797749	1.8877456	-1.882493	0.9630817
909772617098530	2.2386477	-2.0884361	0.57855785
909772625399311	2.2502823	-2.296277	0.7163985
909772633700092	2.272716	-2.6091633	1.0738292
909772642000874	2.295503	-2.5880165	1.1069245
909772650301655	2.3282204	-2.882348	1.5095735
909772658602436	2.3032117	-3.1161852	1.8258722
909772666903217	1.8721702	-3.6361837	1.956137
909772675203999	1.8292317	-4.018463	1.7199607
909772683504780	1.929431	-4.4459305	1.2916498
909772691805561	1.9096363	-4.4318094	1.325746
909772700106342	1.776223	-4.7378235	0.96000504
909772708407124	1.3141856	-4.778556	0.8060703
909772716707905	-0.012704611	-4.069474	0.9818051
909772725008686	-0.5651815	-3.657054	1.0058727
909772733309467	-0.6020615	-3.6600542	1.0014713
909772741610249	-0.89727736	-3.1160202	0.9157686
909772749911030	-1.1836917	-2.2084055	0.8758068
909772758211811	-1.6630955	-0.72337437	0.90664816
909772766512592	-3.962881	4.3777065	-0.7231376
909772774813374	-3.9836109	4.3498707	-0.7697768
909772783114155	-6.407655	6.9843845	-3.8960996
909772791414936	-7.6770535	7.7794285	-6.820124
909772799715717	-7.2358227	6.397663	-8.044988
909772808016499	-5.7451577	3.6727133	-7.236998
909772816317280	-4.5811853	1.2404099	-5.2658343
909772824618061	-3.3716896	-0.20012188	-3.1808348
909772832918842	-1.9010394	-1.0853672	-1.354214
909772841219624	-1.1200073	-1.3024054	-0.013583899
909772849520405	-1.1070786	-0.7825775	1.179569
909772857821186	-1.5560799	0.5506716	2.3204007
909772866121967	-1.9795063	2.7477407	3.1696105
909772874422749	-1.9492154	5.7928867	3.8109467
909772882723530	-0.85458755	9.010147	4.6603074
909772891024311	0.50076175	11.839453	5.5226746
909772899325092	2.7896788	13.4016695	6.013405
909772907625874	6.003089	12.016615	5.038864
909772915926655	8.905257	5.904333	1.2387583
909772924227436	8.381171	0.014204025	-2.8864336
909772932528217	7.446271	-3.1632032	-4.8360996
909772940828999	6.510797	-4.8279	-4.940344
909772949129780	5.5782995	-5.5150156	-3.6770284
909772957430561	4.7110763	-5.570176	-1.6997771
909772965731342	4.150735	-5.1604223	0.44289994
909772974032124	3.8889706	-4.2881193	2.099069
909772982332905	3.2513494	-3.4465265	2.7393525
909772990633686	2.6077728	-2.824359	2.8942585
909772998934467	2.1895652	-2.391367	2.853661
909773007235249	2.095408	-2.0901499	2.721799
909773015536030	2.2840946	-1.879075	2.4853878
909773023836811	2.4717662	-1.4187546	2.0254614
909773032137592	2.6799889	-0.38237667	1.6236651
909773040438374	2.9567468	0.9278631	1.2994487
909773048739155	3.156546	2.1514044	0.9490776
909773057039936	2.9931045	2.9455261	0.43723422
909773065340717	2.1384892	3.067999	-0.31131378
909773073641499	0.99687254	2.5632238	-0.7364559
909773081942280	0.030923545	1.88795	-0.47945434
909773090243061	-0.8778592	1.1028719	-0.13288362
909773098543842	-1.7934978	0.19984818	0.15043458
909773106844624	-1.8791382	0.20092297	0.058023304
909773115145405	-3.0800323	-1.8574638	0.64701176
909773123446186	-3.143307	-2.8885813	0.7151505
909773131746967	-3.4551294	-3.3846207	1.0143028
909773140047749	-4.203799	-3.1897926	1.2983797
909773148348530	-5.0928473	-2.565549	1.6504416
909773156649311	-5.7398725	-1.9133263	2.0811806
909773164950092	-5.6743174	-1.8974562	1.9527485
909773173250874	-5.3268905	-1.4732332	2.2729836
909773181551655	-4.5394115	-1.2442713	1.896025
909773189852436	-3.9840574	-1.0019951	1.4885716
909773198153217	-3.5336058	-0.8151293	0.99838555
909773206453999	-3.5196187	-0.79629326	0.89334023
909773214754780	-2.0950842	-0.76964855	-0.075718045
909773223055561	-1.1496941	-0.93355274	-0.6329371
909773231356342	-0.22407173	-1.1616497	-1.2584428
909773239657124	0.7793579	-1.384057	-1.8012708
909773247957905	0.714907	-1.3694696	-1.8553832
909773256258686	1.7060082	-1.4847469	-2.2234113
909773264559467	2.93568	-1.053443	-2.4797275
909773272860249	2.6846328	-0.4273777	-2.4621317
