gyroscope_timestamp	gyroscope_x_data	gyroscope_y_data	gyroscope_z_data
909752499299607	-0.24975586	0.075149536	0.3544159
909752503236375	-0.36216736	-1.43367	0.17849731
909752508241258	-0.47576904	-1.5167389	-0.010864258
909752513246141	-0.59672546	-1.5704956	-0.19776917
909752518312059	-0.7311096	-1.5949402	-0.36393738
909752523591600	-0.878952	-1.5949402	-0.48731995
909752528413377	-1.0341034	-1.572937	-0.55818176
909752533418260	-1.1868286	-1.5314026	-0.57528687
909752539125047	-1.3212128	-1.4727631	-0.5435333
909752543489060	-1.4250641	-1.4019012	-0.47999573
909752546845994	-1.4250641	-1.3261566	-0.47999573
909752553559861	-1.4739227	-1.3261566	-0.34805298
909752558595262	-1.4739227	-1.1697693	-0.34805298
909752563630662	-1.4018555	-1.1697693	-0.31506348
909752568696580	-1.2674713	-1.084259	-0.31018066
909752574128709	-1.0817566	-1.0060577	-0.3236084
909752578736863	-0.8618469	-0.9510803	-0.34683228
909752583772264	-0.62727356	-0.9315338	-0.3773651
909752589479051	-0.39393616	-0.9388733	-0.41401672
909752593843064	-0.17524719	-0.9510803	-0.45555115
909752597199998	0.022659302	-0.9413147	-0.4995575
909752603913865	0.19737244	-0.9009857	-0.5386505
909752608949266	0.3513031	-0.83135986	-0.56430054
909752613984666	0.48936462	-0.74339294	-0.57162476
909752619050584	0.6103058	-0.6407623	-0.56062317
909752624452195	0.7129364	-0.5185852	-0.53375244
909752629090867	0.79234314	-0.37809753	-0.49588013
909752634126267	0.8461151	-0.22782898	-0.4519043
909752639985642	0.87420654	-0.07998657	-0.4054718
909752644197068	0.87664795	0.051956177	-0.36515808
909752647554002	0.86320496	0.15577698	-0.3370514
909752654298387	0.84243774	0.22419739	-0.32484436
909752659303269	0.81799316	0.25106812	-0.32606506
909752664338670	0.7837982	0.23397827	-0.33461
909752669374070	0.7337036	0.17778015	-0.34927368
909752674867234	0.6677246	0.10203552	-0.3688202
909752679566941	0.59198	0.022628784	-0.3908081
909752684510789	0.51989746	-0.040893555	-0.41281128
909752690431199	0.46492004	-0.07998657	-0.42745972
909752694551072	0.43559265	-0.09220886	-0.4335785
909752697938523	0.43559265	-0.08610535	-0.4335785
909752704621873	0.43315125	-0.08610535	-0.43234253
909752709657273	0.45515442	-0.077545166	-0.42990112
909752714692674	0.50035095	-0.07388306	-0.42869568
909752719758592	0.56388855	-0.07144165	-0.43113708
909752725007615	0.6396332	-0.061660767	-0.4360199
909752729981980	0.7190552	-0.04333496	-0.4360199
909752734834275	0.78990173	-0.020126343	-0.42745972
909752740266404	0.84732056	0.0030822754	-0.4030304
909752744905076	0.888855	0.027511597	-0.36393738
909752748292527	0.91574097	0.059280396	-0.31628418
909752754975877	0.92918396	0.10324097	-0.26742554
909752760011277	0.9328613	0.15821838	-0.21733093
909752765046678	0.92674255	0.22419739	-0.16479492
909752770295701	0.91941833	0.29507446	-0.10491943
909752775575242	0.9181824	0.3634796	-0.042617798
909752780213914	0.9255066	0.42211914	0.023345947
909752785157762	0.9389496	0.46611023	0.0917511
909752791139207	0.95606995	0.49176025	0.16505432
909752795259080	0.9694977	0.49786377	0.2395935
909752798616014	0.9694977	0.47953796	0.30921936
909752805360398	0.9658356	0.47953796	0.36663818
909752810395799	0.9328613	0.3757019	0.4045105
909752815431199	0.8729706	0.30360413	0.41671753
909752820436082	0.7850189	0.22419739	0.40574646
909752825929246	0.6738434	0.13745117	0.3776245
909752830567918	0.54312134	0.04095459	0.3385315
909752835542283	0.40138245	-0.060440063	0.29455566
909752841523728	0.25967407	-0.16305542	0.24691772
909752845613084	0.25967407	-0.26324463	0.19682312
909752848970017	0.13015747	-0.36341858	0.19682312
909752855683885	0.022659302	-0.36341858	0.14550781
909752860688767	-0.060394287	-0.45872498	0.0929718
909752865754685	-0.12025452	-0.5430298	0.041671753
909752870790086	-0.15814209	-0.60287476	-0.007217407
909752876039109	-0.1789093	-0.6383209	-0.053619385
909752881013475	-0.18501282	-0.6493225	-0.09637451
909752885865769	-0.18135071	-0.64320374	-0.13668823
909752891603074	-0.17156982	-0.6175537	-0.1733551
909752895967088	-0.15814209	-0.5662384	-0.20632935
909752899324021	-0.14225769	-0.47827148	-0.23077393
909752906037889	-0.12271118	-0.35121155	-0.24786377
909752911073289	-0.09460449	-0.1899414	-0.2576294
909752916139207	-0.056747437	-0.016464233	-0.26618958
909752921357713	-0.010314941	0.14845276	-0.27963257
909752926454148	0.0385437	0.28407288	-0.30039978
909752931184373	0.08862305	0.3757019	-0.33216858
909752936250291	0.13627625	0.42211914	-0.3712616
909752941651902	0.17781067	0.43310547	-0.41157532
909752946321092	0.21569824	0.41845703	-0.44822693
909752949708543	0.21569824	0.38058472	-0.44822693
909752956361375	0.27677917	0.38058472	-0.49832153
909752961396775	0.29022217	0.2303009	-0.5117645
909752966462693	0.281662	0.13868713	-0.5154419
909752971742234	0.24378967	0.051956177	-0.5068817
909752976930223	0.17904663	-0.028686523	-0.47999573
909752981660447	0.09718323	-0.11175537	-0.43478394
909752986604295	0.0067749023	-0.19606018	-0.3749237
909752992463670	-0.0811615	-0.2730255	-0.30651855
909752996675096	-0.0811615	-0.32922363	-0.30651855
909753000001512	-0.1605835	-0.32922363	-0.23686218
909753006776414	-0.2253418	-0.36097717	-0.17456055
909753011781297	-0.27296448	-0.37077332	-0.1244812
909753016816697	-0.29985046	-0.36586	-0.08782959
909753021821580	-0.30596924	-0.35609436	-0.062179565
909753027314744	-0.29129028	-0.34632874	-0.04385376
909753032044969	-0.2619934	-0.33288574	-0.032852173
909753036927781	-0.22654724	-0.31455994	-0.030410767
909753042970262	-0.193573	-0.2840271	-0.034057617
909753046998582	-0.16668701	-0.24491882	-0.042617798
909753050355516	-0.1483612	-0.19850159	-0.053619385
909753057832322	-0.13613892	-0.14840698	-0.06338501
909753062104783	-0.13369751	-0.100753784	-0.0743866
909753067170701	-0.1446991	-0.06410217	-0.08538818
909753072206101	-0.17156982	-0.03967285	-0.09881592
909753077424607	-0.20578003	-0.025009155	-0.11470032
909753082582078	-0.23999023	-0.009140015	-0.12814331
909753087312303	-0.26319885	0.0055236816	-0.13302612
909753092347703	-0.27296448	0.012863159	-0.11958313
909753097383103	-0.27052307	0.009185791	-0.08782959
909753100709519	-0.27052307	-0.0042419434	-0.08782959
909753107453904	-0.23999023	-0.0042419434	-0.003540039
909753112580857	-0.23022461	-0.044555664	0.024551392
909753117524705	-0.23143005	-0.07510376	0.03555298
909753122895799	-0.2436676	-0.11419678	0.029434204
909753128022752	-0.25463867	-0.16429138	0.01234436
909753132844529	-0.25708008	-0.2168274	-0.0059814453
909753137666307	-0.25708008	-0.2705841	-0.014541626
909753143403611	-0.21554565	-0.2705841	-0.0096588135
909753147737107	-0.21554565	-0.37565613	-0.0096588135
909753151063523	-0.18135071	-0.37565613	0.006225586
909753157838426	-0.15446472	-0.42086792	0.030670166
909753162995896	-0.1446991	-0.45750427	0.062438965
909753167878709	-0.15814209	-0.4807129	0.094192505
909753173005662	-0.18867493	-0.49049377	0.11619568
909753178407273	-0.2277832	-0.48316956	0.11984253
909753183229051	-0.2644348	-0.45750427	0.106414795
909753188020310	-0.29129028	-0.41719055	0.08320618
909753194123826	-0.30229187	-0.3683319	0.057540894
909753198060594	-0.2962036	-0.31578064	0.033111572
909753201448045	-0.26931763	-0.2571411	0.007461548
909753208192430	-0.21066284	-0.19238281	-0.018188477
909753213258348	-0.11781311	-0.13008118	-0.045059204
909753218202195	0.003112793	-0.08242798	-0.07194519
909753223390184	0.13139343	-0.057998657	-0.10003662
909753228486619	0.24867249	-0.056777954	-0.1244812
909753233827195	0.34640503	-0.07144165	-0.14768982
909753238404832	0.427063	-0.09954834	-0.16601563
909753244508348	0.48812866	-0.13864136	-0.17579651
909753248414598	0.52723694	-0.18385315	-0.17456055
909753251771531	0.52723694	-0.22782898	-0.17456055
909753258515916	0.51989746	-0.22782898	-0.13912964
909753263642869	0.47103882	-0.29745483	-0.109817505
909753268556199	0.39285278	-0.3206787	-0.0743866
909753274354539	0.27189636	-0.34265137	-0.036499023
909753278840623	0.09107971	-0.37197876	-0.003540039
909753284425340	-0.1483612	-0.40130615	0.018447876
909753288728318	-0.1483612	-0.39518738	0.018447876
909753294099412	-0.40126038	-0.39518738	0.020904541
909753298768601	-0.59428406	-0.32188416	0.008666992
909753302156053	-0.6798096	-0.19117737	-0.0096588135
909753308869920	-0.65660095	-0.05189514	-0.025527954
909753314057908	-0.556427	0.047073364	-0.04017639
909753318940721	-0.42080688	0.09347534	-0.057281494
909753324525437	-0.28152466	0.10203552	-0.078048706
909753329347215	-0.1642456	0.09591675	-0.10247803
909753334626756	-0.079956055	0.08370972	-0.12080383
909753339082322	-0.023757935	0.06539917	-0.12814331
909753344300828	0.016555786	0.031188965	-0.11836243
909753349122605	0.060531616	-0.026229858	-0.08905029
909753352479539	0.120391846	-0.108078	-0.03529358
909753359223924	0.19125366	-0.20826721	0.046554565
909753364472947	0.25357056	-0.31333923	0.16017151
909753369264207	0.281662	-0.40986633	0.30189514
909753374604783	0.25234985	-0.49171448	0.45828247
909753379792771	0.15948486	-0.563797	0.59999084
909753386598191	0.015335083	-0.6224365	0.6989441
909753389405809	-0.15692139	-0.64564514	0.7404785
909753395021043	-0.32673645	-0.6175537	0.7307129
909753399507127	-0.4696808	-0.550354	0.6744995
909753402864060	-0.4696808	-0.46484375	0.6744995
909753409608445	-0.65782166	-0.46484375	0.41915894
909753414765916	-0.7152405	-0.25958252	0.21635437
909753419648728	-0.75923157	-0.1056366	-0.019424438
909753424897752	-0.7946472	0.091033936	-0.26130676
909753429933152	-0.8239746	0.3292694	-0.47879028
909753435670457	-0.8484192	0.6017151	-0.6510315
909753439759812	-0.8484192	0.8961487	-0.6510315
909753445405564	-0.866745	0.8961487	-0.7671051
909753449891648	-0.8752899	1.1905823	-0.83062744
909753453218064	-0.8752899	1.4557037	-0.85139465
909753459931932	-0.866745	1.6572876	-0.84407043
909753465180955	-0.8569641	1.7709045	-0.8208618
909753470002732	-0.8484192	1.7843475	-0.7854309
909753475801072	-0.839859	1.707367	-0.7402191
909753480256639	-0.8178711	1.5583344	-0.6913605
909753485353074	-0.7763214	1.361618	-0.63760376
909753490144334	-0.71769714	1.1356049	-0.57528687
909753496125779	-0.65415955	0.8998108	-0.49343872
909753500215135	-0.5979614	0.676239	-0.3883667
909753503572068	-0.56007385	0.48443604	-0.26986694
909753510255418	-0.5466461	0.34269714	-0.14891052
909753515565476	-0.5613098	0.25106812	-0.03895569
909753520356736	-0.60162354	0.20465088	0.05265808
909753525697312	-0.66026306	0.19732666	0.12107849
909753530793748	-0.72502136	0.22909546	0.16137695
909753536134324	-0.7848816	0.30604553	0.17481995
909753540498338	-0.83374023	0.42700195	0.16749573
909753545960984	-0.86795044	0.57850647	0.14916992
909753550569139	-0.8862915	0.74098206	0.13084412
909753553895555	-0.8862915	0.88882446	0.13084412
909753560670457	-0.86795044	0.88882446	0.106414795
909753565949998	-0.839859	1.0977325	0.097854614
909753570710740	-0.839859	1.1637115	0.09663391
909753576387010	-0.8019867	1.2028046	0.11740112
909753581178269	-0.8154144	1.2076874	0.17605591
909753586640916	-0.8606262	1.1808014	0.27745056
909753590882859	-0.8606262	1.1404877	0.27745056
909753596376023	-0.93759155	1.1404877	0.41062927
909753600923142	-1.0414581	1.1099548	0.55477905
909753604280076	-1.1611633	1.0965118	0.6879425
909753610993943	-1.2845612	1.0891876	0.7893524
909753616731248	-1.4055176	1.0696259	0.8455658
909753621064744	-1.5203705	1.0146484	0.8577728
909753627107225	-1.6254272	0.9144745	0.8333435
909753631471238	-1.7146149	0.76786804	0.7795868
909753637330613	-1.7817993	0.58461	0.70018005
909753641206346	-1.8257904	0.37446594	0.59877014
909753647004685	-1.848999	0.13500977	0.48269653
909753651277146	-1.8526611	-0.1398468	0.35809326
909753654664598	-1.8343353	-0.44407654	0.22491455
909753661378465	-1.7879181	-0.74827576	0.08808899
909753667298875	-1.709732	-1.0170593	-0.048736572
909753671418748	-1.5948792	-1.2333069	-0.17456055
909753677583299	-1.4409485	-1.403122	-0.27963257
909753682405076	-1.2454681	-1.5533905	-0.36027527
909753687287889	-1.0072479	-1.7097778	-0.41401672
909753691560350	-0.7299042	-1.8869324	-0.42134094
909753698670945	-0.42080688	-2.0909424	-0.34439087
909753701600633	-0.09338379	-2.3181915	-0.1415863
909753704988084	-0.09338379	-2.5698547	-0.1415863
909753711732469	0.52233887	-2.5698547	0.61953735
909753717286668	0.763031	-3.1526337	1.0471344
909753721772752	0.763031	-3.465393	1.0471344
909753727601609	0.9829407	-3.465393	1.5761414
909753732270799	0.9829407	-3.8331451	1.5761414
909753737794480	0.7447052	-3.8331451	1.4894104
909753741944871	0.7447052	-3.4287415	1.4894104
909753747773728	0.45637512	-3.4287415	1.2817078
909753751985154	0.092300415	-2.9815826	1.0251465
909753755342088	-0.31085205	-2.486786	0.7588043
909753762055955	-0.7103424	-2.0249786	0.5083618
909753767884812	-1.0646667	-1.6486816	0.29333496
909753772126756	-1.343216	-1.367691	0.13084412
909753777894578	-1.5276947	-1.1514435	0.01966858
909753782472215	-1.6083221	-0.95840454	-0.058502197
909753788362107	-1.5899963	-0.7556	-0.13546753
909753792268357	-1.4934845	-0.5234833	-0.23077393
909753798219285	-1.3493195	-0.24369812	-0.35049438
909753802369676	-1.1953735	0.08615112	-0.48731995
909753805726609	-1.0561066	0.44044495	-0.6278229
909753812409959	-0.9412689	0.7666321	-0.7597809
909753818208299	-0.8447418	1.0146484	-0.85873413
909753822480760	-0.760437	1.1539307	-0.8929291
909753828736863	-0.67614746	1.179596	-0.83428955
909753832765184	-0.5832977	1.091629	-0.6779175
909753838624559	-0.4745636	0.8973694	-0.45799255
909753842622361	-0.34994507	0.6310425	-0.22341919
909753848146043	-0.22898865	0.36714172	-0.01210022
909753852693162	-0.13737488	0.19242859	0.17605591
909753856050096	-0.13737488	0.16433716	0.17605591
909753862763963	-0.0970459	0.16433716	0.5022583
909753868562303	-0.15324402	0.26330566	0.61831665
909753872834764	-0.15324402	0.4905243	0.61831665
909753879121385	-0.27052307	0.4905243	0.72950745
909753883271775	-0.27052307	0.29016113	0.72950745
909753888856492	-0.29864502	0.29016113	0.69773865
909753892976365	-0.29129028	0.007980347	0.69773865
909753898530564	-0.27420044	-0.32922363	0.608551
909753903047166	-0.28884888	-0.63464355	0.48513794
909753906373582	-0.35362244	-0.8325653	0.3727417
909753913148484	-0.44647217	-0.8985443	0.31900024
909753918702684	-0.5344238	-0.8570099	0.34709167
909753923188767	-0.5979614	-0.7397156	0.43995667
909753928926072	-0.63339233	-0.5723419	0.5572357
909753933717332	-0.63827515	-0.37809753	0.66352844
909753939271531	-0.59552	-0.1850586	0.7392731
909753943330369	-0.49165344	-0.014022827	0.7844696
909753949250779	-0.32429504	0.14234924	0.8064575
909753953401170	-0.10682678	0.30604553	0.8162384
909753956758103	-0.10682678	0.5064087	0.8345642
909753963502488	0.40138245	0.75198364	0.88586426
909753969300828	0.6261902	1.026886	0.9689636
909753973542771	0.7508087	1.2822266	1.0031586
909753979341111	0.7043762	1.4654694	0.84677124
909753983827195	0.4844818	1.5754242	0.43139648
909753989808641	0.17292786	1.6841583	-0.12814331
909753993684373	-0.10682678	1.8747559	-0.6131592
909754001649461	-0.26319885	2.1423035	-0.90393066
909754007112107	-0.28884888	2.6224518	-1.0444336
909754013856492	-0.23266602	2.6224518	-1.1397247
909754019868455	-0.071395874	2.8032684	-1.2814484
909754023927293	-0.071395874	3.2430878	-1.2814484
909754030244432	0.13139343	3.2430878	-1.2545776
909754034242234	0.13139343	3.603485	-1.2545776
909754039857469	0.281662	3.603485	-1.1800385
909754044038377	0.45515442	3.6266937	-1.0725403
909754050935350	0.7874603	3.547287	-0.79519653
909754054078660	0.7874603	3.3188324	-0.79519653
909754057466111	0.89253235	3.3188324	-0.63394165
909754064241014	0.9328613	3.289505	-0.4567871
909754070741258	0.902298	3.3481445	-0.26863098
909754074250779	0.79112244	3.4739838	-0.07926941
909754080384812	0.57733154	3.6022644	0.10151672
909754084748826	0.26089478	3.6206055	0.27256775
909754090455613	-0.115371704	3.430008	0.42163086
909754094392381	-0.48188782	3.0243988	0.51934814
909754101136766	-0.79100037	2.5234833	0.5389099
909754104463182	-1.0365448	2.0958862	0.48269653
909754107850633	-1.0365448	1.8674164	0.48269653
909754114564500	-1.3761902	1.8674164	0.27868652
909754120454392	-1.4788055	2.126419	0.19558716
909754124604783	-1.5423431	2.5564728	0.15040588
909754130830369	-1.5777893	3.1148071	0.15405273
909754134858689	-1.5899963	3.741562	0.21635437
909754140962205	-1.5826721	4.378067	0.33242798
909754144715867	-1.5594635	4.973053	0.48513794
909754150819383	-1.5276947	5.4898376	0.65864563
909754154817185	-1.5276947	5.899109	0.65864563
909754158143601	-1.5020447	5.899109	0.8357849
909754164887986	-1.4898071	6.174011	1.0043793
909754170747361	-1.5118103	6.283951	1.2377319
909754174958787	-1.5118103	5.9760895	1.2377319
909754181428514	-1.5789948	5.9760895	1.2817078
909754185243211	-1.5789948	5.16362	1.2817078
909754191346726	-1.6425323	5.16362	1.2511597
909754195069871	-1.7415009	4.6688232	1.1912994
909754201051316	-1.8746643	4.167938	1.1033478
909754205140672	-2.033493	3.7109985	0.99217224
909754208528123	-2.2081757	3.3469238	0.866333
909754215272508	-2.391449	3.084259	0.7417145
909754221376023	-2.5759277	2.8985596	0.6329651
909754225312791	-2.7506256	2.7592926	0.54745483
909754231843553	-2.9058075	2.6639862	0.4863739
909754235780320	-3.0316315	2.629776	0.45092773
909754241853318	-3.1220398	2.6835327	0.43995667
909754245454392	-3.1745605	2.8301392	0.46192932
909754251252732	-3.1880035	3.0476074	0.52178955
909754255525193	-3.1672363	3.2919464	0.62687683
909754258882127	-3.1672363	3.5240784	0.62687683
909754265595994	-3.0206451	3.5240784	0.94451904
909754271699510	-2.894806	3.915039	1.1253204
909754275666795	-2.7359772	4.115402	1.3037109
909754281922898	-2.5551605	4.3450775	1.4710846
909754286195359	-2.3572388	4.590637	1.626236
909754290772996	-2.1495514	4.8178864	1.7667389
909754295808396	-2.1495514	4.9877014	1.8876953
909754301210008	-1.7378235	5.058563	1.9780884
909754305848680	-1.7378235	4.992584	1.9780884
909754309236131	-1.5399017	4.992584	2.0220795
909754315980516	-1.3285522	4.758026	2.0037537
909754322022996	-0.761673	4.347519	1.7899475
909754326020799	-0.761673	3.1025848	1.7899475
909754332490525	0.06175232	3.1025848	1.4576416
909754336335740	0.06175232	1.5864258	1.4576416
909754341157517	0.51501465	1.5864258	1.2890472
909754346162400	0.927948	0.8766022	1.1302032
909754351655564	1.2505035	0.3048401	0.9884949
909754356233201	1.4520721	-0.07022095	0.87242126
909754359620652	1.5302734	-0.22782898	0.7918091
909754366304002	1.4972839	-0.1875	0.7563629
909754372560105	1.3787689	0.010421753	0.7722473
909754376374803	1.2052917	0.31584167	0.8370056
909754381410203	1.0098114	0.6701355	0.93595886
909754386689744	0.83755493	1.0110016	1.0483704
909754391481004	0.7324829	1.284668	1.1607666
909754396516404	0.7349243	1.4667053	1.26828
909754401795945	0.86076355	1.555893	1.3757782
909754406587205	1.0916595	1.5693207	1.4930725
909754409974656	1.0916595	1.5375671	1.4930725
909754416688523	1.7294159	1.5375671	1.7606354
909754422822557	2.055603	1.4471436	1.8937836
909754426728807	2.340271	1.4263763	2.01474
909754431764207	2.5528412	1.4434814	2.1271515
909754437165818	2.6786957	1.515564	2.2371063
909754441835008	2.6786957	1.6560669	2.3531647
909754446870408	2.7177887	1.6560669	2.3531647
909754452241502	2.6823578	1.8735352	2.6072693
909754456910691	2.5907288	2.1630707	2.6072693
909754460298142	2.4661102	2.5015106	2.7392273
909754467042527	2.3317108	2.8448029	2.8614044
909754473237596	2.1130219	3.14534	3.0312195
909754477082810	2.1130219	3.5033112	3.0312195
909754483460984	2.0531616	3.5033112	3.0678864
909754487367234	2.029953	3.53508	3.0752106
909754492189012	2.043396	3.4532166	3.0593262
909754497224412	2.0922546	3.2614136	3.0177917
909754502656541	2.1716766	2.980423	2.9457092
909754507295213	2.2645264	2.6456604	2.8430786
909754510652146	2.353714	2.2877045	2.7172394
909754517366014	2.4221344	1.9346161	2.574295
909754522401414	2.4575653	1.6047516	2.4289093
909754527467332	2.4600067	1.3127594	2.2969666
909754532502732	2.433136	1.0684204	2.2102203
909754537812791	2.3842468	0.88882446	2.1918945
909754542543016	2.3207245	0.7923126	2.246872
909754547578416	2.248642	0.78863525	2.360489
909754553102098	2.160675	0.87171936	2.5168762
909754557649217	2.043396	1.013443	2.7013702
909754561006150	2.043396	1.1734772	2.7013702
909754567720017	1.680542	1.1734772	3.0617676
909754572755418	1.4484253	1.4202728	3.1851654
909754577790818	1.2187347	1.5106812	3.2523499
909754582917771	1.0134735	1.607193	3.2718964
909754588197312	0.84732056	1.6963654	3.2511292
909754592988572	0.84732056	1.7379303	3.2511292
909754597962937	0.7276001	1.7379303	3.1986084
909754603395066	0.6493988	1.7061615	3.1253052
909754608033738	0.6066437	1.6059723	3.0446625
909754611390672	0.5883179	1.4679108	2.9652405
909754618135057	0.58709717	1.3054352	2.8870544
909754623170457	0.59809875	1.1197205	2.8039856
909754628175340	0.60910034	0.90715027	2.7074585
909754633210740	0.59321594	0.689682	2.599945
909754639070115	0.52479553	0.50520325	2.4936676
909754643281541	0.3977356	0.39279175	2.4008179
909754648286424	0.22790527	0.35614014	2.3238373
909754653779588	0.040985107	0.36592102	2.2444305
909754658357225	-0.1459198	0.3781433	2.1479187
909754661714158	-0.33039856	0.36958313	2.0355225
909754668458543	-0.5185394	0.34881592	1.9329071
909754673463426	-0.7152405	0.34513855	1.8681335
909754678529344	-0.9107208	0.37690735	1.857132
909754683564744	-1.0878754	0.44654846	1.8986969
909754689454637	-1.2320251	0.53697205	1.9768829
909754693635545	-1.3480988	0.6334839	2.0746155
909754698670945	-1.4433899	0.72509766	2.1735687
909754704194627	-1.5154877	0.80696106	2.2542114
909754708741746	-1.5545807	0.8643799	2.299408
909754712098680	-1.5545807	0.8790436	2.299408
909754718782029	-1.5056915	0.8790436	2.2688599
909754723817430	-1.4311829	0.7959595	2.2126617
909754728852830	-1.3407745	0.73487854	2.1479187
909754733918748	-1.3407745	0.6774597	2.1479187
909754739228807	-1.2527924	0.6774597	2.0367432
909754743989549	-1.1746063	0.5516205	2.0367432
909754749024949	-1.111084	0.5516205	2.002533
909754754335008	-1.058548	0.47343445	1.9854279
909754759065232	-1.018219	0.39891052	1.98909
909754762452684	-0.9950104	0.3366089	2.011078
909754769136033	-0.9950104	0.29016113	2.0489502
909754774171434	-1.0218964	0.24986267	2.0953827
909754779237351	-1.0780945	0.20831299	2.1454773
909754784242234	-1.1575165	0.15821838	2.1931305
909754790162644	-1.2467041	0.10324097	2.2371063
909754794313035	-1.3260956	0.06539917	2.2749786
909754799348435	-1.3835297	0.07028198	2.3018494
909754804719529	-1.421402	0.12646484	2.316513
909754809449754	-1.4519501	0.21809387	2.316513
909754812745652	-1.4824829	0.31704712	2.2945251
909754819520555	-1.5118103	0.41111755	2.2432098
909754824647508	-1.5411377	0.49420166	2.1613617
909754829591355	-1.5680084	0.5650635	2.0526123
909754834626756	-1.5838928	0.6151581	1.9219055
909754840119920	-1.5789948	0.6456909	1.770401
909754844697557	-1.5484619	0.6579132	1.6054688
909754849732957	-1.4922485	0.649353	1.434433
909754855622850	-1.4152985	0.6188202	1.2695007
909754859803758	-1.3224487	0.5589447	1.1216736
909754863130174	-1.3224487	0.46731567	1.1216736
909754869874559	-1.0890808	0.46731567	0.905426
909754874879441	-1.0890808	0.23641968	0.8504486
909754879945359	-0.9412689	0.11668396	0.8504486
909754884980760	-0.78364563	0.11668396	0.8345642
909754890840135	-0.49900818	-0.026229858	0.89686584
909754895051560	-0.49900818	-0.44163513	0.89686584
909754900056443	-0.38049316	-0.44163513	0.94451904
909754905976853	-0.27908325	-0.68717957	0.98117065
909754910157762	-0.19967651	-0.9193115	1.0019379
909754913484178	-0.15202332	-1.1123505	1.0043793
909754920228562	-0.14103699	-1.2467346	0.99461365
909754925233445	-0.16668701	-1.3224792	0.98239136
909754930299363	-0.2253418	-1.3579254	0.9726105
909754935334764	-0.30108643	-1.3762512	0.971405
909754941102586	-0.3731537	-1.3872528	0.98361206
909754945405564	-0.4269104	-1.3798981	1.0080566
909754950410447	-0.46723938	-1.3444824	1.044693
909754956147752	-0.50997925	-1.2858276	1.0911255
909754960481248	-0.56987	-1.223526	1.1412048
909754963868699	-0.65049744	-1.1624451	1.190094
909754970582566	-0.7457886	-1.0940247	1.2303925
909754975617967	-0.853302	-1.0072784	1.2584991
909754980622850	-0.9681244	-0.8936615	1.2670441
909754985658250	-1.097641	-0.7568207	1.2523956
909754991181932	-1.2467041	-0.6175537	1.2120667
909754995759568	-1.4116211	-0.5027008	1.1473236
909755000794969	-1.5667877	-0.41841125	1.0654602
909755006654344	-1.6877289	-0.3365631	0.9726105
909755010865769	-1.7695923	-0.2339325	0.87242126
909755014222703	-1.7695923	-0.13131714	0.87242126
909755020936570	-1.8294525	-0.13131714	0.64030457
909755026033006	-1.8771057	-0.020126343	0.64030457
909755030976853	-1.9259796	-0.020126343	0.49247742
909755036042771	-1.9565125	-5.79834E-4	0.33364868
909755041505418	-1.8282318	0.07028198	0.29089355
909755046083055	-1.3273315	0.2425232	0.51934814
909755051148973	-0.4085846	0.36592102	0.9616089
909755058656297	1.2883759	0.08370972	1.1693268
909755061219773	1.2883759	-1.7366486	1.1693268
909755064515672	1.3274689	-1.7366486	0.7465973
909755071290574	0.84487915	-2.1984558	0.38130188
909755076325975	0.1375122	-1.8588104	0.29577637
909755081330857	-0.56007385	-1.0219421	0.38130188
909755086427293	-1.1208496	-0.15940857	0.4387207
909755091706834	-1.4751587	0.4880829	0.40083313
909755096437059	-1.5899963	0.87049866	0.32022095
909755101502976	-1.4702759	0.9694519	0.26036072
909755106874070	-1.1623993	0.8008423	0.25180054
909755111543260	-0.7457886	0.45510864	0.29333496
909755114930711	-0.31573486	0.05316162	0.36541748
909755121644578	0.032440186	-0.2840271	0.44239807
909755126649461	0.22790527	-0.45872498	0.50102234
909755131715379	0.25723267	-0.42819214	0.52178955
909755136720262	0.15583801	-0.2375946	0.4912567
909755142610154	-0.011550903	-5.79834E-4	0.4032898
909755146791062	-0.19113159	0.19120789	0.27134705
909755151826463	-0.34017944	0.31948853	0.11373901
909755157197557	-0.43423462	0.41233826	-0.058502197
909755161927781	-0.46723938	0.49664307	-0.24786377
909755165284715	-0.46723938	0.5833893	-0.24786377
909755171998582	-0.4440155	0.5833893	-0.46043396
909755177064500	-0.38049316	0.6811218	-0.7011261
909755182038865	-0.29740906	0.7849579	-0.9637909
909755187104783	-0.2094574	0.8827057	-1.2289276
909755192597947	-0.12515259	0.960907	-1.4683838
909755197175584	-0.05429077	1.013443	-1.6479645
909755202180467	-0.009109497	1.0317688	-1.7518158
909755208070359	-5.493164E-4	1.0024414	-1.7701416
909755212281785	-0.027435303	0.9144745	-1.70784
909755215577684	-0.07872009	0.77519226	-1.5709991
909755222352586	-0.13737488	0.6139221	-1.370636
909755227357469	-0.18867493	0.46121216	-1.1226196
909755232423387	-0.22288513	0.3292694	-0.84773254
909755237458787	-0.23143005	0.20831299	-0.56918335
909755242951951	-0.20822144	0.08003235	-0.31018066
909755247529588	-0.1434784	-0.05921936	-0.08538818
909755252564988	-0.037200928	-0.1899414	0.09663391
909755258393846	0.09352112	-0.28034973	0.22615051
909755262605271	0.22669983	-0.3182373	0.30555725
909755266023240	0.22669983	-0.31455994	0.30555725
909755272676072	0.4319458	-0.31455994	0.34587097
909755277711473	0.50891113	-0.26324463	0.32632446
909755282807908	0.57977295	-0.22538757	0.28233337
909755287843309	0.6469574	-0.18139648	0.20414734
909755293611131	0.7080536	-0.13496399	0.08564758
909755297883592	0.7556915	-0.08854675	-0.069503784
909755302918992	0.7862396	-0.03845215	-0.25274658
909755308686814	0.7984619	0.015304565	-0.45799255
909755312989793	0.7984619	0.07272339	-0.6717987
909755316346726	0.78868103	0.07272339	-0.6717987
909755323060594	0.7556915	0.13134766	-0.88194275
909755328065476	0.7080536	0.18510437	-1.0798645
909755333131394	0.657959	0.22909546	-1.2582245
909755338166795	0.61886597	0.2596283	-1.4121704
909755344117723	0.5968628	0.27671814	-1.5380096
909755348268113	0.59565735	0.27427673	-1.6271973
909755353303514	0.6127472	0.25595093	-1.6723938
909755359162889	0.6383972	0.22665405	-1.6736298
909755363343797	0.6628418	0.19488525	-1.6345367
909755366639695	0.6738434	0.16799927	-1.5575562
909755373445115	0.6652832	0.14601135	-1.448822
909755378511033	0.6396332	0.13012695	-1.3132172
909755383485398	0.6017456	0.12646484	-1.1592712
909755388490281	0.55900574	0.13256836	-0.9955597
909755394380174	0.51379395	0.13868713	-0.8245239
909755398561082	0.46003723	0.13500977	-0.6485901
909755403627000	0.3818512	0.12036133	-0.4677887
909755409486375	0.27067566	0.10447693	-0.2869568
909755413697801	0.13015747	0.099594116	-0.11470032
909755416993699	0.13015747	0.10813904	-0.11470032
909755423768601	-0.15446472	0.10813904	0.1736145
909755428773484	-0.25219727	0.15701294	0.27500916
909755433808885	-0.30108643	0.18510437	0.33976746
909755438874803	-0.29864502	0.20343018	0.36419678
909755444215379	-0.24487305	0.20709229	0.35075378
909755448945603	-0.15080261	0.19732666	0.30065918
909755453981004	-0.031082153	0.17900085	0.21635437
909755459840379	0.10206604	0.15701294	0.10031128
909755464051805	0.10206604	0.13989258	0.10031128
909755467408738	0.23768616	0.13989258	-0.041412354
909755474092088	0.3684082	0.13378906	-0.20021057
909755479127488	0.49424744	0.13989258	-0.3688202
909755484193406	0.61398315	0.15455627	-0.5386505
909755489198289	0.723938	0.16799927	-0.70480347
909755494569383	0.80944824	0.17288208	-0.8575134
909755499269090	0.84976196	0.17288208	-0.98335266
909755504304490	0.8351135	0.18022156	-1.0700989
909755509645066	0.7703552	0.20709229	-1.1091766
909755514405809	0.6628418	0.25230408	-1.1067352
909755517762742	0.51745605	0.2987213	-1.0700989
909755524446092	0.3305359	0.3304901	-1.0065613
909755529542527	0.103302	0.3439331	-0.91615295
909755534516892	-0.14958191	0.3549347	-0.80007935
909755539521775	-0.4061432	0.38058472	-0.658371
909755545075975	-0.63705444	0.42822266	-0.49832153
909755549653611	-0.8215332	0.48443604	-0.3358307
909755554689012	-0.94859314	0.5222931	-0.18312073
909755560548387	-1.0170135	0.52108765	-0.04750061
909755564759812	-1.0353394	0.4746399	0.06854248
909755568086228	-1.0353394	0.38790894	0.06854248
909755574830613	-0.99012756	0.38790894	0.25056458
909755579896531	-0.9547119	0.16799927	0.32510376
909755584901414	-0.91926575	0.07392883	0.3886261
909755589936814	-0.88383484	0.0043029785	0.4387207
909755595429978	-0.8447418	-0.037231445	0.4717102
909755600007615	-0.8447418	-0.057998657	0.4863739
909755605012498	-0.7958832	-0.065338135	0.4863739
909755610963426	-0.6639252	-0.065338135	0.4680481
909755615113816	-0.6639252	-0.05189514	0.4680481
909755618409715	-0.59428406	-0.05189514	0.43995667
909755625215135	-0.53930664	-0.029907227	0.3996277
909755630189500	-0.50509644	0.0018615723	0.3519745
909755635255418	-0.4953308	0.036071777	0.30189514
909755640260301	-0.5063324	0.06539917	0.25668335
909755645631394	-0.5344238	0.08615112	0.22491455
909755650361619	-0.5796356	0.0947113	0.21026611
909755655397019	-0.64559937	0.09225464	0.21759033
909755661134324	-0.7323456	0.078826904	0.24935913
909755665437303	-0.8374176	0.05683899	0.30555725
909755668824754	-0.95225525	0.04095459	0.3861847
909755675538621	-1.0658722	0.044631958	0.4912567
909755680512986	-1.1648407	0.06539917	0.61587524
909755685609422	-1.2357025	0.08615112	0.7514801
909755690614305	-1.2674713	0.08735657	0.88830566
909755695985398	-1.2589111	0.05683899	1.019043
909755700715623	-1.2112579	-5.79834E-4	1.1326599
909755705720506	-1.1342926	-0.077545166	1.2181854
909755711427293	-1.0353394	-0.15940857	1.2695007
909755715791307	-0.92170715	-0.23881531	1.2853699
909755719178758	-0.92170715	-0.31333923	1.2853699
909755725892625	-0.65538025	-0.31333923	1.2328339
909755730897508	-0.50509644	-0.4660492	1.175415
909755735932908	-0.35362244	-0.5430298	1.1021118
909755740998826	-0.21066284	-0.61631775	1.019043
909755746461473	-0.08239746	-0.67741394	0.9249573
909755751039109	-0.08239746	-0.72506714	0.9249573
909755756105027	0.026321411	-0.72506714	0.8199005
909755761567674	0.111846924	-0.75315857	0.70506287
909755766145310	0.17416382	-0.75927734	0.58288574
909755769502244	0.20469666	-0.73851013	0.45336914
909755776246629	0.19981384	-0.69085693	0.32388306
909755781251512	0.15704346	-0.61875916	0.20050049
909755786286912	0.08129883	-0.5332489	0.090530396
909755791352830	-0.017654419	-0.43795776	0.0037841797
909755796784959	-0.1288147	-0.3365631	-0.05117798
909755801423631	-0.2436676	-0.2351532	-0.07194519
909755806459031	-0.35362244	-0.14352417	-0.057281494
909755812348924	-0.44647217	-0.07266235	-0.01574707
909755816499314	-0.517334	-0.028686523	0.04777527
909755819886766	-0.55763245	-0.012802124	0.13208008
909755826600633	-0.57107544	-0.026229858	0.23469543
909755831636033	-0.5613098	-0.061660767	0.35565186
909755836671434	-0.5344238	-0.11543274	0.48757935
909755841706834	-0.490448	-0.17893982	0.61343384
909755847474656	-0.42814636	-0.2510376	0.7197113
909755851777635	-0.34750366	-0.32922363	0.7942505
909755856813035	-0.25343323	-0.41841125	0.8296814
909755862550340	-0.15692139	-0.5137024	0.826004
909755866883836	-0.07383728	-0.6102295	0.7795868
909755870240769	-0.07383728	-0.6969757	0.7795868
909755876954637	0.039764404	-0.6969757	0.59510803
909755881959519	0.07885742	-0.83135986	0.4839325
909755887025437	0.11062622	-0.8777771	0.3776245
909755892091355	0.11062622	-0.9095459	0.27868652
909755898011766	0.16804504	-0.9095459	0.1870575
909755902131639	0.16804504	-0.9351959	0.1870575
909755907136521	0.19493103	-0.9351959	0.1076355
909755912538133	0.21936035	-0.9290924	0.050216675
909755917237840	0.23768616	-0.9107666	0.025787354
909755920533738	0.25479126	-0.8838959	0.03555298
909755927339158	0.2828827	-0.8594513	0.0770874
909755932374559	0.3317566	-0.8484497	0.14794922
909755937379441	0.400177	-0.8704529	0.24935913
909755942414842	0.48080444	-0.9437561	0.38130188
909755948304734	0.56755066	-1.0756989	0.53279114
909755952485642	0.66651917	-1.2552948	0.69285583
909755957521043	0.79234314	-1.4507599	0.85899353
909755963410935	0.9499512	-1.63768	1.0263672
909755967561326	1.1393127	-1.803833	1.1876526
909755970918260	1.3445587	-1.949234	1.3256989
909755977662644	1.541275	-2.0714111	1.42099
909755982667527	1.7025299	-2.1630402	1.4637604
909755987733445	1.8125	-2.210678	1.4564209
909755992768846	1.8662415	-2.203354	1.4124298
909755998078904	1.8735657	-2.1361542	1.3464661
909756002809129	1.8430328	-2.0188751	1.2756042
909756007844529	1.7868347	-1.8673706	1.2108612
909756013368211	1.7123108	-1.699997	1.1607666
909756017945848	1.6255798	-1.5277252	1.1265564
909756021302781	1.6255798	-1.3530426	1.1265564
909756027986131	1.4361877	-1.3530426	1.0923462
909756033021531	1.3470001	-0.99139404	1.0764618
909756038087449	1.3470001	-0.7910309	1.0764618
909756043092332	1.2688141	-0.7910309	1.0410309
909756048860154	1.133194	-0.5711365	0.85289
909756053193650	1.133194	-0.11175537	0.85289
909756058229051	1.0745697	-0.11175537	0.69529724
909756065705857	1.0171509	0.10813904	0.33242798
909756068330369	1.0171509	0.5271759	0.33242798
909756071595750	1.0391388	0.5271759	0.17605591
909756078401170	1.1014557	0.6909027	0.061203003
909756083406053	1.199173	0.7788696	-0.0059814453
909756088410935	1.322586	0.77275085	-0.026733398
909756093446336	1.4642944	0.6774597	-0.003540039
909756098939500	1.619461	0.5112915	0.051437378
909756103517137	1.7819366	0.29260254	0.13208008
909756108552537	1.9383392	0.039733887	0.23223877
909756114045701	2.070282	-0.23149109	0.34709167
909756118653855	2.1521301	-0.5088196	0.4717102
909756121949754	2.1667938	-0.7751465	0.60121155
909756128694139	2.1044922	-1.0060577	0.7258301
909756133790574	1.9700928	-1.1795349	0.8321228
909756138764939	1.7782898	-1.288269	0.8981018
909756143830857	1.5547028	-1.3371582	0.90174866
909756149293504	1.3250275	-1.3310394	0.8162384
909756153901658	1.1173401	-1.2736206	0.63664246
909756158937059	0.9462738	-1.1685638	0.38742065
909756164826951	0.8192291	-1.0390472	0.118637085
909756169007859	0.7349243	-0.9181061	-0.12814331
909756172364793	0.7349243	-0.8301239	-0.12814331
909756179048142	0.6921692	-0.8301239	-0.51908875
909756184083543	0.6921692	-0.74949646	-0.51908875
909756189118943	0.7300415	-0.74949646	-0.6779175
909756194184861	0.80822754	-0.7201843	-0.8208618
909756201539598	1.0892181	-0.68717957	-1.0395508
909756204255662	1.0892181	-0.67497253	-1.0395508
909756209230027	1.256607	-0.67497253	-1.0933075
909756214570603	1.4080963	-0.72994995	-1.1030731
909756219331346	1.5314941	-0.8191223	-1.0762024
909756222688279	1.6243439	-0.9181061	-1.0285645
909756229402146	1.6829987	-1.004837	-0.97602844
909756234407029	1.7049713	-1.0720215	-0.9246979
909756239472947	1.6927643	-1.1221161	-0.88438416
909756244508348	1.6536713	-1.1685638	-0.86605835
909756249787889	1.593811	-1.2088623	-0.8892822
909756254548631	1.5180511	-1.2284088	-0.96502686
909756259614549	1.4252167	-1.2015381	-1.1018524
909756264863572	1.3201447	-1.1135559	-1.3181
909756269685350	1.2150574	-0.95840454	-1.640625
909756273042283	1.1283112	-0.73483276	-2.0780182
909756279756150	1.0623474	-0.431839	-2.5874786
909756284791551	1.0000458	-0.049453735	-3.0908203
909756289826951	0.9120636	0.39035034	-3.5147552
909756294862351	0.7837982	0.84973145	-3.8214111
909756300294480	0.6213074	1.2919922	-3.9900208
909756304963670	0.43559265	1.6902771	-4.0120087
909756309968553	0.24256897	2.018921	-3.8861542
909756315736375	0.06175232	2.2608185	-3.6198425
909756320039353	-0.07383728	2.4184113	-3.2203217
909756323396287	-0.07383728	2.490509	-3.2203217
909756330110154	-0.13613892	2.490509	-2.6888733
909756335115037	-0.10437012	2.4196472	-2.0340424
909756340180955	0.01777649	2.1068726	-1.2863464
909756345246873	0.18881226	1.5192413	-0.50808716
909756350495896	0.347641	0.7874298	0.20903015
909756355287156	0.44415283	0.13134766	0.7685852
909756360322557	0.47225952	-0.3047943	1.110672
909756365815721	0.46736145	-0.5356903	1.241394
909756370393357	0.46492004	-0.65052795	1.2328339
909756373750291	0.48568726	-0.71650696	1.1729736
909756380433641	0.53456116	-0.75805664	1.1216736
909756385499559	0.6078644	-0.7885895	1.0886688
909756390565476	0.69828796	-0.83135986	1.0483704
909756395570359	0.78868103	-0.8997803	0.97628784
909756400910935	0.85588074	-0.98773193	0.85899353
909756409913621	0.84487915	-1.0598145	0.54745483
909756415711961	0.7642517	-1.0133972	0.38986206
909756420777879	0.6493988	-0.8692169	0.24203491
909756424104295	0.6493988	-0.6725311	0.24203491
909756430848680	0.37573242	-0.6725311	-0.021850586
909756435823045	0.24256897	-0.29623413	-0.13424683
909756440888963	0.13015747	-0.19482422	-0.22589111
909756445924363	0.048324585	-0.16552734	-0.28575134
909756451325975	0.005554199	-0.174057	-0.29551697
909756456025682	0.012893677	-0.17529297	-0.25030518
909756461030564	0.07397461	-0.14472961	-0.16723633
909756466340623	0.17781067	-0.09465027	-0.076828
909756471101365	0.17781067	-0.054336548	-0.007217407
909756474458299	0.30366516	-0.054336548	-0.007217407
909756481172166	0.42826843	-0.032348633	0.03555298
909756486207566	0.53578186	-0.022567749	0.062438965
909756491242967	0.61763	-0.025009155	0.08442688
909756496278367	0.6787262	-0.04701233	0.102752686
909756501710496	0.7312622	-0.08854675	0.11619568
909756506349168	0.7801361	-0.13008118	0.1247406
909756511384568	0.81311035	-0.1532898	0.12840271
909756516847215	0.81066895	-0.1532898	0.11984253
909756521424851	0.7642517	-0.13864136	0.09663391
909756524812303	0.6811676	-0.11419678	0.058761597
909756531556687	0.57121277	-0.07510376	0.020904541
909756536561570	0.4478302	-0.012802124	-0.0096588135
909756541596971	0.31954956	0.075149536	-0.026733398
909756546662889	0.19493103	0.17166138	-0.030410767
909756551972947	0.083740234	0.24986267	-0.019424438
909756556703172	-0.009109497	0.29507446	0.014785767
909756561769090	-0.07872009	0.31340027	0.08442688
909756567262254	-0.127594	0.32437134	0.2029419
909756571839891	-0.16546631	0.34025574	0.36419678
909756575166307	-0.16546631	0.3475952	0.36419678
909756581880174	-0.23631287	0.3475952	0.59999084
909756586915574	-0.27908325	0.2144165	0.5364685
909756591950975	-0.32917786	0.05683899	0.35075378
909756596986375	-0.3902588	-0.11907959	0.12962341
909756602326951	-0.4562378	-0.27546692	-0.03529358
909756607057176	-0.5185394	-0.41230774	-0.101257324
909756612123094	-0.57107544	-0.5552521	-0.07926941
909756617768846	-0.61260986	-0.70674133	-0.004776001
909756622163377	-0.61260986	-0.8386841	-0.004776001
909756625550828	-0.64315796	-0.8386841	0.074645996
909756632264695	-0.66148376	-0.9168701	0.122283936
909756637330613	-0.66148376	-0.9315338	0.12107849
909756642304978	-0.64437866	-0.90830994	0.06488037
909756647309861	-0.6150665	-0.8875427	-0.05606079
909756652833543	-0.55763245	-0.9095459	-0.24786377
909756657411180	-0.42080688	-0.9816284	-0.47631836
909756662507615	-0.1459198	-1.0500488	-0.6815796
909756667909226	0.28656006	-1.0060577	-0.8196411
909756672547898	0.8033447	-0.7568207	-0.89538574
909756675874314	1.256607	-0.30723572	-0.9527893
909756682588182	1.5119476	0.22297668	-1.0334473
909756687654100	1.5302734	0.6774597	-1.151947
909756692658982	1.3714447	0.9511261	-1.2924347
909756697694383	1.1283112	1.0317688	-1.4207306
909756702973924	0.86808777	0.9718933	-1.5037994
909756707765184	0.61763	0.82896423	-1.5306854
909756712800584	0.3842926	0.65057373	-1.5086823
909756718568406	0.169281	0.45877075	-1.4414978
909756722871385	-0.02619934	0.26818848	-1.3339844
909756726258836	-0.02619934	0.08859253	-1.3339844
909756732942185	-0.37193298	0.08859253	-0.9845581
909756737977586	-0.529541	-0.22293091	-0.7231293
909756743012986	-0.67736816	-0.35121155	-0.4066925
909756748078904	-0.80444336	-0.4636078	-0.06826782
909756753327928	-0.9046173	-0.5601349	0.24568176
909756758119187	-0.9705963	-0.6395569	0.49613953
909756763154588	-0.9705963	-0.6994171	0.49613953
909756768495164	-1.0035706	-0.6994171	0.72094727
909756773225389	-1.0072479	-0.72872925	0.72094727
909756776582322	-0.99380493	-0.71162415	0.6830597
909756783296189	-0.96936035	-0.6383209	0.5608978
909756788270555	-0.9412689	-0.5063782	0.38742065
909756793366990	-0.9119415	-0.33900452	0.20414734
909756798402391	-0.88261414	-0.1691742	0.05265808
909756803865037	-0.8520813	-0.027450562	-0.03895569
909756808473191	-0.8117676	0.0617218	-0.06462097
909756813508592	-0.7531128	0.08126831	-0.041412354
909756818818650	-0.668808	0.014083862	0.008666992
909756823579392	-0.5649719	-0.14108276	0.06364441
909756826936326	-0.4574585	-0.36341858	0.10151672
909756833650193	-0.36094666	-0.6126709	0.11251831
909756838716111	-0.28764343	-0.84968567	0.0929718
909756843751512	-0.24610901	-1.0427094	0.051437378
909756848756394	-0.23387146	-1.1746521	0.0013427734
909756854249559	-0.23999023	-1.2442932	-0.04385376
909756858857713	-0.25463867	-1.262619	-0.078048706
909756863923631	-0.27296448	-1.2357483	-0.0927124
909756869844041	-0.2962036	-1.1661072	-0.08294678
909756873963914	-0.32673645	-1.0512543	-0.046295166
909756877259812	-0.32673645	-0.8838959	-0.046295166
909756884034715	-0.38781738	-0.8838959	0.0917511
909756889039598	-0.4098053	-0.41719055	0.1736145
909756894105516	-0.41958618	-0.15940857	0.24935913
909756899110398	-0.41470337	0.066604614	0.30921936
909756904512010	-0.3914795	0.22909546	0.34831238
909756909211717	-0.3914795	0.3048401	0.34831238
909756914247117	-0.35362244	0.3048401	0.36663818
909756920075975	-0.26319885	0.2987213	0.37153625
909756924287400	-0.26319885	0.14479065	0.37153625
909756927674851	-0.23266602	0.14479065	0.37153625
909756934358201	-0.21798706	0.051956177	0.3776245
909756939393601	-0.21678162	-0.03479004	0.3861847
909756944459519	-0.22288513	-0.11663818	0.3996277
909756949494920	-0.23510742	-0.19238281	0.41671753
909756954804978	-0.25343323	-0.2657013	0.43504333
909756959535203	-0.27052307	-0.33166504	0.44728088
909756964601121	-0.28276062	-0.39030457	0.4411621
909756969911180	-0.28276062	-0.44163513	0.41183472
909756974641404	-0.26931763	-0.4819336	0.36175537
909756978028855	-0.24243164	-0.5002594	0.30311584
909756984742723	-0.19845581	-0.4819336	0.25056458
909756989808641	-0.13737488	-0.41107178	0.21026611
909756994783006	-0.05795288	-0.2840271	0.18582153
909756999818406	0.0385437	-0.109313965	0.1711731
909757005311570	0.14604187	0.09715271	0.16261292
909757009919725	0.25845337	0.31828308	0.15649414
909757014924607	0.3696289	0.53941345	0.15161133
909757020783982	0.47836304	0.74710083	0.14672852
909757025025926	0.58221436	0.9291382	0.1418457
909757028382859	0.58221436	1.0733032	0.1418457
909757035066209	0.7447052	1.0733032	0.13572693
909757040162644	0.79112244	1.2150116	0.14060974
909757045137010	0.8119049	1.1991272	0.15161133
909757050202928	0.8119049	1.1197205	0.16381836
909757055696092	0.7960205	1.1197205	0.16993713
909757060273728	0.7960205	0.7898712	0.16993713
909757065370164	0.7605896	0.7898712	0.16629028
909757071168504	0.63475037	0.5772705	0.11740112
909757075440965	0.63475037	0.18510437	0.11740112
909757078675828	0.54800415	0.18510437	0.07220459
909757085450730	0.44659424	0.043395996	0.017227173
909757090455613	0.334198	-0.05921936	-0.042617798
909757095491014	0.21936035	-0.13375854	-0.101257324
909757100526414	0.11550903	-0.2033844	-0.15257263
909757105836473	0.028778076	-0.29135132	-0.19044495
909757110597215	-0.021316528	-0.41474915	-0.20756531
909757115632615	0.0104522705	-0.5588989	-0.18067932
909757121186814	0.18148804	-0.6676483	-0.076828
909757125733934	0.505249	-0.66885376	0.11129761
909757129090867	0.9071808	-0.5295868	0.33486938
909757135835252	1.2749329	-0.29379272	0.5120239
909757140779100	1.5375977	-0.044555664	0.58654785
909757145845017	1.7135315	0.16189575	0.5596771
909757150910935	1.8589172	0.31584167	0.4656067
909757156190476	2.0201874	0.41723633	0.34220886
909757160981736	2.199768	0.44898987	0.21514893
909757165986619	2.3732758	0.38180542	0.1088562
909757171357713	2.5003204	0.21565247	0.04043579
909757176118455	2.5394135	-0.012802124	0.017227173
909757179383836	2.5394135	-0.2510376	0.017227173
909757186189256	2.2290955	-0.2510376	0.08442688
909757191163621	1.904129	-0.5845642	0.14916992
909757196229539	1.904129	-0.63708496	0.20050049
909757201234422	1.5461578	-0.63708496	0.20050049
909757206758103	0.95851135	-0.60043335	0.16017151
909757211305223	0.95851135	-0.32922363	0.16017151
909757216401658	0.75691223	-0.32922363	0.057540894
909757221833787	0.60910034	-0.17649841	-0.07926941
909757226411424	0.5064697	-0.06777954	-0.23197937
909757229768357	0.4453888	-0.017684937	-0.3834839
909757236512742	0.4185028	-0.023788452	-0.5154419
909757241517625	0.4160614	-0.077545166	-0.6131592
909757246553025	0.42462158	-0.1691742	-0.66571045
909757251618943	0.43315125	-0.29501343	-0.67303467
909757256959519	0.4343872	-0.45872498	-0.63882446
909757261659226	0.4319458	-0.6468811	-0.57162476
909757266725144	0.43804932	-0.8362427	-0.47755432
909757272218309	0.45759583	-0.99261475	-0.36271667
909757276795945	0.49180603	-1.0903473	-0.24177551
909757280152879	0.53578186	-1.1257935	-0.13424683
909757286836228	0.58465576	-1.1025848	-0.053619385
909757291902146	0.6371918	-1.0304871	-0.002319336
909757296937547	0.6860504	-0.9181061	0.022109985
909757301972947	0.723938	-0.7775879	0.033111572
909757307679734	0.7434845	-0.6261139	0.039215088
909757312013230	0.7447052	-0.47583008	0.04777527
909757317079148	0.722702	-0.33532715	0.06364441
909757322419725	0.67752075	-0.21438599	0.090530396
909757327149949	0.605423	-0.12640381	0.1247406
909757330506883	0.605423	-0.08731079	0.1247406
909757337251267	0.38061523	-0.08731079	0.18093872
909757342195115	0.38061523	-0.18017578	0.18093872
909757347291551	0.24012756	-0.18017578	0.18338013
909757352296434	0.09718323	-0.2889099	0.16629028
909757357789598	-0.037200928	-0.40374756	0.13572693
909757362367234	-0.15814209	-0.4953766	0.102752686
909757367402635	-0.26931763	-0.5491333	0.0758667
909757373170457	-0.37683105	-0.5686798	0.06488037
909757377503953	-0.477005	-0.5564575	0.078308105
909757380830369	-0.5661926	-0.50393677	0.11373901
909757387605271	-0.64315796	-0.40863037	0.15040588
909757392610154	-0.707901	-0.2876892	0.16505432
909757397615037	-0.74823	-0.174057	0.14916992
909757402680955	-0.7494354	-0.09098816	0.11251831
909757408143601	-0.70425415	-0.032348633	0.06854248
909757412751756	-0.60894775	0.023864746	0.01966858
909757417817674	-0.43058777	0.10568237	-0.02796936
909757423616014	-0.11904907	0.25230408	-0.062179565
909757427827439	0.35620117	0.5088501	-0.069503784
909757431214891	0.9499512	0.8778229	-0.054840088
909757437898240	1.5351563	1.298111	-0.04017639
909757442964158	1.9468689	1.6450653	-0.04385376
909757447969041	2.0507202	1.7916718	-0.057281494
909757453034959	1.7941589	1.6560669	-0.04385376
909757458345017	1.2346191	1.2394562	0.014785767
909757463075242	0.51013184	0.6175995	0.102752686
909757468141160	-0.22044373	-0.093429565	0.16629028
909757473603807	-0.8374176	-0.77882385	0.16261292
909757478181443	-1.2796783	-1.354248	0.086868286
909757481599412	-1.2796783	-1.7720795	0.086868286
909757488252244	-1.5435791	-1.7720795	-0.037734985
909757493287644	-1.6559601	-2.0151978	-0.17579651
909757498323045	-1.6535187	-2.0921783	-0.29795837
909757503358445	-1.5680084	-2.0298615	-0.3908081
909757508729539	-1.421402	-1.857605	-0.44822693
909757513429246	-1.2295837	-1.6034698	-0.4702301
909757518464646	-1.0084534	-1.2968292	-0.46043396
909757523835740	-0.77388	-0.9620819	-0.4225769
909757528535447	-0.5356598	-0.6199951	-0.3675995
909757531953416	-0.29985046	-0.29013062	-0.3052826
909757538636766	-0.071395874	0.012863159	-0.25154114
909757543672166	0.14727783	0.28771973	-0.22097778
909757548677049	0.35740662	0.5430603	-0.22465515
909757553712449	0.55288696	0.79351807	-0.25886536
909757559632859	0.7263794	1.0439758	-0.31506348
909757563813767	0.86076355	1.2919922	-0.3773651
909757568879685	0.94506836	1.5180054	-0.43478394
909757574678025	0.97683716	1.6927185	-0.47511292
909757578889451	0.9694977	1.7904663	-0.49464417
909757582246385	0.9694977	1.7892303	-0.48976135
909757588990769	0.9169769	1.7892303	-0.46043396
909757594026170	0.9047394	1.4813538	-0.4054718
909757599061570	0.91574097	1.2076874	-0.32240295
909757604096971	0.9511719	0.88882446	-0.21488953
909757609834275	1.0085907	0.55529785	-0.08905029
909757614137254	1.0806732	0.22665405	0.050216675
909757619172654	1.1539917	-0.084869385	0.2029419
909757624696336	1.2138519	-0.36953735	0.36419678
909757629273973	1.2138519	-0.6285553	0.5230255
909757632569871	1.2468262	-0.8643341	0.5230255
909757639314256	1.2541656	-0.8643341	0.66352844
909757644349656	1.2321777	-1.0830231	0.7734833
909757649446092	1.1784058	-1.2919464	0.8406677
909757654420457	1.0843353	-1.4861908	0.8553314
909757660188279	0.9523926	-1.6486816	0.8174591
909757664491258	0.78990173	-1.7598572	0.72950745
909757669557176	0.605423	-1.8111877	0.61099243
909757675080857	0.40385437	-1.803833	0.47660828
909757679627976	0.18760681	-1.752533	0.34587097
909757682984910	-0.035980225	-1.6718903	0.22859192
909757689698777	-0.25219727	-1.5680542	0.13452148
909757694703660	-0.44891357	-1.4348755	0.06854248
909757699769578	-0.61872864	-1.2711792	0.030670166
909757704804978	-0.761673	-1.084259	0.009902954
909757710115037	-0.88139343	-0.8961029	-0.002319336
909757714875779	-0.97180176	-0.73605347	-0.018188477
909757719880662	-1.018219	-0.62976074	-0.048736572
909757725282273	-1.0096893	-0.5906677	-0.09637451
909757729981980	-0.9437103	-0.61143494	-0.15623474
909757733277879	-0.9437103	-0.6700897	-0.15623474
909757740113816	-0.69569397	-0.6700897	-0.24298096
909757745118699	-0.5491028	-0.79959106	-0.23565674
909757750093064	-0.411026	-0.8521271	-0.19412231
909757755158982	-0.29740906	-0.89733887	-0.13912964
909757760682664	-0.21554565	-0.9437561	-0.093933105
909757765260301	-0.17034912	-0.9987335	-0.06826782
909757770326219	-0.15814209	-1.0695801	-0.06338501
909757776155076	-0.17401123	-1.1587677	-0.06706238
909757780335984	-0.17401123	-1.2589569	-0.06706238
909757783631883	-0.20701599	-1.2589569	-0.06462097
909757790376267	-0.24731445	-1.3518066	-0.048736572
909757795411668	-0.29129028	-1.420227	-0.018188477
909757800447068	-0.33285522	-1.4495544	0.014785767
909757805482469	-0.36827087	-1.4397736	0.03555298
909757810853562	-0.39759827	-1.3994598	0.039215088
909757815553269	-0.41592407	-1.340805	0.03555298
909757820588670	-0.424469	-1.2675018	0.04899597
909757826112351	-0.4256897	-1.1746521	0.10151672
909757830659471	-0.4317932	-1.0536957	0.19682312
909757834016404	-0.4537964	-0.90830994	0.32144165
909757840730271	-0.503891	-0.7543793	0.44483948
909757845765672	-0.58451843	-0.6175537	0.53767395
909757850862107	-0.6895752	-0.50393677	0.58044434
909757855836473	-0.8093262	-0.40498352	0.56455994
909757861573777	-0.93148804	-0.29745483	0.4973755
909757865876756	-1.0426636	-0.1532898	0.39230347
909757870942674	-1.1208496	0.04951477	0.26644897
909757876252732	-1.1452942	0.31828308	0.13696289
909757881043992	-1.1062012	0.6481323	0.022109985
909757884400926	-1.1062012	1.0146484	0.022109985
909757891175828	-0.853302	1.0146484	-0.11103821
909757896089158	-0.67004395	1.7220459	-0.122024536
909757901155076	-0.4745636	1.9859161	-0.106155396
909757906190476	-0.28884888	2.1508636	-0.0756073
909757911653123	-0.1312561	2.2009583	-0.046295166
909757916291795	-0.01399231	2.1325378	-0.02796936
909757921296678	-0.01399231	1.9590607	-0.02796936
909757927033982	0.08129883	1.9590607	-0.004776001
909757931367478	0.08129883	1.449585	-0.004776001
909757934724412	0.072753906	1.449585	0.01600647
909757941438279	0.044647217	1.1893616	0.041671753
909757946473680	0.011657715	0.9572296	0.07098389
909757951509080	-0.015213013	0.755661	0.1076355
909757956605516	-0.035980225	0.5809479	0.16017151
909757962007127	-0.048202515	0.43310547	0.23103333
909757966645799	-0.051849365	0.31948853	0.31166077
909757971711717	-0.043319702	0.2437439	0.38130188
909757977479539	-0.024993896	0.20587158	0.42651367
909757981721482	6.713867E-4	0.20220947	0.44360352
909757985078416	0.032440186	0.23153687	0.43504333
909757991792283	0.064193726	0.29016113	0.41062927
909757996827684	0.08862305	0.36958313	0.38006592
909758001924119	0.09841919	0.45632935	0.35075378
909758006898484	0.08985901	0.5308533	0.32632446
909758012330613	0.0703125	0.5797119	0.30433655
909758016969285	0.049545288	0.59439087	0.27868652
909758022004685	0.036102295	0.57118225	0.24691772
909758027558885	0.031219482	0.51864624	0.21270752
909758032106004	0.03366089	0.44898987	0.18214417
909758035432420	0.03366089	0.3732605	0.18214417
909758042207322	0.06175232	0.3732605	0.13328552
909758047151170	0.08862305	0.21565247	0.097854614
909758052247605	0.12527466	0.13256836	0.046554565
909758057283006	0.16804504	0.04827881	-0.023086548
909758063020310	0.21202087	-0.03967285	-0.10371399
909758067384324	0.21202087	-0.13131714	-0.10371399
909758072358689	0.25357056	-0.13131714	-0.19532776
909758078126512	0.3317566	-0.2363739	-0.44578552
909758082490525	0.3317566	-0.5405731	-0.44578552
909758085786424	0.40385437	-0.5405731	-0.6351471
909758092561326	0.52233887	-0.74949646	-0.87216187
909758097596726	0.6872864	-0.97306824	-1.1348419
909758102601609	0.88397217	-1.1795349	-1.3914032
909758107606492	1.0867767	-1.3456879	-1.602768
909758113099656	1.2798157	-1.4593201	-1.7383728
909758117677293	1.4496307	-1.5228424	-1.7872467
909758122773728	1.5901337	-1.5484924	-1.7579346
909758128236375	1.6976471	-1.5497284	-1.6650696
909758132783494	1.7733917	-1.533844	-1.5294495
909758136140428	1.8259277	-1.5045166	-1.3620758
909758142854295	1.8540344	-1.4519958	-1.1812744
909758147950730	1.8552399	-1.3615723	-1.0041199
909758152955613	1.8295898	-1.2162018	-0.84284973
909758157960496	1.7904968	-1.0109406	-0.7060089
909758163301072	1.7562866	-0.75805664	-0.58506775
909758168031297	1.7391815	-0.46972656	-0.47143555
909758173097215	1.7514038	-0.14964294	-0.3578186
909758178559861	1.797821	0.20587158	-0.24053955
909758183168016	1.877243	0.5980377	-0.11836243
909758186463914	1.877243	1.013443	-0.11836243
909758193238816	2.0788116	1.013443	0.118637085
909758198243699	2.1582336	1.7904663	0.2053833
909758203309617	2.1973267	2.0763397	0.25180054
909758208314500	2.1973267	2.2522583	0.26400757
909758213685594	2.0873718	2.3072357	0.2579193
909758218385301	2.0873718	2.2412567	0.2579193
909758223420701	1.9138947	2.2412567	0.25056458
909758228913865	1.6634369	2.0690155	0.24691772
909758233522019	1.3580017	1.8136749	0.24203491
909758236909471	1.0305786	1.5033569	0.22979736
909758243592820	0.7190552	1.1698151	0.21391296
909758248597703	0.45147705	0.8436127	0.2078247
909758253663621	0.24134827	0.5540619	0.22003174
909758258668504	0.0849762	0.31704712	0.25302124
909758264039598	-0.028640747	0.14601135	0.29455566
909758268769822	-0.1129303	0.051956177	0.32754517
909758273774705	-0.1776886	0.03363037	0.3385315
909758279512010	-0.23022461	0.07028198	0.32510376
909758283906541	-0.27664185	0.13012695	0.29577637
909758287202439	-0.3255005	0.17532349	0.26400757
909758293977342	-0.3927002	0.18632507	0.24447632
909758299012742	-0.48921204	0.15701294	0.24203491
909758303987107	-0.61628723	0.0947113	0.2579193
909758309053025	-0.760437	0.0067443848	0.28845215
909758314485154	-0.90338135	-0.10319519	0.32510376
909758319123826	-1.0341034	-0.22782898	0.36541748
909758324189744	-1.150177	-0.35121155	0.40574646
909758329957566	-1.2515869	-0.4501648	0.44360352
909758334230027	-1.34198	-0.50393677	0.4704895
909758337556443	-1.34198	-0.511261	0.4704895
909758344270310	-1.4641571	-0.511261	0.4717102
909758349305711	-1.4873657	-0.45384216	0.44848633
909758354341111	-1.4873657	-0.42330933	0.41551208
909758359407029	-1.4898071	-0.42330933	0.41551208
909758364747605	-1.4886017	-0.39762878	0.37641907
909758369447312	-1.4934845	-0.37077332	0.34220886
909758374482713	-1.5069275	-0.33288574	0.32388306
909758380006394	-1.5338135	-0.2718048	0.32388306
909758384553514	-1.5789948	-0.17041016	0.3385315
909758387910447	-1.6486359	-0.01524353	0.3592987
909758394624314	-1.7402649	0.20220947	0.3751831
909758399659715	-1.8380127	0.47587585	0.37886047
909758404756150	-1.914978	0.7898712	0.36419678
909758409730516	-1.9455109	1.1319427	0.3385315
909758415071092	-1.9186401	1.4911194	0.31288147
909758419801316	-1.8465576	1.8490906	0.29945374
909758424836717	-1.7512665	2.175293	0.30311584
909758430177293	-1.6523132	2.436737	0.32144165
909758434938035	-1.5570221	2.6065674	0.34831238
909758438264451	-1.4678345	2.668869	0.3751831
909758445039353	-1.3737488	2.6224518	0.4020691
909758449983201	-1.2662354	2.4709473	0.4252777
909758455049119	-1.1391754	2.2351685	0.4387207
909758460115037	-1.0023346	1.9456177	0.43504333
909758465547166	-0.8691864	1.6426239	0.4069519
909758470155320	-0.7641144	1.3555145	0.35321045
909758475221238	-0.7103424	1.0879517	0.27012634
909758480866990	-0.721344	0.81552124	0.16017151
909758485292039	-0.77023315	0.51008606	0.041671753
909758488618455	-0.77023315	0.18510437	0.041671753
909758495362840	-0.7262268	0.18510437	-0.1244812
909758500428758	-0.7262268	-0.33532715	-0.16355896
909758505433641	-0.56007385	-0.33532715	-0.16355896
909758510438523	-0.33406067	-0.5173645	-0.20265198
909758515840135	-0.11048889	-0.72384644	-0.2576294
909758520509324	0.06175232	-0.9987335	-0.33094788
909758525605760	0.16316223	-1.3237152	-0.4091339
909758531404100	0.18881226	-1.6327972	-0.47387695
909758535646043	0.1533966	-1.8661652	-0.50808716
909758539002976	0.07885742	-1.9981079	-0.49832153
909758545686326	-0.005432129	-2.0335236	-0.44702148
909758550721726	-0.07383728	-1.996872	-0.3724823
909758555818162	-0.10316467	-1.9138031	-0.30407715
909758560823045	-0.079956055	-1.7965088	-0.26254272
909758566529832	0.0018920898	-1.6499176	-0.25274658
909758570893846	0.1326294	-1.4739838	-0.26130676
909758575898728	0.29266357	-1.2748413	-0.26863098
909758581758103	0.45759583	-1.070816	-0.25398254
909758585969529	0.6103058	-0.8875427	-0.21244812
909758589326463	0.7459259	-0.74705505	-0.15013123
909758596070848	0.87420654	-0.6517639	-0.081710815
909758601075730	1.0024872	-0.5906677	-0.023086548
909758606111131	1.1356659	-0.5454712	0.014785767
909758611146531	1.2663727	-0.49171448	0.029434204
909758616426072	1.3885651	-0.40986633	0.014785767
909758621217332	1.4985046	-0.29135132	-0.030410767
909758626283250	1.5888977	-0.13252258	-0.09515381
909758631593309	1.6536713	0.05807495	-0.16355896
909758636384568	1.6781006	0.26574707	-0.22097778
909758639710984	1.6781006	0.4746399	-0.22097778
909758646455369	1.6499939	0.4746399	-0.255188
909758651429734	1.5644836	0.662796	-0.25886536
909758656465135	1.4276581	0.808197	-0.23565674
909758661500535	1.2492676	0.8924866	-0.18800354
909758666963182	1.0366974	0.9034729	-0.1269226
909758671601853	0.79112244	0.8436127	-0.058502197
909758676667771	0.51745605	0.7238922	0.006225586
909758682466111	0.22425842	0.5613861	0.061203003
909758686677537	-0.07015991	0.3757019	0.10397339
909758690034471	-0.34994507	0.17778015	0.13816833
909758696778855	-0.60162354	-0.014022827	0.16749573
909758701783738	-0.8190918	-0.17773438	0.1870575
909758706819139	-0.9998932	-0.2876892	0.1894989
909758711885057	-1.1379547	-0.34509277	0.1736145
909758717134080	-1.2247009	-0.39274597	0.15161133
909758721925340	-1.2747955	-0.484375	0.1418457
909758726991258	-1.3285522	-0.64564514	0.15405273
909758732484422	-1.4165039	-0.84968567	0.1894989
909758737062059	-1.5423431	-1.0598145	0.23223877
909758740357957	-1.5423431	-1.262619	0.26156616
909758747132859	-1.8038025	-1.262619	0.26036072
909758752107225	-1.901535	-1.6462402	0.22491455
909758757234178	-1.967514	-1.791626	0.16261292
909758762208543	-1.9895172	-1.869812	0.090530396
909758767945848	-1.9308624	-1.8502808	0.01966858
909758772279344	-1.7488251	-1.7109985	-0.04385376
909758777314744	-1.4177399	-1.4458771	-0.09881592
909758782838426	-0.96691895	-1.0940247	-0.14646912
909758787416062	-0.46600342	-0.73605347	-0.17823792
909758790772996	-0.46600342	-0.45994568	-0.17823792
909758797486863	0.0018920898	-0.45994568	-0.18312073
909758802461228	0.37208557	-0.30845642	-0.15013123
909758807557664	0.61763	-0.2693634	-0.08294678
909758812532029	0.7581482	-0.29501343	-0.002319336
909758817872605	0.84487915	-0.34753418	0.058761597
909758822633348	0.93040466	-0.40130615	0.0599823
909758827729783	1.0220337	-0.44039917	-0.024291992
909758833039842	1.0892181	-0.4342804	-0.18188477
909758837782861	1.0928955	-0.3524475	-0.3517151
909758841078759	1.0147095	-0.16429138	-0.44578552
909758847853662	0.8570862	0.15577698	-0.4018097
909758852889062	0.644516	0.6200409	-0.20388794
909758857863427	0.41970825	1.1954803	0.10519409
909758862929345	0.23278809	1.8014374	0.4521637
909758868239404	0.116744995	2.329239	0.7575989
909758872969628	0.08618164	2.7030792	0.95796204
909758878066064	0.14360046	2.9083252	1.0153809
909758883437158	0.27922058	2.9645386	0.93963623
909758888075830	0.47470093	2.901001	0.7759247
909758891463281	0.47470093	2.7311707	0.7759247
909758898146630	0.94262695	2.7311707	0.37886047
909758903182031	1.1674347	2.0922241	0.18461609
909758908247949	1.3543549	1.6450653	-0.008422852
909758913283349	1.483841	1.1417084	-0.20265198
909758918654443	1.5437164	0.6127167	-0.37860107
909758923384668	1.541275	0.08491516	-0.51420593
909758928389550	1.4862823	-0.40863037	-0.58384705
909758934279443	1.3897705	-0.8411255	-0.578949
909758938460351	1.3897705	-1.1880951	-0.578949
909758941847802	1.2590485	-1.1880951	-0.5019989
909758948531152	1.098999	-1.43367	-0.3724823
909758953536035	0.91085815	-1.5704956	-0.20632935
909758958632470	0.7031708	-1.5924988	-0.018188477
909758963637353	0.49180603	-1.4959717	0.18461609
909758969374658	0.3012085	-1.2772827	0.3886261
909758973677636	0.14971924	-0.9474182	0.57922363
909758978713037	0.043426514	-0.5222626	0.73439026
909758984053613	-0.027435303	-0.01890564	0.8382263
909758988844873	-0.07507324	0.53697205	0.8907471
909758992140771	-0.099487305	1.0977325	0.91275024
909758998885156	-0.09094238	1.581543	0.92619324
909759003890039	-0.037200928	1.8991852	0.9506378
909759008925439	0.09352112	1.9944763	0.9884949
909759013960839	0.3183136	1.8881836	1.0337067
909759019454003	0.59809875	1.6707153	1.0654602
909759024031640	0.8204498	1.4300385	1.0654602
909759029097558	0.8705292	1.20401	1.0129395
909759034773828	0.7153778	1.0146484	0.89686584
909759039137841	0.40873718	0.9193573	0.71362305
909759042494775	0.40873718	1.0110016	0.71362305
909759049239160	-0.40370178	1.0110016	0.19438171
909759054274560	-0.8435211	1.812439	-0.069503784
909759060561181	-1.2662354	2.2999115	-0.27474976
909759064345361	-1.6413116	2.6273346	-0.40057373
909759069808007	-1.9467468	2.681076	-0.45555115
909759074416162	-2.1690826	2.4196472	-0.47387695
909759079421044	-2.1690826	1.8894043	-0.47387695
909759085280419	-2.352356	1.8894043	-0.49832153
909759089522363	-2.352356	0.5357361	-0.49832153
909759092818261	-2.3205872	0.5357361	-0.5227661
909759099562646	-2.2142944	-0.020126343	-0.5569763
909759104598046	-2.0383759	-0.41841125	-0.60583496
909759109694482	-1.8050232	-0.6859741	-0.6669159
909759114699365	-1.5338135	-0.86557007	-0.7328949
909759120406152	-1.2564697	-0.9975128	-0.7964325
909759124739648	-0.9998932	-1.1074677	-0.85139465
909759129805566	-0.78364563	-1.2162018	-0.89660645
909759135298730	-0.60284424	-1.3432465	-0.92225647
909759139845849	-0.43302917	-1.4971924	-0.91737366
909759143233300	-0.24243164	-1.6816711	-0.87705994
909759149947168	-0.012756348	-1.8856964	-0.8171997
909759154921533	0.24623108	-2.0848541	-0.7536621
909759159987451	0.50891113	-2.2485504	-0.6876831
909759165022851	0.7483673	-2.359726	-0.60583496
909759170302392	0.9523926	-2.4183807	-0.49220276
909759175124169	1.1185455	-2.4318237	-0.34439087
909759180159570	1.2456055	-2.412262	-0.17089844
909759185896875	1.3384705	-2.374405	0.0135650635
909759190230371	1.4056549	-2.320633	0.19558716
909759193526269	1.4056549	-2.242447	0.19558716
909759200331689	1.514389	-2.242447	0.5083618
909759205336572	1.5730286	-1.8905792	0.608551
909759210341455	1.632904	-1.5484924	0.64764404
909759215376855	1.6952057	-1.0610352	0.61099243
909759220839502	1.7611694	-0.43307495	0.5046997
909759225447656	1.7611694	0.29016113	0.5046997
909759230513574	1.83815	0.29016113	0.36053467
909759236372949	1.9847565	1.0293274	0.1088562
909759240584375	1.9847565	2.209488	0.1088562
909759243880273	2.0018616	2.209488	0.037994385
909759250624658	1.9578705	2.546692	-0.003540039
909759255721093	1.8564758	2.7116394	-0.029174805
909759260725976	1.7184143	2.733612	-0.048736572
909759265761377	1.5596008	2.6444397	-0.06826782
909759271437646	1.3873291	2.462387	-0.0914917
909759275862695	1.199173	2.1948395	-0.109817505
909759280867578	0.9914856	1.8588715	-0.11103821
909759286757470	0.7605896	1.4837952	-0.08905029
909759290938378	0.5076904	1.1087189	-0.045059204
909759294295312	0.24502563	0.76542664	0.017227173
909759301009179	-0.015213013	0.4905243	0.0917511
909759306014062	-0.25708008	0.31828308	0.16749573
909759311110498	-0.4721222	0.26818848	0.2212677
909759316084863	-0.65171814	0.31704712	0.23103333
909759321822168	-0.7897644	0.42211914	0.19070435
909759326155664	-0.8862915	0.5381775	0.11495972
909759331191064	-0.94859314	0.6383667	0.02822876
909759336714746	-0.9889221	0.70433044	-0.046295166
909759341322900	-1.0170135	0.7116699	-0.09515381
909759344588281	-1.0170135	0.6456909	-0.09515381
909759351363183	-1.0622253	0.6456909	-0.1073761
909759356368066	-1.0988617	0.31340027	-0.08415222
909759361403466	-1.1538391	0.09715271	-0.05117798
909759366438867	-1.1538391	-0.10687256	-0.01574707
909759371779443	-1.333435	-0.28034973	0.01600647
909759376540185	-1.333435	-0.41474915	0.01600647
909759381606103	-1.4739227	-0.41474915	0.041671753
909759387251855	-1.6510773	-0.5137024	0.053878784
909759391737939	-1.8587799	-0.57722473	0.053878784
909759395003320	-2.081131	-0.6053467	0.04043579
909759401778222	-2.303482	-0.59555054	0.020904541
909759406752587	-2.5136108	-0.5442505	0.0013427734
909759411787988	-2.701767	-0.45506287	-0.014541626
909759416792871	-2.8654785	-0.3341217	-0.02796936
909759422743798	-3.0035248	-0.19361877	-0.042617798
909759426863671	-3.120819	-0.04701233	-0.060943604
909759431990625	-3.2148895	0.091033936	-0.08415222
909759437453271	-3.2454376	0.20831299	-0.11225891
909759442000390	-3.1367035	0.29995728	-0.1415863
909759445296289	-2.815384	0.38424683	-0.16845703
909759452071191	-2.291275	0.49176025	-0.18800354
909759457076074	-1.6584167	0.6347046	-0.19656372
909759462264062	-1.032898	0.7923126	-0.18922424
909759467177392	-0.48068237	0.9108124	-0.16111755
909759472243310	-0.010314941	0.9425812	-0.11225891
909759477248193	0.39405823	0.8692627	-0.046295166
909759482253076	0.736145	0.6970062	0.02822876
909759488051416	1.020813	0.45143127	0.10397339
909759492354394	1.2505035	0.16433716	0.16873169
909759495680810	1.2505035	-0.12763977	0.16873169
909759502486230	1.5828094	-0.12763977	0.23103333
909759507399560	1.693985	-0.6261139	0.22247314
909759512587548	1.7697296	-0.82891846	0.19438171
909759517531396	1.7697296	-1.0170593	0.19438171
909759523146630	1.8173828	-1.0170593	0.110076904
909759527571679	1.8173828	-1.3933411	0.110076904
909759532576562	1.7941589	-1.3933411	0.066101074
909759537856103	1.746521	-1.5912628	0.026992798
909759542860986	1.6842041	-1.7867432	-0.008422852
909759546004296	1.6170197	-1.9663391	-0.04385376
909759552901269	1.54982	-2.1190643	-0.078048706
909759557784082	1.4801788	-2.2436676	-0.1073761
909759562850000	1.4007721	-2.3511658	-0.122024536
909759567854882	1.3103485	-2.4489136	-0.11714172
909759573317529	1.2089691	-2.5332031	-0.0914917
909759577925683	1.1038971	-2.5772095	-0.0597229
909759583144189	0.9914856	-2.5539703	-0.03529358
909759588240625	0.8705292	-2.452591	-0.029174805
909759593031884	0.736145	-2.2803192	-0.03161621
909759596419336	0.58587646	-2.0445251	-0.029174805
909759603163720	0.42462158	-1.7464294	-0.008422852
909759608138086	0.25967407	-1.3957825	0.026992798
909759613204003	0.108184814	-1.0378265	0.055099487
909759618208886	-0.0042266846	-0.74095154	0.05632019
909759623885156	-0.055511475	-0.563797	0.026992798
909759628279687	-0.03843689	-0.5222626	-0.014541626
909759633315087	0.040985107	-0.5870056	-0.041412354
909759638747216	0.16436768	-0.71528625	-0.034057617
909759643446923	0.30732727	-0.8777771	0.01600647
909759646681787	0.30732727	-1.0524902	0.01600647
909759653548242	0.5602112	-1.0524902	0.19682312
909759658461572	0.5602112	-1.3212738	0.19682312
909759663771630	0.6359558	-1.3212738	0.3703003
909759668562890	0.6689606	-1.2956085	0.3703003
909759674361230	0.6261902	-1.2956085	0.48757935
909759678633691	0.6261902	-0.9315338	0.48757935
909759683638574	0.56388855	-0.9315338	0.53034973
909759689101220	0.48324585	-0.66641235	0.56333923
909759694014550	0.38796997	-0.37930298	0.58776855
909759697066308	0.2841034	-0.093429565	0.60609436
909759704115869	0.17781067	0.16921997	0.61953735
909759708815576	0.0715332	0.38912964	0.62931824
909759714034082	-0.031082153	0.5455017	0.63420105
909759718916894	-0.1288147	0.6212616	0.6329651
909759724654199	-0.22410583	0.6114807	0.62687683
909759729018212	-0.32185364	0.5174103	0.61709595
909759734358789	-0.4220276	0.35369873	0.60487366
909759739363671	-0.5270996	0.14479065	0.5938721
909759744490625	-0.63583374	-0.07632446	0.58288574
909759747420312	-0.7421112	-0.28523254	0.57066345
909759754500390	-0.8410797	-0.46972656	0.5572357
909759759230615	-0.9278259	-0.6248779	0.542572
909759764418603	-0.9998932	-0.75071716	0.5230255
909759769270898	-1.0536652	-0.84968567	0.4973755
909759775008203	-1.0878754	-0.9217529	0.46437073
909759779311181	-1.0988617	-0.965744	0.42163086
909759784743310	-1.0878754	-0.9816284	0.37397766
909759789809228	-1.0609894	-0.9645233	0.32632446
909759794661523	-1.0255737	-0.9095459	0.28233337
909759797774316	-1.0255737	-0.81059265	0.28233337
909759804732324	-0.9412689	-0.81059265	0.22003174
909759809554101	-0.9412689	-0.49049377	0.22003174
909759814955712	-0.8862915	-0.49049377	0.20050049
909759819624902	-0.8190918	-0.29257202	0.18582153
909759825758935	-0.64927673	-0.09587097	0.1552887
909759829665185	-0.64927673	0.24008179	0.1552887
909759835005761	-0.5539856	0.24008179	0.13572693
909759840132714	-0.4562378	0.36102295	0.1088562
909759845107080	-0.36338806	0.44654846	0.07342529
909759848158837	-0.2803192	0.49420166	0.03555298
909759855269433	-0.21066284	0.5088501	0.0037841797
909759859877587	-0.15324402	0.49176025	-0.01210022
909759865736962	-0.111709595	0.44654846	-0.010864258
909759869978906	-0.092163086	0.37446594	0.0037841797
909759875350000	-0.09460449	0.26574707	0.022109985
909759880049707	-0.1129303	0.12646484	0.034332275
909759885207177	-0.1312561	-0.016464233	0.041671753
909759890334130	-0.13491821	-0.12763977	0.053878784
909759895918847	-0.12271118	-0.22415161	0.0758667
909759898482324	-0.12271118	-0.35121155	0.106414795
909759905959130	-0.16912842	-0.35121155	0.14550781
909759910231591	-0.28764343	-0.61875916	0.19194031
909759915450097	-0.4598999	-0.5857849	0.25546265
909759920302392	-0.64315796	-0.36953735	0.3360901
909759926375390	-0.79953	-0.0018005371	0.42651367
909759930403711	-0.91560364	0.44898987	0.5095825
909759936171533	-0.99012756	0.9132538	0.56822205
909759940657617	-1.031662	1.3274078	0.59510803
909759946303369	-1.0487823	1.6438446	0.59632874
909759948836328	-1.0487823	1.8368835	0.59632874
909759956404687	-1.0414581	1.8368835	0.56700134
909759960616113	-1.0414581	1.8894043	0.56700134
909759966261865	-1.0170135	1.8894043	0.54745483
909759970686914	-0.9730377	1.8051147	0.52178955
909759976973535	-0.8374176	1.6951599	0.45948792
909759980727197	-0.8374176	1.4776764	0.45948792
909759986556054	-0.7531128	1.4776764	0.42895508
909759991164209	-0.65782166	1.3604126	0.3996277
909759996565820	-0.5478668	1.2223358	0.3678589
909759999190332	-0.41958618	1.0574188	0.32876587
909760006575586	-0.27175903	0.8631592	0.27378845
909760010939599	-0.111709595	0.6456909	0.19438171
909760016890527	0.049545288	0.42211914	0.0917511
909760021010400	0.19737244	0.21076965	-0.021850586
909760026747705	0.31954956	0.027511597	-0.13546753
909760031111718	0.40873718	-0.12763977	-0.23930359
909760036726953	0.46247864	-0.26202393	-0.33216858
909760041609765	0.47958374	-0.37809753	-0.41281128
909760046980859	0.4612732	-0.47827148	-0.48487854
909760049544336	0.4612732	-0.56134033	-0.48487854
909760057082177	0.3366394	-0.56134033	-0.59973145
909760061415673	0.24623108	-0.67375183	-0.6351471
909760067519189	0.14848328	-0.70918274	-0.6534729
909760071364404	0.053207397	-0.73361206	-0.64982605
909760077010156	-0.037200928	-0.7543793	-0.61927795
909760081465722	-0.12025452	-0.76904297	-0.55818176
909760087355615	-0.19113159	-0.7751465	-0.46899414
909760091750146	-0.24975586	-0.77638245	-0.36027527
909760097579003	-0.29008484	-0.7775879	-0.24177551
909760107588769	-0.31573486	-0.7873688	-0.0059814453
909760111647607	-0.31573486	-0.8252411	-0.0059814453
909760117201806	-0.30596924	-0.8252411	0.10151672
909760121779443	-0.28640747	-0.8398895	0.19558716
909760128462793	-0.21922302	-0.8435669	0.33976746
909760131789209	-0.21922302	-0.8093567	0.33976746
909760138075830	-0.1776886	-0.8093567	0.38742065
909760142073632	-0.13858032	-0.7727051	0.4093933
909760147658349	-0.10682678	-0.72872925	0.4045105
909760150252343	-0.08604431	-0.6810913	0.3751831
909760157912255	-0.07507324	-0.62976074	0.32510376
909760162032128	-0.07627869	-0.5784607	0.26524353
909760168166162	-0.09094238	-0.524704	0.20414734
909760172102929	-0.116607666	-0.47338867	0.15893555
909760178023339	-0.15080261	-0.42207336	0.13572693
909760182143212	-0.18989563	-0.37077332	0.1394043
909760187911035	-0.23266602	-0.31944275	0.16381836
909760192610742	-0.2778778	-0.2718048	0.19926453
909760198225976	-0.32429504	-0.2351532	0.23591614
909760208479882	-0.43302917	-0.21070862	0.30189514
909760212355615	-0.49900818	-0.20462036	0.32876587
909760218550683	-0.57595825	-0.22293091	0.35075378
909760222456933	-0.66148376	-0.2546997	0.3690796
909760228285791	-0.7506714	-0.29623413	0.38006592
909760232527734	-0.8386383	-0.34388733	0.3886261
909760238326074	-0.91804504	-0.3866577	0.3935089
909760242842675	-0.91804504	-0.41719055	0.39839172
909760248824121	-1.0084534	-0.43307495	0.3996277
909760258925439	-0.979126	-0.431839	0.38130188
909760262709619	-0.979126	-0.36709595	0.38130188
909760268843652	-0.93026733	-0.36709595	0.36419678
909760272810937	-0.8630676	-0.29623413	0.34953308
909760279494287	-0.6969147	-0.19972229	0.33364868
909760282851220	-0.6969147	0.04827881	0.33364868
909760289320947	-0.6114044	0.04827881	0.32876587
909760293135644	-0.5356598	0.17778015	0.31654358
909760299269677	-0.4782257	0.2962799	0.29577637
909760309340478	-0.43547058	0.45022583	0.23835754
909760313094140	-0.44891357	0.47343445	0.2053833
909760319228173	-0.4721222	0.46611023	0.1711731
909760323164941	-0.4880066	0.44654846	0.13696289
909760329878808	-0.4880066	0.43434143	0.106414795
909760333205224	-0.46723938	0.43800354	0.08564758
909760339735986	-0.4256897	0.46243286	0.07342529
909760343642236	-0.36582947	0.50764465	0.06732178
909760349471093	-0.29496765	0.5675049	0.05632019
909760359602929	-0.15446472	0.6334839	0.01600647
909760363448144	-0.09828186	0.74098206	-0.002319336
909760369765283	-0.05064392	0.7715454	-0.0096588135
909760373518945	-0.007873535	0.78619385	-0.007217407
909760379622461	0.03488159	0.7825165	0.0025787354
909760383589746	0.03488159	0.75686646	0.0025787354
909760389845849	0.12527466	0.75686646	0.039215088
909760394026757	0.12527466	0.6432495	0.039215088
909760398665429	0.17781067	0.6432495	0.066101074
909760402022363	0.24256897	0.5638275	0.10519409
909760408766748	0.31954956	0.47709656	0.15649414
909760413771630	0.4050598	0.38790894	0.21391296
909760418837548	0.49180603	0.30239868	0.27256775
909760423842431	0.57489014	0.22909546	0.32754517
909760429152490	0.65063477	0.17655945	0.3776245
909760433943750	0.7129364	0.15211487	0.41671753
909760440230371	0.75691223	0.14723206	0.4338379
909760444228173	0.7801361	0.14845276	0.4228363
909760449049951	0.7789154	0.14845276	0.38252258
909760452376367	0.7471466	0.15455627	0.32022095
909760459090234	0.683609	0.17900085	0.24568176
909760464156152	0.59198	0.2278595	0.16993713
909760469191552	0.47836304	0.2889557	0.10397339
909760474196435	0.3513031	0.3463745	0.04899597
909760479506494	0.21325684	0.38668823	0.0050201416
909760484297753	0.0690918	0.39646912	-0.029174805
909760489333154	-0.07751465	0.37080383	-0.052383423
909760494582177	-0.2253418	0.31584167	-0.06706238
909760499373437	-0.37805176	0.23762512	-0.07070923
909760502791406	-0.37805176	0.14234924	-0.07070923
909760509474755	-0.682251	0.14234924	-0.06462097
909760514510156	-0.8190918	-0.09954834	-0.058502197
909760519545556	-0.9388275	-0.24615479	-0.049942017
909760524611474	-1.0402222	-0.4000702	-0.037734985
909760530013086	-1.1257477	-0.5527954	-0.020629883
909760534682275	-1.1257477	-0.69085693	-0.020629883
909760539687158	-1.1990509	-0.69085693	0.0025787354
909760545119287	-1.2625885	-0.8032532	0.030670166
909760549757959	-1.3248901	-0.8851013	0.061203003
909760553084375	-1.3871918	-0.9413147	0.0929718
909760559828759	-1.4519501	-0.9828491	0.127182
909760564864160	-1.5191345	-1.0158386	0.16261292
909760569869043	-1.5863342	-1.040268	0.19558716
909760574934961	-1.6486359	-1.0524902	0.2237091
909760580367089	-1.6962891	-1.04393	0.24812317
909760585005761	-1.7170563	-1.004837	0.27745056
909760590041162	-1.7084961	-0.9315338	0.31654358
909760595442773	-1.670639	-0.821579	0.36541748
909760600111962	-1.6034393	-0.6786499	0.41671753
909760603468896	-1.5069275	-0.5051575	0.45948792
909760610182763	-1.3810883	-0.30599976	0.48513794
909760615218164	-1.2320251	-0.084869385	0.48513794
909760620253564	-1.0622253	0.14845276	0.46072388
909760625288964	-0.8740692	0.38424683	0.41915894
909760630537988	-0.67248535	0.6041565	0.3727417
909760635359765	-0.4598999	0.7923126	0.33242798
909760640395166	-0.24855042	0.9266968	0.30189514
909760645644189	-0.04940796	0.9914398	0.27989197
909760650496484	0.12527466	0.9792328	0.26036072
909760653822900	0.12527466	0.8973694	0.26036072
909760660536767	0.38549805	0.8973694	0.2078247
909760665541650	0.46980286	0.5968323	0.16749573
909760670607568	0.46980286	0.41723633	0.11984253
909760675642968	0.52233887	0.2437439	0.11984253
909760681075097	0.53211975	0.2437439	0.01966858
909760685744287	0.53211975	-0.054336548	0.01966858
909760690749169	0.49424744	-0.054336548	-0.018188477
909760696059228	0.4368286	-0.17649841	-0.041412354
909760700819970	0.3684082	-0.28279114	-0.053619385
909760704146386	0.29510498	-0.37565613	-0.0597229
909760710890771	0.22425842	-0.45750427	-0.06338501
909760715956689	0.15948486	-0.5308075	-0.06706238
909760720992089	0.103302	-0.60043335	-0.06826782
909760725996972	0.059310913	-0.66397095	-0.06462097
909760731490136	0.027542114	-0.72384644	-0.053619385
909760736098291	0.008010864	-0.77882385	-0.034057617
909760741103173	-0.0017700195	-0.8301239	-0.0059814453
909760746596337	-0.006668091	-0.87409973	0.029434204
909760751173974	-0.009109497	-0.9034271	0.07098389
909760754500390	-0.012756348	-0.9119873	0.11619568
909760761275293	-0.017654419	-0.8912201	0.15893555
909760766249658	-0.023757935	-0.8386841	0.19558716
909760771315576	-0.028640747	-0.7543793	0.22247314
909760776350976	-0.027435303	-0.63220215	0.2395935
909760781661035	-0.01399231	-0.47338867	0.24568176
909760786421777	0.009216309	-0.28157043	0.2371521
909760791457177	0.040985107	-0.07266235	0.2078247
909760796919824	0.072753906	0.14234924	0.1577301
909760801527978	0.100860596	0.3475952	0.090530396
909760804884912	0.100860596	0.5332947	0.090530396
909760811598779	0.12895203	0.5332947	-0.049942017
909760816603662	0.12895203	0.82896423	-0.113479614
909760821700097	0.1326294	0.82896423	-0.113479614
909760826704980	0.13015747	0.9364624	-0.17823792
909760831984521	0.12895203	1.0158844	-0.24177551
909760836745263	0.13139343	1.0696259	-0.30407715
909760841811181	0.14239502	1.0977325	-0.36027527
909760847029687	0.17416382	1.0977325	-0.4079132
909760851881982	0.23646545	1.0635376	-0.44822693
909760855238916	0.3366394	0.9902344	-0.47999573
909760861952783	0.47470093	0.87171936	-0.49464417
909760866988183	0.64575195	0.7055664	-0.49220276
909760872023584	0.84365845	0.4929657	-0.4726715
909760877058984	1.0623474	0.23641968	-0.4494629
909760882491113	1.2944794	-0.057998657	-0.43113708
909760887129785	1.5339355	-0.38298035	-0.42745972
909760892134668	1.7660675	-0.73117065	-0.43722534
909760897566796	1.9749756	-1.0903473	-0.45555115
909760902235986	2.1435852	-1.4409943	-0.4726715
909760905562402	2.2559662	-1.7574158	-0.4885559
909760912337304	2.3109436	-2.0188751	-0.5044403
909760917372705	2.3158264	-2.2057953	-0.5276489
909760922408105	2.2816315	-2.30719	-0.5594177
909760927443505	2.2168884	-2.3194275	-0.5960541
909760932875634	2.1289063	-2.249771	-0.6302643
909760937483789	2.026291	-2.1080627	-0.6595917
909760942549707	1.9138947	-1.9064636	-0.68647766
909760947920800	1.8014984	-1.6560059	-0.7145691
909760952589990	1.6988678	-1.3628082	-0.74754333
909760955946923	1.6988678	-1.0390472	-0.74754333
909760962660791	1.6121368	-1.0390472	-0.7903137
909760967665673	1.5437164	-0.69818115	-0.8404083
909760972731591	1.4911804	-0.35853577	-0.89904785
909760977766992	1.4435272	-0.042114258	-0.95526123
909760983077050	1.3934479	0.2303009	-1.0004425
909760987837793	1.3372345	0.44166565	-1.0285645
909760992873193	1.2773743	0.5809479	-1.0444336
909760998122216	1.2248383	0.6481323	-1.0615387
909761002943994	1.1894073	0.6432495	-1.0945282
909761006300927	1.1759644	0.57118225	-1.1531677
909761012984277	1.1857452	0.44288635	-1.2276917
909761018019677	1.2150574	0.28771973	-1.3022156
909761023116113	1.2614899	0.13745117	-1.3657532
909761028120996	1.3237915	0.012863159	-1.4158478
909761033888818	1.4007721	-0.08366394	-1.4561462
909761038191796	1.4887238	-0.15940857	-1.4854736
909761043227197	1.5815735	-0.21315002	-1.5001526
909761048476220	1.6707611	-0.2375946	-1.4989166
909761053297998	1.7477417	-0.23271179	-1.4830322
909761056654931	1.7477417	-0.20706177	-1.4524994
909761063368798	1.8320313	-0.1716156	-1.4182892
909761068434716	1.8308258	-0.13496399	-1.3926239
909761073439599	1.7953796	-0.101989746	-1.3852844
909761078475000	1.7306366	-0.06777954	-1.3901825
909761083907128	1.6414337	-0.028686523	-1.3926239
909761088545800	1.5314941	0.0055236816	-1.3804016
909761093581201	1.4068909	0.012863159	-1.3462067
909761098982812	1.2712708	-0.027450562	-1.2948914
909761103652002	1.1283112	-0.12031555	-1.2338104
909761106978418	1.1283112	-0.24859619	-1.2338104
909761113753320	0.9841614	-0.24859619	-1.1665955
909761118727685	0.84365845	-0.3842163	-1.0969696
909761123793603	0.7153778	-0.5100403	-1.0248871
909761128829003	0.6042023	-0.61631775	-0.9564667
909761134230615	0.51135254	-0.6994171	-0.89172363
909761138899804	0.43315125	-0.75071716	-0.8330841
909761143904687	0.3684082	-0.76538086	-0.7756653
909761149336816	0.3170929	-0.74705505	-0.7194519
909761154006005	0.27555847	-0.70918274	-0.6620331
909761157362939	0.24012756	-0.65908813	-0.60339355
909761164076806	0.20349121	-0.60043335	-0.53985596
909761169112207	0.16316223	-0.5308075	-0.47143555
909761174147607	0.12527466	-0.44895935	-0.39692688
909761179183007	0.09352112	-0.36341858	-0.31506348
909761184493066	0.0703125	-0.2876892	-0.22833252
909761189253808	0.0544281	-0.22659302	-0.13912964
909761194289209	0.048324585	-0.1716156	-0.054840088
909761199568750	0.05076599	-0.093429565	0.025787354
909761204360009	0.059310913	0.04095459	0.106414795
909761207716943	0.059310913	0.2425232	0.106414795
909761214430810	0.0703125	0.2425232	0.27989197
909761219466211	0.07397461	0.7397766	0.3703003
909761224501611	0.080078125	0.9694519	0.45828247
909761229506494	0.08618164	1.1637115	0.5437927
909761234938623	0.0849762	1.3188782	0.6244354
909761239638330	0.072753906	1.4312592	0.6965027
909761244643212	0.048324585	1.4984436	0.75271606
909761249922753	0.015335083	1.5241241	0.7918091
909761254714013	0.015335083	1.514328	0.7918091
909761258070947	-0.023757935	1.514328	0.8113556
909761264815332	-0.067718506	1.4667053	0.8088989
909761269820214	-0.111709595	1.3824005	0.7844696
909761274855615	-0.14958191	1.2663422	0.73439026
909761279891015	-0.17645264	1.1184998	0.6561737
909761285353662	-0.18135071	0.9279175	0.55355835
909761289961816	-0.15568542	0.6786804	0.4362793
909761294997216	-0.09338379	0.3598175	0.31044006
909761300429345	-0.0017700195	-0.012802124	0.17605591
909761305068017	0.09718323	-0.40618896	0.029434204
909761308394433	0.1668396	-0.7727051	-0.122024536
909761315169336	0.18025208	-1.0512543	-0.25886536
909761320143701	0.11795044	-1.1795349	-0.36515808
909761325179101	-0.011550903	-1.1160278	-0.42990112
909761330245019	-0.1789093	-0.8618927	-0.45799255
909761335463525	-0.35116577	-0.47216797	-0.45799255
909761340315820	-0.5002136	-0.033569336	-0.4409027
909761345351220	-0.61994934	0.36592102	-0.41157532
909761350752832	-0.7127991	0.6652374	-0.37980652
909761355422021	-0.7848816	0.84973145	-0.3541565
909761358778955	-0.7848816	0.934021	-0.3541565
909761365523339	-0.8899536	0.934021	-0.3370514
909761370528222	-0.93392944	0.9181366	-0.33216858
909761375594140	-0.979126	0.8533783	-0.31018066
909761380599023	-1.0292206	0.75442505	-0.26254272
909761386244775	-1.0829926	0.61027527	-0.18432617
909761390639306	-1.1330719	0.41967773	-0.08294678
909761395705224	-1.1330719	0.18754578	0.02822876
909761400954248	-1.1746063	0.18754578	0.13696289
909761405776025	-1.2039337	-0.34265137	0.13696289
909761409132959	-1.2259369	-0.34265137	0.23591614
909761415846826	-1.2393494	-0.61631775	0.32510376
909761420851709	-1.2393494	-0.89242554	0.4203949
909761425917627	-1.2063751	-1.1795349	0.529129
909761430953027	-1.1233063	-1.4837494	0.64764404
909761436415673	-0.9754791	-1.8087311	0.7441559
909761441023828	-0.75923157	-2.1373901	0.7673645
909761446059228	-0.48677063	-2.4208221	0.6720581
909761451521875	-0.19233704	-2.5808563	0.44239807
909761456130029	0.067855835	-2.5307617	0.118637085
909761459456445	0.23890686	-2.2387848	-0.21365356
909761466231347	0.28900146	-1.7561951	-0.45799255
909761471205712	0.23402405	-1.2076416	-0.5569763
909761476271630	0.1191864	-0.72506714	-0.50320435
909761481307031	-0.005432129	-0.39762878	-0.33338928
909761486800195	-0.108047485	-0.2571411	-0.09637451
909761491377832	-0.1776886	-0.29379272	0.15893555
909761496413232	-0.21434021	-0.47094727	0.39595032
909761501875878	-0.22898865	-0.74583435	0.59510803
909761506514550	-0.23266602	-1.0695801	0.7539215
909761509871484	-0.23266602	-1.3896942	0.7539215
909761516554834	-0.26808167	-1.3896942	0.99705505
909761521590234	-0.32305908	-1.8148346	1.0996704
909761526625634	-0.40126038	-1.8612823	1.1949768
909761531661035	-0.49409485	-1.803833	1.2829285
909761536940576	-0.5906372	-1.6682434	1.3598938
909761541762353	-0.5906372	-1.4825287	1.4234314
909761546767236	-0.68348694	-1.4825287	1.4234314
909761552046777	-0.7689972	-1.2662811	1.4747467
909761556838037	-0.8410797	-1.0353699	1.5199432
909761560194970	-0.8948364	-0.79226685	1.5688171
909761566908837	-0.93392944	-0.5393677	1.6237946
909761571913720	-0.95835876	-0.2840271	1.6824493
909761576979638	-0.97424316	-0.033569336	1.7361908
909761582015039	-0.979126	0.20587158	1.7777252
909761587386132	-0.9766846	0.43434143	1.8046112
909761592085839	-0.97424316	0.6615753	1.8217163
909761597121240	-0.9840088	0.89126587	1.8314819
909761602370263	-1.0170135	1.1209412	1.8376007
909761607192041	-1.0805359	1.3384094	1.8351593
909761610548974	-1.1746063	1.527771	1.8180542
909761617293359	-1.289444	1.6890411	1.7740631
909761622328759	-1.4104004	1.8234406	1.692215
909761627364160	-1.5191345	1.9309387	1.560257
909761632369043	-1.6022186	2.0103607	1.3782196
909761638167382	-1.6510773	2.0677795	1.1546478
909761642439843	-1.6645203	2.1178741	0.9090729
909761647505761	-1.6474152	2.1716309	0.66108704
909761652876855	-1.6058807	2.219284	0.41915894
909761657546044	-1.5447845	2.2339325	0.19438171
909761660902978	-1.5447845	2.1911774	0.19438171
909761667647363	-1.3798676	2.1911774	-0.16479492
909761672621728	-1.2845612	1.878418	-0.27963257
909761677687646	-1.1868286	1.6255188	-0.3541565
909761682723046	-1.0890808	1.3347473	-0.4042511
909761688246728	-0.99624634	1.0366516	-0.44334412
909761692824365	-0.99624634	0.76174927	-0.44334412
909761697798730	-0.9082794	0.76174927	-0.48243713
909761703352929	-0.8288574	0.53697205	-0.51664734
909761707930566	-0.760437	0.37080383	-0.5362091
909761711256982	-0.70913696	0.25106812	-0.53009033
909761717970849	-0.67004395	0.15577698	-0.49588013
909761723006250	-0.63949585	0.066604614	-0.44210815
909761728011132	-0.60528564	-0.023788452	-0.38226318
909761733077050	-0.5661926	-0.117874146	-0.32850647
909761738356591	-0.5270996	-0.21438599	-0.28575134
909761743147851	-0.5014496	-0.30845642	-0.25274658
909761748213769	-0.5002136	-0.39030457	-0.22709656
909761753523828	-0.52586365	-0.45506287	-0.20144653
909761758254052	-0.57839966	-0.5100403	-0.17089844
909761761641503	-0.64315796	-0.5723419	-0.13058472
909761768324853	-0.70669556	-0.65541077	-0.07926941
909761773390771	-0.75434875	-0.76660156	-0.020629883
909761778395654	-0.7799988	-0.9046631	0.037994385
909761783492089	-0.78855896	-1.0561371	0.08808899
909761788954736	-0.7824402	-1.2015381	0.1235199
909761793532373	-0.76779175	-1.3298035	0.14060974
909761798537255	-0.746994	-1.442215	0.1394043
909761804457666	-0.7262268	-1.5448456	0.127182
909761808608056	-0.70669556	-1.63768	0.11495972
909761811964990	-0.70669556	-1.7207642	0.11495972
909761818709375	-0.67614746	-1.7207642	0.11619568
909761823714257	-0.67736816	-1.8197174	0.13816833
909761828749658	-0.67736816	-1.8160706	0.16993713
909761833815576	-0.69937134	-1.7610931	0.16993713
909761839278222	-0.827652	-1.7610931	0.23223877
909761843886377	-0.827652	-1.4861908	0.23223877
909761848921777	-0.91926575	-1.4861908	0.24568176
909761854384423	-1.0023346	-1.2772827	0.24203491
909761858992578	-1.0597687	-1.0366058	0.22491455
909761862380029	-1.0756531	-0.7739258	0.19558716
909761869032861	-1.0414581	-0.5063782	0.16261292
909761874068261	-0.9595947	-0.24736023	0.13452148
909761879134179	-0.8386383	-0.011581421	0.11251831
909761884169580	-0.69325256	0.20343018	0.0917511
909761889845849	-0.5344238	0.40867615	0.06364441
909761894209863	-0.37438965	0.6127167	0.025787354
909761899275781	-0.22166443	0.81307983	-0.01210022
909761904555322	-0.0811615	0.99876404	-0.036499023
909761909316064	0.040985107	1.1478271	-0.04017639
909761912703515	0.13871765	1.2382202	-0.025527954
909761919386865	0.20469666	1.257782	-0.003540039
909761924452783	0.23768616	1.2064667	0.014785767
909761929488183	0.23768616	1.1026306	0.014785767
909761934493066	0.21081543	0.96699524	-0.0096588135
909761940230371	0.16560364	0.80940247	-0.0597229
909761944594384	0.116744995	0.6322479	-0.1244812
909761949629785	0.07885742	0.43678284	-0.19044495
909761955336572	0.06297302	0.22909546	-0.24053955
909761959700586	0.07519531	0.014083862	-0.26742554
909761963057519	0.07519531	-0.2033844	-0.26742554
909761969740869	0.19125366	-0.2033844	-0.24665833
909761974806787	0.19125366	-0.5906677	-0.21000671
909761979811669	0.28778076	-0.72384644	-0.21000671
909761984877587	0.40138245	-0.72384644	-0.1733551
909761990706445	0.6530762	-0.8020325	-0.13790894
909761994948388	0.6530762	-0.77882385	-0.13790894
909761999953271	0.7862396	-0.77882385	-0.15501404
909762005476953	0.92185974	-0.6700897	-0.19288635
909762010024072	1.0635681	-0.4990387	-0.24421692
909762013411523	1.2114105	-0.2840271	-0.30039978
909762020125390	1.3665619	-0.04701233	-0.3578186
909762025160791	1.5339355	0.19242859	-0.4152527
909762030196191	1.7147522	0.41967773	-0.4702301
909762035231591	1.9053345	0.6285858	-0.5203247
909762041121484	2.095932	0.80940247	-0.56552124
909762045332910	2.275528	0.959671	-0.6107178
909762050337793	2.4404602	1.0806274	-0.6693573
909762056227685	2.58461	1.179596	-0.7512207
909762060408593	2.7104492	1.2602234	-0.85995483
909762065291406	2.8216248	1.3115234	-0.98579407
909762070509912	2.921814	1.3152008	-1.1116333
909762075667382	3.0110016	1.2553406	-1.217926
909762080580712	3.089203	1.1246033	-1.2875519
909762085616113	3.1429443	0.9254608	-1.3132172
909762091322900	3.1612701	0.6689148	-1.2899933
909762095656396	3.1295013	0.3634796	-1.2130432
909762100691796	3.0391083	0.014083862	-1.0823059
909762106368066	2.894928	-0.37809753	-0.90760803
909762110732080	2.703125	-0.81303406	-0.7072449
909762114119531	2.703125	-1.301712	-0.7072449
909762120802880	2.4734344	-1.301712	-0.34805298
909762125838281	2.2107697	-1.8539276	-0.34805298
909762130904199	1.9212189	-2.4586945	-0.25154114
909762135909082	1.6170197	-3.0780945	-0.24177551
909762141829492	1.0696869	-3.6486511	-0.5178833
909762145979882	1.0696869	-4.400009	-0.5178833
909762150984765	0.91085815	-4.400009	-0.7805481
909762156355859	0.8729706	-4.5099792	-1.0749817
909762161086084	0.941391	-4.4110107	-1.3400879
909762164473535	1.0733337	-4.0848083	-1.5355682
909762171187402	1.2285004	-3.5337982	-1.6479645
909762176253320	1.3787689	-2.8032227	-1.6882782
909762181227685	1.5131683	-1.9724426	-1.6711884
909762186263086	1.6206665	-1.1343536	-1.6100922
909762192152978	1.6964264	-0.37442017	-1.5172424
909762196364404	1.7379608	0.24862671	-1.409729
909762201399804	1.7453003	0.7080078	-1.2985535
909762207350732	1.7245331	1.0060883	-1.1947174
909762211470605	1.6768799	1.1588135	-1.1006317
909762214858056	1.6060181	1.1881409	-1.0200043
909762221541406	1.5095062	1.117279	-0.95770264
909762226546289	1.3885651	0.9767914	-0.91737366
909762231612207	1.2492676	0.80940247	-0.8929291
909762236647607	1.1014557	0.6518097	-0.8733978
909762242171289	0.94873047	0.51864624	-0.84773254
909762246718408	0.7984619	0.40501404	-0.8123169
909762251753808	0.6530762	0.2987213	-0.7622223
909762257491113	0.51501465	0.19120789	-0.69992065
909762261855127	0.38796997	0.08615112	-0.62294006
909762265181543	0.38796997	-0.0042419434	-0.62294006
909762271864892	0.27311707	-0.0042419434	-0.53497314
909762276900293	0.169281	-0.065338135	-0.44334412
909762281966211	0.07763672	-0.08366394	-0.3565979
909762286971093	6.713867E-4	-0.044555664	-0.28207397
909762292708398	-0.060394287	0.05683899	-0.22341919
909762297133447	-0.10316467	0.21685791	-0.18312073
909762302077294	-0.1312561	0.42089844	-0.1574707
909762307814599	-0.15080261	0.6395874	-0.1415863
909762312148095	-0.17034912	0.8436127	-0.1244812
909762315535546	-0.19477844	1.0110016	-0.09637451
909762322218896	-0.22166443	1.1295013	-0.053619385
909762327284814	-0.24855042	1.1954803	0.0025787354
909762332289697	-0.2778778	1.2089081	0.06732178
909762337386132	-0.31085205	1.1808014	0.1394043
909762342818261	-0.34994507	1.1233978	0.21635437
909762347426416	-0.39759827	1.052536	0.29333496
909762352431298	-0.4537964	0.98287964	0.36175537
909762357954980	-0.517334	0.9266968	0.41551208
909762362502099	-0.58818054	0.8937073	0.4521637
909762365859033	-0.58818054	0.8827057	0.4521637
909762372633935	-0.72746277	0.8827057	0.5095825
909762377638818	-0.7799988	0.8961487	0.54989624
909762382643701	-0.812973	0.9095917	0.60365295
909762387709619	-0.8288574	0.9193573	0.6671753
909762393263818	-0.827652	0.9230194	0.7307129
909762397780419	-0.8117676	0.9095917	0.7771454
909762402815820	-0.77388	0.85827637	0.7808075
909762408705712	-0.7005768	0.73487854	0.7197113
909762412886621	-0.7005768	0.5015259	0.7197113
909762416243554	-0.57595825	0.5015259	0.57922363
909762422987939	-0.3914795	0.12890625	0.36053467
909762427962304	-0.15814209	-0.36709595	0.08564758
909762433028222	0.095962524	-0.9205475	-0.20021057
909762438063623	0.3390808	-1.4189911	-0.4409027
909762443800927	0.55410767	-1.7586517	-0.58750916
909762448134423	0.736145	-1.8661652	-0.62538147
909762453169824	0.88520813	-1.7183228	-0.58628845
909762458907128	1.0000458	-1.3261566	-0.52397156
909762463240625	1.0696869	-0.74217224	-0.47631836
909762466567041	1.0794525	-0.05067444	-0.45310974
909762473311425	1.0171509	0.6420288	-0.4409027
909762478316308	0.88153076	1.2370148	-0.4237976
909762483382226	0.6860504	1.6658325	-0.39448547
909762488387109	0.44903564	1.9065247	-0.35049438
909762493758203	0.19248962	1.9761505	-0.29795837
909762498457910	-0.0652771	1.9065247	-0.24298096
909762503493310	-0.30596924	1.7269287	-0.18800354
909762508833886	-0.5197754	1.4642487	-0.13302612
909762513564111	-0.6981354	1.144165	-0.081710815
909762516921044	-0.6981354	0.7959595	-0.081710815
909762523665429	-0.9681244	0.7959595	0.01966858
909762528700830	-1.070755	0.14234924	0.0770874
909762533705712	-1.1575165	-0.1239624	0.1418457
909762538741113	-1.2320251	-0.34144592	0.21147156
909762544631005	-1.3016815	-0.5088196	0.28723145
909762548811914	-1.3761902	-0.62976074	0.3703003
909762553877832	-1.3761902	-0.71650696	0.4656067
909762559401513	-1.5276947	-0.79470825	0.5780029
909762563948632	-1.5276947	-0.8936615	0.5780029
909762567244531	-1.5777893	-0.8936615	0.7099457
909762574049951	-1.5802307	-1.0353699	0.86021423
909762579024316	-1.4996033	-1.2455139	1.0227051
909762584059716	-1.3077698	-1.5509491	1.175415
909762589125634	-0.9913635	-1.9687805	1.2780457
909762594588281	-0.5723114	-2.46846	1.2731628
909762599196435	-0.116607666	-2.9437103	1.1143341
909762604231836	0.2841034	-3.2357178	0.7979126
909762609938623	0.54190063	-3.2051697	0.39230347
909762614302636	0.6151886	-2.8129883	0.007461548
909762617629052	0.51745605	-2.1532593	-0.26374817
909762624342919	0.3183136	-1.3982239	-0.3847046
909762629408837	0.092300415	-0.72262573	-0.373703
909762634413720	-0.10437012	-0.24247742	-0.2710724
909762639449121	-0.24731445	0.009185791	-0.11592102
909762645155908	-0.33650208	0.051956177	0.0599823
909762649580957	-0.38781738	-0.07144165	0.23469543
909762654555322	-0.41592407	-0.30967712	0.3996277
909762660323144	-0.4403534	-0.6065521	0.5608978
909762664626123	-0.47576904	-0.9009857	0.7258301
909762668013574	-0.47576904	-1.1306763	0.7258301
909762674696923	-0.5979614	-1.1306763	1.0495911
909762679762841	-0.682251	-1.2296295	1.1937408
909762684798242	-0.77511597	-1.0867004	1.3281403
909762689833642	-0.8704071	-0.8508911	1.4515228
909762695601464	-0.95591736	-0.5601349	1.5578156
909762699873925	-0.95591736	-0.24736023	1.6347961
909762704909326	-1.0243378	-0.24736023	1.6347961
909762710280419	-1.0695496	0.066604614	1.6824493
909762715010644	-1.0890808	0.37080383	1.7093048
909762718428613	-1.085434	0.6566925	1.7264252
909762725081445	-1.0573273	0.9169159	1.744751
909762730116845	-1.006012	1.1417084	1.7630768
909762735121728	-0.93392944	1.323761	1.7716217
909762740187646	-0.8435211	1.4581451	1.7593994
909762745680810	-0.73846436	1.5497742	1.719101
909762750227929	-0.63705444	1.6132965	1.6445618
909762755263330	-0.58695984	1.6609497	1.5321655
909762760787011	-0.64927673	1.6658325	1.3843384
909762765334130	-0.8569641	1.5632172	1.215744
909762768813134	-1.1709442	1.3066406	1.0422516
909762775435449	-1.5044861	0.9193573	0.87609863
909762780440332	-1.7781525	0.5039673	0.71606445
909762785475732	-1.9503937	0.16799927	0.55355835
909762790511132	-2.0224915	-0.03479004	0.38006592
909762795882226	-2.0114899	-0.100753784	0.19438171
909762800581933	-1.9357452	-0.060440063	0.0037841797
909762805647851	-1.8160095	0.044631958	-0.17579651
909762810957910	-1.6632996	0.17655945	-0.33094788
909762815688134	-1.4934845	0.30239868	-0.44578552
909762819106103	-1.4934845	0.39768982	-0.44578552
909762825789453	-1.1428375	0.39768982	-0.52153015
909762830794336	-0.98280334	0.45022583	-0.4836731
909762835860253	-0.8447418	0.40013123	-0.4066925
909762840895654	-0.7311096	0.29751587	-0.3052826
909762846632959	-0.64315796	0.14479065	-0.19288635
909762850966455	-0.64315796	-0.049453735	-0.19288635
909762855971337	-0.5796356	-0.049453735	-0.08415222
909762861311914	-0.5405426	-0.2718048	0.008666992
909762866042138	-0.5246582	-0.5014801	0.06732178
909762869460107	-0.52586365	-0.70918274	0.08442688
909762876112939	-0.5405426	-0.8692169	0.061203003
909762881178857	-0.5649719	-0.9596405	0.01234436
909762886214257	-0.59428406	-0.97673035	-0.03529358
909762891280175	-0.61994934	-0.9315338	-0.052383423
909762897078515	-0.63339233	-0.8374481	-0.029174805
909762901289941	-0.63217163	-0.7042999	0.030670166
909762906325341	-0.61750793	-0.5320282	0.11129761
909762911818505	-0.5906372	-0.32432556	0.19682312
909762916396142	-0.55274963	-0.101989746	0.27378845
909762920088769	-0.502655	0.11302185	0.33120728
909762926497461	-0.4403534	0.29995728	0.3690796
909762931532861	-0.36949158	0.44532776	0.38742065
909762936537744	-0.29740906	0.5455017	0.3935089
909762941573144	-0.23022461	0.5980377	0.3910675
909762947096826	-0.17279053	0.6004944	0.38252258
909762951674462	-0.12637329	0.55529785	0.3678589
909762956709863	-0.09460449	0.46731567	0.34342957
909762962203027	-0.0811615	0.35125732	0.30311584
909762966811181	-0.08850098	0.22053528	0.24568176
909762970351220	-0.08850098	0.08491516	0.24568176
909762976820947	-0.18013	0.08491516	0.10397339
909762981856347	-0.26931763	-0.18139648	0.03677368
909762986891748	-0.3890381	-0.29867554	-0.023086548
909762991957666	-0.3890381	-0.39518738	-0.023086548
909762997267724	-0.530777	-0.39518738	-0.13058472
909763002028466	-0.6798096	-0.4660492	-0.13058472
909763007033349	-0.8203125	-0.511261	-0.17211914
909763012465478	-0.9388275	-0.5356903	-0.20265198
909763017134668	-1.0280151	-0.5405731	-0.22709656
909763020674707	-1.0829926	-0.5222626	-0.25274658
909763027174951	-1.0988617	-0.47827148	-0.28330994
909763032240869	-1.0817566	-0.41474915	-0.321167
909763037276269	-1.0377808	-0.34877014	-0.36393738
909763042281152	-0.9766846	-0.29867554	-0.4042511
909763047621728	-0.9095001	-0.2730255	-0.4360199
909763052382470	-0.8410797	-0.266922	-0.4494629
909763057448388	-0.77388	-0.2681427	-0.44456482
909763063307763	-0.7103424	-0.2705841	-0.4250183
909763067488671	-0.65415955	-0.2718048	-0.39448547
909763071028711	-0.60772705	-0.27668762	-0.3541565
909763077559472	-0.5747528	-0.29135132	-0.30039978
909763082594873	-0.55274963	-0.32188416	-0.22709656
909763087630273	-0.53686523	-0.37321472	-0.13302612
909763092635156	-0.517334	-0.44528198	-0.02796936
909763098586084	-0.48068237	-0.5283661	0.07342529
909763102736474	-0.41714478	-0.60287476	0.16137695
909763107741357	-0.31817627	-0.64808655	0.23103333
909763113234521	-0.18867493	-0.65052795	0.28356934
909763117812158	-0.03352356	-0.59799194	0.31900024
909763122115136	-0.03352356	-0.48927307	0.31900024
909763127913476	0.29510498	-0.48927307	0.32998657
909763132918359	0.29510498	-0.15084839	0.30555725
909763137953759	0.44415283	0.027511597	0.30555725
909763142989160	0.57121277	0.027511597	0.26400757
909763148543359	0.6738434	0.18876648	0.14550781
909763153090478	0.75691223	0.33537292	0.14550781
909763158125878	0.82533264	0.4721985	0.06976318
909763163496972	0.88764954	0.6078186	-0.01574707
909763168166162	0.9572754	0.7446594	-0.109817505
909763171889306	1.0440216	0.8827057	-0.21244812
909763178267480	1.1527557	1.02565	-0.32240295
909763183272363	1.278595	1.1832428	-0.4335785
909763188307763	1.4093323	1.361618	-0.53375244
909763193343164	1.5400391	1.5509949	-0.6143799
909763199080468	1.6695557	1.7244873	-0.6754761
909763203475000	1.797821	1.852768	-0.71824646
909763208449365	1.9212189	1.9162903	-0.7512207
909763214186669	2.0397186	1.9114075	-0.7829895
909763218550683	2.1570282	1.8442078	-0.8196411
909763222640039	2.2840729	1.7195892	-0.8709564
909763228590966	2.4294586	1.541214	-0.94181824
909763233626367	2.5907288	1.3176422	-1.0273285
909763238661767	2.7507782	1.065979	-1.1165161
909763243788720	2.8900452	0.8032837	-1.1873627
909763249220849	2.987793	0.54185486	-1.2130432
909763253798486	3.0329895	0.27427673	-1.1727142
909763258803369	3.0195465	-0.010345459	-1.0529785
909763264174462	2.9535828	-0.33044434	-0.8575134
909763268904687	2.842392	-0.70062256	-0.60583496
909763272933007	2.842392	-1.1343536	-0.60583496
909763279006005	2.6872406	-1.1343536	-0.0927124
909763283980371	2.4783325	-2.155716	-0.0927124
909763289015771	2.2022095	-2.155716	0.08320618
909763294081689	1.8638	-2.6676025	0.1552887
909763299574853	1.5021667	-3.1184235	0.0929718
909763304121972	1.1747589	-3.4886017	-0.11714172
909763309157373	0.93040466	-3.7732544	-0.46043396
909763314650537	0.7862396	-3.9577484	-0.8733978
909763319228173	0.7337036	-4.004181	-1.2619019
909763323439599	0.7654724	-3.8710022	-1.553894
909763329298974	0.86932373	-3.5423584	-1.7286072
909763334334375	1.0293579	-3.0353546	-1.811676
909763339369775	1.2114105	-2.4012604	-1.8324432
909763344435693	1.3848877	-1.7073364	-1.8006744
909763349745752	1.5290527	-1.0292816	-1.7224884
909763354475976	1.6365509	-0.43917847	-1.602768
909763359541894	1.7049713	0.018966675	-1.4573822
909763364851953	1.7355194	0.33293152	-1.3009949
909763369582177	1.7281952	0.5112915	-1.1495056
909763373793603	1.6854401	0.5748291	-1.0187683
909763379652978	1.6109009	0.5516205	-0.921051
909763384688378	1.5095062	0.46975708	-0.855072
909763389723779	1.3800049	0.35858154	-0.8123169
909763394759179	1.226059	0.24008179	-0.78175354
909763400496484	1.0513611	0.13134766	-0.7609863
909763404860498	0.8668823	0.047073364	-0.7463379
909763409834863	0.68240356	-0.010345459	-0.7353363
909763415144921	0.505249	-0.04333496	-0.72068787
909763419966699	0.33787537	-0.06410217	-0.69992065
909763424178125	0.33787537	-0.08366394	-0.69992065
909763430006982	0.18269348	-0.08366394	-0.6717987
909763435042382	0.043426514	-0.1056366	-0.63882446
909763440108300	-0.07627869	-0.12640381	-0.5960541
909763445174218	-0.17156982	-0.13252258	-0.53985596
909763450942041	-0.2436676	-0.11175537	-0.47143555
909763455183984	-0.29740906	-0.05555725	-0.3895874
909763460219384	-0.33529663	0.038513184	-0.29795837
909763465682031	-0.3572693	0.17044067	-0.20144653
909763470320703	-0.36216736	0.3366089	-0.10371399
909763474898339	-0.34628296	0.5247345	-0.014541626
909763480391503	-0.30963135	0.7190094	0.06364441
909763485426904	-0.259552	0.9022522	0.12840271
909763490462304	-0.20701599	1.0635376	0.17849731
909763495467187	-0.1618042	1.1979218	0.21026611
909763501296044	-0.12515259	1.3066406	0.2212677
909763505537988	-0.099487305	1.4031677	0.21391296
909763510603906	-0.083602905	1.5057983	0.19558716
909763515913964	-0.079956055	1.6304016	0.18826294
909763520644189	-0.08728027	1.7770233	0.21759033
909763525130273	-0.10437012	1.9248505	0.30065918
909763530745507	-0.1288147	2.0470123	0.4362793
909763535750390	-0.15692139	2.1190948	0.60121155
909763540816308	-0.18867493	2.1313171	0.7624817
909763545821191	-0.22410583	2.0922241	0.88830566
909763551192285	-0.2619934	2.0152435	0.9616089
909763555922509	-0.29740906	1.9101715	0.97384644
909763560927392	-0.32305908	1.7672272	0.92375183
909763566329003	-0.32673645	1.5595398	0.8125763
909763571028711	-0.32673645	1.244339	0.8125763
909763575057031	-0.29008484	1.244339	0.64030457
909763581068994	-0.18623352	0.7715454	0.41427612
909763586104394	-0.0017700195	0.122802734	0.14672852
909763591170312	0.24623108	-0.6517639	-0.1244812
909763596236230	0.50891113	-1.4129028	-0.34805298
909763602065087	0.7337036	-1.9785461	-0.47631836
909763606276513	0.8803253	-2.181366	-0.50564575
909763611281396	0.93774414	-1.9309082	-0.47387695
909763616621972	0.91085815	-1.2333069	-0.43966675
909763621352197	0.81555176	-0.18873596	-0.4335785
909763625533105	0.6677246	1.0183258	-0.44578552
909763631453515	0.47958374	2.1691895	-0.44822693
909763636580468	0.26211548	3.0781555	-0.4237976
909763641524316	0.032440186	3.6364746	-0.3724823
909763646529199	-0.18989563	3.831955	-0.31506348
909763652419091	-0.38781738	3.7195587	-0.26986694
909763656600000	-0.5503082	3.381134	-0.24177551
909763661635400	-0.67614746	2.8985596	-0.23077393
909763667067529	-0.77388	2.3267975	-0.22709656
909763671736718	-0.853302	1.707367	-0.22465515
909763676253320	-0.9253845	1.0830688	-0.21365356
909763681777002	-1.006012	0.5064087	-0.18432617
909763686781884	-1.1049652	0.027511597	-0.122024536
909763691878320	-1.2259369	-0.33044434	-0.0096588135
909763696913720	-1.3664246	-0.5809021	0.16137695
909763702773095	-1.5228119	-0.76660156	0.39474487
909763706954003	-1.6865234	-0.92663574	0.69285583
909763712019921	-1.6865234	-1.097702	1.0544739
909763717360498	-1.9650726	-1.2956085	1.4784088
909763722060205	-1.9650726	-1.5314026	1.4784088
909763726576806	-1.9785156	-1.5314026	1.9451141
909763732131005	-1.7146149	-1.9052582	2.3910522
909763737166406	-1.0536652	-2.6163025	2.7013702
909763742232324	-0.1288147	-3.732956	2.7331238
909763747237207	0.6738434	-4.9265747	2.4020233
909763752974511	1.0110321	-5.572876	1.756958
909763757369043	0.84365845	-5.2515564	0.97872925
909763762343408	0.39161682	-4.0933685	0.27989197
909763768080712	-0.10072327	-2.617508	-0.19900513
909763772414209	-0.5087738	-1.3114777	-0.43722534
909763776991845	-0.7983246	-0.39762878	-0.4885559
909763782485009	-0.9766846	0.11668396	-0.4335785
909763787550927	-1.0634308	0.31704712	-0.32972717
909763792555810	-1.0756531	0.29016113	-0.21121216
909763797652246	-1.0292206	0.10813904	-0.08782959
909763803114892	-0.9412689	-0.17529297	0.037994385
909763807662011	-0.8312988	-0.50393677	0.17726135
909763812697412	-0.7127991	-0.821579	0.34587097
909763818007470	-0.5930786	-1.070816	0.54989624
909763822798730	-0.47332764	-1.2100983	0.7820282
909763827315332	-0.35850525	-1.2223053	1.0227051
909763832869531	-0.25099182	-1.1062317	1.2499542
909763837996484	-0.15692139	-0.87409973	1.447876
909763842940332	-0.079956055	-0.5418091	1.6115875
909763847945214	-0.02619934	-0.13496399	1.7410736
909763853499414	0.004333496	0.31704712	1.8412628
909763858046533	0.004333496	0.7800751	1.9157867
909763863081933	0.015335083	0.7800751	1.9157867
909763868422509	0.012893677	1.2406616	1.96344
909763873152734	0.0067749023	1.6976013	1.9707642
909763877882959	6.713867E-4	2.1630707	1.923111
909763883223535	0.0018920898	2.6456604	1.8107147
909763888228418	6.713867E-4	3.1343536	1.6347961
909763893263818	-0.04208374	3.5851593	1.4124298
909763898299218	-0.18379211	3.9040375	1.1742096
909763903639794	-0.4586792	3.9761047	0.94696045
909763908431054	-0.839859	3.7366486	0.7429352
909763913435937	-1.2467041	3.2333221	0.55355835
909763918837548	-1.5924377	2.6114502	0.36297607
909763923476220	-1.8343353	2.0213623	0.16873169
909763926863671	-1.9699554	1.5436554	-0.021850586
909763933547021	-2.0163727	1.1832428	-0.19288635
909763938582421	-1.9919586	0.9156952	-0.33461
909763943648339	-1.9125366	0.7214508	-0.44210815
909763948653222	-1.7940369	0.5833893	-0.51052856
909763954390527	-1.6559601	0.48075867	-0.5410919
909763958754541	-1.5166931	0.39768982	-0.5362091
909763963820459	-1.3859711	0.31828308	-0.50320435
909763969130517	-1.2674713	0.23518372	-0.45066833
909763973860742	-1.1587219	0.15089417	-0.37980652
909763977217675	-1.1587219	0.07392883	-0.37980652
909763983962060	-0.9730377	0.07392883	-0.17700195
909763988966943	-0.9070587	-0.048217773	-0.052383423
909763994002343	-0.8594055	-0.101989746	0.058761597
909763999098779	-0.8239746	-0.15696716	0.13572693
909764004988671	-0.7946472	-0.21560669	0.17237854
909764009108544	-0.7946472	-0.27668762	0.17237854
909764014143945	-0.76779175	-0.27668762	0.18338013
909764019637109	-0.746994	-0.33288574	0.1894989
909764024214746	-0.734787	-0.37809753	0.2029419
909764027541162	-0.7323456	-0.4025421	0.22491455
909764034316064	-0.73358154	-0.4000702	0.24691772
909764039320947	-0.73358154	-0.36709595	0.26280212
909764044356347	-0.7286682	-0.29623413	0.26524353
909764049391748	-0.7164612	-0.18385315	0.24935913
909764055281640	-0.69937134	-0.029907227	0.21635437
909764060835839	-0.68348694	0.14967346	0.16629028
909764064528466	-0.668808	0.3292694	0.10519409
909764069991113	-0.65538025	0.48320007	0.045318604
909764074538232	-0.63827515	0.58950806	1.373291E-4
909764077895166	-0.61260986	0.6334839	-0.018188477
909764084639550	-0.57595825	0.6053772	-0.013305664
909764089644433	-0.5356598	0.5088501	0.006225586
909764094679834	-0.49409485	0.3598175	0.030670166
909764099715234	-0.4574585	0.17532349	0.05265808
909764105055810	-0.4269104	-0.027450562	0.06732178
909764109847070	-0.40370178	-0.23149109	0.0758667
909764114821435	-0.3927002	-0.42451477	0.07952881
909764120558740	-0.40003967	-0.5992279	0.08442688
909764124892236	-0.42814636	-0.75071716	0.0917511
909764128279687	-0.42814636	-0.87657166	0.0917511
909764134963037	-0.5503082	-0.87657166	0.1247406
909764140028955	-0.63949585	-1.0366058	0.14305115
909764145033837	-0.74090576	-1.0732574	0.15284729
909764150099755	-0.74090576	-1.079361	0.15284729
909764155928613	-0.9449158	-1.079361	0.10397339
909764160170556	-0.9449158	-0.9633026	0.10397339
909764165175439	-1.018219	-0.9633026	0.039215088
909764170516015	-1.0524292	-0.8142395	-0.04017639
909764175276757	-1.046341	-0.60043335	-0.11714172
909764178633691	-1.0072479	-0.33532715	-0.17823792
909764185347558	-0.94247437	-0.04701233	-0.21244812
909764190382959	-0.8618469	0.23518372	-0.22097778
909764195418359	-0.7787628	0.48443604	-0.20756531
909764200453759	-0.70181274	0.6847992	-0.17700195
909764206343652	-0.63949585	0.8167267	-0.13058472
909764210524560	-0.58940125	0.8668213	-0.07316589
909764215559961	-0.5466461	0.8277283	-0.008422852
909764221510888	-0.5063324	0.69944763	0.053878784
909764225630761	-0.46235657	0.4929657	0.10397339
909764228957177	-0.41226196	0.24008179	0.13328552
909764235732080	-0.35116577	-0.01890564	0.1418457
909764240706445	-0.2803192	-0.24125671	0.13452148
909764245802880	-0.20089722	-0.40618896	0.1247406
909764250807763	-0.12149048	-0.5124817	0.122283936
909764256667138	-0.043319702	-0.5723419	0.13084412
909764260909082	0.03488159	-0.5894623	0.14794922
909764265944482	0.11795044	-0.5699005	0.16629028
909764271010400	0.20593262	-0.5185852	0.17726135
909764276015283	0.30366516	-0.43917847	0.17481995
909764279372216	0.30366516	-0.32922363	0.17481995
909764286086084	0.52479553	-0.32922363	0.1076355
909764291060449	0.52479553	-0.020126343	0.037994385
909764296156884	0.644516	0.17166138	0.037994385
909764301161767	0.7679138	0.17166138	-0.054840088
909764306929589	1.0550079	0.38058472	-0.27474976
909764311324121	1.0550079	0.8607178	-0.27474976
909764316237451	1.2199554	0.8607178	-0.3895874
909764322005273	1.3934479	1.139267	-0.5019989
909764326308252	1.5693665	1.4300385	-0.60705566
909764329726220	1.7440643	1.7134857	-0.70480347
909764336379052	1.9077759	1.9675903	-0.7964325
909764341444970	2.0543976	2.1765137	-0.8868408
909764346480371	2.1777954	2.332901	-0.9723511
909764351637841	2.2730865	2.4330902	-1.0456543
909764357039453	2.3463898	2.4721832	-1.0969696
909764361586572	2.4086914	2.45018	-1.1165161
909764366591455	2.4685516	2.3658905	-1.1030731
909764372511865	2.5308685	2.219284	-1.0578766
909764376692773	2.5944061	2.0079193	-0.9906769
909764379988671	2.6567078	1.7281342	-0.90393066
909764386794091	2.7104492	1.3799438	-0.7878723
909764391829492	2.7507782	0.9621124	-0.6278229
909764396803857	2.772766	0.47587585	-0.4152527
909764401839257	2.7752075	-0.0897522	-0.1574707
909764407729150	2.7568817	-0.74949646	0.122283936
909764411910058	2.6982422	-1.5106354	0.39230347
909764416975976	2.5675201	-2.3634033	0.60731506
909764422957421	2.328064	-3.26503	0.73194885
909764427046777	1.9627533	-4.133667	0.7441559
909764430342675	1.9627533	-4.8581543	0.7441559
909764437117578	1.4960632	-4.8581543	0.3996277
909764442122461	0.980484	-5.33342	0.3996277
909764447188378	0.50157166	-5.500778	0.057540894
909764452193261	0.15216064	-5.3871613	-0.36271667
909764457564355	0.005554199	-5.0854034	-0.8049774
909764462508203	0.060531616	-4.693222	-1.2020416
909764467299462	0.25967407	-4.2460785	-1.4964752
909764472548486	0.51989746	-3.7243958	-1.667511
909764477400781	0.79112244	-3.1172028	-1.7359314
909764480727197	1.0476837	-2.4623566	-1.73349
909764487441064	1.27005	-1.8295135	-1.6895142
909764492476464	1.4459839	-1.2711792	-1.6186523
909764497542382	1.5681305	-0.8044739	-1.528244
909764502791406	1.632904	-0.42451477	-1.4268188
909764507918359	1.6439056	-0.11907959	-1.3205414
909764512892724	1.6084595	0.12524414	-1.2154846
909764517683984	1.536377	0.3097229	-1.1226196
909764523543359	1.4398651	0.43922424	-1.0493317
909764527754785	1.3262329	0.52108765	-1.0004425
909764531081201	1.2028503	0.5638275	-0.97602844
909764537795068	1.0721283	0.57362366	-0.9723511
909764542860986	0.93530273	0.5540619	-0.9772339
909764547896386	0.7960205	0.50764465	-0.98091125
909764553206445	0.65919495	0.43190002	-0.9686737
909764558455468	0.52723694	0.3292694	-0.9295807
909764563124658	0.4050598	0.21565247	-0.8562927
909764568007470	0.29388428	0.11180115	-0.7512207
909764574110986	0.19369507	0.039733887	-0.6266022
909764578078271	0.10206604	0.016525269	-0.4971161
909764581435205	0.10206604	0.044631958	-0.4971161
909764588179589	0.018997192	0.044631958	-0.3749237
909764593214990	-0.05795288	0.12400818	-0.26618958
909764598250390	-0.1288147	0.24986267	-0.17823792
909764603285791	-0.19233704	0.40989685	-0.11103821
909764609114648	-0.24731445	0.5809479	-0.06338501
909764613326074	-0.29008484	0.74098206	-0.025527954
909764618361474	-0.32305908	0.86561584	0.014785767
909764624495507	-0.35116577	0.9437866	0.06364441
909764628462793	-0.38049316	0.973114	0.1247406
909764631789209	-0.41226196	0.96455383	0.19438171
909764638533593	-0.44647217	0.934021	0.26768494
909764643538476	-0.48312378	0.8985901	0.33732605
909764648573877	-0.5197754	0.87294006	0.4032898
909764653609277	-0.55519104	0.8668213	0.46681213
909764658949853	-0.58818054	0.8790436	0.5279083
909764664107324	-0.61628723	0.8973694	0.58898926
909764668745996	-0.64071655	0.9156952	0.65252686
909764673995019	-0.65904236	0.9242554	0.7221527
909764678786279	-0.668808	0.9193573	0.7966919
909764682173730	-0.668808	0.8937073	0.7966919
909764688887597	-0.65904236	0.8937073	0.90419006
909764693892480	-0.63705444	0.74098206	0.89686584
909764698927880	-0.59672546	0.5980377	0.8235626
909764704390527	-0.5246582	0.39157104	0.66596985
909764709822656	-0.40248108	0.098358154	0.4093933
909764714308740	-0.21922302	-0.31211853	0.062438965
909764719069482	0.015335083	-0.8362427	-0.32606506
909764724135400	0.26823425	-1.4055786	-0.6669159
909764729170800	0.26823425	-1.8783722	-0.6669159
909764732466699	0.49790955	-1.8783722	-0.87828064
909764739211084	0.6750488	-2.089737	-0.9320221
909764744277002	0.78990173	-1.9187012	-0.87583923
909764749281884	0.84487915	-1.340805	-0.77931213
909764754408837	0.84732056	-0.43551636	-0.68647766
909764759810449	0.7984619	0.6420288	-0.5960541
909764764693261	0.7019348	1.7012634	-0.4909973
909764769423486	0.56144714	2.57724	-0.36393738
909764774672509	0.39649963	3.172226	-0.22709656
909764779494287	0.22914124	3.4629822	-0.10491943
909764782851220	0.08253479	3.4898682	-0.01574707
909764789595605	-0.03352356	3.3188324	0.02822876
909764794661523	-0.12637329	3.0170746	0.02822876
909764799666406	-0.20333862	2.6358795	-0.007217407
909764804823877	-0.2803192	2.205841	-0.06338501
909764810194970	-0.36949158	1.7525787	-0.11836243
909764815596582	-0.48188782	1.298111	-0.15135193
909764819808007	-0.62361145	0.86561584	-0.14279175
909764825423242	-0.7922058	0.46975708	-0.08294678
909764829909326	-0.9815674	0.10935974	0.034332275
909764833235742	-0.9815674	-0.22903442	0.034332275
909764839919091	-1.3847504	-0.22903442	0.44360352
909764845076562	-1.5704498	-0.90830994	0.7380371
