accelerometer_timestamp	accelerometer_x_data	accelerometer_y_data	accelerometer_z_data
1443114837063896000	-0.48954773	10.709244	1.9899292
1443114837072288334	-0.4759369	11.000641	1.1455688
1443114837080680668	-0.28303528	10.601944	0.88342285
1443114837089073002	0.0048675537	10.016098	0.7346039
1443114837097465336	0.24334717	9.765381	0.34544373
1443114837105857670	0.07545471	9.411591	0.7119293
1443114837114250004	0.09190369	9.056885	-0.18771362
1443114837122642338	0.004989624	8.504044	-0.9552765
1443114837131034671	0.09025574	7.9049377	-0.24417114
1443114837139427005	0.068099976	7.2900543	0.460083
1443114837147819339	0.050872803	6.5127716	0.60575867
1443114837156211673	0.12825012	5.586441	0.5480957
1443114837164604007	0.08244324	4.7975616	0.82943726
1443114837172996341	-0.18304443	4.0540314	1.2965851
1443114837181388675	-0.56321716	3.4330902	1.9159393
1443114837189781009	-0.96487427	3.1965485	2.4267883
1443114837198173343	-1.1902008	3.030365	2.6859589
1443114837206565677	-1.2960358	2.9304352	2.7282104
1443114837214958011	-1.470459	3.181076	2.679779
1443114837223350345	-1.4954529	3.524231	2.551422
1443114837231742679	-1.4728394	3.7812805	2.5051727
1443114837240135013	-1.4782257	3.9692078	2.6417542
1443114837248527347	-1.4602356	4.123123	2.7806854
1443114837256919681	-1.4029999	4.1566925	2.9098969
1443114837265312015	-1.3136444	4.078018	3.0673218
1443114837273704349	-1.1950531	3.9451752	3.2718658
1443114837282096683	-1.0093536	3.6831055	3.4970245
1443114837290489017	-0.62275696	3.6070251	3.9648438
1443114837298881351	-0.12805176	3.6623077	4.473755
1443114837307273685	0.3887329	3.8845978	5.1317596
1443114837315666019	0.7163391	4.2836914	5.9964905
1443114837324058353	1.0451813	4.9455414	7.0703583
1443114837332450687	1.7038727	6.1316833	8.141739
1443114837340843021	2.5970612	8.29512	8.663559
1443114837349235355	3.6766357	11.4392395	8.620392
1443114837357627689	4.6485596	15.34967	8.78154
1443114837366020023	5.5554657	19.702698	9.665817
1443114837374412357	6.316681	23.044647	10.333847
1443114837382804691	6.6295776	23.516586	9.928741
1443114837391197025	6.200485	20.178635	8.6987915
1443114837399589359	5.0422516	14.226669	8.294586
1443114837407981693	3.392044	8.88533	8.705841
1443114837416374027	2.1728668	5.765274	8.032547
1443114837424766361	0.75845337	4.435364	7.3932037
1443114837433158695	-0.74850464	4.5008545	6.9727325
1443114837441551029	-2.1490173	5.5249786	6.4601746
1443114837449943363	-3.2628326	7.136261	5.526184
1443114837458335697	-3.9601593	9.242203	4.1459045
1443114837466728031	-4.2727203	13.017624	1.8037567
1443114837475120365	-4.7828064	17.701874	-0.10726929
1443114837483512699	-5.549118	21.679062	-1.86232
1443114837491905033	-4.518921	22.75998	-1.928299
1443114837500297367	-1.818924	20.335129	-0.2739563
1443114837508689701	1.2823334	14.226273	2.2859497
1443114837517082035	1.7840729	8.211502	2.6427155
1443114837525474369	1.1519318	5.2241516	1.846283
1443114837533866703	0.48181152	3.2725525	1.2832489
1443114837542259037	-0.59039307	1.6279907	1.2601318
1443114837550651371	-1.4316406	0.50276184	1.3019409
1443114837559043705	-1.9937744	-0.020690918	0.7932739
1443114837567436039	-2.441101	0.3874054	-0.74464417
1443114837575828373	-2.3960876	2.3618927	-3.0735168
1443114837584220707	-1.8192902	5.0957794	-4.568466
1443114837592613041	-1.2789154	7.7533417	-5.0173492
1443114837601005375	-0.09649658	10.630264	-4.631912
1443114837609397709	1.8265991	12.818619	-3.7762756
1443114837617790043	3.094162	14.490814	-2.0368347
1443114837626182377	2.8602905	16.125397	1.0074615
1443114837634574711	4.536499	15.769119	3.8771057
1443114837642967045	5.476242	15.195389	4.464203
1443114837651359379	5.3580017	13.661179	3.6238098
1443114837659751713	3.5526123	11.565918	2.634903
1443114837668144046	2.090332	9.563446	1.6653748
1443114837676536380	1.4763794	8.137436	0.62983704
1443114837684928714	0.78549194	7.3749695	-0.50712585
1443114837693321048	-0.031280518	6.936371	-1.6380768
1443114837701713382	-0.24821472	6.6649323	-1.6185303
1443114837710105716	0.22337341	6.367264	-1.1629028
1443114837718498050	0.78666687	6.575699	-0.63526917
1443114837726890384	1.4064636	7.084244	-0.07824707
1443114837735282718	2.0122986	7.572754	0.22772217
1443114837743675052	2.4621124	7.93544	0.17243958
1443114837752067386	2.6686249	8.406372	0.34724426
1443114837760459720	2.3735504	8.924561	0.6783142
1443114837768852054	2.0839996	9.299622	0.58828735
1443114837777244388	1.9446106	9.311798	0.35609436
1443114837785636722	1.8287506	8.989151	0.15144348
1443114837794029056	1.5375366	8.529526	-0.07347107
1443114837802421390	1.0430298	8.071686	-0.45339966
1443114837810813724	0.61854553	7.5404205	-0.9994507
1443114837819206058	0.3378601	7.166168	-1.3808899
1443114837827598392	0.5678253	7.018036	-1.2554626
1443114837835990726	0.46673584	7.5924835	-1.2315826
1443114837844383060	0.6915741	8.445984	-1.1551056
1443114837852775394	1.1135406	9.295685	-0.7394867
1443114837861167728	1.2921753	9.963745	0.13949585
1443114837869560062	1.2280426	10.217712	1.2607727
1443114837877952396	1.1509247	10.05629	2.0000153
1443114837886344730	1.3947449	9.614304	2.0205536
1443114837894737064	1.8695068	9.5529175	1.4739532
1443114837903129398	2.3300323	9.954712	0.954895
1443114837911521732	2.7312164	10.68634	0.57414246
1443114837919914066	3.0847168	11.547562	0.2019043
1443114837928306400	3.3006287	11.944443	-0.3491974
1443114837936698734	3.6501923	11.797058	-0.83013916
1443114837945091068	3.9987946	11.651978	-0.45420837
1443114837953483402	3.822281	11.757111	0.37528992
1443114837961875736	3.2008667	12.005371	0.9505615
1443114837970268070	2.4083405	12.388275	1.1665344
1443114837978660404	1.9283905	12.851227	1.4290924
1443114837987052738	1.8098297	13.146576	1.9704437
1443114837995445072	1.6741028	13.067413	2.48555
1443114838003837406	1.7246552	13.159576	2.4524078
1443114838012229740	1.8488159	13.506088	2.1994934
1443114838020622074	1.9727631	13.792862	1.8526154
1443114838029014408	2.1567078	13.59967	1.2658081
1443114838037406742	2.429779	12.66507	0.26087952
1443114838045799076	2.5017242	11.147995	-0.9535675
1443114838054191410	2.0822296	10.434448	-1.6825409
1443114838062583744	1.650177	11.204147	-1.2198792
1443114838070976078	1.3548126	12.656769	0.0625
1443114838079368412	0.97943115	14.471298	1.1315155
1443114838087760746	0.41111755	16.191956	1.5270844
1443114838096153080	-0.3381195	17.287674	1.4270325
1443114838104545414	-1.2849274	17.45369	1.1233826
1443114838112937748	-2.3542175	16.594147	0.4396515
1443114838121330082	-3.182602	14.716904	0.15988159
1443114838129722416	-3.4632874	12.917709	-0.086883545
1443114838138114750	-2.7713623	11.3480835	-0.6457825
1443114838146507084	-1.6204376	9.991104	-0.9731598
1443114838154899418	-0.72198486	8.990341	-0.3113556
1443114838163291752	-0.02015686	8.7495575	1.2880249
1443114838171684086	-0.2936554	9.319168	3.0390015
1443114838180076420	-0.34655762	9.545731	3.8225403
1443114838188468754	-0.21644592	9.761765	3.8402405
1443114838196861088	-0.057495117	9.817963	3.6150665
1443114838205253421	-0.056411743	9.74501	3.2877045
1443114838213645755	-0.2980652	9.579041	2.7258759
1443114838222038089	-0.046173096	8.954941	2.0267334
1443114838230430423	0.26863098	7.8168335	1.5725098
1443114838238822757	0.36445618	7.291916	0.9800415
1443114838247215091	0.061401367	7.0309296	0.7044983
1443114838255607425	-0.42871094	6.84671	0.50193787
1443114838263999759	-0.6705017	6.603363	0.18070984
1443114838272392093	-0.51893616	6.295685	-0.12669373
1443114838280784427	-0.8366394	5.825821	-0.2953186
1443114838289176761	-1.0002289	5.4181976	-0.6190796
1443114838297569095	-0.8114624	4.7169647	-0.53567505
1443114838305961429	-0.78842163	4.444977	-0.179245
1443114838314353763	-0.8618469	4.424423	0.31184387
1443114838322746097	-0.94317627	4.242111	0.9133148
1443114838331138431	-1.0800323	3.7139587	1.6609497
1443114838339530765	-1.1916046	3.0960083	2.4375
1443114838347923099	-1.1648712	2.5685577	2.6801605
1443114838356315433	-1.1172333	2.0759583	2.7363892
1443114838364707767	-1.2099152	1.8033142	2.8187408
1443114838373100101	-1.3334656	1.7434235	2.9512024
1443114838381492435	-1.3356476	1.7677765	3.0989075
1443114838389884769	-1.2348022	1.7781982	3.2614594
1443114838398277103	-1.3622589	1.8948059	3.5380554
1443114838406669437	-1.2142181	2.2320557	4.159073
1443114838415061771	-1.2049713	2.7187805	4.611023
1443114838423454105	-1.312561	3.3442078	4.981842
1443114838431846439	-1.3853607	4.0540924	5.209839
1443114838440238773	-1.426712	5.0304413	5.1985626
1443114838448631107	-1.3891296	6.6466675	4.9869843
1443114838457023441	-0.79859924	9.2521515	4.8707733
1443114838465415775	0.81459045	13.269196	4.567459
1443114838473808109	1.9953156	18.782562	6.321945
1443114838482200443	2.5387268	24.928268	10.531967
1443114838490592777	3.648697	29.651321	12.810959
1443114838498985111	5.330658	29.826233	11.889038
1443114838507377445	6.3311157	23.843658	10.078766
1443114838515769779	5.335968	14.330719	10.433838
1443114838524162113	4.15152	6.6626587	11.30777
1443114838532554447	3.3602142	2.5059357	9.669891
1443114838540946781	2.4872437	0.831604	7.343384
1443114838549339115	1.1430206	0.8319397	5.766327
1443114838557731449	0.030410767	1.7255096	4.4745636
1443114838566123783	-0.4627838	3.123932	2.5046997
1443114838574516117	-2.0585022	5.9256897	-0.36183167
1443114838582908451	-4.901993	10.678329	-2.8546295
1443114838591300785	-6.8561554	14.795929	-4.0660706
1443114838599693119	-7.979904	18.840973	-6.099594
1443114838608085453	-6.4595795	22.361435	-6.5105286
1443114838616477787	-1.7323914	23.64293	-2.7384186
1443114838624870121	3.7819366	20.604416	4.3793335
1443114838633262455	4.2096405	13.849365	7.728073
1443114838641654789	1.5309143	8.682999	7.566086
1443114838650047123	0.36857605	4.8903503	5.616699
1443114838658439457	-0.8434143	2.168686	3.4493408
1443114838666831791	-1.7501984	0.3744049	1.559967
1443114838675224125	-2.277649	-0.20195007	-0.36065674
1443114838683616459	-3.0782318	0.7979431	-2.6949005
1443114838692008793	-3.835785	2.7696686	-4.757019
1443114838700401127	-3.1253204	5.2218323	-6.1460724
1443114838708793461	-1.8914948	8.143829	-6.6092987
1443114838717185795	0.22157288	10.595535	-7.031067
1443114838725578129	2.1383514	12.819962	-5.8088837
1443114838733970463	2.9534302	15.012955	-1.9439697
1443114838742362796	3.2087402	16.593842	3.5206604
1443114838750755130	5.564438	16.02887	7.562332
1443114838759147464	6.4517517	14.103119	6.94339
1443114838767539798	4.8684998	12.175598	4.3268127
1443114838775932132	2.8983612	10.545563	1.4757843
1443114838784324466	1.379242	9.011017	-0.38502502
1443114838792716800	0.34698486	7.5470734	-0.9534302
1443114838801109134	-0.48187256	6.4342194	-0.86938477
1443114838809501468	-1.1561127	6.023514	-1.3017883
1443114838817893802	-1.577652	5.9967804	-1.8467255
1443114838826286136	-1.4594879	6.0412292	-2.1528778
1443114838834678470	-0.9801178	6.2547455	-2.0889893
1443114838843070804	-0.27461243	6.8033295	-1.5931396
1443114838851463138	0.35694885	7.677887	-1.115036
1443114838859855472	0.79481506	8.676086	-0.9345398
1443114838868247806	1.4568939	9.485626	-0.3423767
1443114838876640140	1.7848663	9.585358	0.1655426
1443114838885032474	1.6060791	9.411926	0.6007843
1443114838893424808	1.3126984	9.10936	0.6179199
1443114838901817142	0.9746094	8.753006	0.15647888
1443114838910209476	0.67355347	8.356827	-0.4142151
1443114838918601810	0.48162842	7.936783	-0.75123596
1443114838926994144	0.47956848	7.620117	-0.9064789
1443114838935386478	0.7588196	7.764389	-0.92355347
1443114838943778812	1.1816254	8.053955	-0.8710022
1443114838952171146	1.5691681	8.457733	-0.8404999
1443114838960563480	1.8867798	8.952026	-0.7782593
1443114838968955814	2.1381989	9.432404	-0.53804016
1443114838977348148	2.216339	9.710007	0.0027923584
1443114838985740482	1.6909485	9.62056	0.75541687
1443114838994132816	1.3073578	9.206253	1.256607
1443114839002525150	1.1924286	9.111328	1.3535309
1443114839010917484	1.2296295	9.405304	0.9869385
1443114839019309818	1.2834167	10.130508	0.45698547
1443114839027702152	1.3315735	11.244736	0.037399292
1443114839036094486	1.5122528	12.449799	-0.22227478
1443114839044486820	2.074646	12.893967	-0.4309845
1443114839052879154	2.3491821	12.969345	-0.41125488
1443114839061271488	2.486557	12.968872	-0.26312256
1443114839069663822	2.8290863	13.069031	-0.31982422
1443114839078056156	3.3048096	13.31105	-0.06903076
1443114839086448490	3.6046753	13.662308	0.9037628
1443114839094840824	3.498703	14.116898	2.0942535
1443114839103233158	3.2395172	14.808334	1.541687
1443114839111625492	2.9043427	15.116791	1.1674194
1443114839120017826	2.6233978	15.047302	1.2962189
1443114839128410160	1.8566132	15.107315	1.4163513
1443114839136802494	1.20578	15.003357	1.0681915
1443114839145194828	0.8784027	14.581482	0.3429718
1443114839153587162	0.52056885	13.90715	-0.2136383
1443114839161979496	-0.07054138	12.850632	-0.13092041
1443114839170371830	-1.0843048	12.172043	0.36054993
1443114839178764164	-1.9658203	11.745453	1.3970947
1443114839187156498	-3.1335144	11.477203	1.9275055
1443114839195548832	-4.278595	11.549469	1.9343109
1443114839203941166	-4.9931946	11.951157	1.7360077
1443114839212333500	-5.077423	12.41684	1.4629517
1443114839220725834	-4.6371307	12.582687	0.70433044
1443114839229118168	-3.4064178	12.217682	-0.6456604
1443114839237510502	-2.4065094	11.161194	-1.3360748
1443114839245902836	-1.1360779	10.0890045	-2.61232
1443114839254295170	0.04446411	9.590225	-2.904068
1443114839262687504	0.92874146	9.523575	-1.4820862
1443114839271079838	1.575882	9.448242	1.0361023
1443114839279472171	1.9912415	9.269348	3.327896
1443114839287864505	1.8796387	9.950485	4.8732452
1443114839296256839	1.7329407	10.432556	5.0299377
1443114839304649173	1.3684235	10.7078705	3.9739227
1443114839313041507	0.7870636	10.589447	2.444107
1443114839321433841	0.14379883	9.99025	1.2773285
1443114839329826175	-0.37724304	9.168823	0.8845978
1443114839338218509	-0.72476196	8.751404	0.6111145
1443114839346610843	-1.0483246	8.506653	0.012191772
1443114839355003177	-1.2566223	8.150894	-0.3640747
1443114839363395511	-1.1622925	7.646286	-0.7887726
1443114839371787845	-1.1311951	7.162964	-0.95414734
1443114839380180179	-1.2852783	6.704117	-0.7235718
1443114839388572513	-1.2446594	6.0258484	-0.3204193
1443114839396964847	-0.70487976	4.984314	0.40855408
1443114839405357181	-1.3477783	4.7604065	1.1009216
1443114839413749515	-1.7415009	4.601532	1.562027
1443114839422141849	-2.1491852	4.480362	1.7096252
1443114839430534183	-2.336731	4.1229553	1.7972565
1443114839438926517	-2.3273468	3.659439	1.9923706
1443114839447318851	-2.4006042	3.52594	2.2318115
1443114839455711185	-2.287857	3.5891266	2.3783875
1443114839464103519	-1.7994843	3.1562805	2.1809845
1443114839472495853	-1.2703247	2.7086792	2.3487396
1443114839480888187	-1.1461182	2.7337646	2.6904602
1443114839489280521	-1.1831207	2.8445435	3.1533356
1443114839497672855	-1.1860199	2.8209534	3.7967072
1443114839506065189	-1.1757507	2.770172	4.624359
1443114839514457523	-1.1382599	2.6522064	5.336914
1443114839522849857	-1.2400513	2.8989716	5.6957397
1443114839531242191	-1.384613	3.4526367	5.661545
1443114839539634525	-1.4691925	4.517624	5.4068756
1443114839548026859	-1.3279419	6.5067596	5.1389313
1443114839556419193	-0.80874634	9.390427	4.90802
1443114839564811527	0.067108154	13.1597595	4.9203186
1443114839573203861	0.84669495	17.884537	6.287094
1443114839581596195	1.33815	23.203247	9.847641
1443114839589988529	2.6046143	26.53122	11.632111
1443114839598380863	3.8943634	26.352219	11.948578
1443114839606773197	4.2677765	21.875244	11.373383
1443114839615165531	3.455902	14.787903	10.736496
1443114839623557865	2.4829865	8.416031	10.096344
1443114839631950199	1.7766418	4.510025	8.678497
1443114839640342533	0.608551	3.296692	6.3410645
1443114839648734867	-0.8048248	3.8182526	4.5783844
1443114839657127201	-2.0503998	5.300537	3.3627167
1443114839665519535	-2.728897	7.1174927	2.825348
1443114839673911869	-2.6907043	9.07634	2.6274872
1443114839682304203	-2.2977295	11.395172	1.8612976
1443114839690696537	-2.91156	14.082794	0.5226288
1443114839699088871	-4.076233	16.930923	-0.44451904
1443114839707481205	-3.6174774	18.677155	-0.5117645
1443114839715873539	-1.238205	17.147812	-0.3575287
1443114839724265873	0.6407471	13.307632	-0.017150879
1443114839732658207	0.75424194	9.477768	0.9420929
1443114839741050541	0.39364624	7.3025055	2.554657
1443114839749442875	0.46972656	5.9628143	2.6050262
1443114839757835209	-0.3798828	4.039627	2.256668
1443114839766227543	-1.0169678	2.266327	2.2626495
1443114839774619877	-1.1871185	1.5065765	1.3859711
1443114839783012211	-1.1019287	1.8933105	-0.04034424
1443114839791404545	-0.9220276	3.1693573	-1.286499
1443114839799796879	-0.703949	5.1341553	-2.0877075
1443114839808189213	-0.8951874	8.144638	-2.9585724
1443114839816581546	-0.39241028	11.965286	-3.5394897
1443114839824973880	0.9702759	15.508209	-2.7212982
1443114839833366214	2.4216766	17.918457	-0.73020935
1443114839841758548	3.3274078	18.023315	1.5102386
1443114839850150882	3.6150208	15.739746	3.2510223
1443114839858543216	3.4007874	11.507446	3.800064
1443114839866935550	2.8802185	8.7043	3.8018494
1443114839875327884	2.0648804	7.7686615	3.5108795
1443114839883720218	1.4542694	7.136551	2.7816467
1443114839892112552	0.5982361	6.8003235	1.4682465
1443114839900504886	-0.10081482	6.7512817	-3.0517578E-5
1443114839908897220	-0.4730072	6.91008	-1.0152893
1443114839917289554	-0.7494507	7.22908	-1.4903717
1443114839925681888	-0.64289856	7.401062	-1.5791779
1443114839934074222	-0.55870056	7.534012	-1.2599335
1443114839942466556	-0.11872864	7.4364777	-0.844574
1443114839950858890	0.16651917	7.421814	-0.18478394
1443114839959251224	0.25654602	7.58934	0.53996277
1443114839967643558	0.377594	7.981674	0.9891815
1443114839976035892	0.5903015	8.715393	0.9592438
1443114839984428226	0.53889465	9.409409	0.5202179
1443114839992820560	0.47302246	9.672241	0.19212341
1443114840001212894	0.3416748	9.446365	3.5095215E-4
1443114840009605228	0.096725464	8.911896	-0.31781006
1443114840017997562	-0.1322937	8.298859	-0.71647644
1443114840026389896	-0.2267456	7.806946	-1.0080261
1443114840034782230	-0.21708679	7.5553284	-1.0631714
1443114840043174564	-0.18933105	7.5697174	-0.8215637
1443114840051566898	0.18946838	8.096405	-0.33016968
1443114840059959232	0.63075256	8.733688	0.11227417
1443114840068351566	1.0544128	9.40477	0.2938385
1443114840076743900	1.3552551	9.955994	0.2896881
1443114840085136234	1.5007477	10.156998	0.20910645
1443114840093528568	1.553482	9.8415985	0.08905029
1443114840101920902	1.5246887	9.264801	0.14353943
1443114840110313236	1.3496094	9.02066	0.4335022
1443114840118705570	1.4225006	9.288803	0.6003723
1443114840127097904	1.5561066	9.962509	0.45295715
1443114840135490238	1.4998474	10.935486	0.058181763
1443114840143882572	1.282486	11.861588	-0.48007202
1443114840152274906	1.2442932	12.260895	-1.0666504
1443114840160667240	1.6822815	12.0963745	-1.4008026
1443114840169059574	2.212143	11.906357	-0.83470154
1443114840177451908	1.960144	11.957382	-0.054031372
1443114840185844242	1.8943787	12.180618	0.23928833
1443114840194236576	1.9885406	12.493698	0.5185547
1443114840202628910	1.9786682	12.802017	1.1450806
1443114840211021244	1.6703339	13.003372	2.0164032
1443114840219413578	1.4346313	13.245087	2.4362335
1443114840227805912	1.3626709	13.588486	2.2336884
1443114840236198246	1.523529	13.922073	1.8257904
1443114840244590580	1.7600098	14.147324	1.5405273
1443114840252982914	2.1060333	14.025253	1.2724609
1443114840261375248	2.437973	13.468689	0.7748871
1443114840269767582	2.2987976	12.86116	0.04650879
1443114840278159916	1.7446136	13.225113	-0.6002197
1443114840286552250	1.0290222	13.271912	-0.40141296
1443114840294944584	0.17323303	12.8901825	0.28103638
1443114840303336918	-0.7911835	12.15416	1.097229
1443114840311729252	-1.9178162	11.531036	1.7265167
1443114840320121586	-3.1706696	11.459442	2.0407715
1443114840328513920	-4.2830963	11.966156	2.1728516
1443114840336906254	-4.912323	12.993301	2.2108917
1443114840345298588	-5.0342865	13.467209	2.064209
1443114840353690921	-4.694977	13.1727295	1.4975433
1443114840362083255	-4.137787	12.386414	0.87158203
1443114840370475589	-3.1034698	11.307083	0.3002472
1443114840378867923	-1.5237579	10.165344	-0.10722351
1443114840387260257	-0.0365448	9.332535	0.04408264
1443114840395652591	0.4590454	9.20401	1.5482788
1443114840404044925	0.49891663	9.234558	2.8670807
1443114840412437259	0.09602356	9.668533	3.4321747
1443114840420829593	-0.39430237	10.031357	3.219345
1443114840429221927	-0.47070313	10.057312	2.6894531
1443114840437614261	-0.22802734	9.747925	2.2506714
1443114840446006595	-0.35025024	9.26593	1.957901
1443114840454398929	-0.49214172	8.682953	1.7964783
1443114840462791263	-0.10992432	8.117889	1.0542603
1443114840471183597	-0.26768494	7.787262	0.855896
1443114840479575931	-0.5235901	7.5374603	0.99658203
1443114840487968265	-0.6713257	7.2990265	0.89497375
1443114840496360599	-0.744339	6.9510345	0.32691956
1443114840504752933	-0.89016724	6.350479	-0.30955505
1443114840513145267	-1.1934662	5.6554565	-0.38871765
1443114840521537601	-1.0681915	5.2471313	0.025543213
1443114840529929935	-1.2863922	5.031494	0.3904724
1443114840538322269	-1.4065399	4.573166	0.8947296
1443114840546714603	-1.4012756	4.0354767	1.515274
1443114840555106937	-1.3784485	3.65773	2.081833
1443114840563499271	-1.4281158	3.6039276	2.3193512
1443114840571891605	-1.5792542	3.409607	2.729599
1443114840580283939	-1.7458954	3.448822	3.1480408
1443114840588676273	-1.520935	3.133789	3.1166534
1443114840597068607	-1.2988129	3.0613708	3.0305328
1443114840605460941	-1.203949	3.3383636	2.9698792
1443114840613853275	-1.115097	3.6643066	2.8177032
1443114840622245609	-1.016159	3.9161835	2.7187195
1443114840630637943	-0.98324585	3.9459991	2.8791199
1443114840639030277	-1.0238953	3.9320679	3.3113556
1443114840647422611	-0.9913635	3.8792267	3.8543396
1443114840655814945	-0.9806366	3.856659	4.333267
1443114840664207279	-1.0323486	3.9377594	4.6780396
1443114840672599613	-1.1104431	4.183197	4.958832
1443114840680991947	-1.1534424	4.663452	5.336502
1443114840689384281	-1.1513824	5.682373	5.7930145
1443114840697776615	-0.3430786	8.188431	6.2371674
1443114840706168949	0.89915466	11.981735	6.4279175
1443114840714561283	1.6166077	17.167313	7.6751404
1443114840722953617	1.8185272	23.167831	10.107803
1443114840731345951	2.3496857	28.280945	11.984177
1443114840739738285	3.9436798	29.726593	10.798798
1443114840748130619	4.493744	24.177582	9.038574
1443114840756522953	2.626831	16.301636	9.562668
1443114840764915287	1.6699219	10.350998	9.869461
1443114840773307621	1.6727448	6.2873383	8.733276
1443114840781699955	1.3125153	3.7901917	6.906311
1443114840790092289	-0.21257019	2.7935333	5.546417
1443114840798484623	-2.1083984	3.383194	4.7896576
1443114840806876957	-2.7571716	4.9532013	3.3111572
1443114840815269291	-3.2012787	7.483612	1.4807281
1443114840823661625	-4.1299896	10.8650055	-0.42549133
1443114840832053959	-5.2360992	14.493774	-2.0626678
1443114840840446293	-5.867752	17.476807	-3.1860046
1443114840848838627	-5.0569	18.613724	-2.9847107
1443114840857230961	-2.6932983	17.358658	-0.79907227
1443114840865623295	-0.09408569	13.902985	1.0989227
1443114840874015629	0.121536255	9.655823	2.3612976
1443114840882407963	-0.6699066	7.06427	3.3339539
1443114840890800296	-1.4631042	5.1408997	3.4824677
1443114840899192630	-2.174652	3.136963	3.0787659
1443114840907584964	-2.8199158	1.0202942	2.3698578
1443114840915977298	-2.9892883	0.052764893	1.4091797
1443114840924369632	-3.1075287	0.36943054	0.057128906
1443114840932761966	-3.034851	2.143692	-1.2822418
1443114840941154300	-2.742447	5.2760468	-3.161972
1443114840949546634	-1.8726654	9.332291	-5.0472107
1443114840957938968	0.2103424	13.208252	-6.1051636
1443114840966331302	2.8296967	16.250137	-5.1338196
1443114840974723636	2.9065857	19.18837	-0.7840576
1443114840983115970	2.5899048	18.48613	2.9039764
1443114840991508304	3.975174	15.289612	5.1329193
1443114840999900638	4.613922	12.177338	5.162628
1443114841008292972	4.1658936	9.803467	4.1790924
1443114841016685306	2.997116	8.363525	3.0341492
1443114841025077640	1.6466064	7.7326202	1.7229767
1443114841033469974	0.47575378	7.4810944	-0.23684692
1443114841041862308	-0.40846252	7.576706	-1.2403259
1443114841050254642	-0.8658905	7.612976	-1.8952179
1443114841058646976	-0.782074	7.2220306	-1.851181
1443114841067039310	-0.6222992	6.794281	-1.6636658
1443114841075431644	-0.6466675	6.582306	-1.1908417
1443114841083823978	-0.6694946	6.6557465	-0.41184998
1443114841092216312	-0.20559692	7.0290375	-0.105789185
1443114841100608646	0.4205475	7.8279266	-0.24664307
1443114841109000980	0.6911926	8.70752	-0.07330322
1443114841117393314	0.8314972	9.43663	0.35664368
1443114841125785648	0.91426086	9.7341	0.957489
1443114841134177982	0.84916687	9.575333	1.3473358
1443114841142570316	0.6466522	9.116852	1.1302795
1443114841150962650	0.5042572	8.548294	0.2753296
1443114841159354984	0.29553223	7.925232	-0.341568
1443114841167747318	0.1690216	7.511963	-0.65301514
1443114841176139652	0.18704224	7.2397003	-0.77835083
1443114841184531986	0.37390137	7.2801514	-0.73257446
1443114841192924320	0.74591064	7.6872406	-0.5768585
1443114841201316654	1.2690582	8.273178	-0.40379333
1443114841209708988	1.7243347	8.668457	-0.2902527
1443114841218101322	1.9865112	8.755844	-0.10105896
1443114841226493656	2.0280914	8.696503	-0.15145874
1443114841234885990	1.8978729	8.807053	-0.15176392
1443114841243278324	1.5973663	9.154861	-0.27392578
1443114841251670658	1.1787109	9.79097	-0.5302887
1443114841260062992	0.6562042	10.759705	-0.93621826
1443114841268455326	0.06062317	11.785416	-1.5131073
1443114841276847660	0.057540894	12.446533	-1.7382813
1443114841285239994	0.54797363	12.483124	-1.4035339
1443114841293632328	1.1082001	12.372482	-1.0403442
1443114841302024662	1.2805634	12.38295	-0.6412201
1443114841310416996	1.2635345	12.5308075	0.036865234
1443114841318809330	1.57547	12.640228	0.93141174
1443114841327201664	2.249527	12.494431	1.2995453
1443114841335593998	2.1497955	12.049225	2.3102417
1443114841343986332	2.0647125	11.843109	3.519699
1443114841352378666	2.0435028	12.33252	3.475586
1443114841360771000	1.9035797	13.209702	3.1029205
1443114841369163334	1.5854645	14.064926	2.9468536
1443114841377555668	1.2725983	14.533859	2.7793121
1443114841385948002	1.3056946	14.297409	2.0664368
1443114841394340336	1.3149261	13.025558	1.0475311
1443114841402732670	1.045639	12.116379	0.78105164
1443114841411125004	0.9347534	12.140213	0.84350586
1443114841419517338	1.0226593	12.664673	1.2169037
1443114841427909671	0.8740845	13.204178	1.6384735
1443114841436302005	0.08830261	13.521515	1.9320221
1443114841444694339	-1.1796112	13.72081	2.2660828
1443114841453086673	-2.2026367	14.164978	2.14682
1443114841461479007	-2.6078644	14.369843	1.1618652
1443114841469871341	-3.075348	14.260712	-0.49316406
1443114841478263675	-3.2508087	13.568665	-1.9672241
1443114841486656009	-2.9455109	12.4205475	-2.7842865
1443114841495048343	-2.101532	11.034256	-2.3799286
1443114841503440677	-1.325531	9.90567	-0.1352539
1443114841511833011	-0.19248962	9.356628	1.9025726
1443114841520225345	0.5966034	9.192352	4.7567444
1443114841528617679	1.1331177	9.36171	6.7673492
1443114841537010013	0.786026	10.056656	6.9577484
1443114841545402347	-0.22924805	10.925308	5.3608093
1443114841553794681	-1.0754852	11.399826	3.3483887
1443114841562187015	-1.6538086	11.101486	1.7970428
1443114841570579349	-2.649063	10.600769	1.5657043
1443114841578971683	-3.1678162	10.116608	0.91186523
1443114841587364017	-3.5992584	9.25798	0.23599243
1443114841595756351	-3.578308	8.43425	0.055648804
1443114841604148685	-3.089386	7.8208313	0.07585144
1443114841612541019	-2.514801	7.270752	-0.28694153
1443114841620933353	-1.9676361	6.8330383	-0.49243164
1443114841629325687	-1.4483948	5.546814	-0.93351746
1443114841637718021	-0.63731384	4.8754425	-0.7757416
1443114841646110355	-0.07525635	4.625107	-0.25932312
1443114841654502689	0.25657654	3.9917908	0.3339386
1443114841662895023	0.25828552	3.1237488	1.0141907
1443114841671287357	-0.20266724	2.6907196	1.6964874
1443114841679679691	-0.88986206	2.554535	1.6569214
1443114841688072025	-1.460495	2.3674011	1.752533
1443114841696464359	-2.038391	2.359253	2.0771027
1443114841704856693	-1.7163391	1.7632141	2.2993164
1443114841713249027	-1.3980103	1.5282898	2.4431
1443114841721641361	-1.2715759	1.7584076	2.4790497
1443114841730033695	-0.98713684	1.9388123	2.4697113
1443114841738426029	-0.6406708	2.0068512	2.7836304
1443114841746818363	-0.27978516	1.9307556	3.4694214
1443114841755210697	0.16455078	1.8936157	4.25441
1443114841763603031	0.39408875	1.9373627	4.8680725
1443114841771995365	0.3598938	2.1418152	5.1518707
1443114841780387699	0.14611816	2.5372314	5.2582703
1443114841788780033	-0.24331665	3.294754	5.5340424
1443114841797172367	-0.93933105	4.9029236	6.258194
1443114841805564701	-1.195343	8.157059	7.1547546
1443114841813957035	-0.34275818	13.198013	8.228195
1443114841822349369	0.012176514	18.830933	11.20253
1443114841830741703	0.9945984	25.093613	13.607086
1443114841839134037	2.6881104	30.210114	13.237869
1443114841847526371	3.7439117	30.26712	9.722382
1443114841855918705	3.4911957	22.501282	7.2744446
1443114841864311039	2.8835602	14.143311	8.920532
1443114841872703373	2.893341	8.582672	9.605438
1443114841881095707	2.8733826	4.703888	8.871201
1443114841889488041	1.788208	2.8481598	7.7282104
1443114841897880375	-0.42793274	3.0697937	6.549347
1443114841906272709	-2.6356506	5.144058	4.7379
1443114841914665043	-3.9976807	8.347824	3.1808472
1443114841923057377	-4.7112274	13.25116	2.3624268
1443114841931449711	-5.3574066	18.282303	-1.1427917
1443114841939842045	-5.872528	20.978989	-5.1146393
1443114841948234379	-5.1592255	19.100418	-5.9325104
1443114841956626713	-3.3067017	13.978516	-2.672226
1443114841965019046	-1.8032227	9.48999	2.3021545
1443114841973411380	-2.0285187	7.497528	5.7136536
1443114841981803714	-1.6594086	4.5415497	5.8524475
1443114841990196048	-1.673233	1.7593994	3.828659
1443114841998588382	-2.2430725	0.23634338	2.9727173
1443114842006980716	-2.1338806	0.009902954	1.9044647
1443114842015373050	-1.3446045	1.0264587	-1.0622559
1443114842023765384	-1.1789246	3.3286133	-5.477127
1443114842032157718	-2.6544037	6.7776947	-7.882675
1443114842040550052	-2.9957428	10.142883	-6.9470367
1443114842048942386	-1.9450073	13.920746	-4.389557
1443114842057334720	-0.5791321	17.547989	-2.2019043
1443114842065727054	1.0496826	19.29863	-0.60165405
1443114842074119388	2.724762	18.730759	1.3544159
1443114842082511722	4.0245667	16.53592	3.8358612
1443114842090904056	4.6521606	13.377838	4.439102
1443114842099296390	3.9046783	10.376617	2.7570343
1443114842107688724	2.1004486	8.4478	0.7475281
1443114842116081058	0.5796509	7.2699127	-0.81437683
1443114842124473392	-0.58091736	6.5254974	-1.7866516
1443114842132865726	-1.2914734	6.0322876	-2.2298737
1443114842141258060	-1.5177612	5.6782837	-2.188446
1443114842149650394	-1.3470764	5.306076	-0.9721222
1443114842158042728	-1.0589447	5.474777	-0.056854248
1443114842166435062	-0.6344757	6.130539	-0.08772278
1443114842174827396	-0.4633026	6.9210052	-0.32403564
1443114842183219730	-0.2795105	7.567749	-0.79714966
1443114842191612064	-0.072631836	8.061707	-1.3092651
1443114842200004398	-0.055099487	8.457489	-1.4211121
1443114842208396732	-0.44169617	8.908859	-0.99031067
1443114842216789066	-0.44308472	9.307922	-0.8964081
1443114842225181400	-0.38145447	9.3390045	-0.60235596
1443114842233573734	-0.34623718	9.154053	-0.13519287
1443114842241966068	-0.4936676	9.098938	0.16549683
1443114842250358402	-0.75679016	9.151733	0.078567505
1443114842258750736	-0.76275635	8.87822	-0.19187927
1443114842267143070	-0.017333984	8.026901	0.12582397
1443114842275535404	0.9319458	7.8650208	0.5818176
1443114842283927738	2.0720367	8.415421	0.8268585
1443114842292320072	2.7157898	8.77269	0.8539734
1443114842300712406	2.8343048	8.781509	0.6192169
1443114842309104740	2.6722565	8.518387	0.29075623
1443114842317497074	2.4503021	8.109497	0.116622925
1443114842325889408	2.175644	7.875351	-0.03765869
1443114842334281742	1.8229828	8.773956	-0.3347931
1443114842342674076	1.3811035	10.282364	-0.48321533
1443114842351066410	0.8543091	11.6828	-0.5702362
1443114842359458744	0.5888977	12.62854	-0.483963
1443114842367851078	1.0618591	12.806137	-0.15104675
1443114842376243412	1.9891815	12.271912	0.25003052
1443114842384635746	1.3412933	12.058472	0.18737793
1443114842393028080	0.65859985	12.069778	0.4608612
1443114842401420414	0.5674286	12.2517395	0.97473145
1443114842409812748	0.88960266	12.235321	1.7888184
1443114842418205082	1.2117615	12.006653	1.8056641
1443114842426597416	1.2740326	11.660126	1.2915192
1443114842434989750	0.9659424	11.515366	1.4268036
1443114842443382084	0.21794128	12.211487	2.4295044
1443114842451774418	0.22718811	12.851013	1.8074646
1443114842460166752	0.09321594	12.695038	0.5888214
1443114842468559086	-0.38853455	12.63739	4.272461E-4
1443114842476951420	-0.8257599	13.174667	-0.07014465
1443114842485343754	-1.2203522	14.560074	0.23356628
1443114842493736088	-1.8051758	16.373306	0.8919525
1443114842502128421	-2.600708	17.30362	1.7809143
1443114842510520755	-3.9606934	17.137253	2.1519928
1443114842518913089	-6.0291595	16.942337	2.1288452
1443114842527305423	-7.5809326	16.350723	1.5013123
1443114842535697757	-7.7844543	15.108307	0.07116699
1443114842544090091	-6.770294	13.499115	-1.8418579
1443114842552482425	-5.332855	12.245789	-3.3843079
1443114842560874759	-3.3194885	11.5242	-3.900299
1443114842569267093	-1.7196503	11.452225	-2.1061554
1443114842577659427	-0.4797516	11.740158	1.1276703
1443114842586051761	0.5516052	12.104828	2.6825104
1443114842594444095	1.2500305	12.437881	3.826477
1443114842602836429	1.9813843	12.519287	4.9176636
1443114842611228763	3.1677704	12.191818	5.222122
1443114842619621097	2.8932495	12.009827	3.833084
1443114842628013431	1.4502716	11.492264	2.6982574
1443114842636405765	0.4951172	10.709579	1.7249603
1443114842644798099	0.14393616	9.458588	1.4017029
1443114842653190433	0.06265259	8.237274	1.2393036
1443114842661582767	-0.16273499	7.3468475	0.86001587
1443114842669975101	-0.7159729	6.727524	0.2832489
1443114842678367435	-1.317337	6.567581	-0.6552429
1443114842686759769	-1.620636	6.050415	-1.2824249
1443114842695152103	-1.8484802	5.5974426	-1.6372528
1443114842703544437	-1.9134216	4.871811	-2.0492554
1443114842711936771	-1.9104156	4.2416077	-1.9406738
1443114842720329105	-1.8763885	3.7236023	-1.4301453
1443114842728721439	-1.8266907	3.1169891	-1.0724792
1443114842737113773	-1.9661407	2.9363098	-0.31933594
1443114842745506107	-1.9723053	2.6874847	0.5720825
1443114842753898441	-1.9563293	2.0984192	1.4032593
1443114842762290775	-1.9389496	1.717514	2.0668335
1443114842770683109	-1.8065186	1.0308533	2.3307343
1443114842779075443	-1.5025787	0.22576904	2.3746948
1443114842787467777	-1.2366638	-0.039779663	2.472229
1443114842795860111	-1.552597	0.1565857	2.3410187
1443114842804252445	-1.4014587	0.33035278	2.4664612
1443114842812644779	-1.3950806	0.5855408	2.9936218
1443114842821037113	-1.4091797	1.004303	3.6020813
1443114842829429447	-1.4429016	1.6061707	3.9687195
1443114842837821781	-1.5534363	2.3273163	3.9723053
1443114842846214115	-1.7489319	3.155426	3.6827698
1443114842854606449	-1.8586731	4.6426697	3.065155
1443114842862998783	-2.0390778	6.751358	2.887558
1443114842871391117	-1.7480621	10.03772	2.9058838
1443114842879783451	-1.1184998	15.343811	4.1498413
1443114842888175785	-0.28762817	22.02562	8.156189
1443114842896568119	1.1865692	28.994202	12.536163
1443114842904960453	3.9208374	34.9066	13.487762
1443114842913352787	5.4661713	32.946915	10.30455
1443114842921745121	4.8545837	22.840057	9.194061
1443114842930137455	5.060623	12.537628	10.219757
1443114842938529789	5.102768	4.688614	10.645691
1443114842946922123	4.203018	-0.04510498	9.261124
1443114842955314457	2.31987	-1.8634949	6.8914795
1443114842963706791	0.13162231	-1.2697754	5.109741
1443114842972099125	-1.4784851	0.54081726	2.5249176
1443114842980491459	-2.2456818	3.724289	0.7608185
1443114842988883793	-3.746811	8.507141	1.0863647
1443114842997276127	-5.2112427	14.505875	0.29006958
1443114843005668461	-6.449295	20.876938	-2.298111
1443114843014060795	-6.810425	26.111557	-5.0658875
1443114843022453129	-5.072235	27.903671	-5.0739136
1443114843030845463	-0.519516	23.116531	0.4894867
1443114843039237796	0.62379456	14.209518	4.149765
1443114843047630130	0.67588806	8.233124	4.420212
1443114843056022464	0.30419922	4.3234406	2.9920197
1443114843064414798	-0.71520996	1.9421387	1.8960266
1443114843072807132	-1.9358978	0.40725708	1.8206177
1443114843081199466	-2.4253998	-0.8027954	1.8445435
1443114843089591800	-2.3998413	-1.1447601	0.4627533
1443114843097984134	-2.7710114	0.1466217	-2.1919556
1443114843106376468	-2.825882	2.3201294	-4.604187
1443114843114768802	-2.9767914	5.3712006	-5.9372864
1443114843123161136	-2.7290802	8.727097	-5.271347
1443114843131553470	-1.89711	11.969925	-2.8499146
1443114843139945804	-0.7414551	14.981216	0.2584381
1443114843148338138	0.5764618	17.660355	3.3674316
1443114843156730472	2.8158112	18.534302	4.0737762
1443114843165122806	3.7531738	18.234558	3.8944702
1443114843173515140	3.5484772	15.908203	2.609085
1443114843181907474	2.6323853	12.919876	1.2958221
1443114843190299808	1.5930481	10.325195	0.41192627
1443114843198692142	0.8166199	8.43428	-0.29034424
1443114843207084476	0.1464386	7.2612305	-1.0296936
1443114843215476810	-0.4094391	6.086914	-1.4634094
1443114843223869144	-0.5950012	5.4991302	-2.197174
1443114843232261478	-0.9445038	4.969864	-2.1336365
1443114843240653812	-1.4975433	4.824402	-1.3207092
1443114843249046146	-2.0934753	5.5177307	-0.4865265
1443114843257438480	-2.466278	7.0413055	-0.3480072
1443114843265830814	-2.0293121	8.096191	-0.746933
1443114843274223148	-1.7906494	8.782471	-0.93588257
1443114843282615482	-1.3831482	9.190872	-1.1884003
1443114843291007816	-1.2635498	9.38829	-1.0228271
1443114843299400150	-1.3835602	9.3259735	-0.61790466
1443114843307792484	-1.5174103	9.034363	-0.34751892
1443114843316184818	-1.4982147	8.58255	-0.38493347
1443114843324577152	-1.3080139	7.941986	-0.5915985
1443114843332969486	-0.8262329	7.531906	-0.6900482
1443114843341361820	-0.09335327	7.4579926	-0.47050476
1443114843349754154	0.55584717	7.739914	-0.05102539
1443114843358146488	0.9599762	8.238449	0.31950378
1443114843366538822	1.0979156	8.72113	0.42668152
1443114843374931156	1.0454407	8.974533	0.18099976
1443114843383323490	0.9539337	8.964233	-0.39167786
1443114843391715824	0.80833435	8.613052	-0.76737976
1443114843400108158	0.62908936	8.43837	-0.7904358
1443114843408500492	0.44709778	8.80896	-0.52897644
1443114843416892826	0.21299744	9.661621	-0.19236755
1443114843425285160	-0.096450806	10.731842	-0.019821167
1443114843433677494	-0.38563538	11.691391	-0.14741516
1443114843442069828	-0.37060547	12.185471	-0.46365356
1443114843450462162	0.44883728	11.797852	-0.6456299
1443114843458854496	0.93029785	11.590561	-1.0689087
1443114843467246830	1.2306213	11.683563	-1.2826538
1443114843475639164	1.6052399	12.0346985	-0.58750916
1443114843484031498	2.013321	12.54599	0.9264984
1443114843492423832	2.2049866	13.040558	2.305664
1443114843500816166	2.1410675	13.181122	2.4268188
1443114843509208500	1.968338	13.003265	1.6156006
1443114843517600834	1.4156494	13.054077	1.1798859
1443114843525993168	0.6804962	13.823044	1.1604462
1443114843534385502	0.26919556	14.5494995	1.2665253
1443114843542777836	0.26472473	14.846176	1.0032196
1443114843551170170	0.38993835	14.784531	0.17729187
1443114843559562504	0.4759369	14.28447	-0.5882263
1443114843567954838	-0.29232788	14.26799	-0.44544983
1443114843576347171	-0.4882202	13.812698	-0.13934326
1443114843584739505	-0.6830139	12.7530365	0.27249146
1443114843593131839	-1.4960327	11.895752	0.88479614
1443114843601524173	-2.690277	11.507965	1.6234283
1443114843609916507	-3.7473907	11.288162	2.3453064
1443114843618308841	-5.1374664	11.8875885	2.6229095
1443114843626701175	-6.118683	12.930023	2.0866852
1443114843635093509	-5.958679	13.577911	1.0069275
1443114843643485843	-5.6284485	13.615433	-0.15249634
1443114843651878177	-4.8794403	12.933807	-1.3931885
1443114843660270511	-3.5049896	11.859756	-2.1213684
1443114843668662845	-2.1077728	11.089615	-1.2478027
1443114843677055179	-1.0796051	10.728729	-0.0695343
1443114843685447513	-0.4363098	10.468292	1.9222565
1443114843693839847	0.057632446	10.360794	3.755661
1443114843702232181	0.4228363	10.832062	4.4085693
1443114843710624515	0.68489075	11.479996	4.2584076
1443114843719016849	0.52638245	11.889465	3.796814
1443114843727409183	-0.30212402	11.948105	3.0378876
1443114843735801517	-0.3607483	11.226318	2.219452
1443114843744193851	0.0690155	10.033417	1.640152
1443114843752586185	-0.022109985	8.973816	1.0111389
1443114843760978519	-0.41653442	8.205826	0.45315552
1443114843769370853	-0.6995392	7.633499	-0.20635986
1443114843777763187	-0.775589	7.058548	-1.095459
1443114843786155521	-0.8548889	6.404129	-2.0714264
1443114843794547855	-0.8767395	5.9972534	-2.6509094
1443114843802940189	-0.40789795	5.389618	-2.2684174
1443114843811332523	-0.6610565	4.9849243	-1.8298187
1443114843819724857	-1.1560669	4.5410156	-1.4660339
1443114843828117191	-1.4564056	3.9765472	-0.8917389
1443114843836509525	-1.6642303	3.4355621	-0.083480835
1443114843844901859	-2.1206818	3.0659637	0.666214
1443114843853294193	-2.5190277	2.609497	1.1957703
1443114843861686527	-2.752411	2.2013245	1.5432892
1443114843870078861	-2.6540527	2.056076	1.6472778
1443114843878471195	-2.562271	1.8314667	1.9366913
1443114843886863529	-2.5056763	1.7613525	2.3542633
1443114843895255863	-2.4476318	1.956665	2.7449188
1443114843903648197	-2.3689423	2.2624207	3.0104675
1443114843912040531	-2.2680054	2.4530945	3.1403809
1443114843920432865	-2.317276	2.653366	3.5607758
1443114843928825199	-2.485443	2.9362488	4.235794
1443114843937217533	-2.5593872	3.3420563	4.712097
1443114843945609867	-2.575409	3.8926392	4.9006042
1443114843954002201	-2.587799	4.5942535	4.8788605
1443114843962394535	-2.5076141	5.5338593	4.74617
1443114843970786869	-2.2094421	7.109009	4.551834
1443114843979179203	-1.8096008	10.231567	4.451462
1443114843987571537	-0.92422485	14.697876	5.2081604
1443114843995963871	0.033966064	20.35466	8.090454
1443114844004356205	1.5793762	26.71994	11.62944
1443114844012748539	3.9781342	31.253296	13.306808
1443114844021140873	6.1198273	29.67134	11.930557
1443114844029533207	4.8654633	20.920624	10.419159
1443114844037925541	3.3890076	12.729538	10.540314
1443114844046317875	3.0062256	6.5817566	10.094925
1443114844054710209	2.8267517	2.3205414	8.6949005
1443114844063102543	2.0343933	0.5595093	7.0235443
1443114844071494877	0.5181427	1.2604523	5.661072
1443114844079887211	-1.0353394	3.3418427	4.5913696
1443114844088279545	-1.6861725	6.4520416	3.9796143
1443114844096671879	-2.518036	10.025879	2.9353943
1443114844105064213	-3.7617798	14.413208	1.4150391
1443114844113456546	-4.3615723	18.618668	-0.9470062
1443114844121848880	-3.8191986	20.760315	-3.1383972
1443114844130241214	-2.2548828	19.136963	-4.6329956
1443114844138633548	-0.78907776	13.989548	-4.9565125
1443114844147025882	-2.4290009	10.081497	-0.25265503
1443114844155418216	-1.2814636	8.4322815	6.2746735
1443114844163810550	-1.5826721	6.119232	6.7743225
1443114844172202884	-1.8563843	2.6819153	5.5850677
1443114844180595218	-2.0796356	-0.12471008	4.417282
1443114844188987552	-2.1577148	-1.226181	3.4902954
1443114844197379886	-1.7768097	-0.906723	2.1968079
1443114844205772220	-1.5180054	0.5740967	-0.7030487
1443114844214164554	-1.9755249	3.396408	-4.4681854
1443114844222556888	-2.5380402	7.060364	-6.6961823
1443114844230949222	-3.06102	10.880249	-6.8833313
1443114844239341556	-2.4986267	14.50856	-5.3265076
1443114844247733890	-0.39170837	17.357986	-2.5089722
1443114844256126224	2.0651245	18.839386	0.8815155
1443114844264518558	1.7258301	19.09549	3.651947
1443114844272910892	3.9628296	17.054611	4.983963
1443114844281303226	4.7998505	14.7771	3.9510803
1443114844289695560	4.1153107	12.223618	2.5234985
1443114844298087894	2.5184479	9.930588	1.2249908
1443114844306480228	1.1271973	8.3181	0.13928223
1443114844314872562	0.32365417	6.9805145	-0.9226532
1443114844323264896	-1.1695709	6.3193054	-1.3015442
1443114844331657230	-2.0472565	6.2800446	-0.9491577
1443114844340049564	-2.5098877	5.963516	-0.2922058
1443114844348441898	-2.5238953	5.608917	-0.28710938
1443114844356834232	-2.4971924	5.6820984	-0.7128601
1443114844365226566	-2.586853	6.3142548	-0.9688721
1443114844373618900	-2.4149933	7.1117706	-0.9921417
1443114844382011234	-2.1404724	8.023743	-1.3561096
1443114844390403568	-1.8894653	8.672226	-1.2616577
1443114844398795902	-1.5633545	9.330353	-0.94729614
1443114844407188236	-1.065094	9.451157	-0.45933533
1443114844415580570	-0.56903076	8.963562	-0.014846802
1443114844423972904	-0.45455933	8.164566	0.16770935
1443114844432365238	-0.9712677	7.4081726	0.009887695
1443114844440757572	-1.4123535	6.647339	-0.41577148
1443114844449149906	-1.4790955	6.842804	-0.8753662
1443114844457542240	-0.98101807	7.243744	-0.71017456
1443114844465934574	-0.25810242	7.973419	-0.14672852
1443114844474326908	0.3887787	8.630783	0.40049744
1443114844482719242	0.77900696	9.035339	0.63098145
1443114844491111576	0.86320496	9.403656	0.49093628
1443114844499503910	0.6729889	9.602081	0.09303284
1443114844507896244	0.52345276	9.206619	-0.31401062
1443114844516288578	0.09429932	9.1822815	-0.87223816
1443114844524680912	-0.5179291	9.735886	-1.0861206
1443114844533073246	-1.1862488	10.748917	-0.9227905
1443114844541465580	-1.6643829	11.778107	-0.5622101
1443114844549857914	-1.5713348	12.264816	-0.20715332
1443114844558250248	-0.4736023	11.953384	0.008880615
1443114844566642582	0.5761566	11.374542	-0.6018524
1443114844575034916	1.6623383	11.1409	-1.9316406
1443114844583427250	1.8373108	11.833984	-1.812561
1443114844591819584	2.201416	12.537582	0.30613708
1443114844600211918	2.7904663	12.699905	2.9291077
1443114844608604252	2.628418	12.541992	3.728653
1443114844616996586	2.0535889	12.3550415	1.9910431
1443114844625388920	1.3946991	11.996887	0.97969055
1443114844633781254	0.4354248	12.98204	1.0149536
1443114844642173588	-0.26205444	14.525711	1.2108154
1443114844650565921	-0.52233887	15.811264	1.0708313
1443114844658958255	-0.30984497	16.398636	0.44462585
1443114844667350589	0.078826904	16.047348	-0.4236145
1443114844675742923	0.2036438	15.28508	-0.80255127
1443114844684135257	-0.113220215	14.85231	-0.22489929
1443114844692527591	0.052139282	14.289139	0.14402771
1443114844700919925	-0.053344727	13.230942	0.5365906
1443114844709312259	-0.7565613	11.920364	1.1557465
1443114844717704593	-1.857727	10.796661	1.9293823
1443114844726096927	-2.8954773	10.101059	2.4092712
1443114844734489261	-3.6840668	10.2573395	1.8458557
1443114844742881595	-4.165497	11.173782	0.7798462
1443114844751273929	-4.7296753	12.0086975	-0.1648407
1443114844759666263	-4.9265747	12.169846	-1.1412964
1443114844768058597	-4.458191	11.663055	-1.9342804
1443114844776450931	-3.5126343	10.897873	-2.1213837
1443114844784843265	-2.6755219	10.376495	-1.33284
1443114844793235599	-2.112091	10.362106	0.6114197
1443114844801627933	-1.6586304	10.431931	3.7208405
1443114844810020267	-1.343399	10.486832	5.5565186
1443114844818412601	-0.9720459	10.887909	5.41333
1443114844826804935	-0.93003845	11.496185	4.219681
1443114844835197269	-1.1787262	11.856232	3.0041962
1443114844843589603	-1.1694641	11.564728	2.0030975
1443114844851981937	-1.4018402	10.804901	0.96772766
1443114844860374271	-1.7654266	10.024902	0.2776184
1443114844868766605	-1.6536407	9.230225	-0.16215515
1443114844877158939	-1.5971832	8.5568695	-0.80682373
1443114844885551273	-1.3937988	7.7670135	-1.6407166
1443114844893943607	-1.0139008	6.830597	-2.207367
1443114844902335941	-0.7931824	6.0442657	-2.1358337
1443114844910728275	-0.7109375	5.579529	-2.1820984
1443114844919120609	-0.62046814	5.2926636	-2.0731049
1443114844927512943	-0.5738373	5.0986786	-0.99671936
1443114844935905277	-0.85466003	4.282379	-0.2816162
1443114844944297611	-1.1880188	3.35495	0.1441803
1443114844952689945	-1.4920502	2.776764	0.7023468
1443114844961082279	-1.9070282	2.5656433	1.4932404
1443114844969474613	-2.2276306	2.67688	2.0260162
1443114844977866947	-2.5752869	2.4977112	1.9568634
1443114844986259281	-2.1872406	2.137268	2.0168762
1443114844994651615	-1.8468323	2.2516022	2.0780945
1443114845003043949	-1.6079102	2.6473541	2.0476837
1443114845011436283	-1.3423615	3.0881348	2.0166016
1443114845019828617	-1.1516724	3.4122925	2.3389282
1443114845028220951	-0.9385681	3.511383	3.0137634
1443114845036613285	-0.6916504	3.6564636	3.8679962
1443114845045005619	-0.56777954	3.9183044	4.513077
1443114845053397953	-0.5783539	4.3206787	4.912094
1443114845061790287	-0.7482605	4.8877563	5.0664673
1443114845070182621	-1.0028992	5.7151337	5.0369263
1443114845078574955	-1.1052551	7.017929	5.022934
1443114845086967289	-0.8769989	9.183243	5.565796
1443114845095359623	-0.45292664	12.272644	6.857193
1443114845103751957	0.13694763	16.353882	9.398834
1443114845112144291	0.91955566	21.130707	12.160019
1443114845120536625	2.0559387	24.733551	13.193924
1443114845128928959	3.1812897	25.080124	11.839798
1443114845137321293	3.3782349	21.363785	9.782257
1443114845145713627	2.9083557	15.102264	9.156097
1443114845154105961	3.4060516	9.086548	9.987183
1443114845162498295	3.6805725	4.629837	9.620651
1443114845170890629	3.236435	1.8274536	8.183609
1443114845179282963	1.8139801	0.875473	6.3524017
1443114845187675296	-0.25549316	1.786438	4.5624237
1443114845196067630	-2.2541656	4.1280975	2.8644714
1443114845204459964	-4.3485565	6.966873	1.8435059
1443114845212852298	-5.6613617	10.807632	1.77742
1443114845221244632	-7.178055	14.829636	0.5365448
1443114845229636966	-8.820908	19.227203	-1.5497742
1443114845238029300	-8.962524	22.947006	-3.0468445
1443114845246421634	-6.723984	23.575226	-2.0744781
1443114845254813968	-3.1835632	19.148834	1.9438629
1443114845263206302	-1.0388184	12.336212	5.070526
1443114845271598636	-0.92726135	7.704773	5.736313
1443114845279990970	-1.104248	4.146347	4.582855
1443114845288383304	-1.4655762	1.8793335	2.7187347
1443114845296775638	-1.871109	0.67930603	0.889328
1443114845305167972	-2.1342926	0.3310089	-0.5769501
1443114845313560306	-2.0759277	0.71676636	-1.9707947
1443114845321952640	-1.6413574	1.552063	-4.4905243
1443114845330344974	-2.2638702	3.827118	-6.5169525
1443114845338737308	-2.7116852	7.4084473	-6.9713287
1443114845347129642	-2.6793518	11.510971	-5.6192017
1443114845355521976	-1.8861389	15.349976	-3.1682434
1443114845363914310	-0.34370422	18.57196	-0.32873535
1443114845372306644	1.469635	20.24823	2.7701416
1443114845380698978	3.1485138	17.82927	4.909424
1443114845389091312	3.9654388	14.115723	4.634613
1443114845397483646	3.0305634	11.268494	3.704605
1443114845405875980	1.6123962	9.233917	2.437149
1443114845414268314	0.43322754	7.799164	1.1073761
1443114845422660648	-0.49310303	6.837967	-0.2006836
1443114845431052982	-1.2673187	6.3373566	-1.4339752
1443114845439445316	-1.2930145	5.8870087	-1.7465363
1443114845447837650	-1.3512573	5.481659	-1.3479614
1443114845456229984	-1.5870514	5.5734863	-0.8760834
1443114845464622318	-1.3862915	5.862274	-0.7033386
1443114845473014652	-1.1625519	6.422699	-0.6573639
1443114845481406986	-1.0901031	7.1897125	-0.49821472
1443114845489799320	-0.48060608	7.691498	-0.29971313
1443114845498191654	-0.35824585	8.161377	-0.18969727
1443114845506583988	-0.53741455	8.801041	-0.078704834
1443114845514976322	-0.50746155	9.055725	0.046875
1443114845523368656	-0.29896545	8.877335	0.17004395
1443114845531760990	-0.17193604	8.444504	0.20591736
1443114845540153324	-0.21418762	7.9923553	-0.015182495
1443114845548545658	-0.24913025	7.696762	-0.5853424
1443114845556937992	-0.41363525	7.6844177	-0.9544525
1443114845565330326	-0.28874207	7.9972687	-1.1634521
1443114845573722660	-0.1656189	8.40213	-1.0522308
1443114845582114994	-0.103881836	8.8293915	-0.73838806
1443114845590507328	-0.07951355	9.221405	-0.43955994
1443114845598899662	-0.063186646	9.542816	-0.31661987
1443114845607291996	-0.05960083	9.755798	-0.38206482
1443114845615684330	-0.088394165	9.729065	-0.4982605
1443114845624076664	-0.2651062	9.584808	-0.27400208
1443114845632468998	-0.363739	9.401627	0.0211792
1443114845640861332	-0.34007263	9.439102	0.42878723
1443114845649253666	-0.20651245	9.750977	0.755661
1443114845657646000	-0.11836243	10.353546	0.77508545
1443114845666038334	-0.23040771	11.232315	0.42887878
1443114845674430668	-0.30847168	12.158188	0.0019989014
1443114845682823002	0.48416138	12.378784	-0.4774933
1443114845691215336	1.1764069	12.311035	-0.8912506
1443114845699607670	1.5594635	12.336395	-1.0974426
1443114845708000004	1.5139618	12.630737	-1.1007385
1443114845716392338	1.2987823	12.975983	-0.62390137
1443114845724784671	1.1972656	13.141342	1.2475433
1443114845733177005	1.0581818	13.233215	3.0406494
1443114845741569339	0.9317169	13.244522	2.4556122
1443114845749961673	0.799881	13.351212	1.5689087
1443114845758354007	0.7248688	13.667389	1.2992706
1443114845766746341	0.78744507	14.0963745	1.6325684
1443114845775138675	1.0057526	14.367905	1.9823914
1443114845783531009	1.2919159	14.256378	1.8248291
1443114845791923343	1.635315	13.795761	0.9766083
1443114845800315677	1.4887085	13.547867	0.49397278
1443114845808708011	1.1460876	13.445709	0.6917114
1443114845817100345	0.9977722	13.276703	0.7765198
1443114845825492679	0.8011017	12.724091	0.678421
1443114845833885013	0.07467651	11.892715	0.73495483
1443114845842277347	-1.3119965	11.403397	1.0384979
1443114845850669681	-2.5303802	10.845108	0.85546875
1443114845859062015	-3.9801788	11.370392	0.43037415
1443114845867454349	-5.1594543	12.277863	0.2207489
1443114845875846683	-5.796936	12.690094	-0.09126282
1443114845884239017	-5.7500305	12.420074	-0.63108826
1443114845892631351	-5.0020905	11.663666	-1.2993011
1443114845901023685	-3.7388	10.695938	-1.8334503
1443114845909416019	-2.681839	10.032776	-1.7810059
1443114845917808353	-1.9940338	9.83844	-0.11279297
1443114845926200687	-1.2880402	9.569504	2.136963
1443114845934593021	-0.92800903	9.586792	3.9561157
1443114845942985355	-0.69711304	9.999786	4.772339
1443114845951377689	-0.62216187	10.614685	4.6320953
1443114845959770023	-1.0861053	11.064072	3.9033966
1443114845968162357	-1.4706573	11.090805	2.2367249
1443114845976554691	-1.4880829	10.543274	1.230835
1443114845984947025	-1.4010315	9.611908	0.979187
1443114845993339359	-1.4446259	8.958801	0.7473297
1443114846001731693	-1.5069427	8.52179	0.35813904
1443114846010124027	-1.4316254	8.146378	-0.3044281
1443114846018516361	-1.2499237	7.8496857	-1.3084869
1443114846026908695	-1.2910614	7.5391846	-2.0025024
1443114846035301029	-1.081192	7.039154	-1.6956482
1443114846043693363	-0.9868622	6.262741	-1.3954163
1443114846052085697	-1.141571	5.6455994	-0.9734192
1443114846060478031	-1.4281311	5.1964417	-0.4205475
1443114846068870365	-1.7102661	4.5659943	0.05357361
1443114846077262699	-1.9360046	3.550949	0.3552704
1443114846085655033	-2.115387	2.915329	1.1612701
1443114846094047367	-2.188385	2.6829681	1.6126251
1443114846102439701	-2.49411	3.0367584	2.157608
1443114846110832035	-2.5363007	2.5576935	2.189911
1443114846119224369	-2.3284912	2.0628052	2.315277
1443114846127616703	-2.156372	2.2711182	2.726059
1443114846136009037	-2.3028107	2.6347504	2.7760773
1443114846144401371	-2.312149	2.8581543	2.8078613
1443114846152793705	-2.285614	2.83255	3.1214447
1443114846161186039	-2.3811798	2.6557465	3.7718506
1443114846169578373	-2.4906616	2.4682465	4.5898895
1443114846177970707	-2.571518	2.4186401	5.257141
1443114846186363041	-2.686203	2.6426544	5.550125
1443114846194755375	-2.9377136	3.248108	5.509094
1443114846203147709	-3.2328033	4.3246	5.2232666
1443114846211540043	-3.1944733	6.3388977	4.837509
1443114846219932377	-2.8902435	9.591934	4.4978485
1443114846228324711	-2.584488	14.158249	5.077423
1443114846236717045	-2.2103271	20.151657	7.646164
1443114846245109379	-0.88479614	27.347916	11.249924
1443114846253501713	2.5633545	33.866898	12.759415
1443114846261894046	6.34494	31.425003	12.559952
1443114846270286380	5.6705627	21.513046	11.00087
1443114846278678714	4.4237366	12.458694	10.669968
1443114846287071048	3.129959	6.061157	10.9374695
1443114846295463382	1.7944794	2.471161	9.811356
1443114846303855716	0.13056946	1.138916	6.83461
1443114846312248050	-2.0757904	1.5344696	3.9076996
1443114846320640384	-4.0303345	3.793335	2.0672913
1443114846329032718	-5.1253967	7.0454865	1.7621613
1443114846337425052	-5.475067	10.628677	1.1976318
1443114846345817386	-5.754196	14.289764	1.0220642
1443114846354209720	-6.2729645	17.70343	0.6023407
1443114846362602054	-6.149811	19.89444	0.2651825
1443114846370994388	-3.8950043	19.17128	1.3274689
1443114846379386722	0.10560608	13.682922	2.6702576
1443114846387779056	0.5906372	8.840332	0.96424866
1443114846396171390	-0.60450745	6.174118	0.22944641
1443114846404563724	-1.4676819	5.076462	0.48080444
1443114846412956058	-1.9269714	4.4209595	1.1346893
1443114846421348392	-2.499588	3.3361816	1.7590027
1443114846429740726	-3.211441	1.7913208	2.058838
1443114846438133060	-2.9517365	0.9561615	1.1346741
1443114846446525394	-2.610382	2.0501251	-0.4703064
1443114846454917728	-2.281021	3.7138977	-1.5153351
1443114846463310062	-2.1539154	6.0987854	-2.6232147
1443114846471702396	-2.0389557	9.525574	-3.9013672
1443114846480094730	-1.149292	13.4661255	-5.1299286
1443114846488487064	0.4008484	16.672821	-5.5158844
1443114846496879398	0.37094116	19.36287	-3.1651154
1443114846505271732	2.261917	17.547379	-0.48753357
1443114846513664066	3.0458527	13.791321	2.0870514
1443114846522056400	2.7413025	10.688797	3.375229
1443114846530448734	1.9079132	9.127258	3.255722
1443114846538841068	0.9953613	8.592651	2.3845367
1443114846547233402	0.14302063	8.191483	1.4142303
1443114846555625736	-0.45228577	7.7987213	0.42616272
1443114846564018070	-1.3717499	7.8635864	-0.3531189
1443114846572410404	-2.4249878	8.189682	-0.9126587
1443114846580802738	-2.8596954	8.110504	-1.002121
1443114846589195072	-2.8045197	7.820099	-0.82507324
1443114846597587406	-2.676361	7.707382	-0.65411377
1443114846605979740	-2.5061646	7.6593323	-0.47511292
1443114846614372074	-2.0290833	7.235733	-0.23657227
1443114846622764408	-1.747406	7.2116547	-0.2614746
1443114846631156742	-1.49469	7.498398	-0.42616272
1443114846639549076	-1.213211	7.906128	-0.33517456
1443114846647941410	-0.8006439	8.234299	-0.23721313
1443114846656333744	-0.39001465	8.437454	-0.36116028
1443114846664726078	-0.2952118	8.629501	-0.5085907
1443114846673118412	-0.12145996	8.735397	-0.5671997
1443114846681510746	0.079055786	8.837326	-0.66345215
1443114846689903080	0.07165527	8.976135	-0.64598083
1443114846698295414	0.039505005	8.982208	-0.4112854
1443114846706687748	0.08137512	8.891602	-0.15638733
1443114846715080082	0.16511536	8.79953	-0.06135559
1443114846723472416	0.2002716	8.753754	-0.12112427
1443114846731864750	0.254776	8.77124	-0.27226257
1443114846740257084	0.32540894	8.85231	-0.51223755
1443114846748649418	0.39131165	8.91774	-0.6966553
1443114846757041752	0.45541382	9.062881	-0.758667
1443114846765434086	0.50805664	9.249542	-0.690094
1443114846773826420	0.56230164	9.424164	-0.48893738
1443114846782218754	0.6428528	9.556198	-0.13320923
1443114846790611088	0.7199707	9.569565	0.41171265
1443114846799003421	0.603775	9.748459	0.8898163
1443114846807395755	0.3113098	10.307434	0.9465637
1443114846815788089	-0.25595093	11.148544	0.82873535
1443114846824180423	-0.8285217	11.965805	0.683136
1443114846832572757	-1.0379333	12.374695	0.54670715
1443114846840965091	-0.5358124	12.0112915	0.31732178
1443114846849357425	0.28878784	11.436188	-0.07925415
1443114846857749759	1.4475403	11.120544	-0.95936584
1443114846866142093	1.7606506	11.405319	-1.3126221
1443114846874534427	1.8825226	12.072067	-0.128479
1443114846882926761	1.9644623	12.814911	1.5709534
1443114846891319095	1.9501495	13.401535	2.286972
1443114846899730979	1.6714935	13.814224	1.5697174
1443114846908123313	1.5614624	13.611694	1.2962189
1443114846916515647	1.1865997	13.831009	1.3585205
1443114846924907981	0.85946655	13.959488	1.5970001
1443114846933300315	0.7799988	13.853088	1.545227
1443114846941692649	0.7972717	13.717636	1.1652832
1443114846950084983	0.75401306	13.80397	0.6851959
1443114846958477317	0.769989	14.087357	0.304245
1443114846966869651	0.90878296	14.077072	0.1181488
1443114846975261985	0.9848938	13.310547	-0.28981018
1443114846983654319	0.76937866	12.134232	-0.11830139
1443114846992046653	-0.13656616	11.197968	0.5810089
1443114847000438987	-1.4354095	10.687347	1.6305237
1443114847008831321	-2.5546875	10.391678	2.6611328
1443114847017223655	-3.2693481	10.164108	3.1378784
1443114847025615989	-4.489792	11.170685	2.7451172
1443114847034008323	-5.0169983	12.221512	1.4801788
1443114847042400657	-5.263977	12.515549	-0.29566956
1443114847050792991	-4.9505157	12.191391	-1.8499298
1443114847059185325	-4.361191	11.571869	-2.7377014
1443114847067577659	-3.4029846	10.802124	-2.6465912
1443114847075969993	-1.7287445	9.894836	-1.3218994
1443114847084362327	-1.1807251	9.50412	1.2495422
1443114847092754661	-0.91326904	9.73967	3.9261932
1443114847101146995	-0.6789856	10.181656	5.7476807
1443114847109539329	-0.57850647	10.84967	5.710678
1443114847117931663	-0.78486633	11.325287	4.1572876
1443114847126323997	-1.4076385	11.376953	2.2123718
1443114847134716331	-2.2294464	11.131073	0.9419098
1443114847143108665	-2.2541351	10.573807	0.300354
1443114847151500999	-1.9113617	9.648087	0.16195679
1443114847159893333	-1.8625488	8.896957	0.6214142
1443114847168285667	-1.8324738	8.598801	0.6313782
1443114847176678001	-1.7489624	8.420975	0.020492554
1443114847185070335	-1.5318909	8.008453	-0.99360657
1443114847193462669	-1.0992279	7.306671	-1.4217834
1443114847201855003	-1.0169373	6.7745667	-1.2092743
1443114847210247337	-1.2112732	6.1000977	-1.3059082
1443114847218639671	-1.1126556	5.1932526	-1.2969208
1443114847227032005	-1.2629242	4.5740356	-0.38853455
1443114847235424339	-1.4960785	3.6489716	0.6070404
1443114847243816673	-1.6427612	2.4131165	1.1222229
1443114847252209007	-1.944107	1.8516693	1.8023224
1443114847260601341	-2.221695	1.6501465	2.2146149
1443114847268993675	-2.1933746	1.8577881	2.2187042
1443114847277386009	-2.1904907	2.291687	2.0843964
1443114847285778343	-1.8297119	2.6293945	2.0600586
1443114847294170677	-1.4536285	2.9642792	2.193985
1443114847302563011	-1.4129944	3.3580017	2.4248962
1443114847310955345	-1.3506927	3.4672852	2.7216187
1443114847319347679	-1.3218994	3.372696	3.122589
1443114847327740013	-1.2356873	3.3795624	3.668106
1443114847336132346	-1.307724	3.4144592	4.5233307
1443114847344524680	-1.4737244	3.4891052	5.1142426
1443114847352917014	-1.748703	3.73143	5.3191376
1443114847361309348	-2.1812744	4.290985	5.273163
1443114847369701682	-2.7373962	5.3125763	5.07605
1443114847378094016	-3.1065063	7.2537537	4.848831
1443114847386486350	-2.7905884	10.303452	4.9572754
1443114847394878684	-1.7482758	14.297714	6.4469147
1443114847403271018	-0.7611389	19.486343	9.162399
1443114847411663352	0.39439392	24.944382	11.258438
1443114847420055686	2.003952	28.250092	11.322067
1443114847428448020	3.5904236	26.530746	9.887878
1443114847436840354	3.7569885	19.846634	9.416977
1443114847445232688	3.404419	12.782623	9.667084
1443114847453625022	3.929947	7.4334717	9.721817
1443114847462017356	4.165039	3.7804108	8.85231
1443114847470409690	3.5934906	1.7314148	7.6527405
1443114847478802024	2.338272	1.2550659	6.6939545
1443114847487194358	0.7787628	2.2948303	5.7897186
1443114847495586692	-1.11409	4.498184	4.3780365
1443114847503979026	-2.68779	7.1716766	3.5823975
1443114847512371360	-4.5677032	10.779007	3.0890503
1443114847520763694	-6.014038	15.031235	2.0433502
1443114847529156028	-7.3302	20.010254	0.08679199
1443114847537548362	-8.092453	24.88359	-2.1894226
1443114847545940696	-5.6862793	24.870407	-1.6629181
1443114847554333030	-1.5116577	17.3246	0.9308777
1443114847562725364	-0.934845	10.029755	2.886444
1443114847571117698	-1.263382	5.9849243	4.363739
1443114847579510032	-1.9322815	3.1860046	3.9174347
1443114847587902366	-2.5942383	1.0288544	2.5306244
1443114847596294700	-3.1243439	-0.64038086	1.6672363
1443114847604687034	-3.594986	-1.1237488	0.91586304
1443114847613079368	-3.258789	-0.9993286	-0.49787903
1443114847621471702	-2.9616852	-0.026824951	-1.9730377
1443114847629864036	-2.743393	2.011261	-3.4950562
1443114847638256370	-2.7502747	5.102173	-5.311722
1443114847646648704	-2.7029724	9.032333	-6.7299957
1443114847655041038	-2.0765076	13.265793	-6.8471375
1443114847663433372	-0.6630554	17.039581	-5.3632813
1443114847671825706	-0.30628967	20.61348	-1.1673279
1443114847680218040	1.7513123	20.078262	3.3448486
1443114847688610374	3.2486115	16.473068	5.703064
1443114847697002708	3.7532043	12.61087	5.54805
1443114847705395042	3.0056305	10.154007	3.9653168
1443114847713787376	1.388916	9.073013	2.2274323
1443114847722179710	0.048355103	8.189926	0.82377625
1443114847730572044	-0.97673035	7.360199	0.0115356445
1443114847738964378	-1.3133087	6.5207977	-0.7629547
1443114847747356712	-1.4441528	5.8231964	-1.472702
1443114847755749046	-2.309433	5.7216034	-2.2455292
1443114847764141380	-3.0618591	6.0110016	-2.4015045
1443114847772533714	-2.951889	6.4324036	-1.784378
1443114847780926048	-2.4837341	7.087204	-1.3059692
1443114847789318382	-1.7362518	7.988922	-1.1095886
1443114847797710716	-1.0766296	8.6458435	-1.1125946
1443114847806103050	-0.8701782	9.316299	-0.8217621
1443114847814495384	-0.7702179	9.772293	-0.31381226
1443114847822887718	-0.6378479	9.806549	0.06311035
1443114847831280052	-0.50608826	9.456253	0.10972595
1443114847839672386	-0.44734192	8.993683	-0.037094116
1443114847848064720	-0.39385986	8.569061	-0.114212036
1443114847856457054	-0.23478699	8.347565	-0.30296326
1443114847864849388	-0.10520935	8.156586	-0.42636108
1443114847873241721	-0.059448242	8.051834	-0.427536
1443114847881634055	-0.07366943	8.080139	-0.4109497
1443114847890026389	-0.1103363	8.281769	-0.43193054
1443114847898418723	-0.10491943	8.56456	-0.35557556
1443114847906811057	0.019607544	8.893585	-0.61146545
1443114847915203391	0.2259674	9.138596	-0.9166565
1443114847923595725	0.4076538	9.209106	-1.0868225
1443114847931988059	0.5474701	9.2034	-1.083725
1443114847940380393	0.6160126	9.136414	-0.7984772
1443114847948772727	0.6045227	9.086792	-0.28125
1443114847957165061	0.55862427	9.177246	0.17677307
1443114847965557395	0.42599487	9.604965	0.47904968
1443114847973949729	0.40324402	10.39653	0.6003418
1443114847982342063	-0.10321045	11.440048	0.54551697
1443114847990734397	-0.5735779	12.214584	0.41392517
1443114847999126731	-0.5470276	12.302582	0.42015076
1443114848007519065	-0.19552612	11.892456	0.5332031
1443114848015911399	-0.31672668	11.874771	0.2523651
1443114848024303733	-0.06996155	11.961136	-0.40873718
1443114848032696067	0.25593567	12.362198	-0.6750946
1443114848041088401	0.5937042	12.794281	-0.0115356445
1443114848049480735	0.9929657	12.930359	0.9771881
1443114848057873069	1.2638855	12.895721	1.7394257
1443114848066265403	1.2476654	13.10878	1.8387909
1443114848074657737	1.0551605	13.845917	1.1051636
1443114848083050071	0.72821045	14.252045	1.1976929
1443114848091442405	0.34744263	14.62262	1.4727936
1443114848099834739	0.13172913	14.821869	1.2391357
1443114848108227073	0.041122437	14.74057	0.86109924
1443114848116619407	-0.11505127	14.558151	0.4552765
1443114848125011741	-0.28529358	14.13353	0.112472534
1443114848133404075	-0.19636536	12.925858	0.122177124
1443114848141796409	-0.65800476	11.674591	0.72880554
1443114848150188743	-1.7622375	11.031601	1.4480743
1443114848158581077	-2.8172302	10.353912	1.8273163
1443114848166973411	-3.9572906	10.435699	2.2659302
1443114848175365745	-4.845993	11.217712	2.6881256
1443114848183758079	-5.019623	12.158981	2.3785706
1443114848192150413	-4.3127136	12.699234	0.5012665
1443114848200542747	-3.2053833	12.395935	-2.2747803
1443114848208935081	-2.7509003	11.41481	-3.406723
1443114848217327415	-1.3025513	10.518784	-3.666031
1443114848225719749	-0.19921875	10.10257	-2.0075226
1443114848234112083	0.13197327	10.067352	0.8241272
1443114848242504417	-0.03617859	10.163437	3.57547
1443114848250896751	-0.16381836	10.326767	5.3898773
1443114848259289085	0.11276245	10.968323	5.827881
1443114848267681419	-0.36421204	12.021759	4.81369
1443114848276073753	-1.1224823	12.280518	3.8507385
1443114848284466087	-1.802475	11.617172	2.407547
1443114848292858421	-2.3546906	10.464325	1.2562866
1443114848301250755	-2.6368713	9.480484	0.9734192
1443114848309643089	-2.4249115	8.649109	0.8543091
1443114848318035423	-2.2835388	8.270523	-0.0071411133
1443114848326427757	-2.3545837	8.143417	-0.84742737
1443114848334820091	-2.0632172	7.567032	-1.4056244
1443114848343212425	-1.7536163	6.8780365	-1.6781464
1443114848351604759	-1.653305	6.3936462	-1.7505646
1443114848359997093	-1.6801147	6.105011	-1.6065521
1443114848368389427	-1.420639	5.594406	-1.2692261
1443114848376781761	-1.7856445	5.206787	-0.2492981
1443114848385174095	-1.7907715	4.6266174	0.65660095
1443114848393566429	-2.6191254	3.8432465	0.9793396
1443114848401958763	-2.6862183	3.0102386	0.98121643
1443114848410351096	-2.2313385	2.3448944	1.3554382
1443114848418743430	-2.0200806	1.9638214	2.1176147
1443114848427135764	-1.5757294	1.8207092	2.085373
1443114848435528098	-1.2837219	2.1795502	1.5969849
1443114848443920432	-1.0517883	2.8901825	1.170578
1443114848452312766	-0.7868805	3.5357513	1.1243439
1443114848460705100	-0.6275177	3.8725739	1.4317627
1443114848469097434	-0.65486145	3.9033508	2.0442352
1443114848477489768	-0.9113312	3.7799683	2.909851
1443114848485882102	-1.4056396	3.6572723	3.9001312
1443114848494274436	-1.9063721	3.5400543	4.522171
1443114848502666770	-2.3818054	3.5783691	4.8496704
1443114848511059104	-2.7102966	3.827423	5.0138702
1443114848519451438	-2.8246613	4.465851	5.149338
1443114848527843772	-2.7276459	5.8011475	5.3562775
1443114848536236106	-2.5357666	8.194275	5.772537
1443114848544628440	-2.3432007	11.953278	6.7537537
1443114848553020774	-1.6409607	17.24936	9.3940735
1443114848561413108	-0.5037689	25.248276	12.1562805
1443114848569805442	2.2406006	31.242691	12.072174
1443114848578197776	3.9334412	29.623901	10.8945465
1443114848586590110	3.965042	22.808075	10.124863
1443114848594982444	3.1735992	15.316101	10.303635
1443114848603374778	2.5441895	9.505112	10.717606
1443114848611767112	1.4728394	5.6402283	9.220596
1443114848620159446	-0.34147644	3.84375	6.592987
1443114848628551780	-2.4749146	4.2727814	4.195114
1443114848636944114	-4.220352	6.571701	2.646347
1443114848645336448	-5.4628296	10.358978	1.1120148
1443114848653728782	-5.9877167	15.072189	-0.7390747
1443114848662121116	-5.8327026	18.582611	-1.7597198
1443114848670513450	-5.1376495	19.51413	-2.3005524
1443114848678905784	-3.1570435	15.626724	-0.45544434
1443114848687298118	-2.4003754	10.230606	-0.06022644
1443114848695690452	-2.5727234	5.906021	0.545105
1443114848704082786	-3.1903381	3.7408142	2.2638397
1443114848712475120	-3.9196777	2.7519531	4.282181
1443114848720867454	-4.5285645	1.3445129	4.6395416
1443114848729259788	-4.2890015	-0.36943054	3.75737
1443114848737652122	-3.7045135	-0.7444916	1.940567
1443114848746044456	-2.494278	0.17605591	0.7346802
1443114848754436790	-1.3370972	2.3580322	-0.9142914
1443114848762829124	-0.67155457	5.7297974	-3.3139038
1443114848771221458	-0.56700134	10.414612	-5.521576
1443114848779613792	-0.8296356	16.630188	-5.8358765
1443114848788006126	-0.6466217	22.488678	-3.0598297
1443114848796398460	0.21459961	22.674576	-0.55903625
1443114848804790794	1.8370361	19.24562	1.6829529
1443114848813183128	3.3444061	14.967758	3.095459
1443114848821575462	3.734497	11.547958	3.850998
1443114848829967796	2.8703156	9.409088	4.401428
1443114848838360130	1.7820435	8.085831	4.7209473
1443114848846752464	0.6623688	7.061783	3.496399
1443114848855144798	-0.8855896	6.9492645	1.7963104
1443114848863537132	-2.1615448	7.100708	0.40890503
1443114848871929466	-2.9386902	7.251175	-0.6459503
1443114848880321800	-3.2496185	7.412918	-1.3467712
1443114848888714134	-3.0066833	7.4295654	-1.4130249
1443114848897106468	-2.0716248	6.969269	-0.60899353
1443114848905498802	-1.6459656	6.835617	-0.4609375
1443114848913891136	-1.3628845	6.8710785	0.012588501
1443114848922283470	-0.7814789	7.0772552	0.7552643
1443114848930675804	-0.33769226	7.571213	1.3613281
1443114848939068138	-0.13786316	8.06041	1.7342377
1443114848947460471	-0.04496765	8.385864	1.9663391
1443114848955852805	0.09472656	8.718613	2.1288452
1443114848964245139	0.1502533	8.984909	2.0095825
1443114848972637473	0.23384094	8.804321	1.5145721
1443114848981029807	0.38900757	8.331085	0.80548096
1443114848989422141	0.46022034	7.840912	-0.09700012
1443114848997814475	0.41252136	7.461731	-1.0222168
1443114849006206809	0.3269348	7.243225	-1.6684418
1443114849014599143	0.29866028	7.197815	-1.7613678
1443114849022991477	0.2287445	7.2790375	-1.3737488
1443114849031383811	0.13638306	7.5115967	-0.98399353
1443114849039776145	0.16433716	8.107147	-0.68800354
1443114849048168479	0.3236847	8.569168	-0.32110596
1443114849056560813	0.49473572	8.825424	0.13807678
1443114849064953147	0.60899353	8.93396	0.5971222
1443114849073345481	0.6865845	8.885147	0.77160645
1443114849081737815	0.7422333	8.820053	0.5950012
1443114849090130149	0.8085785	9.099533	0.06689453
1443114849098522483	0.40863037	9.816513	-0.4577179
1443114849106914817	-0.20269775	10.787872	-0.61128235
1443114849115307151	-0.68865967	11.911774	-0.4736328
1443114849123699485	-0.7549286	12.866425	-0.34962463
1443114849132091819	-0.21492004	12.864502	-0.34306335
1443114849140484153	0.38963318	12.379227	-0.71733093
1443114849148876487	0.7980652	12.132278	-0.93673706
1443114849157268821	1.1923523	12.22699	-0.008407593
1443114849165661155	1.4804535	12.50798	1.5925598
1443114849174053489	1.5556488	12.711197	3.0749664
1443114849182445823	1.4571075	12.70578	3.7830353
1443114849190838157	1.4056396	12.5937805	3.53862
1443114849199230491	1.432373	12.1475525	3.1787567
1443114849207622825	0.8944092	12.701523	2.709793
1443114849216015159	0.5220032	13.650009	2.4630737
1443114849224407493	0.43408203	14.230179	1.95047
1443114849232799827	0.473114	13.895798	1.2291565
1443114849241192161	0.3453369	12.741806	0.5986786
1443114849249584495	-0.16104126	11.52359	0.20646667
1443114849257976829	-0.6956787	10.719574	0.12628174
1443114849266369163	-1.0205231	11.087494	0.39639282
1443114849274761497	-1.0926514	12.339584	0.6933899
1443114849283153831	-1.8506622	13.654282	1.5027618
1443114849291546165	-3.1352081	14.525787	2.9719543
1443114849299938499	-4.558258	15.127579	4.2812805
1443114849308330833	-5.963684	15.984222	3.9804077
1443114849316723167	-6.351303	16.336884	2.1050415
1443114849325115501	-6.5330505	14.835785	0.38580322
1443114849333507835	-6.1881256	12.870377	-0.37548828
1443114849341900169	-4.7555084	11.447098	-0.44334412
1443114849350292503	-2.7760925	10.798798	-0.3578949
1443114849358684837	-0.8999481	10.645447	0.12600708
1443114849367077171	0.5503082	10.534195	1.8385162
1443114849375469505	0.9531708	10.175262	4.106079
1443114849383861839	0.22581482	10.949463	4.4163666
1443114849392254173	-0.22473145	11.261627	4.4378204
1443114849400646507	-0.91781616	11.079941	3.7477875
1443114849409038841	-1.9598389	10.865173	2.808136
1443114849417431175	-3.0751038	10.51178	2.0470276
1443114849425823509	-3.6413116	9.163544	1.3447113
1443114849434215843	-3.9151611	7.9736786	1.3147888
1443114849442608177	-3.033783	7.218292	1.5449677
1443114849451000511	-2.6402588	6.795624	0.9131317
1443114849459392845	-2.634781	6.537674	0.30046082
1443114849467785179	-2.5542755	6.4200134	0.22044373
1443114849476177513	-2.2055054	6.4194183	0.44210815
1443114849484569846	-1.9293213	6.299057	0.34347534
1443114849492962180	-1.7277985	5.7345886	-0.6271057
1443114849501354514	-1.3103027	4.9615936	-1.024231
1443114849509746848	-1.121933	4.701477	-0.6780853
1443114849518139182	-1.1252136	4.348053	-0.16661072
1443114849526531516	-1.1148834	3.8628235	0.28385925
1443114849534923850	-1.0565491	3.4251404	0.7321625
1443114849543316184	-1.2181854	2.834961	1.2090149
1443114849551708518	-1.2315674	2.3414307	1.6943054
1443114849560100852	-1.5601959	2.1546478	1.7038269
1443114849568493186	-1.8727264	1.8572693	2.072525
1443114849576885520	-2.0793304	1.9547424	2.5713654
1443114849585277854	-2.2366333	2.48378	2.8310852
1443114849593670188	-2.1751404	2.8739014	2.8111267
1443114849602062522	-1.5101624	2.4440765	2.9611511
1443114849610454856	-1.1698303	2.3453827	3.6859894
1443114849618847190	-1.2826843	3.1549835	3.8395386
1443114849627239524	-1.2107239	3.8326874	3.654541
1443114849635631858	-1.2745972	4.176239	3.2864227
1443114849644024192	-1.407486	4.8287506	3.0727997
1443114849652416526	-1.5629272	6.238983	3.235138
1443114849660808860	-1.916214	8.097549	3.7604065
1443114849669201194	-2.113617	10.193954	4.853348
1443114849677593528	-0.9114075	12.966522	6.3697357
1443114849685985862	-1.2516174	16.604874	8.373749
1443114849694378196	-1.3252258	20.442444	10.725616
1443114849702770530	-0.64608765	23.369247	11.929123
1443114849711162864	0.5114746	24.569336	11.33017
1443114849719555198	1.8743744	22.18631	9.36171
1443114849727947532	2.6496124	16.436798	8.270828
1443114849736339866	3.2035828	10.866318	7.709961
1443114849744732200	3.104416	7.197571	7.551193
1443114849753124534	2.4360352	5.390396	7.1392975
1443114849761516868	1.3165436	4.9306793	6.5371094
1443114849769909202	-0.052246094	5.259552	5.9325256
1443114849778301536	-1.4850922	6.305725	5.324951
1443114849786693870	-3.2695465	8.197556	4.2453613
1443114849795086204	-4.263214	10.253265	2.9171448
1443114849803478538	-4.7328033	11.815399	2.048874
1443114849811870872	-4.522629	13.622818	1.4881134
1443114849820263206	-4.216202	15.673904	0.7332916
1443114849828655540	-3.8592377	17.17241	0.022079468
1443114849837047874	-1.8310852	17.166931	0.93925476
1443114849845440208	-0.5582123	13.878845	0.12495422
1443114849853832542	-0.95773315	10.517822	-1.0836792
1443114849862224876	-1.3414459	7.369049	0.38179016
1443114849870617210	-2.5983124	4.688553	1.8760223
1443114849879009544	-3.9935913	2.0635529	2.6260986
1443114849887401878	-4.26062	-0.58517456	2.9956512
1443114849895794212	-3.664688	-1.9696198	2.2854614
1443114849904186546	-3.6174011	-0.26182556	1.330307
1443114849912578880	-2.5544434	1.54393	0.59843445
1443114849920971214	-1.851532	4.1155396	-1.3164978
1443114849929363548	-1.3258057	7.6686554	-3.9278107
1443114849937755882	-0.5903015	12.211548	-5.5352325
1443114849946148216	0.3048706	17.049957	-4.898239
1443114849954540550	0.8404541	20.562988	-2.526886
1443114849962932884	1.9704285	20.985565	0.10316467
1443114849971325218	3.005249	17.406174	1.5753784
1443114849979717552	3.4239044	14.300217	2.3847046
1443114849988109886	3.4965668	12.055115	2.562851
1443114849996502220	2.8619385	10.439468	2.469696
1443114850004894554	1.3757477	9.357788	2.3179016
1443114850013286888	-0.24887085	8.96106	1.9188538
1443114850021679221	-1.0076599	8.667007	1.4016876
1443114850030071555	-2.0358276	8.06929	-0.24882507
1443114850038463889	-3.2136536	6.8545074	-1.2578583
1443114850046856223	-4.020401	5.7967377	-1.3560638
1443114850055248557	-4.32016	5.163986	-1.019928
1443114850063640891	-3.966095	5.1267548	-0.58470154
1443114850072033225	-2.8940277	5.8210144	0.32261658
1443114850080425559	-1.7085419	6.851242	1.4299622
1443114850088817893	-0.77163696	7.857498	1.1367493
1443114850097210227	-0.38832092	8.711166	0.5650177
1443114850105602561	-0.3875122	9.500763	0.35437012
1443114850113994895	-0.4341278	9.8580475	0.53240967
1443114850122387229	-0.38513184	9.673737	0.84259033
1443114850130779563	-0.35787964	9.128799	0.99005127
1443114850139171897	-0.45350647	8.556091	0.90367126
1443114850147564231	-0.60206604	7.8838196	0.44761658
1443114850155956565	-0.76490784	7.3573914	-0.15567017
1443114850164348899	-0.85305786	7.1121216	-0.60375977
1443114850172741233	-0.8001404	7.06987	-0.861969
1443114850181133567	-0.60469055	7.1541443	-1.0302582
1443114850189525901	-0.3524933	7.575485	-1.0346222
1443114850197918235	-0.27331543	8.349701	-0.9009552
1443114850206310569	-0.14926147	9.089096	-0.6830292
1443114850214702903	0.0692749	9.670197	-0.5392761
1443114850223095237	0.4359131	9.938553	-0.37852478
1443114850231487571	0.7861023	9.864731	-0.1685791
1443114850239879905	0.88456726	9.6046295	-0.0016174316
1443114850248272239	0.68273926	9.476166	-0.038650513
1443114850256664573	0.51615906	9.754791	-0.19390869
1443114850265056907	0.18322754	10.403564	-0.45477295
1443114850273449241	-0.32040405	11.139938	-0.38974
1443114850281841575	-0.46566772	11.649521	-0.40423584
1443114850290233909	-0.19129944	11.837494	-0.51976013
1443114850298626243	0.20281982	11.850327	-0.38987732
1443114850307018577	0.40957642	11.965942	0.33161926
1443114850315410911	0.2985382	12.281601	1.3587646
1443114850323803245	0.41915894	12.489517	1.9540253
1443114850332195579	0.40800476	12.795746	2.3630676
1443114850340587913	0.443573	13.043121	2.6059265
1443114850348980247	0.47216797	13.337799	2.356186
1443114850357372581	0.51104736	13.757294	1.6582489
1443114850365764915	0.8601227	14.112778	1.1936646
1443114850374157249	1.574707	14.281403	0.7720947
1443114850382549583	2.0112762	14.400436	0.10072327
1443114850390941917	1.6400146	15.1380005	0.028274536
1443114850399334251	1.0198212	16.144928	0.23693848
1443114850407726585	0.30337524	16.572739	0.3032074
1443114850416118919	-0.73905945	15.812424	0.4936676
1443114850424511253	-2.3726654	13.997513	1.6679993
1443114850432903587	-4.1956024	12.004929	3.2945557
1443114850441295921	-5.5697174	11.339981	4.5158844
1443114850449688255	-5.93985	11.743439	3.9617004
1443114850458080589	-6.019394	12.691971	2.728653
1443114850466472923	-5.936783	13.065323	1.585907
1443114850474865257	-5.6566772	12.505768	0.71617126
1443114850483257591	-5.154297	11.501175	-0.053970337
1443114850491649925	-3.4635315	10.493561	-0.3110199
1443114850500042259	-2.305191	10.049255	0.17996216
1443114850508434593	-1.9256134	9.935013	1.7876434
1443114850516826927	-1.8229218	10.002701	3.2119904
1443114850525219261	-1.7813721	10.269928	3.9626312
1443114850533611595	-1.6983795	10.822784	3.8718262
1443114850542003929	-1.460434	11.530319	3.431717
1443114850550396263	-1.8768463	11.577621	3.0317535
1443114850558788596	-2.2796173	11.202454	2.6790314
1443114850567180930	-2.3489532	10.5347595	1.9809113
1443114850575573264	-2.2166748	9.745773	1.3330994
1443114850583965598	-1.933197	8.89476	0.95072937
1443114850592357932	-1.631958	8.021713	0.6819916
1443114850600750266	-1.7649994	7.3003235	0.19154358
1443114850609142600	-2.020996	6.9219513	-0.28450012
1443114850617534934	-2.0720978	6.4898224	-0.6075592
1443114850625927268	-1.9339142	6.0002136	-0.8054199
1443114850634319602	-2.0590363	5.537781	-0.74502563
1443114850642711936	-2.1091156	5.0182037	-0.7361145
1443114850651104270	-1.7678833	4.3124695	-0.87413025
1443114850659496604	-1.6289978	3.473526	-0.4853363
1443114850667888938	-1.7482605	3.04068	0.3330841
1443114850676281272	-1.7067261	2.8556519	0.96421814
1443114850684673606	-1.8183899	2.9332428	1.5378418
1443114850693065940	-1.9918518	2.865448	2.1731567
1443114850701458274	-2.0851593	2.8901215	2.807907
1443114850709850608	-2.0580444	3.219101	3.2186432
1443114850718242942	-1.9992065	3.498703	3.146637
1443114850726635276	-1.8202972	3.8955536	2.5934906
1443114850735027610	-1.9684143	4.188263	2.681778
1443114850743419944	-1.8426056	4.360214	2.7167969
1443114850751812278	-1.5579376	4.4079437	2.620987
1443114850760204612	-1.2700958	4.3654633	2.5671692
1443114850768596946	-1.0928345	4.270096	2.8268585
1443114850776989280	-1.0408173	4.142929	3.5373993
1443114850785381614	-0.84854126	4.0257263	4.210846
1443114850793773948	-0.5736847	3.9989777	4.5440826
1443114850802166282	-0.3879547	4.4018097	5.0989685
1443114850810558616	-0.37142944	5.2580414	6.376892
1443114850818950950	-0.34516907	6.6058197	7.6029205
1443114850827343284	-0.23171997	8.559128	8.37944
1443114850835735618	-0.20733643	11.737747	9.43306
1443114850844127952	0.17308044	16.14035	11.536697
1443114850852520286	1.0529175	21.444702	12.494171
1443114850860912620	2.4622955	24.40947	11.230621
1443114850869304954	3.4356537	23.407455	9.199066
1443114850877697288	3.4539032	18.899689	8.138641
1443114850886089622	2.8805695	12.892426	8.661301
1443114850894481956	2.6448822	7.619629	9.4832
1443114850902874290	1.9837646	4.21434	7.9944153
1443114850911266624	0.4504547	2.9571228	5.3820496
1443114850919658958	-1.5950317	3.3798828	3.009781
1443114850928051292	-3.6054077	5.070694	2.135025
1443114850936443626	-5.1482697	7.604248	2.8376617
1443114850944835960	-6.1837616	10.67218	4.010437
1443114850953228294	-7.1392517	14.209122	4.12735
1443114850961620628	-7.550522	18.279633	3.873413
1443114850970012962	-7.178177	21.315445	2.7493896
1443114850978405296	-5.6568756	21.593079	3.4728851
1443114850986797630	-3.7704468	18.730453	3.6154938
1443114850995189964	-2.7426147	14.068695	2.5522919
1443114851003582298	-2.9313202	9.400192	1.4623718
1443114851011974632	-3.0402222	5.430008	1.2924194
1443114851020366966	-3.148178	2.01445	1.1063385
1443114851028759300	-3.1463318	-0.67196655	1.9881592
1443114851037151634	-2.6541748	-1.9639435	1.3901825
1443114851045543968	-1.4830322	-1.9815216	-0.09887695
1443114851053936302	-0.0819397	-0.91648865	-1.5951843
1443114851062328636	0.87753296	1.2392731	-2.9921112
1443114851070720970	1.0012207	4.7613525	-4.935425
1443114851079113304	0.103637695	10.002945	-5.4711
1443114851087505638	-0.49534607	14.746841	-2.4472656
1443114851095897971	-0.20596313	18.238129	0.68460083
1443114851104290305	0.6403351	20.299408	2.084732
1443114851112682639	1.1957703	20.426086	2.4968567
1443114851121074973	1.1697693	18.352585	2.8129272
1443114851129467307	1.1931763	14.620026	2.5334015
1443114851137859641	0.8908844	10.706818	2.643402
1443114851146251975	-0.14422607	8.133392	2.118164
1443114851154644309	-1.1160889	6.252884	1.0557404
1443114851163036643	-1.6491699	5.308853	-0.08270264
1443114851171428977	-2.1841888	5.071106	-0.94799805
1443114851179821311	-2.976242	5.3230896	-1.2242432
1443114851188213645	-2.7192383	5.7048187	-0.8641968
1443114851196605979	-2.6040955	6.175705	0.4148407
1443114851204998313	-2.0558777	6.972946	1.4279175
1443114851213390647	-1.3957367	7.9008484	1.7280579
1443114851221782981	-0.7068176	8.735657	1.4159393
1443114851230175315	-0.08067322	9.364685	0.72940063
1443114851238567649	0.3704834	9.808884	0.0234375
1443114851246959983	0.63067627	10.147247	-0.07241821
1443114851255352317	0.49804688	10.215103	0.15890503
1443114851263744651	0.48425293	9.860306	0.51086426
1443114851272136985	0.41293335	9.256897	0.72288513
1443114851280529319	0.2883911	8.624161	0.585907
1443114851288921653	0.14237976	8.017151	0.26869202
1443114851297313987	0.054977417	7.412552	0.047561646
1443114851305706321	0.19784546	6.9263916	-0.18241882
1443114851314098655	0.28215027	6.82666	-0.502182
1443114851322490989	0.42666626	6.9194183	-0.70700073
1443114851330883323	0.6018982	7.2546234	-0.8458557
1443114851339275657	0.83602905	7.8175964	-1.0762634
1443114851347667991	1.0117188	8.402451	-1.1490479
1443114851356060325	0.99131775	8.765808	-0.74664307
1443114851364452659	0.80085754	8.848373	-0.017333984
1443114851372844993	0.41323853	8.782547	0.5779724
1443114851381237327	0.2862854	8.619934	0.55885315
1443114851389629661	0.38180542	8.562378	0.21624756
1443114851398021995	0.46266174	8.702423	-0.05015564
1443114851406414329	0.25520325	9.199921	-0.231781
1443114851414806663	-0.21859741	10.008972	-0.35064697
1443114851423198997	-0.51901245	10.718353	-0.16233826
1443114851431591331	-0.7462311	11.3517	-0.33816528
1443114851439983665	-0.43034363	11.600357	-0.59677124
1443114851448375999	-0.11515808	11.875504	-0.8759918
1443114851456768333	0.19189453	12.17189	-1.115097
1443114851465160667	0.560791	12.361298	-0.9806824
1443114851473553001	0.9875641	12.559692	-0.4739685
1443114851481945335	1.4210205	13.080643	-0.046691895
1443114851490337669	1.8857422	13.258499	0.8478241
1443114851498730003	1.7323151	13.407944	2.4870605
1443114851507122337	1.3048401	14.26355	3.1148224
1443114851515514671	0.9345703	15.279602	2.9133453
1443114851523907005	0.57307434	15.854523	2.6894836
1443114851532299339	-0.085998535	15.702423	2.9246063
1443114851540691673	-0.541687	14.323517	2.7892609
1443114851549084007	-0.4656067	12.926239	2.002716
1443114851557476341	-0.720871	12.344299	0.9203949
1443114851565868675	-1.4402466	12.028168	0.61802673
1443114851574261009	-2.3162231	11.668823	0.90068054
1443114851582653343	-2.9430695	11.248947	1.2284393
1443114851591045677	-3.2116547	11.026901	1.243515
1443114851599438011	-3.6568298	11.43425	0.9902649
1443114851607830345	-3.9046173	12.637222	1.1578674
1443114851616222679	-3.8919067	14.062576	1.3865814
1443114851624615013	-3.4504852	14.743317	1.2080536
1443114851633007346	-2.8429108	14.5195465	0.8706665
1443114851641399680	-2.367859	13.598633	0.720871
1443114851649792014	-2.2532043	12.335083	1.0368347
1443114851658184348	-2.652542	11.095093	2.0368347
1443114851666576682	-2.8129272	10.192352	3.0053558
1443114851674969016	-2.7118378	10.25592	3.005783
1443114851683361350	-2.4852448	10.79892	2.7438202
1443114851691753684	-2.2628326	11.417618	2.5279694
1443114851700146018	-2.0994263	11.78537	2.3968353
1443114851708538352	-1.9785614	11.705917	2.2213898
1443114851716930686	-1.8487549	11.141556	1.8832855
1443114851725323020	-1.5588074	10.094879	1.8442078
1443114851733715354	-1.4286194	9.421295	1.5862885
1443114851742107688	-1.1685333	8.793015	1.342804
1443114851750500022	-1.0380859	8.163483	0.99261475
1443114851758892356	-1.0327148	7.5799255	0.38153076
1443114851767284690	-0.9374237	7.0400543	-0.49101257
1443114851775677024	-0.62983704	6.4045258	-1.3500366
1443114851784069358	-0.43859863	5.59021	-1.5525818
1443114851792461692	-0.9492798	5.0425415	-1.3179626
1443114851800854026	-1.5859985	4.886383	-1.2599335
1443114851809246360	-1.8952179	4.482605	-0.8601837
1443114851817638694	-2.0288239	3.7674713	-0.008575439
1443114851826031028	-2.355133	3.2659607	0.70358276
1443114851834423362	-2.4309387	3.0128937	1.0353394
1443114851842815696	-2.6458282	2.985138	1.1844177
1443114851851208030	-2.5760345	2.8636475	1.5068817
1443114851859600364	-2.3977356	2.6803284	1.7615662
1443114851867992698	-2.015335	2.2205505	1.8126678
1443114851876385032	-1.6674042	1.765976	1.8094635
1443114851884777366	-1.6081238	1.6782379	1.9433441
1443114851893169700	-1.5926971	1.7306824	2.2518005
1443114851901562034	-1.4929657	1.7995605	2.8923492
1443114851909954368	-1.3278809	1.9320679	3.524292
1443114851918346702	-1.0953674	2.1800995	3.9871826
1443114851926739036	-0.90065	2.5557556	4.3230896
1443114851935131370	-0.8617859	3.1463776	4.529129
1443114851943523704	-1.013855	4.063217	4.6031647
1443114851951916038	-1.2250671	5.263336	4.8177643
1443114851960308372	-1.4039612	7.087311	5.1282806
1443114851968700706	-1.3025818	10.039413	6.1267395
1443114851977093040	-0.78056335	14.048065	8.153702
1443114851985485374	0.23521423	19.034927	10.736404
1443114851993877708	1.5915527	24.326996	12.354828
1443114852002270042	2.9682617	28.258286	11.538254
1443114852010662376	4.0637817	28.090256	8.735718
1443114852019054710	4.355789	21.78041	7.9286194
1443114852027447044	4.4351196	13.359192	8.561676
1443114852035839378	4.369705	6.542389	9.565903
1443114852044231712	3.5050201	2.4539337	9.525803
1443114852052624046	1.7093048	0.9785156	8.111633
1443114852061016380	-0.49108887	1.41893	5.9548492
1443114852069408714	-2.3844757	3.034439	3.81073
1443114852077801048	-4.3760376	5.901993	2.8894958
1443114852086193382	-5.8427277	9.941116	2.6525116
1443114852094585716	-6.458496	14.683029	2.739334
1443114852102978050	-6.6593323	19.490952	2.4334564
1443114852111370384	-5.9028015	22.41011	2.8560333
1443114852119762718	-3.768631	21.498001	4.808197
1443114852128155052	-1.6100464	16.855545	5.998001
1443114852136547386	-2.473709	12.64212	2.5628815
1443114852144939720	-2.8158112	9.372742	1.0943909
1443114852153332054	-3.2366028	6.3725433	1.4785614
1443114852161724388	-3.8874054	3.28891	1.9598846
1443114852170116721	-4.41835	0.31402588	2.3248444
1443114852178509055	-4.0615997	-1.4938812	3.039032
1443114852186901389	-3.3650665	-1.6401672	1.8482361
1443114852195293723	-2.7255554	-0.84332275	-0.06414795
1443114852203686057	-1.7499237	0.6854248	-1.5336304
1443114852212078391	-0.6977234	3.1134644	-3.4076843
1443114852220470725	0.020690918	6.0662384	-5.1481476
1443114852228863059	0.52479553	9.340027	-5.864807
1443114852237255393	1.1235657	13.230972	-4.530319
1443114852245647727	1.929657	17.273727	-1.0160522
1443114852254040061	3.8840027	19.790558	1.493866
1443114852262432395	4.6934204	20.032135	1.9931946
1443114852270824729	4.37973	18.507675	1.724472
1443114852279217063	3.7205353	15.948227	1.2555542
1443114852287609397	2.8646393	13.060486	0.88471985
1443114852296001731	1.4649811	10.342804	0.79714966
1443114852304394065	0.22491455	7.97023	0.93647766
1443114852312786399	-1.3964996	6.5688477	0.5632477
1443114852321178733	-2.8201752	6.2084503	-0.23420715
1443114852329571067	-3.372467	6.066635	-0.6815033
1443114852337963401	-3.4904175	5.93808	-0.6030884
1443114852346355735	-3.3995667	5.844803	-0.23371887
1443114852354748069	-3.013504	5.9672394	0.061080933
1443114852363140403	-2.6241608	6.71434	0.13023376
1443114852371532737	-1.7656403	7.3117065	0.03668213
1443114852379925071	-1.2879639	8.003403	-0.72158813
1443114852388317405	-0.93084717	8.682327	-0.6054535
1443114852396709739	-0.6739197	9.194122	0.10206604
1443114852405102073	-0.45481873	9.413834	0.65444946
1443114852413494407	-0.21583557	9.271454	0.6166382
1443114852421886741	-0.08010864	8.751251	0.26228333
1443114852430279075	-0.27545166	7.942093	-0.52015686
1443114852438671409	-0.85510254	7.66803	-0.86831665
1443114852447063743	-1.0700684	7.514801	-0.89279175
1443114852455456077	-1.1126709	7.208954	-0.91659546
1443114852463848411	-1.1534576	6.978607	-1.1185913
1443114852472240745	-1.1438599	7.175293	-1.4272614
1443114852480633079	-0.9147186	7.7047424	-1.5433044
1443114852489025413	-0.4818573	8.27742	-0.9233246
1443114852497417747	-0.023040771	8.978073	-0.1559143
1443114852505810081	0.3217163	9.670639	0.37709045
1443114852514202415	0.41886902	10.10907	0.77163696
1443114852522594749	0.29533386	10.207916	1.039444
1443114852530987083	0.07556152	10.076874	1.1314697
1443114852539379417	-0.14225769	9.962097	1.058136
1443114852547771751	-0.38079834	10.177994	0.7332306
1443114852556164085	-0.59765625	10.698334	0.14312744
1443114852564556419	-0.8410187	11.338242	-0.37078857
1443114852572948753	-0.8812561	11.83461	-0.6083374
1443114852581341087	-0.5308838	11.959747	-0.5819092
1443114852589733421	0.3027954	11.569977	-0.2713623
1443114852598125755	0.82154846	11.257355	0.29270935
1443114852606518089	0.79685974	11.371475	1.2273254
1443114852614910423	0.80410767	11.555664	2.304062
1443114852623302757	1.0062561	12.10405	2.707138
1443114852631695091	1.2398987	12.70546	2.4447937
1443114852640087425	1.2373505	13.327713	1.6811829
1443114852648479759	0.89237976	14.182846	0.68504333
1443114852656872093	0.51597595	14.608475	0.38064575
1443114852665264427	0.68151855	14.178696	0.05882263
1443114852673656761	0.900589	13.775696	-0.55747986
1443114852682049095	0.9567108	13.534271	-1.1005554
1443114852690441429	0.40124512	13.511093	-1.1051941
1443114852698833763	-0.48947144	13.92244	-0.5226898
1443114852707226096	-1.04393	14.72464	0.2998352
1443114852715618430	-1.5063171	14.782074	1.072998
1443114852724010764	-2.6475677	14.002731	1.6611176
1443114852732403098	-3.533844	13.201324	2.2589417
1443114852740795432	-3.9045258	12.721176	2.5355835
1443114852749187766	-4.164688	12.389938	2.4923248
1443114852757580100	-4.6180267	12.1002655	2.1068115
1443114852765972434	-5.0526276	11.803314	1.223938
1443114852774364768	-4.6781464	11.242477	-0.3532257
1443114852782757102	-3.9275818	10.891876	-1.830719
1443114852791149436	-3.1166534	10.438538	-1.6169434
1443114852799541770	-2.3191833	10.085785	-0.38560486
1443114852807934104	-1.8043823	10.136185	1.4143372
1443114852816326438	-1.4942322	10.504547	3.082962
1443114852824718772	-1.2446594	10.902924	3.9039001
1443114852833111106	-1.3373108	11.268875	3.6218872
1443114852841503440	-1.6981964	11.666763	2.8024445
1443114852849895774	-2.311081	11.7013855	2.458496
1443114852858288108	-2.9687347	11.719452	2.107483
1443114852866680442	-3.0924072	11.33313	1.827713
1443114852875072776	-2.929016	10.632126	1.471878
1443114852883465110	-2.9031982	9.900162	0.8783722
1443114852891857444	-2.7207947	9.044388	0.23703003
1443114852900249778	-2.4216003	7.9483643	-0.26470947
1443114852908642112	-1.5210419	7.177902	-1.2401123
1443114852917034446	-0.86920166	6.5015717	-1.6937866
1443114852925426780	-0.8339691	6.029297	-1.5714417
1443114852933819114	-0.88487244	5.6452484	-1.4651184
1443114852942211448	-0.6933899	5.1747284	-1.4013977
1443114852950603782	-0.72976685	4.571213	-0.73620605
1443114852958996116	-1.1441193	3.9286194	-0.33728027
1443114852967388450	-1.4659882	3.3856354	-0.01473999
1443114852975780784	-1.7218475	2.9296265	0.43182373
1443114852984173118	-1.8197327	2.5704193	0.8532715
1443114852992565452	-1.7827759	2.345993	1.1551361
1443114853000957786	-1.7112274	2.3042145	1.4243011
1443114853009350120	-1.4798889	2.3669434	1.740982
1443114853017742454	-1.3581696	2.5115967	1.8865814
1443114853026134788	-1.3301544	2.57695	2.0683746
1443114853034527122	-1.4247894	2.5870972	2.3332214
1443114853042919456	-1.5214081	2.5570526	2.6900635
1443114853051311790	-1.5574341	2.5238953	3.190277
1443114853059704124	-1.5723419	2.5638275	3.833496
1443114853068096458	-1.5993195	2.7907715	4.332077
1443114853076488792	-1.6425018	3.2082214	4.476013
1443114853084881126	-1.8037872	3.9125977	4.572708
1443114853093273460	-1.9285278	4.996567	4.6858673
1443114853101665794	-1.9432526	6.8451996	4.8156586
1443114853110058128	-1.7298126	9.803558	5.221283
1443114853118450462	-1.096756	14.082214	6.570923
1443114853126842796	0.17616272	19.793991	9.800812
1443114853135235130	2.2407227	26.518188	12.67865
1443114853143627464	4.393738	29.921906	11.291504
1443114853152019798	5.6157227	27.719193	8.74765
1443114853160412132	5.7877045	21.409058	7.682022
1443114853168804466	5.9538727	13.528351	8.636749
1443114853177196800	6.6098633	6.3636475	10.179794
1443114853185589134	5.6651154	1.3977661	10.190002
1443114853193981468	3.0165558	-0.22982788	7.5342407
1443114853202373802	0.18554688	0.21250916	3.8795776
1443114853210766136	-2.283249	1.8969574	1.1663818
1443114853219158470	-4.669327	4.812668	-0.2457428
1443114853227550804	-6.783325	8.656296	-0.3400421
1443114853235943138	-8.186829	13.015442	0.2839508
1443114853244335471	-8.85907	17.713272	0.21504211
1443114853252727805	-9.403992	21.276886	0.58929443
1443114853261120139	-7.5768585	22.226395	3.146637
1443114853269512473	-5.251831	21.420227	5.2744904
1443114853277904807	-3.4924774	18.151733	5.355652
1443114853286297141	-2.5899353	12.541397	3.8590698
1443114853294689475	-2.3291626	6.266739	2.2975616
1443114853303081809	-2.4199219	2.097351	1.6732178
1443114853311474143	-2.9329834	0.033813477	1.7883759
1443114853319866477	-3.3292236	-0.59669495	0.9291992
1443114853328258811	-3.2927246	-0.8943329	0.018859863
1443114853336651145	-2.8204193	-0.45239258	-1.6330261
1443114853345043479	-2.2543488	1.1406708	-3.7866669
1443114853353435813	-1.9967957	3.4768524	-5.386154
1443114853361828147	-1.7521057	6.8574677	-6.177841
1443114853370220481	-1.4087524	10.884857	-5.1705627
1443114853378612815	-0.4965515	14.487381	-2.7252502
1443114853387005149	1.0855408	17.650177	-0.076675415
1443114853395397483	2.5188446	19.71811	2.08255
1443114853403789817	3.2489014	19.749756	3.2963867
1443114853412182151	3.4151611	17.295807	3.2512054
1443114853420574485	3.4447632	13.53064	1.9494476
1443114853428966819	2.0392456	11.028091	1.3376923
1443114853437359153	1.2504578	8.92627	0.79792786
1443114853445751487	0.23970032	7.4475555	0.23095703
1443114853454143821	-1.1135406	6.8185425	-0.4124298
1443114853462536155	-2.2183075	6.622345	-0.8683624
1443114853470928489	-2.549057	6.2276	-0.8630676
1443114853479320823	-2.868805	5.9384003	-0.77508545
1443114853487713157	-2.9911346	5.7954865	-0.585907
1443114853496105491	-2.2150116	5.443451	-0.3276062
1443114853504497825	-1.6623383	6.0154877	-0.23625183
1443114853512890159	-1.2388611	6.824524	-0.50764465
1443114853521282493	-1.035141	7.6731873	-0.95506287
1443114853529674827	-1.1371613	8.700195	-1.1506348
1443114853538067161	-0.8284912	9.142822	-0.83869934
1443114853546459495	-0.80792236	9.3710785	-0.1570282
1443114853554851829	-0.733078	9.251892	0.48121643
1443114853563244163	-0.7296295	8.915939	0.6598358
1443114853571636497	-0.74375916	8.43959	0.5769806
1443114853580028831	-0.7236328	7.971115	0.36709595
1443114853588421165	-0.6483154	7.653839	0.08351135
1443114853596813499	-0.5014343	7.5163727	-0.124435425
1443114853605205833	-0.24746704	7.7271576	-0.32081604
1443114853613598167	0.053588867	8.111542	-0.46826172
1443114853621990501	0.37734985	8.497482	-0.49157715
1443114853630382835	0.65457153	8.768295	-0.4567871
1443114853638775169	0.80036926	8.947418	-0.38412476
1443114853647167503	0.7723694	9.075348	-0.2071991
1443114853655559837	0.62057495	9.08786	0.16783142
1443114853663952171	0.48486328	9.078598	0.46907043
1443114853672344505	0.45654297	9.287933	0.79011536
1443114853680736839	0.35206604	9.839233	0.79325867
1443114853689129173	0.047698975	10.78894	0.5629425
1443114853697521507	-0.4379425	11.892593	0.34306335
1443114853705913841	-0.70906067	12.572601	0.30918884
1443114853714306175	-0.38394165	12.694244	0.19865417
1443114853722698509	0.21705627	12.6297455	-0.058380127
1443114853731090843	0.48524475	12.537628	0.13508606
1443114853739483177	0.3878479	12.628464	0.88082886
1443114853747875511	0.44839478	12.771347	1.825882
1443114853756267845	0.6443329	12.746887	2.7967682
1443114853764660179	0.7461395	12.551849	3.3565826
1443114853773052513	0.606308	13.215027	1.9850006
1443114853781444846	0.74716187	13.681808	1.3958588
1443114853789837180	0.3032837	14.051422	1.3269806
1443114853798229514	-0.035751343	14.146805	1.397232
1443114853806621848	0.0019683838	13.544327	1.0946503
1443114853815014182	0.0021362305	12.40004	0.579834
1443114853823406516	-0.5731659	11.544983	0.45411682
1443114853831798850	-1.1976471	11.904388	0.6780548
1443114853840191184	-1.8423004	12.794785	1.1129761
1443114853848583518	-2.592392	13.852982	1.5373383
1443114853856975852	-3.540863	14.678345	1.364624
1443114853865368186	-4.8937073	15.230072	1.061676
1443114853873760520	-6.1912537	15.365051	0.68032837
1443114853882152854	-6.782242	14.889618	0.07267761
1443114853890545188	-6.94989	13.894699	-0.019500732
1443114853898937522	-6.710327	12.581726	0.36091614
1443114853907329856	-4.978546	11.60704	0.19935608
1443114853915722190	-2.9999847	10.988632	0.11332703
1443114853924114524	-1.1580658	10.483246	0.41992188
1443114853932506858	0.23495483	9.963959	1.1013336
1443114853940899192	0.87939453	9.545029	2.0273285
1443114853949291526	0.70825195	9.510178	3.2570496
1443114853957683860	0.20857239	9.584213	4.665634
1443114853966076194	-0.26911926	9.881744	4.5564117
1443114853974468528	-0.9206085	10.054855	3.6391907
1443114853982860862	-1.4858704	9.95488	2.6903534
1443114853991253196	-1.847992	9.607773	2.0144196
1443114853999645530	-2.1064606	9.154831	1.5494385
1443114854008037864	-2.4289093	8.734756	1.2124329
1443114854016430198	-2.575943	8.163101	1.0355835
1443114854024822532	-2.4883575	7.5166626	0.7073059
1443114854033214866	-2.430832	6.9809265	0.34259033
1443114854041607200	-2.3199768	6.530014	-0.05621338
1443114854049999534	-2.0924225	6.201065	-0.50175476
1443114854058391868	-1.8380737	5.9652557	-0.85258484
1443114854066784202	-1.6311798	5.695221	-0.84806824
1443114854075176536	-1.2778473	5.243759	-0.71629333
1443114854083568870	-1.1100616	4.774872	-0.4227295
1443114854091961204	-0.87649536	4.335678	0.029327393
1443114854100353538	-0.8941803	4.030304	0.42311096
1443114854108745872	-0.8888855	3.63414	0.81469727
1443114854117138206	-0.68318176	3.0777283	1.3328552
1443114854125530540	-0.8805847	2.8628387	2.105011
1443114854133922874	-0.92489624	2.6877594	2.3147583
1443114854142315208	-0.8529968	2.346756	2.449646
1443114854150707542	-0.9297943	2.3847198	2.5610504
1443114854159099876	-1.099472	2.6546936	2.6370087
1443114854167492210	-1.2620697	2.894516	2.7389374
1443114854175884544	-1.3729706	3.0157928	2.9619904
1443114854184276878	-1.3619232	3.079422	3.2370758
1443114854192669212	-1.3732147	3.225418	3.8426666
1443114854201061546	-1.3331451	3.422821	4.279251
1443114854209453880	-1.2479401	3.7834015	4.4435883
1443114854217846214	-1.2808838	4.3740234	4.493881
1443114854226238548	-1.4480896	5.286728	4.5711517
1443114854234630882	-1.6329498	6.7313995	4.694153
1443114854243023216	-1.8118439	9.1163025	4.804245
1443114854251415550	-1.819046	12.82489	5.3975067
1443114854259807884	-1.5245972	17.656448	7.593338
1443114854268200218	-0.69473267	23.738464	10.557846
1443114854276592552	1.0847015	28.639725	11.750549
1443114854284984886	3.1050262	29.11795	10.855225
1443114854293377220	4.080658	23.6866	9.539612
1443114854301769554	3.6953278	15.067398	9.097504
1443114854310161888	4.806778	7.8352814	10.334381
1443114854318554221	4.8052826	3.7675323	10.543747
1443114854326946555	3.7393036	2.159668	8.670853
1443114854335338889	1.5080414	2.6277313	5.789688
1443114854343731223	-1.0931702	4.7498627	3.1794891
1443114854352123557	-3.2224426	8.034683	1.2329407
1443114854360515891	-5.0962524	11.90181	-0.7992859
1443114854368908225	-5.5969696	15.199142	-0.93089294
1443114854377300559	-6.5010223	18.06903	-1.1709747
1443114854385692893	-6.1056213	18.948654	-0.68592834
1443114854394085227	-4.118469	16.973282	0.15148926
1443114854402477561	-2.6332397	13.569138	1.387497
1443114854410869895	-2.9154358	10.583542	3.1987915
1443114854419262229	-2.8229523	8.050369	5.067627
1443114854427654563	-3.1704712	4.8774414	4.217346
1443114854436046897	-3.8466644	2.271698	4.224121
1443114854444439231	-3.8517914	0.32637024	3.455017
1443114854452831565	-3.0360413	-0.39239502	1.6537476
1443114854461223899	-2.155182	-0.24681091	-0.1058197
1443114854469616233	-1.8441315	0.6704407	-1.4052429
1443114854478008567	-2.2684784	2.7744293	-2.9858093
1443114854486400901	-2.4154816	6.306656	-4.6967926
1443114854494793235	-1.5824738	10.413437	-5.0485077
1443114854503185569	-0.29560852	14.693008	-3.354416
1443114854511577903	1.0799713	18.405106	-0.68296814
1443114854519970237	2.310791	20.625244	1.5998535
1443114854528362571	3.2831116	20.446411	2.7566986
1443114854536754905	4.041931	17.219025	2.9208984
1443114854545147239	4.241394	13.147476	3.0031586
1443114854553539573	3.0806122	10.422363	2.4143524
1443114854561931907	1.623169	8.527435	1.5176086
1443114854570324241	0.12297058	7.3851776	0.5968933
1443114854578716575	-1.3612976	6.9848175	-0.11433411
1443114854587108909	-2.5679169	7.1417084	-0.47383118
1443114854595501243	-2.8775787	7.3884735	-0.51486206
1443114854603893577	-3.1490173	7.497467	-0.32156372
1443114854612285911	-3.0604553	7.0382233	-0.08415222
1443114854620678245	-2.9866638	6.2687073	0.41262817
1443114854629070579	-2.7332	5.9667816	0.6037903
1443114854637462913	-2.3249664	6.2214203	0.43373108
1443114854645855247	-1.9653931	6.676178	0.2507019
1443114854654247581	-1.5641174	7.5060425	-0.03579712
1443114854662639915	-0.9091797	8.141434	-0.48612976
1443114854671032249	-0.54977417	8.415527	-0.643631
1443114854679424583	-0.30607605	8.420273	-0.6183777
1443114854687816917	-0.158844	8.260208	-0.57450867
1443114854696209251	-0.16616821	8.026001	-0.6121063
1443114854704601585	-0.32200623	7.8092194	-0.7564697
1443114854712993919	-0.44706726	7.7191925	-0.99794006
1443114854721386253	-0.68252563	7.6862793	-1.270401
1443114854729778587	-0.76898193	7.7333984	-1.1115265
1443114854738170921	-0.7717285	7.865097	-0.8641968
1443114854746563255	-0.6719818	8.1020355	-0.654953
1443114854754955589	-0.5009918	8.431763	-0.542984
1443114854763347923	-0.3473816	8.814117	-0.5128021
1443114854771740257	-0.30781555	9.203659	-0.44961548
1443114854780132591	-0.32424927	9.566589	-0.11956787
1443114854788524925	-0.4408722	9.654587	0.2530365
1443114854796917259	-0.5175781	9.623016	0.7245941
1443114854805309593	-0.5470886	9.626633	1.0567017
1443114854813701927	-0.66415405	9.865204	1.0411224
1443114854822094261	-0.9788666	10.45253	0.6706543
1443114854830486595	-1.4299927	11.34903	0.13821411
1443114854838878929	-1.5440216	12.087433	-0.09732056
1443114854847271263	-1.1573181	12.244492	-0.15776062
1443114854855663596	-0.6325073	11.897736	-0.18167114
1443114854864055930	-0.013626099	11.240555	0.1257782
1443114854872448264	0.5259552	10.866974	0.6201019
1443114854880840598	0.67196655	11.369171	0.8887329
1443114854889232932	0.55885315	12.073471	1.7688446
1443114854897625266	0.4713745	13.134262	2.0250702
1443114854906017600	0.32661438	14.049957	1.6523132
1443114854914409934	-0.049804688	14.764938	1.2224426
1443114854922802268	-0.49195862	15.248657	1.0339508
1443114854931194602	-0.6645355	15.498657	1.0687408
1443114854939586936	-0.30090332	15.473801	0.99198914
1443114854947979270	0.5063629	14.984528	0.21618652
1443114854956371604	0.62664795	14.573242	-0.8078766
1443114854964763938	0.61309814	14.41394	-0.87394714
1443114854973156272	0.27999878	14.38147	-0.028793335
1443114854981548606	-0.41015625	14.1093445	0.92259216
1443114854989940940	-1.0449982	13.293686	1.5566406
1443114854998333274	-1.3175354	12.01384	2.007904
1443114855006725608	-1.9643707	10.974335	2.4614258
1443114855015117942	-2.0980377	10.541473	2.2496338
1443114855023510276	-2.269226	10.396347	1.4239349
1443114855031902610	-2.9828033	10.511429	0.90470886
1443114855040294944	-3.2302704	10.808426	0.34370422
1443114855048687278	-2.8446808	11.092865	-0.50468445
1443114855057079612	-2.3278198	11.108063	-1.3698425
1443114855065471946	-1.6273804	10.669479	-1.5510406
1443114855073864280	-0.9220581	10.066986	-0.31826782
1443114855082256614	-0.6929474	9.899628	1.772934
1443114855090648948	-1.0659637	10.320282	3.4427338
1443114855099041282	-1.4891357	11.003677	4.381424
1443114855107433616	-1.8267059	11.596771	4.425003
1443114855115825950	-2.3280182	11.7673645	3.1591644
1443114855124218284	-3.0222626	11.6828	1.7004395
1443114855132610618	-3.3317413	11.290039	0.9930725
1443114855141002952	-3.3415222	10.834824	0.7366028
1443114855149395286	-3.2155762	10.243164	0.71177673
1443114855157787620	-2.940445	9.579788	0.5528259
1443114855166179954	-2.6156006	8.845688	0.24397278
1443114855174572288	-2.3388977	7.985779	0.018676758
1443114855182964622	-2.1671906	7.4542084	-0.101623535
1443114855191356956	-1.7768707	6.82782	-0.5313721
1443114855199749290	-1.2662811	6.4201965	-1.1488495
1443114855208141624	-0.9661255	6.1455536	-1.4178314
1443114855216533958	-0.80392456	5.8190002	-1.1904602
1443114855224926292	-0.6714325	5.2431335	-0.6634979
1443114855233318626	-0.63619995	4.35614	-0.16217041
1443114855241710960	-0.86753845	3.482193	0.23983765
1443114855250103294	-1.1542969	2.8996124	0.54167175
1443114855258495628	-1.4416656	2.3202362	0.8424225
1443114855266887962	-1.6456909	2.0589752	1.2571411
1443114855275280296	-1.739502	2.0473328	1.6711884
1443114855283672630	-1.7579803	2.1818848	1.9581451
1443114855292064964	-1.7093811	2.3696747	2.1240234
1443114855300457298	-1.4085083	2.2542114	2.3570862
1443114855308849632	-1.5812378	2.5153503	2.6860962
1443114855317241966	-1.6602936	2.6567993	3.0142517
1443114855325634300	-1.647171	2.6376495	3.354126
1443114855334026634	-1.6147766	2.596344	3.9183044
1443114855342418968	-1.5947571	2.6526184	4.595627
1443114855350811302	-1.6079865	2.8954926	5.036728
1443114855359203636	-1.7859497	3.5019226	5.1820984
1443114855367595970	-2.0460815	4.6524353	5.146103
1443114855375988304	-2.1989899	6.5419464	5.216461
1443114855384380638	-2.1530914	9.573593	5.4244537
1443114855392772971	-1.6621094	13.935898	6.7870483
1443114855401165305	-0.67230225	19.815979	9.785049
1443114855409557639	0.9230499	26.817993	13.011795
1443114855417949973	3.6388702	32.872772	12.568817
1443114855426342307	5.6880035	29.954834	8.5456085
1443114855434734641	5.4670715	21.506927	7.4149475
1443114855443126975	5.3187866	13.189407	8.833145
1443114855451519309	5.5102844	6.785919	10.331024
1443114855459911643	5.448349	2.4167938	10.391266
1443114855468303977	4.102234	0.39942932	8.190842
1443114855476696311	1.1525421	0.9854126	5.248062
1443114855485088645	-1.1207428	3.7552948	2.9131012
1443114855493480979	-2.9086761	7.388672	1.5352783
1443114855501873313	-4.647064	12.134399	0.9037781
1443114855510265647	-5.8438416	17.143906	0.6943207
1443114855518657981	-6.339157	21.030884	0.65548706
1443114855527050315	-6.518997	22.650726	0.8860626
1443114855535442649	-5.330429	20.212936	0.6742554
1443114855543834983	-4.8681183	15.440887	2.2874756
1443114855552227317	-4.7942963	9.577255	3.603531
1443114855560619651	-5.3335114	3.8010254	3.8302765
1443114855569011985	-5.5056	-0.52015686	3.5364532
1443114855577404319	-5.0357056	-2.7329254	3.1053314
1443114855585796653	-4.7032166	-3.1421661	2.302063
1443114855594188987	-3.8549805	-2.162323	1.8414307
1443114855602581321	-2.3737946	-0.71913147	0.12504578
1443114855610973655	-1.4209747	1.4426422	-3.049759
1443114855619365989	-1.3291168	4.932495	-5.8832703
1443114855627758323	-1.6257935	9.434723	-6.424103
1443114855636150657	-1.7401581	14.480194	-4.055298
1443114855644542991	-1.2407074	19.444427	-0.09474182
1443114855652935325	0.5082092	22.586517	2.615509
1443114855661327659	2.6118317	21.593307	2.478775
1443114855669719993	3.1847992	18.486404	2.606018
1443114855678112327	3.0190735	14.490799	2.8914337
1443114855686504661	2.6925507	10.936081	2.6152039
1443114855694896995	2.1942902	8.530975	1.7712402
1443114855703289329	1.2841797	7.1219177	0.926178
1443114855711681663	0.41227722	5.9382477	-0.124313354
1443114855720073997	-0.84928894	5.7963715	-1.0475922
1443114855728466331	-2.1679535	6.208008	-1.0843658
1443114855736858665	-2.8655396	6.7650146	-0.55822754
1443114855745250999	-2.972992	7.094452	0.1815033
1443114855753643333	-2.5860138	7.071457	0.75045776
1443114855762035667	-1.8739014	6.9131165	0.95217896
1443114855770428001	-1.3901215	7.112015	1.0367737
1443114855778820335	-0.91922	7.4050293	0.3931427
1443114855787212669	-0.6421509	7.808441	0.2089386
1443114855795605003	-0.31095886	8.252716	0.4598999
1443114855803997337	-0.28411865	8.731842	0.46765137
1443114855812389671	-0.44389343	9.060013	0.22296143
1443114855820782005	-0.42996216	9.041733	0.10998535
1443114855829174339	-0.26434326	8.41748	0.05256653
1443114855837566673	-0.45558167	7.8047028	-0.346344
1443114855845959007	-0.8236847	7.573807	-0.956131
1443114855854351341	-1.1078796	7.434952	-1.4797974
1443114855862743675	-1.2296295	7.345169	-1.6553497
1443114855871136009	-1.2223663	7.33902	-1.3735962
1443114855879528343	-1.1391296	7.5176697	-0.8213959
1443114855887920677	-0.70936584	7.9659424	-0.41937256
1443114855896313011	-0.16159058	8.562698	-0.1884613
1443114855904705345	0.23995972	9.205353	-0.012619019
1443114855913097679	0.4731598	9.6480255	0.1670227
1443114855921490013	0.5586853	9.758118	0.2695923
1443114855929882346	0.57914734	9.548187	0.21620178
1443114855938274680	0.6491852	9.1744995	0.037139893
1443114855946667014	0.77770996	8.939056	-0.11091614
1443114855955059348	0.59861755	9.467117	-0.28503418
1443114855963451682	0.042144775	10.584579	-0.5115204
1443114855971844016	-0.6996155	11.739655	-0.29351807
1443114855980236350	-1.2681732	12.490829	0.07978821
1443114855988628684	-1.3420715	12.679901	0.30393982
1443114855997021018	-0.86820984	12.497345	0.41644287
1443114856005413352	-0.32843018	12.444916	0.4925232
1443114856013805686	0.20625305	12.715012	0.47776794
1443114856022198020	0.78352356	12.62178	1.7393036
1443114856030590354	0.9631653	13.067566	2.1207886
1443114856038982688	0.8564606	13.846497	1.9290314
1443114856047375022	0.63005066	14.576126	1.7263184
1443114856055767356	0.30636597	15.100616	1.513092
1443114856064159690	-0.11495972	15.328217	1.3682251
1443114856072552024	0.22947693	15.03006	1.4206696
1443114856080944358	0.69499207	14.2118225	0.78141785
1443114856089336692	0.48860168	13.304062	0.2150116
1443114856097729026	-0.27249146	12.845734	0.30296326
1443114856106121360	-1.1646118	12.876694	0.8585968
1443114856114513694	-1.8983154	12.95636	1.3148804
1443114856122906028	-2.6113434	12.665451	1.7497864
1443114856131298362	-3.4102325	12.445435	2.218628
1443114856139690696	-3.9083557	12.708572	2.126007
1443114856148083030	-4.130249	13.150024	1.5138397
1443114856156475364	-4.336548	13.499191	0.48287964
1443114856164867698	-4.575012	13.512207	-0.24371338
1443114856173260032	-4.639862	13.105988	-0.09703064
1443114856181652366	-3.6530914	12.195389	0.2773285
1443114856190044700	-2.6948395	11.328644	-0.16171265
1443114856198437034	-1.8546906	10.462814	0.20057678
1443114856206829368	-1.5100708	9.864395	0.9984894
1443114856215221702	-1.4568024	9.630234	2.0600739
1443114856223614036	-1.6452179	9.956787	2.9517517
1443114856232006370	-2.0195923	10.64064	3.240509
1443114856240398704	-2.537796	11.343903	2.9474792
1443114856248791038	-2.8422852	11.412903	2.5920105
1443114856257183372	-3.233841	11.145828	2.4067993
1443114856265575706	-3.537857	10.562912	2.3470306
1443114856273968040	-3.7143402	9.844177	2.1448517
1443114856282360374	-3.6954193	9.162964	1.6021729
1443114856290752708	-3.3591156	8.583771	0.8126526
1443114856299145042	-2.9334564	8.200256	0.22865295
1443114856307537376	-2.435196	7.49852	-0.434906
1443114856315929710	-1.7940063	6.4852448	-0.89871216
1443114856324322044	-1.4225159	5.6517944	-1.3374176
1443114856332714378	-1.3057709	5.2410126	-1.6061554
1443114856341106712	-1.2241821	5.062973	-1.5402069
1443114856349499046	-1.0080261	4.6698914	-1.1558838
1443114856357891380	-0.7376251	3.9933624	-0.62020874
1443114856366283714	-0.74786377	3.4860382	-0.345932
1443114856374676048	-0.7487335	3.184845	-0.08988953
1443114856383068382	-0.92871094	3.0956268	0.37687683
1443114856391460716	-1.21492	3.114914	0.92063904
1443114856399853050	-1.3736115	2.9457855	1.356781
1443114856408245384	-1.2818756	2.4528046	1.6733856
1443114856416637718	-1.3479767	2.4646606	2.1265106
1443114856425030052	-1.4960327	2.6281433	2.2180176
1443114856433422386	-1.560318	2.7432556	2.4028015
1443114856441814720	-1.6350555	2.719818	2.5733643
1443114856450207054	-1.6781616	2.5738525	2.7897644
1443114856458599388	-1.6698761	2.3936005	3.195633
1443114856466991721	-1.6390228	2.2820282	3.86763
1443114856475384055	-1.5831604	2.286438	4.63089
1443114856483776389	-1.4207153	2.535263	5.3177032
1443114856492168723	-1.3341522	3.0787811	5.870407
1443114856500561057	-1.210144	4.1494446	6.445923
1443114856508953391	-1.314682	6.1374054	6.8441772
1443114856517345725	-1.7251587	9.173233	6.9709015
1443114856525738059	-2.2634888	13.189972	7.125473
1443114856534130393	-2.5318298	19.946625	9.302948
1443114856542522727	-0.79525757	29.266953	10.905853
1443114856550915061	2.4325256	33.972183	9.402893
1443114856559307395	3.774002	30.030655	9.166977
1443114856567699729	3.901184	21.553741	10.191452
1443114856576092063	3.8079376	11.676743	11.608887
1443114856584484397	4.1391907	3.5098114	11.653442
1443114856592876731	3.374939	-1.4704437	10.206131
1443114856601269065	1.4234924	-2.552063	7.3159485
1443114856609661399	-0.51893616	-1.2280273	5.2862244
1443114856618053733	-2.3161469	1.4199371	3.9458313
1443114856626446067	-3.9283295	5.537674	3.0126953
1443114856634838401	-5.151245	11.015808	2.3742218
1443114856643230735	-5.6446533	17.321259	2.261734
1443114856651623069	-5.7875824	23.07077	1.5193939
1443114856660015403	-5.7508545	26.572784	0.7632446
1443114856668407737	-3.4607086	24.934952	1.9699707
1443114856676800071	-1.3573608	19.064972	1.6763916
1443114856685192405	-1.5049591	12.019852	1.5892792
1443114856693584739	-3.54747	5.8606415	2.8242645
1443114856701977073	-5.1007385	0.745224	3.3790588
1443114856710369407	-5.7937164	-1.9516602	2.942093
1443114856718761741	-5.931549	-3.2978363	3.8186035
1443114856727154075	-5.4858246	-3.3836212	3.2831116
1443114856735546409	-4.1819153	-2.6338348	2.5238647
1443114856743938743	-2.3732758	-1.1713257	1.1016693
1443114856752331077	-0.8041382	1.2993774	-1.8689575
1443114856760723411	-0.17953491	5.1641693	-6.270294
1443114856769115745	-0.56715393	10.075714	-9.493607
1443114856777508079	-0.98654175	14.965744	-6.9934387
1443114856785900413	-0.9984894	19.95758	-2.6161804
1443114856794292747	0.77474976	23.091827	0.5207367
1443114856802685081	2.5407104	22.961258	2.2346344
1443114856811077415	3.2999573	19.842896	2.8553467
1443114856819469749	3.6205597	15.499756	2.5222168
1443114856827862083	3.453064	11.768478	2.0643158
1443114856836254417	1.7586365	9.705978	1.5121918
1443114856844646751	0.54714966	7.925186	1.0309296
1443114856853039085	-0.44404602	6.5378723	0.48435974
1443114856861431419	-1.5926361	5.5699005	-0.23809814
1443114856869823753	-2.8461761	5.1681213	-0.8330078
1443114856878216087	-3.6825867	5.3415985	-0.9038086
