linearaccelerometer_timestamp	linearaccelerometer_x_data	linearaccelerometer_y_data	linearaccelerometer_z_data
1443278417262842419	1.5907261	-0.993062	1.1184177
1443278417267572643	1.744152	-1.3601866	1.0767839
1443278417270899059	1.6856366	-1.3334885	0.9980303
1443278417277612927	1.9887316	-0.89164734	0.96804756
1443278417282648327	1.9182696	-0.8730216	0.86626536
1443278417287714245	2.4360375	-0.73076963	1.0064982
1443278417292902233	2.3577797	-0.71313477	0.90662634
1443278417298242809	1.4861116	-0.50823355	1.1226907
1443278417302911999	1.4282849	-0.49334097	1.0332882
1443278417307794811	0.9882765	-0.7944641	0.6638237
1443278417312830212	0.9363437	-0.77180195	0.58076435
1443278417317865612	0.772505	-1.2114267	0.45503163
1443278417327966930	-0.0821718	-1.630486	0.43721032
1443278417333002331	-0.11551511	-1.5900917	0.36745727
1443278417338007214	-1.0024636	-1.9735217	0.37691164
1443278417343225720	-1.0181504	-1.9262638	0.3095619
1443278417348169567	-1.566674	-2.1557117	0.4522133
1443278417353327038	-2.3096042	-2.3084006	0.77146506
1443278417358148815	-2.2968552	-2.2570958	0.7084795
1443278417363092663	-2.2838101	-2.2066283	0.6485095
1443278417368250134	-2.7139888	-2.2563114	0.7734972
1443278417371607067	-2.684538	-2.210525	0.73261976
1443278417378320934	-2.6772425	-2.4775324	0.6030971
1443278417383325817	-2.655952	-2.4263964	0.5596013
1443278417388361218	-2.5713341	-2.7693086	0.6198307
1443278417393549206	-2.4103823	-3.0762415	0.48731017
1443278417399378063	-2.3938818	-3.0181546	0.4548868
1443278417404627087	-2.0169494	-3.5709682	0.45175862
1443278417414240124	-1.5414149	-3.8934374	0.74516034
1443278417418604138	-1.5255722	-3.82902	0.7258779
1443278417422113659	-1.5073622	-3.7664309	0.70927167
1443278417428827526	-1.2010388	-4.0490603	0.90825427
1443278417433618786	-0.7903546	-4.2700906	0.93761885
1443278417438898327	-0.77848107	-4.20464	0.9242557
1443278417443750622	-0.21568668	-4.2028584	0.91252005
1443278417448816540	-0.21054757	-4.140334	0.9024106
1443278417453821423	0.39531058	-3.840207	0.9436741
1443278417459009411	0.39558208	-3.7861228	0.9393668
1443278417464349987	1.1620674	-3.3117623	1.082971
1443278417469080212	1.1542848	-3.2682066	1.0824316
1443278417479181530	1.6937947	-2.8158274	1.543892
1443278417484064343	2.0280995	-2.4566984	2.1539283
1443278417489282848	2.0175517	-2.4325128	2.1559994
1443278417494135143	2.1367073	-2.1005874	2.7011714
1443278417499170544	2.1281796	-2.084085	2.7021616
1443278417504175427	1.850511	-1.351995	3.2164493
1443278417509363415	1.8509135	-1.3490419	3.2187362
1443278417514948132	1.6494238	0.5960183	3.3806074
1443278417519403698	1.6530558	0.572649	3.3795433
1443278417529413464	1.4616525	4.462116	2.7648962
1443278417534387829	0.7872475	9.5212345	1.6722565
1443278417539606335	0.81677765	9.376308	1.7084872
1443278417544458630	0.4606815	14.338568	1.627233
1443278417550134899	0.5001795	14.132679	1.6677293
1443278417554559948	-0.40330788	18.494516	1.8183768
1443278417559747936	-0.36127767	18.24358	1.8370527
1443278417565119030	0.6726288	19.640263	4.438054
1443278417570551159	0.9423511	17.265163	9.825902
1443278417573023083	0.93176275	17.046951	9.699537
1443278417580805065	-0.25483155	10.961528	13.37969
1443278417590234997	1.6010443	3.63134	13.992514
1443278417594995739	1.5410016	3.6074982	13.7509165
1443278417600092175	5.5574083	-2.4951115	9.363976
1443278417605066540	5.4485426	-2.436696	9.173634
1443278417609918835	6.173309	-5.4034405	4.8761573
1443278417614984753	6.0535207	-5.3113127	4.757552
1443278417620020153	2.593557	-3.5850163	3.0480509
1443278417623377087	2.525558	-3.5266623	2.9851975
1443278417630090954	-1.2558855	-0.90861416	2.6160939
1443278417635095837	-1.2884231	-0.8799348	2.5600176
1443278417640192272	-2.714571	1.5755835	2.654676
1443278417645349743	-2.7309418	1.5740948	2.6030555
1443278417650751354	-4.5068474	4.9256635	-0.17875957
1443278417655420544	-4.4800787	4.880287	-0.19304419
1443278417660272839	-7.8424006	8.1668	-1.4416296
1443278417665338757	-7.7485504	8.07989	-1.440357
1443278417670374157	-8.907324	8.293688	-1.945658
1443278417680414440	-7.2641816	4.7326345	-1.9945052
1443278417685480358	-7.140998	4.6762285	-1.9727001
1443278417690668347	-3.473012	0.65952206	-1.3011308
1443278417695673229	-3.3895125	0.6441965	-1.2746294
1443278417701227429	-0.09073052	-0.5629015	-1.0355778
1443278417705774548	-0.04764405	-0.5665989	-1.0053053
1443278417710657360	1.126918	-0.9207382	-2.979018
1443278417715753796	1.156609	-0.92282104	-2.9209132
1443278417720728161	-0.29608887	-1.5184746	-5.0094013
1443278417724237682	-1.605381	-1.7422752	-5.3371596
1443278417730951550	-1.5593293	-1.7430449	-5.2309647
1443278417736810925	-2.107907	-1.4257402	-3.9882774
1443278417741052868	-2.082296	-1.4251337	-3.9051127
1443278417747186901	-0.9454847	-1.4476919	-2.7720587
1443278417750818493	-0.933264	-1.4451494	-2.7048693
1443278417756647350	-0.17046511	-0.8028393	-2.4399402
1443278417761163952	-0.15826552	-0.80827236	-2.3702328
1443278417766016247	-0.013637893	0.9089174	-2.45666
1443278417771234753	0.01813715	0.88780975	-2.390878
1443278417774439098	0.042999186	0.87263966	-2.3448715
1443278417781336071	0.74924445	2.7001228	-2.5975468
1443278417786188366	1.5710399	3.6691456	-2.1084683
1443278417791406872	1.6036414	3.62428	-2.0523407
1443278417796228649	1.4301034	3.1676197	-1.2620833
1443278417801355602	1.4519819	3.1257	-1.2018192
1443278417806329968	1.0879239	1.4293184	-0.4732268
1443278417811548473	1.1001327	1.4013205	-0.4027903
1443278417816889050	0.75995624	-0.36960602	-0.1989268
1443278417821588757	0.64406383	-1.5762281	-0.3685273
1443278417824671032	0.6438423	-1.5707273	-0.31560683
1443278417831659557	0.6462491	-1.5772333	-0.19558
1443278417836542370	0.68649	-2.2122946	0.03025949
1443278417841699841	0.68147683	-2.2061567	0.12053859
1443278417846521618	0.78902394	-2.3739338	0.39728498
1443278417851648571	0.77856636	-2.3645	0.48190796
1443278417856653454	0.5347483	-2.1535788	0.5620682
1443278417861719372	0.52497596	-2.1439152	0.6380093
1443278417867548229	0.5672178	-1.9854202	0.20614094
1443278417871942761	0.55904603	-1.974287	0.2694062
1443278417882013561	0.030348971	-1.6239786	0.6210236
1443278417886865856	0.0905055	-1.3375139	0.7029786
1443278417892114880	0.46128753	-1.2894564	0.8231052
1443278417896936657	0.46112925	-1.2822952	0.87754625
1443278417901880505	0.6535431	-1.1717081	0.7259437
1443278417907007458	0.65556294	-1.1648512	0.7809895
1443278417912836315	0.9060964	-0.952816	0.8746609
1443278417917780163	0.9115695	-0.9467888	0.92166495
1443278417922937634	1.4788435	-0.8183441	0.58127546
1443278417925501110	1.4757473	-0.812047	0.60250324
1443278417932977917	1.866402	-0.80089855	0.41915864
1443278417937250378	1.8719819	-0.7946396	0.4555836
1443278417942407848	2.522715	-0.7681732	0.1446038
1443278417947473766	2.5299158	-0.76177216	0.18900752
1443278417952966930	2.8791602	-0.5819597	0.26942092
1443278417957575085	2.8828366	-0.5766611	0.30796257
1443278417962457897	2.932773	-0.4869671	0.4804684
1443278417967523815	2.940001	-0.48198795	0.52171874
1443278417972498180	2.8345542	-0.55397415	0.6190346
1443278417976007702	2.8335195	-0.5484276	0.64561576
1443278417982538464	2.5639307	-0.7554016	0.48005843
1443278417987573864	2.5750542	-0.74724865	0.5218556
1443278417992609264	1.8551543	-0.87068176	0.5643312
1443278417997675182	1.872431	-0.86109066	0.60506916
1443278418003198864	1.6249003	-0.9389057	0.5718609
1443278418007898571	1.6426281	-0.9284544	0.6083292
1443278418012750866	1.2865798	-0.60686684	0.3798492
1443278418017816784	1.3100429	-0.5983486	0.4210282
1443278418022821667	1.3713851	-0.11846733	0.6456029
1443278418032892468	1.7437681	0.20479202	0.6913166
1443278418037958386	1.7662065	0.20824337	0.7307385
1443278418042993786	1.9724698	0.14083385	0.38429517
1443278418048151257	1.9967011	0.14581966	0.42839324
1443278418053583386	2.123085	-0.22574997	0.1449781
1443278418058283093	2.1452134	-0.2173233	0.18950045
1443278418063104870	1.9505796	-0.45874023	-0.105543375
1443278418068231823	1.3946846	-0.34817505	0.025303423
1443278418073206188	1.4255488	-0.3366518	0.07760918
1443278418076685192	1.4431835	-0.32756233	0.11428726
1443278418083276989	0.41659367	0.18530941	0.095170975
1443278418088892223	-0.57080007	0.9731493	0.20041311
1443278418093530895	-0.53086615	0.9755869	0.24702585
1443278418099207165	-1.4028934	1.861536	0.09638071
1443278418104089977	-1.355203	1.8581676	0.14163971
1443278418108331921	-1.7584586	2.8771248	-0.12656355
1443278418113611462	-1.7018809	2.8671026	-0.08432627
1443278418118799450	-1.6160191	3.8986683	0.38196528
1443278418123712780	-1.5569974	3.8806143	0.4085425
1443278418128015759	-0.5679805	3.9864836	0.87941504
1443278418133783581	-0.50459397	3.9704523	0.90258324
1443278418138727429	0.67280793	3.3352995	1.0010443
1443278418143854382	0.72256875	3.3226223	1.0133018
1443278418148706677	1.7867985	2.4184322	0.4198215
1443278418153772595	1.8237696	2.4114943	0.43131697
1443278418158807995	2.6823092	1.4893398	-0.12002885
1443278418164026501	2.706649	1.4878721	-0.10837102
1443278418169458630	3.0594277	1.7293615	0.1938827
1443278418174066784	3.068006	1.7234392	0.19914651
1443278418184137585	3.2340362	2.7292633	0.7059686
1443278418189020397	2.5598679	3.855379	1.290722
1443278418194208386	2.5588775	3.8328562	1.2906849
1443278418199060680	1.8516257	4.2328777	1.6971272
1443278418204126598	1.8496495	4.206957	1.6951022
1443278418209161999	1.7346464	4.1062765	1.532557
1443278418214197399	1.7315917	4.0809	1.5308231
1443278418219721081	2.741873	4.153326	-0.0649091
1443278418224451305	2.7318635	4.12702	-0.059821844
1443278418234491589	3.2114124	5.3527584	-0.07068443
1443278418239343884	3.302845	6.080696	0.89612126
1443278418244409802	3.9655404	4.933303	-1.1158597
1443278418249414684	3.9503527	4.901019	-1.1131121
1443278418255731823	3.0671406	4.359535	-2.61306
1443278418259638073	3.0493417	4.3308296	-2.5948918
1443278418264978649	2.16541	3.8931417	-2.382152
1443278418270227673	2.1442862	3.8658085	-2.3682518
1443278418274866345	0.6958934	2.9316492	-1.6492468
1443278418277948620	0.6830131	2.9089851	-1.6495847
1443278418284693005	-1.0010759	1.9695358	-1.0542666
1443278418289697888	-1.017521	1.9474306	-1.0808794
1443278418294763805	-2.2298765	2.1793728	-0.42766702
1443278418299951794	-2.2516088	2.1524906	-0.47081602
1443278418305414440	-2.5388927	2.7489834	-0.46123326
1443278418309992077	-2.5662751	2.7175722	-0.5087743
1443278418314935925	-2.4457166	2.4297323	-0.8422382
1443278418319940807	-2.4914796	2.3967829	-0.9058857
1443278418324976208	-2.699181	2.1440573	-0.19362772
1443278418328455212	-2.7291303	2.1182222	-0.24611986
1443278418335047009	-3.3024397	2.258462	0.20626831
1443278418340112927	-3.3573792	2.2264547	0.10878599
1443278418345117809	-3.235444	2.7591305	0.06612843
1443278418350153210	-3.2924721	2.725975	-0.043504
1443278418356043102	-2.712561	3.3926525	0.3269434
1443278418360376598	-2.7633123	3.3607492	0.22490779
1443278418365259411	-2.253871	3.6338463	0.93299246
1443278418370325329	-2.3206537	3.6025095	0.8070633
1443278418375330212	-2.7296262	3.57135	0.8728579
1443278418378809216	-2.76741	3.5459766	0.7845528
1443278418385584118	-3.065478	3.1878948	0.8466593
1443278418390436413	-3.1179893	3.1681538	0.7283498
1443278418395471813	-2.9940743	2.472742	1.2183225
1443278418400690319	-3.046537	2.4613676	1.0927725
1443278418406030895	-2.7741885	1.7386932	1.0747813
1443278418410578014	-2.8141482	1.7345114	0.96733105
1443278418415582897	-2.4145238	1.1284866	0.41585994
1443278418421472790	-1.3921069	0.55223846	-0.10140973
1443278418425653698	-1.4305989	0.55874634	-0.19253027
1443278418435877087	-0.55522436	-0.027234077	-0.64830065
1443278418440790417	-0.0036444068	-0.5092125	-0.8214675
1443278418445978405	-0.05645579	-0.48733234	-0.9330797
1443278418450952770	0.28705123	-1.1758404	-0.91211975
1443278418455896618	0.2379247	-1.147439	-1.0202378
1443278418460932018	0.3871687	-1.9687071	-1.16399
1443278418466120007	0.33804417	-1.9311285	-1.2772423
1443278418471796276	-0.10854471	-2.3249407	-1.4134941
1443278418476038220	-0.14351428	-2.2877512	-1.5016577
1443278418480188610	0.12526667	-2.5267477	-1.6687868
1443278418486078503	0.080293536	-2.4777536	-1.7870123
1443278418491083386	0.572961	-2.920247	-1.6177938
1443278418496271374	0.5321579	-2.872158	-1.7137103
1443278418501184704	0.23540962	-3.2371635	-1.3983686
1443278418506922009	0.18871301	-3.1826096	-1.499958
1443278418511255505	0.20126373	-3.4269714	-1.1876173
1443278418516412975	0.15489501	-3.3740387	-1.2732902
1443278418522150280	-0.0040932894	-3.5389633	-1.2358444
1443278418526483776	-0.041653097	-3.4904947	-1.3011968
1443278418536554577	-0.5899607	-3.5638971	-1.0852616
1443278418541467907	-1.2616988	-3.3256493	-0.87061477
1443278418546625378	-1.2862315	-3.2765722	-0.9360473
1443278418551538708	-1.7305573	-2.9999475	-0.89255714
1443278418556482555	-1.7430544	-2.957057	-0.94659996
1443278418561609509	-1.9776635	-2.7294455	-1.1826534
1443278418566797497	-1.9863666	-2.689827	-1.2293768
1443278418572473766	-2.6994536	-2.579568	-1.4452214
1443278418576837780	-2.700119	-2.5472631	-1.4749038
1443278418587854626	-2.7522373	-3.3794498	-1.7916396
1443278418591821911	-2.7489133	-3.3484735	-1.8066347
1443278418597589733	-2.343323	-4.0661325	-1.5592515
1443278418601923229	-2.3425384	-4.033409	-1.5708163
1443278418607019665	-2.1650352	-4.62918	-1.1880393
1443278418612116100	-2.166192	-4.595193	-1.1974051
1443278418616998913	-1.6725982	-5.40644	-1.6266859
1443278418621973278	-1.6749498	-5.3703947	-1.6296484
1443278418627100231	-1.4285127	-5.9588137	-1.5649571
1443278418630426647	-1.4263746	-5.9248915	-1.5593352
1443278418637140514	-1.096843	-6.209738	-1.2763824
1443278418642175915	-1.09563	-6.1777124	-1.2660027
1443278418647211315	-0.9169115	-6.077818	-1.4033294
1443278418652338268	-0.91105473	-6.0508623	-1.3850284
1443278418658075573	-0.64821386	-5.7203293	-1.3385031
1443278418662439587	-0.6389557	-5.698592	-1.3151529
1443278418667383434	-0.299317	-5.258048	-0.9842932
1443278418673181774	0.3045559	-4.90688	-0.18633604
1443278418677423718	0.31458306	-4.8955107	-0.15763283
1443278418680902722	0.32418203	-4.883282	-0.13080144
1443278418687464001	1.2945179	-4.6132903	0.8390074
1443278418692499401	1.3095101	-4.6128945	0.8815224
1443278418697595837	1.9644704	-4.3711114	1.7053332
1443278418702722790	1.9825991	-4.3770046	1.7544222
1443278418708460095	2.2244356	-3.7853918	2.448415
1443278418712793591	2.2428312	-3.7937856	2.494216
1443278418717737438	1.9602859	-1.960784	3.0162249
1443278418722650768	1.987867	-1.9837189	3.0724907
1443278418727777722	1.9359882	1.7839794	2.6976175
1443278418731134655	1.9565606	1.750596	2.7390685
1443278418737970593	2.0184479	6.802022	0.18262124
1443278418742914440	2.0583816	6.7322445	0.26801062
1443278418748010876	0.7729684	12.392855	-0.9651773
1443278418754175427	-0.26687175	17.847086	-0.0018718243
1443278418758508923	-0.22112739	17.735043	0.06079507
1443278418764032604	1.1145961	20.163898	3.5753114
1443278418768152477	1.1371071	20.05298	3.5876658
1443278418773645641	2.1770036	18.399122	9.069426
1443278418778131725	2.1614845	18.310238	9.017917
1443278418788324597	0.36631072	11.45714	15.469109
1443278418793237927	2.9962971	2.3150167	17.836563
1443278418798364880	2.9286857	2.3347712	17.667845
1443278418803339245	9.197718	-5.63898	9.573675
1443278418808984997	9.110027	-5.573166	9.434226
1443278418813379528	8.497723	-8.566644	1.8602405
1443278418818536999	8.42171	-8.491777	1.7776566
1443278418824274304	3.9170065	-5.5143747	0.8393011
1443278418828607800	3.8582644	-5.47011	0.8058634
1443278418832269909	-0.1935364	-1.2738352	-0.35776997
1443278418838648083	-0.25420713	-1.2427969	-0.3929639
1443278418843622448	-3.7098408	3.8167267	-2.9984775
1443278418848718884	-3.7355194	3.8206348	-3.0193202
1443278418853632214	-8.120955	10.077806	-3.809219
1443278418859644177	-8.107171	10.055709	-3.841053
1443278418863733532	-13.372874	11.495304	-2.830497
1443278418868860485	-13.299798	11.460169	-2.8641407
1443278418874506237	-11.563864	4.7457495	-4.8026342
1443278418878839733	-11.486149	4.7342663	-4.811181
1443278418882227184	-7.450202	-1.804205	-3.6855001
1443278418889063122	-3.01406	-3.2371721	-2.2399924
1443278418893915417	-2.96326	-3.2269182	-2.2273798
1443278418899164440	-2.9037843	-3.2219887	-2.2044613
1443278418904047253	0.17060238	-2.888668	-1.5461221
1443278418909113171	0.21511042	-2.8907824	-1.5126495
1443278418914118054	-0.34978646	-2.4481497	-3.6056964
1443278418919306042	-2.649831	-1.6370745	-4.5805635
1443278418924646618	-2.6012626	-1.6480484	-4.5218606
1443278418930139782	-2.9120848	-2.2362623	-2.2677498
1443278418940454723	-1.872844	-2.199914	-0.5459399
1443278418944299938	-1.8580933	-2.199994	-0.518996
1443278418949976208	-1.7603742	-0.14753914	-0.9851849
1443278418954401257	-1.7381938	-0.15181541	-0.9700978
1443278418959345104	-0.9488398	2.6205091	-1.9723513
1443278418964624645	-0.9038573	2.608552	-1.968082
1443278418969507458	1.2143528	4.4789276	-4.260084
1443278418974542858	1.2603619	4.4574766	-4.2424603
1443278418979608776	2.1490264	5.0354204	-4.770096
1443278418982904675	2.1683362	5.008402	-4.7391143
1443278418989649059	1.3953843	3.972703	-3.5131848
1443278418994653942	1.4101526	3.9348106	-3.4432173
1443278418999719860	1.2002989	2.016654	-1.4350529
1443278419004907848	1.2037717	1.9791565	-1.3457665
1443278419010584118	1.7980711	0.3205843	-0.17024708
1443278419014826061	1.7947878	0.29389477	-0.09042406
1443278419019830944	2.1596632	-0.58997726	-0.42969918
1443278419025385143	2.28086	-1.0540686	-1.562902
1443278419029932263	2.2705393	-1.0759497	-1.4620855
1443278419039972546	2.2298741	-1.5366411	-2.0172696
1443278419044916393	1.8968979	-1.868762	-1.8123522
1443278419050043347	1.8825814	-1.8840132	-1.7035036
1443278419055078747	1.8685715	-1.8970852	-1.5992292
1443278419060724499	0.6900947	-2.273014	0.28506398
1443278419065363171	-0.11379963	-2.4038715	-0.55692244
1443278419070184948	-0.113900185	-2.409768	-0.46839464
1443278419075128796	-0.11173594	-2.4150333	-0.37932408
1443278419080286266	-0.86673975	-2.3129053	-1.2841998
1443278419083765270	-0.8603615	-2.3128777	-1.2174766
1443278419090509655	-0.9883807	-2.3733788	-0.62169755
1443278419096491100	-0.9486037	-2.5481968	-0.26048708
1443278419100580456	-0.94142187	-2.5464573	-0.18890047
1443278419106134655	-1.0076208	-2.888876	0.04274845
1443278419111170055	-0.9976555	-2.8859034	0.1259433
1443278419116297009	-1.379703	-2.7857676	-0.18943864
1443278419120691540	-1.3658825	-2.7806778	-0.11823547
1443278419126032116	-1.4674965	-2.2211056	-0.5684293
1443278419130823376	-1.446871	-2.2175102	-0.492994
1443278419140833141	-0.97783566	-1.6459866	-0.72978634
1443278419145746472	-0.14755097	-1.707098	-0.8060436
1443278419150934460	-0.119822696	-1.7031126	-0.7356194
1443278419155786755	-0.17546768	-1.8175335	-0.8787372
1443278419160883190	-0.14638133	-1.8118935	-0.81138754
1443278419165918591	-0.3018865	-1.5924721	-0.7720326
1443278419171076061	-0.26751572	-1.5866766	-0.7026991
1443278419176477673	0.082411945	-1.1894646	-0.60264856
1443278419181146862	0.117158234	-1.1840553	-0.5374032
1443278419191187145	0.112156555	-0.7732611	-0.36076263
1443278419196100475	-0.5717252	-0.6125641	-0.15468802
1443278419201288464	-0.52242666	-0.60648346	-0.08525923
1443278419206171276	-0.63091457	-0.8406105	-0.06264219
1443278419211176159	-0.58035773	-0.83226395	0.0022403002
1443278419216242077	-0.10394642	-1.3736467	0.30185616
1443278419221430065	-0.049030066	-1.3614187	0.3639927
1443278419226923229	0.20897722	-1.6554756	-0.018393338
1443278419231500866	0.26024342	-1.6416063	0.033257663
1443278419234674694	0.9047076	-1.5450983	0.19807416
1443278419241571667	0.9868215	-1.5264683	0.26654333
1443278419246454479	1.9284573	-1.2248564	0.25226206
1443278419251611950	1.9876273	-1.2093458	0.29819596
1443278419256525280	2.1428447	-1.0569172	-0.07166773
1443278419261560680	2.1971955	-1.0414858	-0.027224123
1443278419266596081	1.6748494	-0.68381405	0.378811
1443278419271661999	1.5734766	-0.2247858	0.753973
1443278419277734997	1.6356232	-0.20950985	0.8006165
1443278419282709362	1.288796	0.039100647	0.5012088
1443278419285028698	1.3084682	0.044485092	0.5167093
1443278419292230847	0.9015037	0.31753826	0.44831848
1443278419296777966	0.9435482	0.3267784	0.47495234
1443278419302149059	0.125983	0.90510845	1.4950392
1443278419307031872	0.17433667	0.9129429	1.5154303
1443278419311914684	-0.032132864	1.3082399	1.6938277
1443278419317102673	0.021498919	1.3154802	1.7100137
1443278419321985485	0.7698426	1.334012	0.905854
1443278419327051403	0.82037044	1.3410444	0.91950274
1443278419332056286	1.7848281	1.5098925	0.37758017
1443278419342127087	2.5920517	1.5376263	-0.12302482
1443278419347131970	2.6304717	1.542366	-0.11678052
1443278419352197888	3.5311775	1.0070467	-0.23156047
1443278419357385876	3.5651693	1.0137558	-0.22696638
1443278419362756970	4.1368318	0.790596	-0.16278112
1443278419367487194	4.158684	0.7966852	-0.15624249
1443278419372339489	4.4777255	1.2445974	0.17008626
1443278419378046276	4.496338	1.2493048	0.17909324
1443278419382440807	4.4412704	2.001976	0.7495196
1443278419385889294	4.4417996	1.9992056	0.7524915
1443278419392450573	4.222282	2.4778633	1.409107
1443278419397485973	4.2251835	2.4738684	1.4107007
1443278419402551891	4.1131105	2.5876865	1.3073077
1443278419407709362	4.1137323	2.5829048	1.3105847
1443278419413110973	4.3978024	2.4836283	0.1442194
1443278419417841198	4.3920784	2.4776974	0.14957225
1443278419422693493	4.0181007	4.2079124	0.031433225
1443278419427820446	4.012341	4.1944838	0.03262341
1443278419432764294	3.5040283	6.0876904	-0.36206102
1443278419436273815	3.4961524	6.0659866	-0.36202085
1443278419442987682	4.5676584	5.280779	-2.5809932
1443278419448633434	3.2966719	4.5144186	-3.8085866
1443278419453089001	3.277421	4.497427	-3.7872849
1443278419458338024	1.43738	4.3004875	-2.3264234
1443278419462976696	1.4142871	4.281852	-2.3125043
1443278419468103649	-1.1565611	4.0001364	-1.6197207
1443278419473200085	-1.1819043	3.9785013	-1.6196012
1443278419478845837	-3.1670046	4.4177485	-2.2554946
1443278419483270886	-3.1938715	4.392215	-2.2586453
1443278419493311169	-4.190748	4.8784018	-1.9183615
1443278419498193981	-5.4967866	5.0755644	-0.57763875
1443278419503381970	-5.5449066	5.040066	-0.609033
1443278419508295300	-5.588703	4.4294806	0.5643345
1443278419513330700	-5.639471	4.393647	0.50551975
1443278419518366100	-5.557956	3.9695292	1.0213592
1443278419523554089	-5.6162	3.9332666	0.93881345
1443278419528925182	-5.1442976	3.9275274	0.92510545
1443278419533655407	-5.201089	3.89404	0.83842665
1443278419543695690	-4.579712	4.015032	1.0514164
1443278419548578503	-3.7732763	3.8233223	1.5433605
1443278419553735973	-3.8412046	3.7939663	1.4328101
1443278419558649304	-3.1950147	3.3511076	1.8359265
1443278419563684704	-3.2615118	3.3273754	1.723692
1443278419568720104	-2.9082885	2.484233	1.8846478
1443278419573877575	-2.9751167	2.4672117	1.7698557
1443278419579248669	-2.5623405	1.655652	1.8018955
1443278419583978893	-2.6195173	1.6458635	1.6976663
1443278419594049694	-2.2733886	1.2100534	1.3006684
1443278419598932507	-1.6489737	0.9335661	0.8042145
1443278419604120495	-1.7049146	0.9326334	0.69727093
1443278419609003307	-1.0369968	0.6576166	0.24457616
1443278419613947155	-1.0859282	0.6603527	0.1455648
1443278419619074108	-0.1155601	0.22111511	0.06724864
1443278419625360729	0.7220485	-0.4421358	-0.240201
1443278419629724743	0.67487	-0.43243885	-0.3264475
1443278419634699108	1.1156423	-1.2835779	-0.99980545
1443278419637506725	1.0823215	-1.2725611	-1.0529512
1443278419644403698	1.3104905	-2.062127	-1.5090897
1443278419649286511	1.2540436	-2.040739	-1.6022894
1443278419654352429	1.0875062	-2.4467735	-1.3364533
1443278419659509899	1.0294148	-2.4204187	-1.436009
1443278419664880993	1.0510814	-2.4979782	-0.85900044
1443278419669580700	0.9995712	-2.4703646	-0.9512963
1443278419674463513	1.269371	-2.516058	-0.21545863
1443278419679529430	1.2153249	-2.4846115	-0.3154024
1443278419684503796	1.1140847	-2.5613632	-0.038878202
1443278419694574597	0.14639282	-2.4004173	-0.47744012
1443278419699609997	0.09940946	-2.3664188	-0.5673647
1443278419704706432	-0.8187845	-2.1842022	-0.8085692
1443278419709863903	-0.858841	-2.1501303	-0.8927684
1443278419715601208	-1.2605917	-2.3552456	-0.8804209
1443278419719934704	-1.2882712	-2.3248844	-0.94559264
1443278419724786999	-1.4510291	-2.708068	-0.9128256
1443278419729883434	-1.4822111	-2.672412	-0.985512
1443278419734857800	-1.7303367	-2.9438944	-1.1565974
1443278419744928600	-2.2960901	-3.1522388	-0.98160124
1443278419749964001	-2.31954	-3.115963	-1.0440512
1443278419755213024	-2.8524754	-3.1784296	-0.6062093
1443278419760187389	-2.8701117	-3.1439676	-0.6624603
1443278419765894177	-3.0674186	-3.3446245	-1.1719978
1443278419770319225	-3.0812902	-3.31433	-1.2121115
1443278419775141003	-2.820982	-3.5653162	-1.1482875
1443278419780115368	-2.8421326	-3.535081	-1.1828539
1443278419785394909	-2.6376152	-4.0577955	-1.0575016
1443278419788568737	-2.6496217	-4.0343046	-1.0731277
1443278419795435192	-2.1656141	-4.5858345	-1.1945202
1443278419801172497	-1.6794337	-5.020772	-0.75372386
1443278419805536511	-1.6979241	-4.995433	-0.7651522
1443278419810480358	-1.2512169	-5.202571	-0.680985
1443278419815485241	-1.269117	-5.1785107	-0.6884663
1443278419820490124	-1.1312677	-5.1293144	-0.87928534
1443278419825708630	-1.141454	-5.1098156	-0.8784406
1443278419831171276	-0.8232323	-4.9032116	-0.8923218
1443278419835748913	-0.82525134	-4.8890963	-0.8836036
1443278419840936901	-0.4784305	-4.6903477	-0.782882
1443278419845819714	-0.4753766	-4.6811876	-0.76651716
1443278419850702526	-0.04831946	-4.512944	-0.7599058
1443278419855737927	-0.0402174	-4.5083504	-0.7361698
1443278419860742809	0.7546669	-4.4185667	-0.5123079
1443278419866297009	0.7683972	-4.4195013	-0.47909498
1443278419870844128	1.7790836	-4.5077105	0.026474237
1443278419876062634	1.7950525	-4.5114346	0.06441069
1443278419881525280	2.6477845	-4.6135654	0.488132
1443278419885950329	2.6634674	-4.617777	0.5269866
1443278419896143200	2.9943397	-4.507366	0.743593
1443278419901056530	3.036993	-4.091976	0.5711472
1443278419906244518	3.0675764	-4.1069717	0.6332519
1443278419911127331	3.0979707	-3.4098291	0.13339448
1443278419916834118	3.139776	-3.4327593	0.21408439
1443278419921350720	2.2321894	-1.6780291	-0.4146595
1443278419926355602	2.275466	-1.702817	-0.33676553
1443278419931940319	-0.19117439	1.5842886	-0.3655138
1443278419936487438	-0.14190066	1.5540876	-0.29586983
1443278419946527722	-1.9442432	5.5925503	-0.72652173
1443278419951410534	-3.2438002	10.518293	-1.0578749
1443278419956354382	-4.028249	16.947899	0.8921621
1443278419961633923	-3.979227	16.881832	0.9329672
1443278419967890026	-1.5028017	20.254684	8.124771
1443278419971704723	-1.4866881	20.190578	8.103464
1443278419977533581	-0.33263534	16.394192	17.108946
1443278419982416393	-0.34394485	16.357277	17.007105
1443278419986810925	2.19448	6.5096607	18.988922
1443278419989984753	2.1700454	6.5073986	18.872395
1443278419996637585	8.014423	-3.0365562	11.2678585
1443278420001703503	7.9546013	-2.9887896	11.121641
1443278420006830456	8.150146	-8.155044	2.0112467
1443278420011987927	8.078945	-8.091769	1.9080169
1443278420017389538	1.5885353	-6.4857836	0.13794279
1443278420022058727	1.5229723	-6.439513	0.08376598
1443278420026941540	-4.450737	-0.15895176	0.482033
1443278420032007458	-4.5109143	-0.13293076	0.43764043
1443278420036981823	-10.030229	7.84225	-0.89395404
1443278420047052624	-9.817549	12.517423	0.41354132
1443278420052088024	-9.147424	8.686092	0.6000986
1443278420057153942	-9.148099	8.687149	0.54329586
1443278420062158825	-9.123116	8.685281	0.4858749
1443278420067651989	-5.3604527	2.419713	-0.8494575
1443278420072351696	-5.294452	2.4251547	-0.89028096
1443278420077295544	-1.6951642	-0.49858952	-0.70200825
1443278420083002331	-1.599865	-0.49414825	-0.72863674
1443278420087335827	1.1861863	-2.253502	-2.125109
1443278420097559216	-0.41416585	-3.295845	-6.771441
1443278420102442028	-0.35271955	-3.285942	-6.761795
1443278420107660534	-2.5655665	-2.7243795	-7.392804
1443278420112695934	-2.5194135	-2.7210798	-7.3658667
1443278420118341686	-2.5156403	-0.7288723	-4.024605
1443278420122644665	0.09383121	1.1610222	-2.7012253
1443278420127771618	0.10166705	1.1461544	-2.6682405
1443278420134180309	1.2846993	2.46492	-3.999768
1443278420137872936	1.28583	2.4499865	-3.9707162
1443278420141046764	1.2904608	2.4360971	-3.9443734
1443278420147791149	1.7748139	3.5893955	-5.127644
1443278420152918102	1.630652	4.4698277	-4.5266085
1443278420157984020	1.6634005	4.4390955	-4.4740596
1443278420162866833	1.6824558	4.6730804	-3.137705
1443278420167902233	1.7188822	4.635848	-3.0719526
1443278420172937634	1.6260144	4.321518	-2.5539184
1443278420178156139	1.6590532	4.2818766	-2.4764476
1443278420183923962	0.9274213	3.5328379	-1.9161859
1443278420188196423	0.9478041	3.5002728	-1.8483171
1443278420192102673	0.0075502247	2.0787334	-1.2856598
1443278420198145153	0.034478262	2.0403624	-1.1857989
1443278420203180554	-1.0656993	0.6434078	-1.1187415
1443278420208368542	-1.049253	0.6126747	-1.022677
1443278420213251354	-1.7898481	-0.56891155	-1.8227725
1443278420218286755	-1.7811984	-0.59539413	-1.7194479
1443278420223322155	-2.2448895	-1.5768442	-2.104284
1443278420228510143	-2.2445185	-1.5997725	-1.9932575
1443278420234247448	-2.554416	-2.3983374	-1.8984513
1443278420238580944	-2.5601323	-2.4121094	-1.8053946
1443278420248651745	-2.6543972	-3.1433725	-1.2732443
1443278420253534557	-2.4023724	-3.8314571	-1.4315118
1443278420258722546	-2.4224904	-3.8401108	-1.323382
1443278420263605358	-2.936364	-3.7883635	-1.3818576
1443278420268671276	-2.6228373	-3.333479	-1.7710798
1443278420273676159	-2.6371603	-3.3405848	-1.6576267
1443278420278833630	-2.6468148	-3.3471775	-1.5390806
1443278420284235241	-2.1452913	-2.720849	-1.2650539
1443278420288965466	-2.14471	-2.72542	-1.157455
1443278420298731091	-1.3047968	-2.1493864	-0.6527906
1443278420303858044	-0.5541733	-1.3491287	-0.61434394
1443278420309931042	0.27221724	-0.79776573	-0.652231
1443278420314081432	0.29803288	-0.8001652	-0.58599514
1443278420319422009	1.0960327	-0.72996426	-0.7232163
1443278420324030163	1.1306297	-0.7312231	-0.6622822
1443278420329370739	1.0760852	-0.96124935	-0.47498927
1443278420334772350	1.1187505	-0.9608612	-0.41187552
1443278420339563610	1.18721	-1.3915987	-0.56087005
1443278420342493298	1.2068369	-1.388444	-0.5262442
1443278420349390270	0.87908304	-1.577713	-0.6157367
1443278420354212048	0.9107137	-1.5735445	-0.5587746
1443278420359277966	0.794629	-1.9793854	-0.59491265
1443278420364313366	0.82609415	-1.9732208	-0.5370431
1443278420369806530	0.97316176	-2.7325	-0.618358
1443278420374536755	1.0035273	-2.7234688	-0.567778
1443278420379389050	0.9600351	-3.3332825	-0.76023483
1443278420384454968	0.99576277	-3.3216667	-0.708804
1443278420389490368	1.2487098	-3.4886303	-1.1799127
1443278420392999889	1.2751412	-3.4767323	-1.1434443
1443278420399561169	1.7592324	-2.9847336	-0.5161116
1443278420404596569	1.8041968	-2.9718084	-0.46633187
1443278420409631970	2.3794272	-2.1814575	0.18179101
1443278420414789440	2.4294336	-2.1691246	0.2322635
1443278420420191052	2.2785244	-1.5674992	0.49809784
1443278420424921276	2.3265657	-1.5560017	0.5447715
1443278420429743054	1.8437885	-1.0629311	0.6012268
1443278420434870007	1.8980185	-1.0508776	0.6525855
1443278420439844372	1.2472643	-0.63169193	0.59079343
1443278420450067761	0.6216336	-0.09614086	0.50592583
1443278420454859020	0.5680083	0.3427534	0.44416577
1443278420460138561	0.62661004	0.35353947	0.48835957
1443278420465112927	0.68199325	0.3640051	0.5277523
1443278420470697643	0.9747684	0.5242176	0.3610747
1443278420475916149	1.3937948	0.833827	0.10635722
1443278420480280163	1.4402239	0.84236145	0.1361332
1443278420485559704	1.4970499	0.85317516	0.16866088
1443278420490350964	1.8000542	1.2555342	0.118496895
1443278420500391247	1.1165634	2.5351639	1.817871
1443278420505213024	0.71217346	2.9924736	2.4616098
1443278420510492565	0.7706946	2.9970617	2.4676332
1443278420515344860	1.4493172	2.2449923	0.37295437
1443278420520441296	1.4996262	2.2504902	0.38003957
1443278420525415661	2.2473383	1.5549612	-0.6533556
1443278420530634167	2.287952	1.5618334	-0.6399505
1443278420536432507	3.3183885	1.1576061	-0.21827543
1443278420540704968	3.342046	1.1624193	-0.21002913
1443278420550775768	4.5269685	1.3842087	0.573002
1443278420555628063	4.1442394	2.2905884	1.3014666
1443278420560877087	4.162735	2.291319	1.2998618
1443278420565729382	3.8524635	2.8460836	1.5698047
1443278420570795300	3.8640575	2.8443985	1.5719007
1443278420575769665	4.1713886	2.9089832	0.26192796
1443278420580957653	4.1772504	2.9065437	0.27053964
1443278420586328747	4.729493	4.4943466	-0.9673246
1443278420591058972	4.726962	4.4861307	-0.9565753
1443278420601129772	3.6020837	6.854103	-0.07672262
1443278420605982067	4.4967756	6.123914	-1.5612751
1443278420611200573	4.491753	6.1102657	-1.5530734
1443278420616083386	3.8961492	5.03753	-3.3347492
1443278420621179821	3.8812423	5.025113	-3.3157916
1443278420626154186	2.5597687	4.9170675	-3.2509375
1443278420631159069	2.535005	4.9017916	-3.2346718
1443278420636896374	0.80602074	4.757352	-2.1698773
1443278420641229870	0.77922225	4.739132	-2.1700635
1443278420652643444	-2.3943372	4.358244	-1.2622848
1443278420656336071	-2.4233105	4.337002	-1.2809223
1443278420662103893	-1.9755516	4.675457	-1.3855433
1443278420666559460	-2.0259361	4.648056	-1.4192318
1443278420671472790	-1.9164227	4.6151533	-0.1656233
1443278420676660778	-1.9916964	4.5822773	-0.22245014
1443278420681635143	-2.1366215	3.654088	-0.24456966
1443278420686609509	-2.2146773	3.6245852	-0.30717432
1443278420691614391	-2.8070564	3.263997	-0.13964963
1443278420695123913	-2.8645062	3.2410383	-0.19633919
1443278420701685192	-3.1198728	3.2694826	0.061071277
1443278420706720593	-3.2070541	3.2422638	-0.034868896
1443278420711755993	-2.619286	3.3694477	0.21861076
1443278420716791393	-2.7061794	3.345396	0.11272806
1443278420722650768	-2.1857524	3.5636873	0.3943349
1443278420727014782	-2.2583008	3.5450583	0.29770786
1443278420731928112	-2.2673702	3.1000404	0.6929936
1443278420736963513	-2.3452978	3.0853853	0.5790171
1443278420741968395	-2.7727652	2.376049	0.73162246
1443278420745294811	-2.8168027	2.3681393	0.6550405
1443278420752039196	-3.2172318	1.6770754	0.9672294
1443278420757044079	-3.2751994	1.6741295	0.8551488
1443278420762079479	-3.1119199	1.2563734	0.98279506
1443278420767114880	-2.7114313	0.90329456	0.6588282
1443278420773065807	-2.7743082	0.9083853	0.5299682
1443278420777338268	-2.817005	0.9127226	0.43728667
1443278420782221081	-2.1920319	0.4431839	-0.23188895
1443278420787256481	-2.2438004	0.45287895	-0.34054887
1443278420792322399	-1.3192836	-0.43071556	-0.8215244
1443278420802515270	-0.83277935	-1.392313	-1.5901914
1443278420807428600	-0.8850941	-1.370533	-1.7035285
1443278420812586071	-0.24675441	-2.4531794	-1.9076184
1443278420818994763	0.5128881	-3.4806337	-1.7599368
1443278420823480847	0.46543208	-3.449174	-1.8677703
1443278420828119518	0.19959262	-3.7401133	-1.710442
1443278420832727673	0.15464395	-3.7045784	-1.8199611
1443278420838556530	0.8411551	-3.689252	-1.7368143
1443278420846185925	1.3916792	-3.4710455	-1.3581042
1443278420852899792	1.3278835	-3.4190483	-1.5041466
1443278420857721569	0.83434784	-2.8827267	-1.7066431
1443278420862940075	0.7825395	-2.8410597	-1.8080957
1443278420867853405	0.6753247	-2.686451	-1.9068553
1443278420872888805	0.62406754	-2.6451244	-1.9986784
1443278420877924206	0.7695758	-2.622241	-1.4938955
1443278420883112194	0.71548474	-2.5789604	-1.5838151
1443278420888574841	0.009088516	-2.464386	-1.3416305
1443278420893182995	-0.037072778	-2.425418	-1.4152827
1443278420903253796	-1.0899684	-2.3542957	-1.7127547
1443278420908136608	-1.987086	-2.3353996	-1.6675522
1443278420913294079	-2.0214171	-2.2954502	-1.7361493
1443278420918207409	-2.423627	-2.2284193	-1.440763
1443278420923242809	-2.4515638	-2.1915102	-1.501287
1443278420928278210	-3.0068717	-2.0863075	-1.0071781
1443278420933435680	-3.0313675	-2.0507975	-1.0640037
1443278420938959362	-3.4604828	-2.33317	-1.3182876
1443278420943536999	-3.309345	-2.6884804	-1.9105828
1443278420946710827	-3.3175526	-2.6654825	-1.9369581
1443278420953638317	-3.3414898	-2.6254253	-1.9941845
1443278420958460095	-3.1107407	-3.3697472	-2.3200192
1443278420963678600	-3.1225238	-3.3417168	-2.3501291
1443278420968530895	-2.5797398	-3.9263067	-1.5976577
1443278420973596813	-2.5866375	-3.899726	-1.6252108
1443278420978632214	-2.0121722	-4.5911713	-1.4705963
1443278420983606579	-1.6090338	-5.105274	-1.5902662
1443278420989771130	-1.6048089	-5.0795918	-1.6145034
1443278420994531872	-1.3876387	-5.2587385	-1.2913122
1443278420997064831	-1.3810743	-5.2431917	-1.2960458
1443278421004480602	-1.1039144	-5.202571	-1.0609951
1443278421008814098	-1.091472	-5.189435	-1.064004
1443278421013849499	-0.7557826	-4.918724	-0.7324052
1443278421019068005	-0.7387066	-4.911914	-0.72681665
1443278421024805309	-0.30926442	-4.6011457	-0.27985907
1443278421029138805	-0.29363966	-4.599742	-0.26582003
1443278421034021618	0.16570842	-4.335453	0.22162724
1443278421039057018	0.18607879	-4.3431177	0.24979448
1443278421044092419	0.8822224	-4.2625237	0.74080753
1443278421047632458	0.8976344	-4.26894	0.76662874
1443278421054193737	1.831937	-4.2580442	1.3645511
1443278421059198620	1.8602931	-4.2798233	1.4174483
1443278421064234020	2.5211754	-4.013344	1.7693005
1443278421069422009	2.5561216	-4.0423336	1.8358648
1443278421075220348	2.5834312	-3.0349245	1.4968617
1443278421079492809	2.228343	-0.8080292	0.44862008
1443278421084345104	2.2693377	-0.84489155	0.5243666
1443278421090173962	2.3243403	-0.89078426	0.62070227
1443278421094446423	1.542276	2.7177753	0.026005507
1443278421097772839	1.5789458	2.6842718	0.08404136
1443278421104639294	0.38142318	7.11981	-0.20795298
1443278421109549195	0.4441216	7.068554	-0.12820292
1443278421114615113	-0.57642573	12.114875	-0.7070694
1443278421119619996	-1.6499698	16.874493	0.7487643
1443278421125357301	-1.5830821	16.81141	0.8079889
1443278421129721314	-1.5400456	16.759907	0.83950806
1443278421134909303	0.06860936	18.052948	6.88724
1443278421140524537	-0.30199346	14.838353	12.210187
1443278421144949586	-0.3031786	14.813077	12.158194
1443278421155020387	-0.49785507	7.1718225	13.563636
1443278421160788209	5.152445	-1.5853977	9.774289
1443278421164969117	5.108908	-1.5542278	9.683027
1443278421170859010	6.54798	-7.207905	4.6376586
1443278421175711305	6.4897223	-7.163495	4.5640407
1443278421180685670	2.5100648	-7.1293306	1.9544325
1443278421185110719	2.4567769	-7.090193	1.9043744
1443278421190024049	-1.1949397	-4.2017736	0.31949306
1443278421195181519	-1.2520936	-4.1728344	0.28763533
1443278421198507936	-4.520599	0.5924463	-1.6286786
1443278421205404908	-4.5861406	0.6106901	-1.6497939
1443278421210257203	-8.519953	6.1137743	-2.8724651
1443278421215506227	-8.53528	6.1110954	-2.8812191
1443278421220358521	-11.058907	7.8079977	-3.9757426
1443278421225424439	-11.030237	7.796899	-3.9823828
1443278421230398805	-10.715702	5.62817	-5.247343
1443278421235586793	-10.65732	5.6153345	-5.243966
1443278421241293580	-7.5146523	3.2554607	-3.1480777
1443278421245505006	-7.4539127	3.2408152	-3.133947
1443278421248953492	-2.0475695	2.59723	-1.2656634
1443278421255728394	1.3241339	3.1505356	-1.7842653
1443278421260641725	1.3886055	3.1306791	-1.7617857
1443278421265860230	1.4591732	3.1114283	-1.7403154
1443278421270682008	1.4106468	2.6310244	-4.0096865
1443278421275808961	1.4767551	2.6151571	-3.9852777
1443278421280783326	0.67968917	0.8492794	-3.595371
1443278421285940797	0.7312987	0.8384638	-3.5705864
1443278421291433961	0.6642151	-1.3341312	-2.615025
1443278421296042115	0.6829928	-1.3403559	-2.5879502
1443278421306082398	1.5240661	-2.544918	-3.0625446
1443278421310995728	1.7807312	-2.2912016	-4.154436
1443278421316214234	1.7796786	-2.3014708	-4.1055126
1443278421321036012	1.6192025	-1.5425844	-4.8536415
1443278421326162965	1.6307943	-1.5558186	-4.7992206
1443278421331137330	1.8664685	-0.64278316	-5.0710373
1443278421338339478	1.8907692	0.15477276	-4.3903794
1443278421341665894	1.9011767	0.14221382	-4.346422
1443278421346762330	0.6703325	0.6497288	-2.9711733
1443278421357168824	-0.45317742	0.61593723	-1.8501556
1443278421361319215	-0.44572994	0.5961523	-1.7876663
1443278421366354615	-0.77408314	0.11965275	-1.5019658
1443278421371481568	-0.7664029	0.09509945	-1.4168608
1443278421376852662	-1.0833342	-0.49970722	-1.2200952
1443278421381643922	-1.0817013	-0.5225754	-1.1301877
1443278421386496217	-1.4875418	-0.9468069	-1.0966649
1443278421391592652	-1.4901372	-0.9694996	-0.99615383
1443278421396628053	-1.3518953	-1.2412043	-0.5960343
1443278421399923951	-1.3540632	-1.252553	-0.53423715
1443278421406698853	-1.2330784	-1.4680729	-0.43574739
1443278421411703736	-1.2388433	-1.482007	-0.35338867
1443278421416739137	-1.2748946	-1.5802679	-0.6946609
1443278421421896607	-1.2814822	-1.5913572	-0.61781216
1443278421427328736	-1.4806634	-1.7310925	-0.8590355
1443278421432028443	-1.4854888	-1.7390556	-0.7907573
1443278421436880738	-1.5494984	-1.9116468	-0.9257326
1443278421441946656	-1.5528197	-1.9191122	-0.8519014
1443278421446951539	-1.3586184	-2.093031	-1.0501937
1443278421450430543	-1.3585056	-2.0958138	-0.99873674
1443278421457174928	-0.6823998	-2.3683567	-1.0945396
1443278421462057740	-0.67906475	-2.3722	-1.0247833
1443278421467215211	-0.4048927	-2.0953426	-0.8665657
1443278421472128541	-0.39612082	-2.0984583	-0.80081797
1443278421478140504	0.23229109	-1.5625916	-0.79749584
1443278421482351930	0.2476284	-1.5643377	-0.74847555
1443278421487204225	1.078843	-1.200777	-0.9821729
1443278421492300660	1.1001096	-1.2029133	-0.9314309
1443278421497275025	1.4420792	-0.87608624	-0.72241473
1443278421500631959	1.4557596	-0.8767042	-0.6920623
1443278421507528932	1.6376364	-0.75520897	-0.4723553
1443278421512961061	1.6611459	-0.75676537	-0.42758888
1443278421517599732	1.5811787	-0.75282955	-0.4650535
1443278421522665650	1.7166606	-0.8420334	-0.586242
1443278421527517945	1.7358706	-0.84241295	-0.546059
1443278421532797486	1.5422307	-0.9370899	-0.39559168
1443278421537741334	1.5630382	-0.9369087	-0.3537815
1443278421542624146	1.6922989	-1.205121	-0.3787652
1443278421547812135	1.7173333	-1.2039766	-0.33337903
1443278421552237184	1.6663343	-1.5761023	-0.776541
1443278421557852418	1.6973014	-1.5736818	-0.7243967
1443278421562826783	1.3370106	-1.9099035	-0.84368896
1443278421567953736	1.3688251	-1.9059954	-0.7931997
1443278421572867066	1.2230587	-1.9995985	-1.0116279
1443278421577871949	1.2581197	-1.9946585	-0.9579656
1443278421582907350	1.2810123	-1.9127998	-0.7798733
1443278421588064820	1.3212525	-1.9068832	-0.71964246
1443278421593466432	1.5902013	-1.9801188	-0.4918871
1443278421598166139	1.630058	-1.9728441	-0.4306168
1443278421608236939	1.4765146	-1.9831591	-0.1187534
1443278421613119752	1.2963934	-1.643465	0.30455068
1443278421618307740	1.3489869	-1.6326656	0.37926427
1443278421623160035	0.7843326	-0.9159937	0.5575056
1443278421628225953	0.83605397	-0.9054527	0.62629056
1443278421633261353	0.23064262	-0.06710625	0.2761101
1443278421638449342	0.2823127	-0.057209015	0.34072387
1443278421643820436	0.17848003	0.5658531	0.07522023
1443278421648520143	0.22445732	0.5740795	0.12684357
1443278421651693971	0.28039157	1.0104084	-0.0021484494
1443278421658621461	0.3505156	1.0230169	0.06545985
1443278421663443238	0.30851936	1.5663834	0.0320639
1443278421668478639	0.3621807	1.5747023	0.07526684
1443278421673544557	0.30586064	2.556634	0.6436206
1443278421679526002	0.9442942	2.789525	1.3156133
1443278421683584840	0.9928795	2.7940798	1.3374962
1443278421689352662	1.9574916	2.3672018	1.042027
1443278421694754273	2.0196493	2.375804	1.0631824
1443278421698965699	2.8894033	1.5702705	-0.032793164
1443278421708883912	3.4376113	0.36238956	-0.6409012
1443278421713797242	3.4752882	0.37110996	-0.6293473
1443278421718893678	4.3918447	0.51182175	-0.1365776
1443278421724051148	4.4220567	0.5189495	-0.13062799
1443278421729452760	4.4617634	1.4735508	0.66691256
1443278421734121949	4.48034	1.4764471	0.66951346
1443278421739004762	3.6429307	2.528391	1.4999257
1443278421744070680	3.655363	2.528222	1.5050315
1443278421749075562	1.7209847	2.8878899	1.4504714
1443278421752554566	1.7255895	2.8846855	1.4558899
1443278421759176881	1.3502127	2.6949587	0.6507665
1443278421764181764	1.3530797	2.6923428	0.66249645
1443278421769217164	1.9807923	3.696642	0.6111616
1443278421774374635	1.9773816	3.690463	0.61946785
1443278421779898316	1.7770407	5.8757772	1.0870506
1443278421784506471	1.775866	5.86411	1.0852599
1443278421789358766	3.5879588	5.6556597	0.16090453
1443278421795065553	3.5901704	5.6452436	0.15662706
1443278421799429566	4.2250333	4.260602	-1.3953308
1443278421802969605	4.2195015	4.2527294	-1.389948
1443278421809622437	3.066532	3.5285406	-1.8445766
1443278421814535768	2.270753	3.2868223	-2.0493345
1443278421819571168	2.252551	3.2780857	-2.040059
1443278421824606568	2.22879	3.267583	-2.0358799
1443278421830313355	1.1155831	2.4544973	-1.919441
1443278421834677369	-0.41870093	1.863759	-1.4600723
1443278421839804322	-0.45423257	1.8502169	-1.4780674
1443278421847098023	-1.0393034	1.941247	-1.1069595
1443278421849753053	-1.0605166	1.9305286	-1.1238651
1443278421853293092	-1.0912423	1.917161	-1.1493852
1443278421860006959	-1.3191795	2.4142933	-0.5895122
1443278421865042359	-1.6197498	2.0531378	-1.1846519
1443278421870047242	-1.6756911	2.0333967	-1.2364058
1443278421874838502	-2.5452209	1.9503937	-0.90482605
1443278421879995973	-2.6119778	1.9291897	-0.97000605
1443278421884939820	-3.719967	2.4159803	-0.4808873
1443278421890188844	-3.7907314	2.3934517	-0.5652855
1443278421895529420	-3.774737	2.7748117	-0.41385728
1443278421900320680	-3.8387985	2.754446	-0.5080293
1443278421910360963	-3.4619443	3.2187996	-0.30065095
1443278421915243775	-3.033345	3.6361217	-0.08773193
1443278421920431764	-3.1056542	3.6192722	-0.20577376
1443278421925345094	-2.6845145	3.3577385	-0.02761016
1443278421930349977	-2.7523053	3.3457594	-0.14193924
1443278421935354859	-2.9717932	2.6862917	-0.047762305
1443278421940390260	-3.0347052	2.6796093	-0.16145936
1443278421945913941	-3.3233132	1.894165	0.18883926
1443278421950644166	-3.3764036	1.8927374	0.08290723
1443278421960714967	-2.9234307	1.4323092	0.13042969
1443278421965567262	-2.0610583	1.1835337	-0.105588734
1443278421970785768	-1.0992866	0.92429733	-0.3304299
1443278421975668580	-1.1550003	0.9327316	-0.4357581
1443278421981466920	-1.2213501	0.94497967	-0.5602083
1443278421985708863	-0.29799452	0.4783268	-0.6541996
1443278421990927369	-0.35770094	0.49326992	-0.76562166
1443278421996725709	0.45509028	0.014146805	-0.91972315
1443278422001028687	0.40700084	0.03024292	-1.0119356
1443278422004202516	1.1092994	-0.6782427	-0.9354069
1443278422010916383	1.2524786	-1.3964024	-0.93404675
1443278422015921266	1.2014444	-1.3701477	-1.0425502
1443278422022055299	1.0579171	-1.8264904	-1.2160172
1443278422026144654	1.0205312	-1.8016787	-1.3011041
1443278422031729371	0.814691	-1.8497105	-1.4425788
1443278422036062867	0.7805367	-1.8226137	-1.5276175
1443278422041128785	0.74457896	-1.7757587	-1.4095907
1443278422047232301	0.7022963	-1.7381897	-1.5241041
1443278422051199586	0.8392829	-1.9590893	-1.3743689
1443278422054556519	0.8162801	-1.9354982	-1.4346747
1443278422061178834	0.72265345	-2.2718058	-1.5952811
1443278422066275269	0.68543905	-2.2358885	-1.6838541
1443278422071341187	0.20456427	-2.443038	-1.8999953
1443278422076529176	0.16341734	-2.4047928	-1.9855411
1443278422081930787	-0.42775357	-2.6250591	-1.8713546
1443278422086599977	-0.46563655	-2.5891619	-1.9431784
1443278422091452271	-1.088804	-2.8088284	-1.734662
1443278422096548707	-1.1281478	-2.7697916	-1.8084834
1443278422101553590	-1.7981608	-2.8126907	-1.7674861
1443278422111624391	-1.9511597	-2.9736757	-1.6489029
1443278422116629273	-1.9812827	-2.9358997	-1.7123339
1443278422121664674	-2.0117846	-3.0956707	-1.6289504
1443278422126852662	-2.0379834	-3.0580711	-1.6892617
1443278422132254273	-2.6896353	-3.2545328	-1.2736025
1443278422136953980	-2.7044048	-3.2220669	-1.3226485
1443278422141806275	-2.85038	-3.5774927	-1.6740859
1443278422147513062	-2.7587996	-4.19648	-1.5250275
1443278422151907594	-2.762165	-4.1681137	-1.5614338
1443278422162130982	-2.501239	-4.541667	-1.5511937
1443278422167013795	-2.4384036	-4.826934	-1.503346
1443278422172201783	-2.4344964	-4.8008375	-1.5329633
1443278422177054078	-1.9986544	-5.2169495	-1.5046253
1443278422182119996	-1.9914557	-5.1941204	-1.5266728
1443278422188040406	-1.7106986	-5.3661375	-1.3208303
1443278422198660523	-1.3504914	-5.473426	-1.1508508
1443278422202414186	-1.3415841	-5.4587517	-1.156704
1443278422205588014	-1.332954	-5.445874	-1.1589527
1443278422212484986	-0.9120264	-5.4736443	-0.9272504
1443278422217306764	-0.22599459	-5.391591	-0.6880164
1443278422222555787	-0.21021926	-5.3856754	-0.68039274
1443278422227408082	0.6270027	-5.222415	-0.23451567
1443278422232504518	0.6458409	-5.2232227	-0.21640587
1443278422237509400	1.3082161	-4.928664	0.33869743
1443278422242697389	1.3316867	-4.937146	0.36857796
1443278422248190553	2.141356	-4.6565456	0.8620291
1443278422252768189	2.163415	-4.6677046	0.8959918
1443278422262838990	2.7177725	-4.329337	1.3954175
1443278422267721803	2.894576	-3.7783718	1.6366243
1443278422272909791	2.9261386	-3.805376	1.6995881
1443278422277762086	2.4548705	-2.6792517	1.9330509
1443278422282858521	2.4915905	-2.7127562	2.0074673
1443278422287863404	1.9304624	-0.47143364	1.5078804
1443278422293051393	1.9735835	-0.51272583	1.5947711
1443278422298391969	1.7166456	3.3309813	0.05166483
1443278422303122193	1.7590837	3.2862406	0.13759875
1443278422313192994	0.5208894	8.072819	-0.7585285
1443278422318045289	-1.3848596	13.185221	-0.51354504
1443278422323263795	-2.1654005	17.230556	1.3492267
1443278422328238160	-2.1227643	17.176716	1.3929791
1443278422333853394	-2.0892675	17.129074	1.4211667
1443278422338186891	0.21940863	18.610893	6.1271095
1443278422343405396	0.20583147	18.577665	6.099513
1443278422349234254	0.010242969	16.660786	10.854643
1443278422353354127	0.5916251	8.8799	14.931547
1443278422356680543	0.55738276	8.875296	14.866053
1443278422364828736	5.1857557	-0.41178513	12.467945
1443278422368429811	5.13723	-0.3880005	12.388086
1443278422374167115	7.696316	-7.222106	5.9174356
1443278422378500611	7.6428566	-7.1800823	5.845436
1443278422383932740	4.879668	-7.627014	2.3829808
1443278422388754518	4.8253703	-7.588979	2.3354294
1443278422393606812	0.4278379	-4.173826	1.8659129
1443278422398703248	0.36635482	-4.1488905	1.8401167
1443278422403647096	-2.8010225	-0.2023468	1.3397822
1443278422407187135	-2.8391168	-0.19148064	1.3257151
1443278422413717896	-6.061669	4.6613054	-1.686866
1443278422418753297	-6.090651	4.666028	-1.7031603
1443278422423849732	-11.097429	7.56104	-2.1565166
1443278422428976686	-11.076027	7.5561285	-2.1759236
1443278422434408814	-10.646754	5.274626	-2.3598802
1443278422439108521	-10.596649	5.268338	-2.3735783
1443278422443930299	-7.5251555	1.1405659	-3.1902096
1443278422449026734	-7.4711757	1.139863	-3.197323
1443278422454001100	-3.8039947	-0.3098755	-2.373717
1443278422464071900	0.16731524	0.90785885	-1.7404025
1443278422469107301	0.22557688	0.8915634	-1.7165818
1443278422474173219	2.2771645	1.7478466	-2.630916
1443278422479361207	2.3324528	1.7276306	-2.5983357
1443278422484854371	1.2985942	1.4126282	-4.4933763
1443278422489432008	1.3355589	1.3946095	-4.4549036
1443278422494284303	-0.6090701	0.5453892	-4.903957
1443278422500113160	-0.5868303	0.52394485	-4.847694
1443278422504385621	-1.665401	-0.66919327	-3.265146
1443278422507895143	-1.6656888	-0.6797285	-3.2281024
1443278422514425904	-0.6297824	-2.083603	-2.9617507
1443278422519461305	-0.64063555	-2.0955362	-2.911802
1443278422524527223	-0.27731347	-2.457178	-2.7809334
1443278422529471070	-0.2767821	-2.4676313	-2.7337947
1443278422535116822	-0.06434256	-1.4507694	-3.399266
1443278422540548951	0.9171486	0.022078514	-4.3040543
1443278422544821412	0.9366387	0.00908947	-4.2624035
1443278422549826295	1.8641843	1.2127752	-4.2408495
1443278422554922730	1.8922279	1.1939297	-4.1897078
1443278422558066041	1.9082735	1.1805887	-4.152056
1443278422564993531	1.6018296	1.548708	-3.2707434
1443278422569845826	0.5617667	1.0473185	-2.1976774
1443278422575064332	0.5849617	1.0228767	-2.1260555
1443278422579916627	0.022241741	-0.049369812	-1.488554
1443278422585013062	0.040652066	-0.073254585	-1.407628
1443278422589987428	0.08216894	-1.0607519	-1.3040891
1443278422595175416	0.094667375	-1.084197	-1.2111423
1443278422600515992	0.24343541	-1.813981	-1.237864
1443278422605246217	0.24771431	-1.83323	-1.1465483
1443278422615286500	-0.03235534	-2.217618	-1.0014586
1443278422620169312	-0.33036682	-2.3583536	-1.0323133
1443278422625326783	-0.3342895	-2.3728018	-0.93993855
1443278422630240113	-0.8352519	-2.1674013	-0.6491481
1443278422635977418	-0.8394083	-2.1808367	-0.5556195
1443278422640310914	-1.3053799	-1.7711153	-0.37511075
1443278422645468385	-1.3077334	-1.7816601	-0.2942226
1443278422651144654	-1.2667531	-1.6610918	-0.34517205
1443278422655569703	-1.2675107	-1.6681356	-0.27907944
1443278422665701539	-1.3413998	-1.6804552	-0.24375856
1443278422670523316	-1.1913426	-1.8128452	-0.75108695
1443278422675802857	-1.1915791	-1.8185568	-0.67680454
1443278422680594117	-0.66383374	-2.1140642	-1.2877007
1443278422685568482	-0.6618192	-2.1173296	-1.2196293
1443278422690695436	-0.18426022	-2.5046368	-1.3070666
1443278422695852906	-0.17689532	-2.506114	-1.2412157
1443278422701224000	0.10031083	-2.4750261	-0.89875233
1443278422707113893	0.81578606	-2.3496656	-0.70317036
1443278422709158570	0.8214548	-2.3468466	-0.67929107
1443278422717093141	1.3356494	-2.0855541	-0.686533
1443278422726401002	1.564229	-1.8261404	-0.8590057
1443278422730978639	1.588167	-1.8256483	-0.80999744
1443278422736288697	1.6066679	-1.6008835	-0.6982093
1443278422741202027	1.6339526	-1.6004009	-0.6455499
1443278422746115357	1.6854883	-1.4825506	-0.5845791
1443278422751181275	1.7144842	-1.4816446	-0.5302162
1443278422756125123	1.6151137	-1.4886713	-0.74551576
1443278422759665162	1.6346338	-1.4865961	-0.70610183
1443278422766226441	1.2489698	-1.5958958	-0.73015666
1443278422771261842	1.27976	-1.5931416	-0.6731166
1443278422776327760	0.8174983	-1.6973972	-0.68536985
1443278422781485230	0.8527407	-1.6934729	-0.62503403
1443278422786917359	0.40008253	-1.6304245	-0.48978603
1443278422791525514	0.43615	-1.6256161	-0.43334836
1443278422796438844	0.5190495	-1.4529428	-0.5553604
1443278422801504762	0.5642822	-1.4469423	-0.48928106
1443278422806509644	0.7956655	-1.1738987	-0.40537047
1443278422816580445	0.9976822	-0.8184242	-0.12033832
1443278422821615846	0.7708053	-0.44235706	0.008694053
1443278422826651246	0.82579076	-0.43385983	0.079637825
1443278422831686646	0.8808573	-0.42447662	0.15071875
1443278422838522584	0.42542976	-0.045394897	0.37579536
1443278422846762330	0.24561161	0.55346775	0.66346914
1443278422852896363	0.39909548	1.0819397	0.53476286
1443278422856863648	0.43986046	1.088829	0.583127
1443278422867087037	0.26637793	1.384675	0.28026974
1443278422873190553	0.40023446	1.4947805	0.22232378
1443278422877188355	0.4426229	1.5007095	0.2529204
1443278422883108766	0.7463033	1.9789743	0.9443052
1443278422887900025	0.8015908	1.9857359	0.9682553
1443278422892813355	0.8341199	2.4608002	2.1696858
1443278422897268922	0.8881011	2.465783	2.1808286
1443278422902273805	1.9021386	1.9346275	1.9544818
1443278422907400758	1.9591055	1.9419384	1.963874
1443278422910544068	1.9913999	1.9448347	1.9677315
1443278422917471559	3.080525	1.2403431	0.38757265
1443278422922323853	3.7472982	0.51413155	-0.38907123
1443278422927542359	3.78057	0.52243423	-0.37335515
1443278422932364137	4.0677567	0.9559078	-0.3309828
1443278422938254029	4.0992365	0.9631872	-0.3169036
1443278422942465455	3.8237414	2.2016277	0.43800485
1443278422947683961	3.8458157	2.2040615	0.44637418
1443278422953390748	3.0618625	3.3847876	0.9875872
1443278422957724244	3.0736651	3.3824425	0.99354756
1443278422960928590	1.8386385	3.335513	1.2132413
1443278422967795045	1.8525647	3.3346071	1.2275674
1443278422972677857	2.1489341	3.4606085	-0.23046064
1443278422977865846	2.1537313	3.4573994	-0.21609747
1443278422982748658	2.4464483	5.249303	-0.17190266
1443278422987814576	2.4502144	5.2414694	-0.16298258
1443278422992788941	2.0247855	6.7851696	0.98535466
1443278422997854859	4.5166073	5.530385	-1.1059502
1443278423003836305	4.5183806	5.521389	-1.1015402
1443278423008108766	4.5138884	5.5116825	-1.0940814
1443278423018149049	3.9338875	4.9426794	-3.137654
1443278423023001344	3.1847658	4.6190395	-3.133038
1443278423028280885	3.1628575	4.606658	-3.1257138
1443278423033072144	1.6883876	3.2252474	-2.9330359
1443278423038046510	-0.13600361	1.7235689	-1.771413
1443278423043203980	-0.15698802	1.7123871	-1.7902133
1443278423048086793	-0.18157363	1.6994848	-1.8163815
1443278423053732545	-1.5749397	1.2567902	-1.7381542
1443278423059317262	-1.968528	1.8974724	-1.2816087
1443278423061636598	-1.9843552	1.886816	-1.3011107
1443278423068991334	-2.0665326	1.9256048	-1.2864597
1443278423073294312	-2.1115212	1.9073133	-1.3306504
1443278423078604371	-2.7826457	1.458271	-1.4792005
1443278423083609254	-2.8490896	1.4364185	-1.5425484
1443278423089132936	-3.706514	1.495388	-0.7357321
1443278423093680055	-3.7734373	1.4741306	-0.81219053
1443278423098593385	-4.452724	2.1452303	-0.24323672
1443278423103628785	-4.5299053	2.1215591	-0.3480221
1443278423108633668	-4.454581	2.631833	-0.0035952926
1443278423111990602	-4.50384	2.6153917	-0.080153465
1443278423118673951	-4.128708	3.0598793	0.46775487
1443278423123739869	-4.211098	3.0412817	0.34673595
1443278423128775269	-3.6862624	3.237568	0.6829898
1443278423133780152	-3.7682495	3.2232695	0.5615089
1443278423139639527	-3.5221736	3.036354	0.42252535
1443278423143881471	-3.5885293	3.0277176	0.32005197
1443278423148916871	-3.7592442	2.553934	0.44120336
1443278423154776246	-3.4362633	1.8426619	0.782283
1443278423158987672	-3.4956095	1.842103	0.68119407
1443278423162497193	-3.5409284	1.8421116	0.59713286
1443278423169058473	-2.6873128	1.1854095	0.30328137
1443278423174063355	-1.6067418	0.46308708	-0.15840119
1443278423179129273	-1.668534	0.4736843	-0.27619296
1443278423184134156	-1.7264602	0.48583508	-0.39173925
1443278423189901978	-0.40563124	-0.44474506	-1.0543305
1443278423194388062	-0.4551453	-0.42889595	-1.15591
1443278423199270875	0.16659895	-1.2315712	-1.4642746
1443278423204367311	0.113654435	-1.2084761	-1.5814462
1443278423209372193	1.0646992	-1.9288492	-1.2323611
1443278423212820680	1.7794334	-2.4063587	-1.0490712
1443278423219534547	1.7141955	-2.3671818	-1.2087576
1443278423225271852	1.5262978	-2.358323	-1.5754964
1443278423229635865	1.4887998	-2.3282957	-1.676183
1443278423235647828	1.4500216	-1.7733936	-1.7645888
1443278423240225465	1.4148281	-1.7421389	-1.8629186
1443278423244650514	1.9300263	-1.6515503	-1.6966851
1443278423249746949	1.891649	-1.6164227	-1.8003683
1443278423255606324	1.7939644	-2.024763	-1.7072575
1443278423263205201	1.3357737	-2.5257053	-1.5690298
1443278423269888551	1.2802892	-2.4745054	-1.6953144
1443278423274801881	0.4182304	-2.7806492	-1.286438
1443278423279989869	0.37354863	-2.7370977	-1.380842
1443278423284872682	-0.2489518	-3.274331	-1.0577731
1443278423289908082	-0.29046094	-3.22999	-1.1451993
1443278423294943482	-1.2426511	-3.5177402	-1.0121026
1443278423300100953	-1.2799944	-3.4726334	-1.0946691
1443278423305624635	-2.0537128	-3.429656	-1.5502315
1443278423310202271	-2.456753	-3.1990929	-1.7953572
1443278423313406617	-2.4736295	-3.1710443	-1.8357701
1443278423320273072	-2.5127938	-3.1209402	-1.9196186
1443278423325155885	-3.1281557	-2.9801455	-1.4488101
1443278423330313355	-3.151363	-2.9436178	-1.5042744
1443278423335196168	-3.4210813	-3.047555	-1.2652469
1443278423340231568	-3.4373193	-3.0146046	-1.3128428
1443278423345297486	-3.2620738	-3.231471	-0.9609866
1443278423350485475	-2.7497168	-3.7738523	-0.9008975
1443278423356314332	-2.7626166	-3.7413616	-0.94424915
1443278423360586793	-2.769085	-3.7173414	-0.9717026
1443278423370627076	-2.2992868	-4.116067	-1.0802712
1443278423375479371	-1.8620958	-4.5275316	-1.2263107
1443278423380728394	-1.864596	-4.5072527	-1.2433181
1443278423385550172	-1.0547568	-5.0333033	-1.085537
1443278423390555055	-1.0536443	-5.017021	-1.0944085
1443278423395651490	-0.66421664	-5.259698	-0.89794827
1443278423401816041	-0.42116022	-5.265175	-0.7550988
1443278423406546266	-0.4136809	-5.2553406	-0.7535081
1443278423411429078	-0.27695644	-5.016448	-0.7239342
1443278423414114625	-0.27087379	-5.0087366	-0.7188587
1443278423421133668	-0.035888195	-4.6263914	-0.85623884
1443278423425863893	-0.021050334	-4.6271744	-0.8386307
1443278423430807740	-0.004691601	-4.6299877	-0.8173809
1443278423436056764	0.39807522	-4.2178907	-0.78547
1443278423441671998	1.071242	-4.0239325	-0.070640564
1443278423446005494	1.091661	-4.0347214	-0.0385108
1443278423451040894	2.0249915	-3.997717	0.88292646
1443278423456747682	2.0574465	-4.0207415	0.93535185
1443278423461081178	3.0183845	-4.054947	1.4793026
1443278423464590699	3.0388339	-4.0692177	1.5169313
1443278423471151978	3.3550131	-3.8831367	1.6811435
1443278423476217896	3.3928883	-3.9125586	1.7484779
1443278423481222779	2.9965916	-2.7507868	1.4254172
1443278423486288697	3.042223	-2.7861404	1.5041924
1443278423491812379	2.425028	0.29503155	0.6224897
1443278423496542603	2.474079	0.25564384	0.70307183
1443278423501364381	1.4095055	4.7798624	-0.68944097
1443278423506460816	1.4674008	4.7316647	-0.60231924
1443278423511465699	-0.1707387	9.955312	-1.2101927
1443278423514822633	-0.13076627	9.913297	-1.1572704
1443278423521689088	-1.9103932	15.702657	-1.2780421
1443278423526541383	-1.8607116	15.64789	-1.2188883
1443278423531607301	-1.5029259	19.217266	3.182306
1443278423536764771	-1.4700389	19.16748	3.2006035
1443278423542532594	0.10788539	18.472652	9.301907
1443278423546927125	0.10010132	18.440235	9.264954
1443278423551718385	-0.19463593	12.035297	14.90296
1443278423556845338	-0.23870492	12.034739	14.806701
1443278423561819703	4.230959	2.245285	14.742684
1443278423572012574	9.907253	-7.094722	6.564397
1443278423577383668	6.4707084	-11.5104885	2.510457
1443278423582113893	6.4056597	-11.459148	2.4481506
1443278423587484986	2.0312157	-8.94638	1.9997666
1443278423592062623	1.9715812	-8.909246	1.9653304
1443278423597250611	-2.1132624	-3.68435	-0.28743052
1443278423602255494	-2.1624765	-3.6595793	-0.31177664
1443278423607046754	-6.171988	2.5481224	-2.5228992
1443278423612326295	-6.1975765	2.5584774	-2.5424604
1443278423616659791	-11.52898	8.060848	-3.1301095
1443278423622397096	-11.532469	8.058552	-3.1486614
1443278423627340943	-13.982637	9.186634	-4.0086
1443278423632467896	-13.949219	9.173322	-4.0150356
1443278423637350709	-11.324946	6.5189495	-5.8629637
1443278423642416627	-11.274286	6.5006866	-5.847486
1443278423647390992	-7.886392	4.8755503	-4.5041447
1443278423652578980	-7.8259907	4.84848	-4.465912
1443278423658407838	-2.1430197	5.059104	-2.267413
1443278423662649781	-2.0891633	5.029212	-2.2265854
1443278423672751100	3.06499	5.2615433	-1.1949651
1443278423677633912	2.4375615	3.2650385	-2.1181302
1443278423682821900	2.487019	3.2435427	-2.0851033
1443278423687674195	0.34981513	-0.26340008	-3.280755
1443278423692740113	0.37680358	-0.2735443	-3.2499228
1443278423697775514	-1.7210162	-3.1030855	-2.6296844
1443278423702963502	-1.7152349	-3.1069746	-2.596617
1443278423708761842	-1.1940421	-4.9402924	-2.7834551
1443278423713034303	-1.1989543	-4.939272	-2.7509825
1443278423723135621	-0.163813	-4.9738197	-3.5982547
1443278423727987916	0.1415509	-3.3075142	-4.4459643
1443278423732962281	0.14894724	-3.3133879	-4.400957
1443278423738028199	0.60695964	-1.2470818	-4.7554636
1443278423743887574	1.4744073	0.6228037	-5.3170185
1443278423748129518	1.4935126	0.60984135	-5.2737746
1443278423753805787	1.1980045	1.5313807	-4.3026576
1443278423759024293	1.2178171	1.5109558	-4.242158
1443278423763571412	0.20758134	1.1338215	-2.0500977
1443278423766562135	0.21310997	1.1188335	-2.004779
1443278423773337037	0.12502208	0.24698353	-0.55717134
1443278423778311402	0.12790546	0.22189903	-0.4689846
1443278423783377320	0.4206344	-0.64055157	-0.08099365
1443278423788534791	0.42040268	-0.66665554	0.025232553
1443278423794058473	0.36788258	-1.4337263	0.028024197
1443278423798636109	0.36616206	-1.4545507	0.13022327
1443278423803549439	0.44402212	-1.7013979	-0.14485717
1443278423808584840	0.4417158	-1.7205353	-0.035963178
1443278423813589723	0.73069936	-1.7400961	-0.27562833
1443278423817099244	0.7279676	-1.7497883	-0.2039454
1443278423823660523	0.57243335	-1.6040869	-0.09727776
1443278423828665406	0.5687469	-1.6146584	-0.01280427
1443278423833731324	0.09231588	-1.6365328	-0.13922322
1443278423838919312	0.08735192	-1.6439295	-0.065313816
1443278423844381959	-0.4642141	-2.067317	-0.16855133
1443278423848990113	-0.48514506	-2.536479	-0.30165994
1443278423853842408	-0.48959824	-2.5389376	-0.23867726
1443278423859671266	-0.4945695	-2.5423765	-0.1636982
1443278423863943727	-0.047024548	-2.951414	-0.4053167
1443278423867270143	-0.048621446	-2.9497042	-0.36298668
1443278423874167115	-0.079185635	-2.8184233	-0.3129347
1443278423879049928	-0.07501584	-2.8181543	-0.254969
1443278423884268434	0.37014523	-2.5647326	-0.53397775
1443278423889120728	0.6872684	-2.1045437	-0.44337296
1443278423894156129	0.70445955	-2.1048145	-0.3920564
1443278423900473268	0.97010416	-1.557827	-0.5206945
1443278423904349000	0.98787063	-1.5576687	-0.483813
1443278423910208375	1.1188431	-1.239994	-0.7321144
1443278423914297730	1.1401904	-1.2402077	-0.6941574
1443278423924460084	1.2879338	-1.21385	-0.30269104
1443278423929373414	1.5860724	-1.5313835	-0.1950874
1443278423934530885	1.6135365	-1.5305042	-0.14995685
1443278423939413697	1.4893093	-1.7310143	-0.31072244
1443278423945151002	1.5188174	-1.7293558	-0.25770688
1443278423949515016	1.2716798	-1.8547668	-0.53302187
1443278423954672486	1.2987386	-1.8521204	-0.48005402
1443278423960318238	1.0481411	-1.9327812	-0.67265683
1443278423964743287	1.0737998	-1.9291553	-0.6226936
1443278423974814088	0.79127717	-1.7814884	-0.3217194
1443278423979757936	0.48053753	-1.4115257	-0.121421054
1443278423984884889	0.51879096	-1.4070997	-0.06114784
1443278423989767701	0.67051286	-1.1622257	-0.43072367
1443278423995688111	0.7192867	-1.1566324	-0.35849628
1443278423999869019	0.8861678	-1.1048384	-0.47313696
1443278424005026490	0.9319348	-1.0983219	-0.40642783
1443278424010641725	1.112602	-1.2015247	-0.563863
1443278424014975221	1.152337	-1.1940861	-0.5055242
1443278424018332154	0.7793429	-0.9282818	-0.095694244
1443278424025198609	0.19326958	-0.1404686	0.2061919
1443278424029989869	0.24143487	-0.13237762	0.27122748
1443278424035208375	0.29444343	-0.12273884	0.34226888
1443278424040152223	-0.18986994	0.6954317	0.27634907
1443278424045859010	-0.12998968	0.7059059	0.35175455
1443278424050223023	-0.4122336	1.2023087	0.05220568
1443278424055411012	-0.35608083	1.2114754	0.11421263
1443278424061239869	-0.6520465	1.3739367	-0.4268304
1443278424065512330	-0.47656107	1.955142	-0.12625003
1443278424068686158	-0.4374177	1.9582157	-0.10042894
1443278424076468141	-0.004709244	2.4981833	0.9923729
1443278424080435426	0.047703862	2.501957	1.0114703
1443278424086355836	0.62148476	2.2163277	1.6051497
1443278424090506227	0.6751455	2.2208214	1.6157548
1443278424095694215	1.5603714	1.5931044	0.8742713
1443278424100729615	1.6151344	1.5996943	0.88385475
1443278424105490357	2.354186	0.85398674	0.24692512
1443278424110586793	2.397985	0.86105824	0.25607193
1443278424115622193	3.3188586	0.044999123	0.005296588
1443278424119162232	3.3389292	0.05008602	0.011007309
1443278424125784547	3.6402085	0.3844986	0.16906536
1443278424130758912	3.6604125	0.38946533	0.17622757
1443278424135855348	3.5159688	1.5628605	0.87658024
1443278424140921266	3.529112	1.5644865	0.883868
1443278424146628053	3.0451612	2.6144485	1.1415517
1443278424151022584	3.0500405	2.6123228	1.1480986
1443278424155966432	2.73052	2.7485218	0.17663229
1443278424161551148	2.7979784	3.893136	-0.07324958
1443278424166037232	2.7970197	3.8871222	-0.06515324
1443278424176138551	2.2724836	5.9484215	0.15008664
1443278424181143434	3.6810296	6.0055923	-0.63627875
1443278424186178834	3.682518	5.9943876	-0.6367285
1443278424191336305	3.683753	5.983163	-0.6371747
1443278424197104127	4.2585287	4.8629265	-2.1069012
1443278424201407105	3.6554322	5.0733223	-2.4069004
1443278424206289918	3.6470108	5.0635414	-2.3961043
1443278424212332398	3.4963412	4.861637	-2.6365395
1443278424216391236	3.4804564	4.850416	-2.6288476
1443278424219748170	3.4641647	4.8388567	-2.6230574
1443278424226553590	1.842312	3.7954893	-2.077744
1443278424231497437	1.8123348	3.7819176	-2.082531
1443278424236624391	-0.06485295	3.0655031	-1.6123272
1443278424242849977	-1.1909531	3.1193142	-1.095225
1443278424247152955	-1.2241803	3.10361	-1.1181878
1443278424252676637	-1.7468174	2.8235073	-0.7434937
1443278424256796510	-1.7845424	2.806528	-0.77820706
1443278424262350709	-2.5705967	1.9735222	-0.7237073
1443278424266745240	-2.6208007	1.9551935	-0.77430546
1443278424276938111	-3.4288478	1.4985743	-0.28119707
1443278424281851441	-3.9782176	1.5337114	0.28692472
1443278424287008912	-4.0480905	1.5121145	0.18298966
1443278424291922242	-4.181597	2.1059294	0.41849
1443278424296896607	-4.2468176	2.0858755	0.30030107
1443278424301993043	-3.7433944	2.732192	0.4884135
1443278424307028443	-3.8090224	2.7143955	0.35952052
1443278424312765748	-3.1812055	2.8766394	0.66586137
1443278424317282350	-3.2400088	2.8638887	0.5445899
1443278424327353150	-2.8275774	2.7399187	0.4028807
1443278424332235963	-3.206024	2.5616903	0.21827011
1443278424337454469	-3.3742712	2.0362997	0.5160959
1443278424342337281	-3.4361115	2.0356712	0.39175913
1443278424347983033	-3.5070937	2.037897	0.25206733
1443278424352377564	-3.1833456	1.8062716	0.31295085
1443278424357565553	-3.246035	1.8120556	0.18963474
1443278424362936646	-2.5474226	1.7448673	0.123747766
1443278424367636353	-2.6038804	1.7531586	0.015065908
1443278424377676637	-1.7387072	1.5176811	-0.30310822
1443278424382589967	-0.7417625	0.7290001	-0.3391714
1443278424387808473	-0.80496675	0.74887085	-0.4635278
1443278424392660768	-0.122407496	-0.18213558	-0.40126038
1443278424397757203	-0.18043098	-0.15614891	-0.52814305
1443278424402731568	0.40877706	-1.2426853	-0.7399546
1443278424407919557	0.3538437	-1.2097254	-0.8701048
1443278424413382203	0.9362485	-2.096981	-0.9911535
1443278424419150025	1.0564153	-2.6551704	-1.0903716
1443278424421194703	1.037925	-2.6357965	-1.1390529
1443278424429037721	1.1293917	-2.8702335	-1.3051
1443278424438620240	1.2070138	-2.9023972	-1.7235997
1443278424443136842	1.1764092	-2.863347	-1.8200347
1443278424448355348	1.6657273	-3.2700558	-1.9368181
1443278424453238160	1.6304272	-3.226488	-2.034721
1443278424457998902	1.3592731	-3.7600927	-1.9021707
1443278424463186891	1.316512	-3.7122517	-1.999073
1443278424468161256	0.25521564	-4.02892	-1.894392
1443278424478232057	-0.5313363	-4.1448526	-1.775857
1443278424483297975	-0.5660645	-4.0979843	-1.8562284
1443278424488363893	-0.92711747	-4.170126	-1.9589303
1443278424493521363	-0.9529097	-4.1239977	-2.0346866
1443278424498922975	-1.5486788	-3.8262558	-1.718972
1443278424503592164	-1.568105	-3.7852087	-1.7827995
1443278424508444459	-2.543117	-3.279872	-1.1548052
1443278424513510377	-2.5615153	-3.2383118	-1.2199712
1443278424518545777	-2.710262	-3.1434393	-1.3080649
1443278424522055299	-2.7194571	-3.1149683	-1.3463607
1443278424528616578	-2.646871	-3.7054844	-1.4795723
1443278424533651978	-2.6582685	-3.671009	-1.5250378
1443278424538656861	-2.3880005	-4.143347	-1.6362491
1443278424543875367	-2.3960803	-4.1126385	-1.6720524
1443278424549246461	-2.0368986	-4.7000923	-1.5786071
1443278424553946168	-2.0402937	-4.6749744	-1.6023893
1443278424558828980	-1.4027449	-5.3117533	-1.2199607
1443278424563894898	-1.4025955	-5.2886934	-1.2392836
1443278424568899781	-1.0293559	-5.842313	-1.0985222
1443278424572409303	-1.0259407	-5.824173	-1.1078224
1443278424579092652	-0.72278476	-6.214737	-1.2907329
1443278424585104615	-0.6385685	-6.294799	-1.2241273
1443278424589224488	-0.6287817	-6.2823353	-1.2229843
1443278424595144898	-0.57361627	-6.071909	-1.245306
1443278424599142701	-0.5610672	-6.0636473	-1.2380228
1443278424604544312	-0.52634156	-5.594657	-1.1532173
1443278424609182984	-0.5090462	-5.5935783	-1.1359315
1443278424615255982	-0.2262379	-5.1352415	-0.7336607
1443278424619436891	-0.20718002	-5.13939	-0.70955276
1443278424622610719	-0.192047	-5.14091	-0.6891365
1443278424629477174	0.32571614	-4.739317	0.09864998
1443278424634359986	1.3013852	-4.4531155	0.7973957
1443278424639547975	1.3300648	-4.4728727	0.8439579
1443278424644430787	2.2715893	-4.013646	1.3098216
1443278424649496705	2.3032699	-4.0392094	1.3657513
1443278424654532105	2.8992653	-3.086897	1.4006991
1443278424659689576	2.9378357	-3.1200924	1.4691699
1443278424665091187	2.8446422	-1.0380325	0.7871764
1443278424669760377	2.8875902	-1.0749569	0.8591728
1443278424679800660	2.4429007	2.5200338	0.09490132
1443278424684683473	0.63266844	6.9871445	-0.39717174
1443278424689901978	0.6995735	6.9337635	-0.31560373
1443278424694784791	-0.6196391	10.995689	0.18887424
1443278424699850709	-0.55520016	10.942655	0.2548282
1443278424704855592	-1.8909683	14.426232	0.8159082
1443278424710013062	-1.8359624	14.375104	0.86352944
1443278424715384156	-1.6652241	16.131496	3.931029
1443278424720114381	-1.6421336	16.090439	3.9410844
1443278424730154664	-1.1860291	15.0920925	9.499186
1443278424735067994	-1.8503906	10.424648	14.76095
1443278424740255982	-1.8817865	10.426133	14.67239
1443278424745291383	1.484372	3.5133038	13.419133
1443278424750204713	1.4490881	3.5376806	13.315458
1443278424755179078	5.5704494	-2.1573658	7.4842606
1443278424760153443	5.526531	-2.1232605	7.402961
1443278424766226441	5.887565	-4.2016087	2.9055905
1443278424771170289	2.8124604	-1.8080597	0.692044
1443278424773642213	2.7806993	-1.7957029	0.6759951
1443278424780844361	-1.5117557	0.3533497	0.79963136
1443278424785391480	-1.5481837	0.36349964	0.7821083
1443278424790732057	-3.1164284	1.8505659	1.3446124
1443278424795614869	-3.1423254	1.8600368	1.3198752
1443278424800528199	-5.888694	4.3380947	-0.013750553
1443278424805716187	-5.8968334	4.344366	-0.042145252
1443278424810568482	-8.336997	5.013694	-0.5853448
1443278424815664918	-8.309058	5.017887	-0.61774254
1443278424820669801	-7.3997793	2.6278648	-1.9436975
1443278424830740602	-5.1224327	-0.13942814	-2.9601898
1443278424835745484	-5.0739417	-0.13495922	-2.9695482
1443278424840872437	-1.3067555	-0.9066677	-2.8247814
1443278424845999391	-1.2695729	-0.91057396	-2.812395
1443278424851431519	1.9373932	-0.33667278	-2.6894813
1443278424856070191	1.9635487	-0.34770298	-2.663628
1443278424860922486	2.5201855	-0.48995495	-5.16495
1443278424866018922	2.544032	-0.50518894	-5.1233068
1443278424871023805	0.9291896	-0.899313	-8.0352955
1443278424881064088	-1.4077812	-0.7773638	-7.1753883
1443278424886130006	-1.4058515	-0.8008919	-7.102892
1443278424891317994	-2.592222	-0.27493286	-3.526497
1443278424896322877	-2.5965703	-0.2991476	-3.4587388
1443278424901877076	-1.177519	-0.5114145	-2.4023974
1443278424906271607	-1.1741887	-0.5289564	-2.3513463
1443278424911429078	-0.46534222	0.05567646	-2.3457289
1443278424916769654	-0.44836578	0.036302567	-2.2936301
1443278424921530396	-0.094974875	1.490221	-3.0665956
1443278424924704225	-0.072850466	1.4771996	-3.0368874
1443278424931448609	0.6974237	2.5135593	-3.3182774
1443278424937216432	1.1297481	2.3635054	-3.0423486
1443278424941702516	1.1638129	2.343361	-2.9972713
1443278424947256715	0.6396589	1.19203	-2.1697464
1443278424951590211	0.66352487	1.1718931	-2.1162572
1443278424956625611	0.1668212	-0.28331566	-1.606708
1443278424961783082	0.18393101	-0.30748653	-1.5295472
1443278424967276246	0.02595818	-1.3625708	-1.6458604
1443278424971914918	0.03285627	-1.3838425	-1.5651329
1443278424975058228	0.03608252	-1.3972712	-1.5080872
1443278424981955201	0.28428382	-2.0155935	-1.4053133
1443278424986776978	0.69306433	-2.418254	-1.659123
1443278424992026002	0.6841545	-2.4375086	-1.5648782
1443278424996908814	0.93841785	-2.6306353	-1.4719951
1443278425001974732	0.92714924	-2.6462946	-1.3832755
1443278425006979615	0.37249288	-2.7222452	-0.34210896
1443278425012137086	0.36026168	-2.7350245	-0.26011395
1443278425017691285	0.28821078	-2.6998777	-0.4071312
1443278425022085816	0.2796441	-2.7077274	-0.3420236
1443278425032309205	0.021256834	-2.4589815	-0.53166795
1443278425037192018	-0.09371865	-2.0311728	-0.8023125
1443278425042380006	-0.09558791	-2.0404387	-0.72594976
1443278425047232301	-0.08424306	-1.8191776	-0.841452
1443278425052969605	0.2025992	-1.7683725	-0.51388574
1443278425057333619	0.20747522	-1.7747107	-0.44994473
1443278425062369019	0.2159617	-1.7818594	-0.3782276
1443278425068075807	0.48648894	-1.7560234	-0.4123906
1443278425072561891	0.49777052	-1.760479	-0.35347664
1443278425082663209	0.7905581	-1.765665	-0.61738074
1443278425087546021	1.0638835	-1.8213997	-0.7374469
1443278425092764527	1.4565331	-1.8160954	-0.70739245
1443278425097708375	1.4729676	-1.8182774	-0.6509433
1443278425104361207	1.5443778	-1.8397865	-0.5049791
1443278425107657105	1.5555974	-1.8393755	-0.4678852
1443278425113943727	1.375549	-1.8428392	-0.28461915
1443278425118368775	1.3938068	-1.8429871	-0.23517156
1443278425123251588	1.3929712	-1.9757824	-0.21372294
1443278425126120240	1.4054338	-1.9739275	-0.18097973
1443278425132956178	1.2988182	-2.1597795	-0.25672233
1443278425137900025	1.3247404	-2.1583796	-0.1991044
1443278425142904908	0.81075317	-2.1864624	-0.81122965
1443278425148123414	0.84065485	-2.184288	-0.74809504
1443278425153463990	0.2407371	-2.1900053	-0.92214954
1443278425158163697	0.2709189	-2.1866512	-0.86461616
1443278425163046510	-0.15224914	-1.9249725	-0.5964136
1443278425168112428	-0.11541486	-1.9211998	-0.53628033
1443278425173117311	-0.20865557	-1.364088	-0.1041837
1443278425176626832	-0.1810368	-1.3607025	-0.06405221
1443278425183188111	0.032094	-1.1125183	-0.06310442
1443278425188223512	0.075743616	-1.1081209	-0.0051861852
1443278425193258912	0.5041511	-1.272624	-0.17303723
1443278425198294312	0.5519366	-1.2664309	-0.111214474
1443278425204062135	0.70287126	-1.24545	-0.31035236
1443278425208487184	0.75063854	-1.2379217	-0.25019282
1443278425213400514	0.62034464	-0.8730278	-0.03183186
1443278425218405396	0.6797318	-0.86345196	0.039845556
1443278425223501832	0.24812871	0.020092964	0.29854405
1443278425233542115	-0.011534154	0.9586458	0.6067398
1443278425238577516	0.048624277	0.9680681	0.67609435
1443278425243734986	0.110734165	1.575283	0.62557757
1443278425248739869	0.16680467	1.5843143	0.6897319
1443278425254568727	0.22684324	1.9371662	0.23495114
1443278425263846070	0.3132187	2.0858192	-0.19871807
1443278425270346314	0.31515884	2.4778442	0.23808694
1443278425273977906	0.35563123	2.4819508	0.26578796
1443278425277182252	0.3917172	2.4849653	0.28784823
1443278425283926637	0.33907342	2.6619415	0.85198295
1443278425289297730	1.1946673	2.159894	0.49974322
1443278425294088990	1.2474719	2.1669474	0.51676357
1443278425298971803	2.4460926	1.5258703	-0.16689217
1443278425303976686	2.4940968	1.5341892	-0.1510309
1443278425309103639	3.382239	1.2854586	0.18964148
1443278425314230592	3.4217875	1.2932711	0.20215249
1443278425319815309	4.2331867	1.3370876	0.5741925
1443278425324179322	4.259006	1.3420725	0.58032525
1443278425328665406	4.7608814	1.7011948	1.1231323
1443278425334341676	4.789188	1.7060194	1.12595
1443278425339590699	4.4102154	2.4304018	1.1834733
1443278425344412477	4.424744	2.4306011	1.1839247
1443278425349356324	3.489203	2.948021	1.3941263
1443278425355032594	3.4985805	2.94565	1.3935038
1443278425359427125	3.1662111	2.9786053	1.2425932
1443278425364584596	3.9752645	3.3059874	-0.21557796
1443278425370352418	3.9722419	3.300334	-0.2141335
1443278425374624879	3.966414	3.294077	-0.21290946
1443278425384726197	4.2214518	5.048362	-1.0778447
1443278425389670045	4.711132	6.532033	-0.98264766
1443278425394827516	4.704838	6.5189238	-0.982075
1443278425399710328	5.8637905	5.775069	-2.7251894
1443278425404745728	5.8533654	5.763192	-2.7209158
1443278425409811646	4.421652	4.5556173	-3.5425973
1443278425414969117	4.4045577	4.5445995	-3.5349922
1443278425420340211	2.2874982	3.699833	-3.4422326
1443278425425039918	2.2664642	3.6877022	-3.4436522
1443278425435141236	0.16761279	2.7400818	-2.8221028
1443278425440024049	-1.298198	2.8335466	-1.9007853
1443278425446249635	-2.0561676	3.1389809	-1.2543982
1443278425450216920	-2.089665	3.1211863	-1.2864131
1443278425455618531	-2.686862	2.49621	-1.5449362
1443278425460135133	-2.738131	2.475916	-1.5880401
1443278425465628297	-3.5037246	1.7860651	-0.76064706
1443278425470755250	-3.575984	1.762867	-0.8270278
1443278425475393922	-4.3953323	1.7204723	0.7155941
1443278425478781373	-4.4437785	1.7035475	0.6569905
1443278425485342652	-4.547014	1.6752272	0.53596807
1443278425490378053	-4.77046	2.1072416	1.2816544
1443278425495413453	-3.8875577	2.605259	0.8140177
1443278425500448853	-3.9691298	2.5846539	0.69235003
1443278425505942018	-2.6031473	3.1048098	0.15895182
1443278425510641725	-2.6809282	3.0885124	0.03788446
1443278425515585572	-2.0847514	3.3750286	-0.30471507
1443278425520590455	-2.1655617	3.362649	-0.43783644
1443278425525595338	-2.399159	3.2885666	-0.62681144
1443278425528952271	-2.4460354	3.2815027	-0.71614003
1443278425535666139	-2.6036673	2.5995655	-0.3825877
1443278425540701539	-2.666317	2.5992231	-0.514862
1443278425545797975	-2.4630177	1.8942938	0.2653941
1443278425550955445	-2.520453	1.8997097	0.1349147
1443278425556357057	-1.8678983	1.4263277	0.40343153
1443278425561026246	-1.916948	1.434926	0.29120994
1443278425565909059	-1.3166105	0.9690008	-0.048914075
1443278425570974977	-1.3697932	0.9824028	-0.16511488
1443278425575949342	-0.70777863	0.5768204	-0.2759291
1443278425586050660	0.17614858	0.1026001	-0.35127223
1443278425591086061	0.12002078	0.124783516	-0.46714902
1443278425596121461	0.59914994	-0.37027264	-0.46896243
1443278425601370484	0.5409409	-0.3415556	-0.59346366
1443278425606680543	1.0238572	-0.8619051	-0.90645194
1443278425611227662	0.9769664	-0.8324528	-1.0139763
1443278425616232545	0.9332206	-1.1274433	-1.6369238
1443278425622122437	0.8830418	-1.0867901	-1.7700102
1443278425626333863	0.8308798	-1.166501	-1.8838739
1443278425636557252	1.0651195	-1.5658064	-1.870394
1443278425641562135	1.3563869	-2.352953	-1.4123576
1443278425646628053	1.3155938	-2.31044	-1.5166163
1443278425651602418	0.9138782	-2.9335775	-1.5098355
1443278425656576783	0.86789995	-2.8881302	-1.608505
1443278425661581666	0.09972656	-3.388649	-2.1250756
1443278425666769654	0.0509066	-3.339654	-2.220144
1443278425672262818	-0.7328045	-3.4879923	-2.4366362
1443278425676809937	-0.7717316	-3.4448528	-2.510634
1443278425686911256	-1.5457735	-3.4970493	-2.3835225
1443278425691794068	-2.5033865	-3.2523937	-1.9385881
1443278425696951539	-2.5373058	-3.2061768	-2.0126078
1443278425701864869	-2.911017	-2.867673	-1.8471057
1443278425706900269	-2.9388428	-2.8246536	-1.9135594
1443278425711935670	-2.8953257	-2.7576694	-2.2153697
1443278425717093141	-2.9199615	-2.7163992	-2.2755594
1443278425722860963	-3.3852472	-2.795804	-1.9720697
1443278425727163941	-3.3999276	-2.7632742	-2.0150156
1443278425737234742	-3.2670884	-3.1794682	-1.5634818
1443278425742148072	-2.678669	-3.842805	-1.8987436
1443278425747336061	-2.6847067	-3.8104887	-1.9374738
1443278425752188355	-2.4177527	-4.363181	-1.8983536
1443278425757284791	-2.4195945	-4.334324	-1.9290881
1443278425762289674	-2.2044942	-4.924015	-1.5878391
1443278425767325074	-1.7943853	-5.529895	-1.2704005
1443278425773428590	-1.7916453	-5.5020237	-1.2970433
1443278425777548463	-1.7873365	-5.480462	-1.3126454
1443278425788626344	-1.0292853	-5.974181	-1.0935688
1443278425792471559	-1.0248773	-5.957058	-1.100204
1443278425798117311	-1.0199178	-5.939146	-1.1084037
1443278425802694947	-0.6433002	-5.84577	-0.95002365
1443278425807791383	-0.44548178	-5.5579205	-0.8983836
1443278425812826783	-0.43576622	-5.549058	-0.894228
1443278425817923219	-0.2717601	-5.2994423	-0.6053605
1443278425822744996	-0.25761735	-5.296421	-0.5937929
1443278425827749879	0.21391201	-5.037758	-0.04466343
1443278425831259400	0.22814524	-5.037608	-0.030304909
1443278425838278443	0.75186765	-4.497367	0.63720226
1443278425842856080	0.7764089	-4.507739	0.6643419
1443278425847891480	1.1652261	-3.4610863	1.0023828
1443278425852926881	1.1980476	-3.482809	1.0441494
1443278425858450562	2.0627356	-2.0866241	1.3671303
1443278425863150269	2.0943568	-2.1150866	1.4171586
1443278425868063600	2.187231	-0.099552155	1.6216226
1443278425873068482	2.2199788	-0.13695908	1.6825857
1443278425878103883	2.076595	2.449582	1.8485174
1443278425881613404	2.0971556	2.4176235	1.893136
1443278425888144166	1.8073131	5.136903	1.7026119
1443278425893179566	1.8331075	5.0900974	1.7687812
1443278425898245484	1.1716182	7.7430143	2.1889472
1443278425903280885	1.1891572	7.697257	2.2453148
1443278425908926637	0.09388268	9.853502	3.4296997
1443278425913504273	0.102175415	9.81484	3.4621263
1443278425918387086	-0.5528358	10.990968	4.0523562
1443278425923453004	-0.5518661	10.959055	4.0649557
1443278425928427369	-0.31618822	11.085459	4.5266705
1443278425938681275	0.6968714	9.770571	5.4382353
1443278425943564088	2.1004863	7.1668854	6.499305
1443278425948752076	2.079751	7.166587	6.4557133
1443278425955069215	3.1192722	3.8920221	6.244707
1443278425958670289	3.098618	3.8989058	6.2013745
1443278425964804322	2.831408	1.5875187	5.868101
1443278425968741090	2.8065863	1.6036959	5.8181357
1443278425974112184	1.9610431	1.1872969	5.9892726
1443278425978964478	1.9309046	1.2101803	5.9300566
1443278425989004762	2.7511048	2.1388779	4.7210793
1443278425993918092	2.5995164	2.853612	3.3782258
1443278425999106080	2.562159	2.875966	3.323832
1443278426003988893	-0.03556037	2.419608	2.804081
1443278426009024293	-0.06347644	2.4395943	2.7578611
1443278426014059693	-2.4890175	2.1581516	0.87705135
1443278426019247682	-2.4917998	2.172758	0.84158707
1443278426025046021	-4.1109166	2.5723038	-1.1245522
1443278426029287965	-4.088149	2.576932	-1.1443944
1443278426039358766	-5.2951136	0.7422657	-0.7136369
1443278426044302613	-5.2625103	-2.493393	0.5280442
1443278426049460084	-5.232216	-2.4851198	0.5168066
1443278426054342896	-3.9234834	-4.42041	1.5701718
1443278426059439332	-3.9067707	-4.41245	1.5672302
1443278426064413697	-4.0974402	-5.633997	-0.5345249
1443278426069601686	-4.0877585	-5.6286135	-0.52220154
1443278426075064332	-6.098462	-5.9715242	-5.001157
1443278426079641969	-8.379195	-4.463334	-7.206854
1443278426082846314	-8.366558	-4.463437	-7.173535
1443278426089743287	-8.35666	-4.4820127	-7.105167
1443278426094626100	-8.099164	-1.0687284	-6.017505
1443278426099814088	-8.086427	-1.0972795	-5.9448814
1443278426104666383	-4.156048	2.9432573	-2.7875729
1443278426109732301	-4.1382613	2.905694	-2.7209
1443278426114737184	0.70072937	6.3108788	-1.5665536
1443278426119803102	3.2431655	7.7469788	-1.8981247
1443278426125937135	3.2824495	7.7041636	-1.8475647
1443278426131155641	3.6747265	6.081826	-3.352964
1443278426133230836	3.6833014	6.0608854	-3.331297
1443278426141134889	2.5886192	3.3710747	-4.7887526
1443278426144949586	2.5969267	3.3452635	-4.739265
1443278426150168092	1.4433149	1.0861015	-4.378099
1443278426155172975	1.4352765	1.0500183	-4.288589
1443278426160757691	1.1623974	-0.59425545	-3.3763342
1443278426165274293	1.1514691	-0.6294975	-3.2760825
1443278426170157105	1.433465	-1.8558292	-2.9839115
1443278426175192506	1.4293332	-1.8921566	-2.8693852
1443278426180227906	1.5122659	-2.412057	-2.2771692
1443278426183584840	1.5148692	-2.4317179	-2.2026513
1443278426190329225	1.1756546	-2.5547428	-2.0172992
1443278426195334107	1.1926076	-2.580246	-1.921886
1443278426200369508	0.3081193	-2.567505	-1.7901652
1443278426205557496	0.3334024	-2.5894003	-1.7021041
1443278426211355836	-0.85119724	-2.321414	-1.3751998
1443278426215628297	-0.82667613	-2.3368635	-1.3054643
1443278426220480592	-1.4652553	-2.0354729	-0.7984443
1443278426226217896	-1.431823	-2.056488	-0.7075877
1443278426230581910	-1.3645666	-1.8246498	-0.3437233
1443278426234091432	-1.344532	-1.8351011	-0.28899598
1443278426240652711	-0.88280517	-1.5356703	-0.6388109
1443278426245688111	-0.8587762	-1.5512257	-0.5597608
1443278426250723512	-0.49973682	-1.4001188	-1.1370926
1443278426255758912	0.012748927	-1.3071575	-0.96907544
1443278426261557252	0.03872007	-1.3235722	-0.8767675
1443278426265829713	0.058407605	-1.3342934	-0.8085166
1443278426271017701	0.7239208	-1.5154314	-0.80435586
1443278426276999146	1.2128674	-1.8355789	-0.5463793
1443278426280935914	1.2292511	-1.841814	-0.48822248
1443278426284445436	1.2434384	-1.8464823	-0.43721652
1443278426291128785	1.6583606	-2.2789679	0.07005727
1443278426297110230	1.6020169	-2.6516085	0.03500974
1443278426301230103	1.6150212	-2.6537104	0.08821392
1443278426307242066	1.2902833	-2.9592981	-0.1298455
1443278426311148316	1.299466	-2.959282	-0.081255555
1443278426316885621	1.1893197	-3.253993	-0.28582764
1443278426321371705	1.1955079	-3.2532482	-0.23134542
1443278426326285035	0.8834796	-3.420947	-0.37667674
1443278426331442506	0.88663435	-3.419773	-0.31504256
1443278426341482789	0.87166214	-3.4900427	-0.74384785
1443278426346945436	0.88385856	-3.3697748	-0.9097434
1443278426351431519	0.8889289	-3.3667727	-0.8523652
1443278426356466920	0.9176127	-2.927	-0.54063183
1443278426362326295	0.93455344	-2.9253569	-0.46636006
1443278426366537721	0.9066661	-2.3406801	-0.21116313
1443278426371695191	0.92714936	-2.3389091	-0.1466757
1443278426377432496	1.077772	-1.7949772	-0.14912045
1443278426381765992	1.1045966	-1.7930927	-0.09486976
1443278426391867311	1.1711963	-1.5522003	-0.27682537
1443278426396750123	0.81694335	-1.3788013	0.09662099
1443278426401907594	0.85515994	-1.3759174	0.16281396
1443278426406790406	0.7371613	-1.2721643	-0.10756886
1443278426411856324	0.7746273	-1.2683067	-0.041594997
1443278426416891725	0.2788969	-0.9964199	-0.059039667
1443278426422079713	0.31754214	-0.99180984	0.0101724565
1443278426427542359	-0.4008443	-0.526659	0.16735917
1443278426432150514	-0.87492466	0.041490555	0.52053356
1443278426435354859	-0.8475258	0.044184685	0.56260526
1443278426442221314	-0.787691	0.050973892	0.65200204
1443278426447073609	-0.83700055	0.5937357	0.66928923
1443278426452292115	-0.78444266	0.59919167	0.73159355
1443278426457144410	-0.51785326	0.7229614	0.045165718
1443278426462271363	-0.4610517	0.72937965	0.10335523
1443278426467245728	-0.19697118	0.481884	-0.4135381
1443278426473471314	0.06362486	0.2556286	-0.6138865
1443278426478018434	0.117592275	0.26384354	-0.5670075
1443278426482962281	0.41408426	0.33784294	-0.33074164
1443278426492941529	0.47804767	0.9784632	-0.017655253
1443278426497427613	0.527617	0.986516	0.023292184
1443278426502585084	0.17339826	1.7242832	-0.2783965
1443278426507620484	0.22385895	1.7316599	-0.23776042
1443278426513083131	-0.5172094	2.4175797	0.7109529
1443278426517691285	-0.4740224	2.421589	0.73705685
1443278426522604615	-0.22057354	2.3706646	0.9257283
1443278426527578980	-0.17711866	2.374401	0.9440472
1443278426532705934	0.9708483	1.832468	0.7380935
1443278426542746217	2.2137895	1.6029539	0.8053584
1443278426547781617	2.2479262	1.6078844	0.81953144
1443278426552817018	2.855441	2.106926	1.0556047
1443278426557974488	2.887457	2.1105871	1.066465
1443278426563681275	3.2671573	2.4168386	1.3430709
1443278426568014771	2.16359	2.7381868	1.2560345
1443278426572958619	2.1924639	2.7396612	1.26323
1443278426578940064	2.2248416	2.742158	1.2722746
1443278426583029420	2.104082	2.9470243	1.175254
1443278426586508424	2.1161318	2.9449625	1.1802633
1443278426593222291	1.9477844	3.0868816	1.302439
1443278426598166139	1.960983	3.0852852	1.3105547
1443278426603262574	2.8481245	3.0536585	0.5198859
1443278426608206422	4.131162	4.0020123	-0.19592786
1443278426614004762	4.1405897	3.9987612	-0.1845398
1443278426618429811	4.1464357	3.9943476	-0.17649603
1443278426623312623	4.529654	5.765749	0.16202247
1443278426628286988	4.5383286	5.7581987	0.16831529
1443278426633383424	5.74005	5.6575975	-0.6254692
1443278426636862428	5.7403226	5.6488676	-0.61951494
1443278426643576295	5.6196814	3.939784	-1.421353
1443278426649069459	3.5492897	2.7873316	-1.6977768
1443278426653677613	3.545351	2.7830162	-1.6891909
1443278426658774049	1.7841375	2.5266647	-2.4511666
1443278426663534791	1.7782266	2.520831	-2.4470208
1443278426668875367	0.03663981	2.554636	-2.066661
1443278426673758180	0.029585361	2.546198	-2.0732605
1443278426678640992	-0.79251647	2.242261	-2.1266625
1443278426683859498	-0.80828846	2.2303047	-2.1472754
1443278426693899781	-1.1671247	1.970974	-1.9593108
1443278426698843629	-1.5110031	1.9095049	-1.2228736
1443278426704001100	-1.5496405	1.891532	-1.2664704
1443278426708944947	-1.8822328	1.5993767	-1.440393
1443278426714621217	-1.9396414	1.5775442	-1.5002896
1443278426718985230	-2.5896385	1.1995926	-0.8703432
1443278426724142701	-2.6509461	1.1779785	-0.94233143
1443278426729788453	-3.3826437	0.926054	0.0025931597
1443278426734213502	-3.4381948	0.90728474	-0.07620472
1443278426744284303	-3.8012261	0.7996273	0.51519364
1443278426749197633	-3.664228	1.2091503	0.56246036
1443278426754385621	-3.7334106	1.1910753	0.44553596
1443278426759268434	-3.3987682	1.8753242	0.7716473
1443278426764242799	-3.4645016	1.8601074	0.655277
1443278426769339234	-3.2305243	2.0543385	0.8841992
1443278426774496705	-3.2978354	2.0424213	0.7598493
1443278426780111939	-3.1553893	1.7242842	0.39107648
1443278426784567506	-3.2107165	1.717865	0.28355718
1443278426787802369	-3.1895785	1.0016537	0.23583151
1443278426794638307	-2.8176577	0.29196453	0.3015688
1443278426799460084	-2.873911	0.29368305	0.1896277
1443278426804678590	-2.9328728	0.29737282	0.0710454
1443278426809622437	-2.4057767	-0.11305046	0.019471526
1443278426815664918	-1.5404745	-0.4333973	-0.34062356
1443278426819693238	-1.5820012	-0.42535973	-0.4266647
1443278426825125367	-1.6371722	-0.41341782	-0.54162216
1443278426830710084	-0.6527069	-0.49971294	-0.49807382
1443278426835409791	0.30258095	-0.55301	-0.3109362
1443278426845724732	0.8985225	-0.54536057	-0.421669
1443278426849905641	0.8535416	-0.52872086	-0.5140506
1443278426854971559	1.4254224	-0.7508011	-1.0443143
1443278426860098512	1.3703151	-0.72696114	-1.1568372
1443278426865774781	1.3014283	-0.9188671	-1.7311642
1443278426870138795	1.2587911	-0.895751	-1.8227301
1443278426875082643	1.5817754	-1.0515347	-1.7678211
1443278426880911500	1.5301653	-1.0188084	-1.8867416
1443278426885153443	1.8909074	-1.3734522	-1.1359482
1443278426888662965	1.8618929	-1.3511477	-1.2055192
1443278426895285279	1.6011305	-1.8651829	-0.6687155
1443278426900290162	1.5635226	-1.8307991	-0.76968
1443278426905325562	1.1106926	-2.4278498	-1.0052843
1443278426910513551	1.0706841	-2.389042	-1.1064391
1443278426916006715	0.5672545	-2.9460478	-1.2215073
1443278426920584352	0.5299983	-2.9098768	-1.3025589
1443278426925436646	-0.10656488	-3.3691425	-1.10167
1443278426931173951	-0.65571237	-3.396183	-1.1909637
1443278426935507447	-0.69032264	-3.3623343	-1.2542069
1443278426945608766	-1.3808252	-3.1157417	-1.4905808
1443278426950583131	-1.9598048	-2.8134575	-1.616004
1443278426955832154	-1.9912578	-2.7780142	-1.6782744
1443278426960714967	-2.0190496	-2.7458897	-1.7316616
1443278426966543824	-2.4603686	-2.537982	-1.4481487
1443278426970785768	-2.7540097	-2.3799763	-1.5550101
1443278426975943238	-2.7785702	-2.3495684	-1.6033568
1443278426981802613	-2.93985	-2.4321384	-1.7614193
1443278426985861451	-2.9557512	-2.4079933	-1.7950854
1443278426989370973	-2.9673505	-2.387164	-1.8220346
1443278426996115357	-2.9347367	-2.7066565	-1.576658
1443278427001669557	-2.5450492	-3.2515974	-1.3238952
1443278427006216676	-2.5554428	-3.227559	-1.3541269
1443278427011068971	-2.0305471	-3.9271593	-0.8684659
1443278427016134889	-2.038559	-3.9023066	-0.8986511
1443278427021139771	-1.7289982	-4.7506704	-0.6976929
1443278427026327760	-1.733414	-4.726882	-0.72300625
1443278427031729371	-1.6784176	-5.2013416	-0.6535468
1443278427036429078	-1.6778139	-5.1818027	-0.6693268
1443278427046469361	-1.4290031	-5.3960114	-0.5975733
1443278427051260621	-1.1356498	-5.3888674	-0.73589087
1443278427056540162	-1.1297034	-5.3756504	-0.7394829
1443278427061453492	-0.8863443	-5.1288204	-0.8121476
1443278427066458375	-0.87641346	-5.1216154	-0.80575037
1443278427071463258	-0.46656358	-4.8306484	-0.5866494
1443278427076529176	-0.45227158	-4.8298025	-0.57044125
1443278427082358033	0.3173238	-4.689332	-0.34758615
1443278427086783082	0.33388436	-4.692912	-0.324152
1443278427096823365	1.2812765	-4.670944	0.06633043
1443278427101675660	2.0852263	-4.600604	0.6163182
1443278427106863648	2.9786797	-4.5681076	0.9363861
1443278427111746461	3.0035715	-4.5865517	0.98732543
1443278427117575318	3.0366197	-4.612916	1.054949
1443278427121817262	3.6361442	-4.230072	1.202564
1443278427127035768	3.6683443	-4.2577124	1.2742088
1443278427132742555	3.4184477	-3.0751934	1.0173628
1443278427136953980	3.4486644	-3.100668	1.0834994
1443278427140310914	2.4505126	-0.5540476	0.07448077
1443278427147116334	0.30217695	3.2662191	-0.34357357
1443278427152029664	0.35274762	3.22266	-0.25723457
1443278427158346803	-1.0873904	7.534356	-0.23707485
1443278427162283570	-1.0433812	7.4929237	-0.17220736
1443278427167959840	-1.9893776	12.12427	0.36149836
1443278427172201783	-1.9454784	12.076844	0.4203391
1443278427177359254	-2.4567802	16.19522	2.0207992
1443278427182943971	-2.4175882	16.143566	2.0679417
1443278427187216432	-0.32320875	18.025776	7.070405
1443278427190817506	-0.3177411	17.985367	7.064231
1443278427197348268	-0.16787258	15.294117	13.3639145
1443278427202383668	-0.19136265	15.272746	13.306154
1443278427207480103	0.40700483	7.070031	15.831346
1443278427212607057	0.36164576	7.08025	15.730228
1443278427218405396	4.705838	-0.9768295	12.00595
1443278427222677857	4.6604238	-0.94903183	11.91506
1443278427227560670	6.647658	-5.3103924	4.2608504
1443278427232626588	6.5888734	-5.2741756	4.194385
1443278427237661988	3.2341685	-4.153804	0.22517776
1443278427247732789	-1.0682957	-1.6121655	-0.15123749
1443278427252768189	-1.1299441	-1.5937386	-0.17189956
1443278427257803590	-4.230195	3.0160894	-0.75139236
1443278427262961061	-4.281476	3.0256958	-0.77159476
1443278427268728883	-8.268846	7.9943657	-0.9412246
1443278427272909791	-8.276658	7.9919596	-0.9663811
1443278427277945191	-9.353052	7.614953	-2.1686234
1443278427283468873	-8.167636	2.6114492	-3.7135277
1443278427288015992	-8.131916	2.618043	-3.7398787
1443278427298269898	-5.395089	-1.2064695	-3.0082393
1443278427303030641	-1.4820032	-1.4451904	-1.1739633
1443278427308310182	-1.4310861	-1.4487438	-1.1676409
1443278427313315064	-1.3808722	-1.4554586	-1.153085
1443278427318991334	1.9860487	-1.1947203	-1.6894329
1443278427323202760	1.6302886	-1.4143305	-5.6795197
1443278427328268678	1.6673431	-1.4253416	-5.6420927
1443278427334738404	-0.4775269	-1.5829763	-7.1853247
1443278427338522584	-0.45907527	-1.592701	-7.14132
1443278427341726930	-0.4493693	-1.6010218	-7.0988455
1443278427348440797	-1.2288454	-1.5117178	-4.3858776
1443278427354056031	0.27441877	-1.8644714	-2.8493943
1443278427358694703	0.266249	-1.8781462	-2.7953184
1443278427363516480	0.78207093	-1.485712	-2.7320597
1443278427368612916	0.77041626	-1.499651	-2.6774004
1443278427373617799	0.58702826	0.013944626	-3.3657696
1443278427378805787	0.5916451	-8.249283E-4	-3.317922
1443278427384176881	0.85247433	1.7300797	-3.8596833
1443278427388907105	0.8742466	1.7134466	-3.8180997
1443278427398947389	1.3954742	2.7099504	-3.745033
1443278427403830201	0.86054844	2.4202032	-2.860069
1443278427409018189	0.8883643	2.394184	-2.7927861
1443278427413870484	-0.22879234	1.3327503	-1.4179759
1443278427418966920	-0.20480603	1.3061142	-1.3388333
1443278427423971803	-0.3734028	-0.016485214	-0.79604435
1443278427428976686	-0.35436478	-0.0415287	-0.7071214
1443278427434866578	-0.22026032	-1.2207136	-0.8042083
1443278427439200074	-0.21053633	-1.2394743	-0.720623
1443278427449301393	-0.2892635	-1.9665194	-0.7675679
1443278427454153687	-0.31049863	-2.3542404	-0.79163456
1443278427459402711	-0.49417973	-2.580927	-0.596681
1443278427464377076	-0.49787092	-2.5928507	-0.5093398
1443278427470114381	-0.9396994	-2.5718985	-0.45583642
1443278427474325807	-0.94519573	-2.5784054	-0.3889079
1443278427479513795	-0.9530742	-2.5864887	-0.3095938
1443278427485006959	-1.0771577	-2.5394459	-0.43868637
1443278427489432008	-1.0826901	-2.5443096	-0.3722242
1443278427492788941	-1.129982	-2.4235182	-0.7821263
1443278427500815064	-1.2966717	-2.4833279	-0.97537684
1443278427510214478	-1.1016322	-2.3126917	-1.0620972
1443278427514578492	-1.0973809	-2.3157415	-0.99452853
1443278427519858033	-0.47693563	-2.0320044	-0.827667
1443278427524649293	-0.46526712	-2.0350704	-0.75997984
1443278427529776246	-0.28190786	-1.5436182	-0.52033085
1443278427535818727	-0.25600064	-1.5478601	-0.44679898
1443278427539786012	0.15514845	-1.3975468	-0.7702157
1443278427543295533	0.17425486	-1.3983765	-0.72946745
1443278427549856812	0.75941825	-1.4745207	-0.7115988
1443278427554892213	0.790084	-1.4757195	-0.6592954
1443278427559897096	1.1009777	-1.4549942	-0.5904908
1443278427564932496	1.1320771	-1.4554358	-0.5397061
1443278427570486695	1.3964304	-1.5954933	-0.4395936
1443278427575216920	1.4236885	-1.5947142	-0.39165542
1443278427580069215	1.478256	-1.8193235	-0.18697503
1443278427585165650	1.5059532	-1.8175783	-0.13502899
1443278427590140016	1.5348458	-1.9754162	-0.3657779
1443278427600180299	1.4802477	-2.0631056	-0.6783632
1443278427605215699	1.5099972	-2.0593672	-0.6245676
1443278427610281617	1.1094689	-1.9537392	-0.6157384
1443278427615439088	1.1444727	-1.9493713	-0.5603528
1443278427620810182	0.9236601	-1.7486858	-0.50825655
1443278427625570924	0.9590099	-1.7438488	-0.4556326
1443278427630392701	1.1461685	-1.4889898	-0.4947659
1443278427635489137	1.2526323	-1.1253128	-0.27468422
1443278427640494019	1.2917647	-1.1199903	-0.21326157
1443278427643973023	1.318773	-1.1151886	-0.16934606
1443278427650564820	1.4352912	-0.75246906	-0.24598047
1443278427656637818	1.3677964	-0.7189417	0.026625335
1443278427667044312	1.2950711	-0.7986727	0.31659973
1443278427671377809	1.3415041	-0.7892895	0.37979114
1443278427676474244	0.8424808	-0.37169266	0.40267855
1443278427680868775	0.89191645	-0.3615389	0.46598393
1443278427685843141	0.4406283	0.46600246	0.65578896
1443278427691000611	0.49959493	0.4774809	0.7261623
1443278427694174439	0.53504974	0.4843254	0.76659834
1443278427701040894	0.4506132	1.0914745	0.746492
1443278427705954225	0.30749905	1.349886	0.2683357
1443278427711142213	0.36434317	1.359931	0.31925726
1443278427715994508	0.36894643	1.9623213	0.4275992
1443278427721060426	0.42647088	1.9704466	0.46446395
1443278427726065309	0.78971624	2.470212	0.9867259
1443278427731283814	0.85218203	2.4774828	1.0116962
1443278427737082154	1.4441682	2.3630486	1.8007269
1443278427741354615	1.494328	2.3683176	1.813161
1443278427751364381	2.2280388	1.9210777	1.9828224
1443278427756277711	3.1117573	1.1062307	1.2175368
1443278427761465699	3.1569514	1.1141977	1.224829
1443278427766348512	3.8682199	0.20127773	0.41211104
1443278427771322877	4.249738	-0.3261776	0.15973938
1443278427776449830	4.2753572	-0.3184576	0.16459787
1443278427781454713	4.295582	-0.31180954	0.16835356
1443278427787008912	3.7869055	0.94593716	0.56506073
1443278427791678102	3.7991986	0.94841766	0.56811535
1443278427801687867	3.2012491	2.3552809	1.1126448
1443278427806631715	2.151301	2.9592152	1.0765147
1443278427811789186	1.8493798	2.9527016	0.20378244
1443278427816855103	1.8475579	2.9492722	0.21757507
1443278427822348268	1.8430779	2.945551	0.23246837
1443278427826803834	1.5391663	4.6708345	-0.08474362
1443278427833151490	1.3524373	6.5259666	0.6015631
1443278427838125855	1.3491518	6.512618	0.60230947
1443278427842489869	3.2344005	5.6309185	-0.96925724
1443278427845236451	3.2280412	5.6190042	-0.96875095
1443278427852774293	3.524298	4.4044113	-2.5472236
1443278427862051637	2.7702436	4.1068707	-2.6252844
1443278427867209107	2.7518718	4.0961237	-2.619175
1443278427872641236	2.0032537	2.6102839	-2.6706033
1443278427877310426	1.9789628	2.599513	-2.675561
1443278427882193238	-0.0038992167	1.7983398	-1.8506385
1443278427887228639	-0.03791213	1.7843513	-1.8737749
1443278427892264039	-1.3781723	2.2269163	-0.8425802
1443278427895804078	-1.4072688	2.212556	-0.86946833
1443278427902334840	-1.4687722	2.5656185	-0.9055724
1443278427907400758	-1.5227827	2.5440073	-0.95579267
1443278427912405641	-1.8316802	2.041625	-1.015879
1443278427917441041	-1.899764	2.0191574	-1.0755558
1443278427923300416	-2.6318207	1.5786686	-0.39304125
1443278427927633912	-2.6976368	1.5587597	-0.45936644
1443278427932547242	-3.8097744	2.2916527	0.34359014
1443278427937582643	-3.8866606	2.2688637	0.25361425
1443278427942618043	-3.8219314	2.6826124	-0.15204322
1443278427952688844	-3.793063	3.143073	-0.3510129
1443278427957693727	-3.8666654	3.1238756	-0.46803647
1443278427962912232	-3.540763	3.2483654	0.14297247
1443278427967764527	-3.6115062	3.2333527	0.024220616
1443278427972860963	-3.0395808	2.9264402	0.38413793
1443278427977987916	-3.1146965	2.9161386	0.2557978
1443278427982870728	-3.0908613	2.646738	0.494613
1443278427987936646	-3.4164047	2.5877657	0.63429403
1443278427992972047	-3.4860678	2.584734	0.51167524
1443278428003164918	-3.172765	2.4920607	0.6295044
1443278428008505494	-2.5085828	2.180046	0.59676903
1443278428013296754	-2.5680516	2.1845436	0.49000448
1443278428018942506	-1.9036808	1.7495174	0.19293338
1443278428023214967	-1.9536985	1.7566175	0.09977782
1443278428028219850	-0.64558244	0.95155525	-0.30559123
1443278428033407838	-0.7044164	0.9657459	-0.41809964
1443278428039236695	0.4245855	-0.17520714	-0.7920915
1443278428043448121	0.37731722	-0.15860558	-0.8849311
1443278428047659547	1.2487607	-1.34902	-0.36828792
1443278428053396852	1.1853828	-1.320055	-0.50003445
1443278428058462769	1.2436061	-2.2960615	-0.63038397
1443278428063620240	1.1914871	-2.263403	-0.75265276
1443278428068472535	0.84395164	-2.6044807	-1.6501889
1443278428073599488	0.8011932	-2.5682125	-1.7698884
1443278428078573853	1.33724	-2.508152	-2.4149818
1443278428083761842	1.3013545	-2.4702034	-2.5291033
1443278428089132936	2.07253	-2.7972784	-1.9373219
1443278428093832643	2.0407443	-2.7610846	-2.0338516
1443278428097036988	1.3214581	-2.7354746	-1.973088
1443278428103933961	1.2781322	-2.6831388	-2.1117804
1443278428108786256	0.62610316	-2.7689686	-2.5984762
1443278428113974244	0.59173155	-2.725688	-2.6977048
1443278428118857057	0.87987065	-3.2460737	-2.3758564
1443278428123892457	0.84214807	-3.2011957	-2.4683497
1443278428128927857	0.3085345	-3.7810678	-1.992322
1443278428134115846	-0.78687453	-4.1142597	-1.6869872
1443278428139609010	-0.8221203	-4.0622854	-1.78369
1443278428144186646	-0.84719896	-4.0178957	-1.8614447
1443278428154196412	-1.490577	-4.0469646	-2.0085394
1443278428159109742	-2.1179738	-3.9088078	-2.029793
1443278428165426881	-2.7577057	-3.6660585	-1.5551412
1443278428169363648	-2.7667136	-3.6326103	-1.6042774
1443278428174643189	-3.1620452	-3.5780659	-1.4138718
1443278428179281861	-3.171104	-3.543724	-1.4633131
1443278428185141236	-3.2610743	-3.6409159	-0.96321297
1443278428190024049	-3.2672791	-3.6092663	-1.006762
1443278428194540650	-3.3019094	-3.9781446	-1.4337058
1443278428197714478	-3.3018293	-3.9566355	-1.4552755
1443278428204458863	-2.8289714	-4.532774	-1.3591151
1443278428209463746	-2.8285599	-4.5092535	-1.3824134
1443278428214499146	-2.5525172	-4.850176	-0.972383
1443278428219687135	-2.5475197	-4.830925	-0.9881363
1443278428225088746	-2.1090543	-5.0072985	-1.0592084
1443278428229818971	-2.098456	-4.99209	-1.0682054
1443278428234671266	-1.3565826	-5.39223	-1.3980832
1443278428239737184	-1.3439815	-5.3792696	-1.4015131
1443278428244711549	-1.0749271	-5.365362	-1.0578823
1443278428248221070	-1.0630047	-5.356701	-1.0537839
1443278428254782350	-0.62545764	-5.2271757	-0.94749737
1443278428259878785	-0.60773265	-5.2253	-0.93302107
1443278428264853150	-0.039284706	-5.0216637	-0.7097635
1443278428269888551	-0.021480799	-5.025543	-0.685555
1443278428275412232	0.4527688	-4.6889896	-0.16936636
1443278428279989869	0.47009218	-4.697707	-0.13772154
1443278428285208375	1.1520185	-4.367158	0.4943533
1443278428291128785	1.7484658	-4.05602	1.1786199
1443278428295065553	1.7652702	-4.0705595	1.2175779
1443278428298605592	1.7808509	-4.083707	1.2545085
1443278428305349977	2.2700963	-3.6352777	1.7677941
1443278428310202271	2.3064995	-2.5271616	1.8344493
1443278428315390260	2.3385375	-2.5626822	1.9105945
1443278428321798951	2.0868583	-0.102558136	1.2363782
1443278428325949342	2.1171315	-0.1372366	1.306114
1443278428331564576	1.3702751	3.6884623	0.59887457
1443278428335348756	1.4034519	3.6490755	0.6668267
1443278428342062623	0.60389996	8.088898	0.05801463
1443278428345450074	0.6377794	8.04625	0.11760926
1443278428355673463	-0.5883378	12.751755	-0.096861124
1443278428360525758	-1.3244314	15.968078	2.0801961
1443278428365744264	-1.2738156	15.914816	2.1253874
1443278428370657594	0.1472004	15.589321	6.9050484
1443278428375662477	0.16944009	15.552595	6.899583
1443278428380697877	-0.2111606	12.534552	11.168222
1443278428385855348	-0.22315383	12.520891	11.110119
1443278428391256959	-0.088550985	6.985694	12.715074
1443278428395956666	-0.120627284	6.995104	12.62655
1443278428406027467	3.0010128	1.0567293	10.00029
1443278428410879762	6.7438855	-4.530613	5.2117686
1443278428416128785	6.6903653	-4.4926586	5.136908
1443278428420981080	4.9676633	-6.8681126	3.1885934
1443278428426046998	4.908614	-6.8308105	3.1372464
1443278428431051881	1.8444486	-4.2303762	1.1127813
1443278428436239869	1.7891899	-4.2016573	1.0766168
1443278428441733033	-1.0060352	-0.30883884	-0.010253429
1443278428446310670	-1.0482554	-0.29285145	-0.033354998
1443278428449515016	-4.0559716	3.421732	0.803422
1443278428456381471	-4.100628	3.4363623	0.76774883
1443278428461264283	-8.054581	6.181505	-0.20272875
1443278428466452271	-8.055254	6.1822386	-0.22755146
1443278428471304566	-10.639868	5.5044403	-3.3624294
1443278428476370484	-10.609595	5.498417	-3.3697865
1443278428481375367	-9.655578	2.90547	-4.9725094
1443278428486593873	-6.178359	0.93738556	-3.8291438
1443278428492392213	-6.1366296	0.92232037	-3.7992249
1443278428497763307	-1.694927	0.8936043	-2.4098816
1443278428499869019	-1.6782815	0.88490105	-2.3924446
1443278428507773072	1.2400601	1.6425486	-2.504809
1443278428511618287	1.2675602	1.6264753	-2.4768922
1443278428517508180	1.7059958	1.525733	-4.1795382
1443278428521658570	1.736455	1.5098467	-4.1476755
1443278428526724488	0.78317314	0.04549408	-4.9971704
1443278428531759889	0.8179322	0.029972076	-4.956169
1443278428536764771	-0.86431205	-1.6775179	-4.4968853
1443278428542349488	-0.841859	-1.6916018	-4.4470916
1443278428546866090	-1.908745	-2.1270952	-3.1693058
1443278428556906373	-1.6135123	-1.5748396	-2.439478
1443278428561972291	-1.6006143	-1.5849028	-2.4006999
1443278428566977174	-0.43808883	-0.17456818	-3.112179
1443278428572165162	-0.41399276	-0.18699169	-3.0749607
1443278428577902467	0.68151945	1.3331156	-3.5595922
1443278428582113893	0.70889795	1.3191185	-3.52547
1443278428587118775	1.4131848	2.2631845	-3.8319564
1443278428592672975	1.4516575	2.2413263	-3.7805588
1443278428597220094	1.4035293	2.1711397	-3.0716019
1443278428600760133	1.4233835	2.1541595	-3.0310137
1443278428607260377	0.823977	1.1654625	-1.9781389
1443278428612356812	0.83939797	1.139925	-1.9035375
1443278428617361695	0.41280168	-0.115345	-1.1905513
1443278428622397096	0.3523827	-1.1046295	-1.4738724
1443278428628073365	0.35663503	-1.131072	-1.3718534
1443278428632651002	0.35630387	-1.152381	-1.2838583
1443278428637533814	0.103167504	-1.5603104	-1.2938256
1443278428642599732	0.1004366	-1.5820675	-1.1932023
1443278428647574098	-0.08463156	-1.6511335	-0.7150557
1443278428651114137	-0.08709815	-1.6633587	-0.64674425
1443278428657797486	-0.22531417	-1.6477108	-0.3279729
1443278428663534791	-0.3849115	-1.6737804	-0.37301624
1443278428667898805	-0.38668397	-1.6849737	-0.29958034
1443278428673300416	-0.70749366	-1.6719065	-0.37612963
1443278428677847535	-0.7081274	-1.6814709	-0.30477238
1443278428683249146	-0.66336346	-1.9670897	-0.32466578
1443278428687857301	-0.66349304	-1.974638	-0.2549305
1443278428693106324	-0.606212	-2.345952	-0.29622018
1443278428698080689	-0.6059582	-2.352131	-0.22324693
1443278428708151490	-0.4080865	-2.6886282	-0.35863125
1443278428713034303	-0.14597413	-2.780199	-0.78644705
1443278428718222291	-0.14083692	-2.783143	-0.71535647
1443278428723074586	-0.030651182	-2.6369686	-0.70343983
1443278428728171021	-0.02205664	-2.638997	-0.63567865
1443278428733206422	0.61647344	-2.5197792	-0.9567933
1443278428738363893	0.63318896	-2.5210266	-0.892562
1443278428743765504	1.3012509	-2.2963657	-0.73250175
1443278428748465211	1.322036	-2.2965612	-0.6782519
1443278428758444459	1.8358027	-2.0371609	-0.497514
1443278428763357789	2.0685656	-1.8816462	-0.41000688
1443278428768576295	2.0951636	-1.881525	-0.35395557
1443278428773459107	2.1458504	-1.831872	-0.5503486
1443278428778494508	2.1707773	-1.8310413	-0.49398357
1443278428783499391	1.6867269	-1.704484	-0.44387904
1443278428788717896	1.7137886	-1.7032709	-0.38295415
1443278428794180543	1.5590149	-1.6121607	-0.16906866
1443278428798788697	1.5385766	-1.6196089	-0.1574782
1443278428801962525	1.5550163	-1.6168776	-0.11980215
1443278428808859498	1.59481	-1.6142712	-0.038688444
1443278428813742311	1.3068236	-1.6371899	-0.20117009
1443278428818960816	1.336899	-1.6333132	-0.13961014
1443278428823813111	1.1285484	-1.392622	-0.057062916
1443278428828756959	1.1583697	-1.3883419	0.0016806573
1443278428833883912	1.4125884	-1.0671091	0.3290561
1443278428840902955	1.5824418	-0.86666393	0.20383158
1443278428849539430	1.6781734	-0.78835106	-0.064119816
1443278428852347047	1.6980335	-0.7843332	-0.029663324
1443278428859213502	1.6236577	-0.55156326	0.44181705
1443278428864065797	1.6651616	-0.5450125	0.49865448
1443278428869131715	1.3783299	-0.30965137	0.39248484
1443278428874350221	1.4263476	-0.30211353	0.44981378
1443278428879690797	0.9775521	-0.053946495	0.40171015
1443278428884390504	1.0206294	-0.046764374	0.45113873
1443278428889273316	0.45055664	0.23807526	0.23836046
1443278428894308717	0.49549603	0.24597263	0.2911895
1443278428899344117	0.061617613	0.70429134	-0.043925703
1443278428909414918	-0.3693033	1.1816463	-0.21115577
1443278428914450318	-0.3244486	1.188489	-0.16558456
1443278428919485719	-0.5728113	1.7291927	0.5627955
1443278428924612672	-0.5240935	1.7351961	0.5995091
1443278428930136353	-0.27569854	2.059413	1.3643699
1443278428934744508	-0.22803605	2.0635347	1.3846924
1443278428939596803	0.512288	1.7431746	1.2484688
1443278428945395143	0.57197356	1.7497044	1.2646762
1443278428949698121	1.5694302	1.2960739	0.74474525
1443278428953177125	1.5990494	1.2989006	0.7511592
1443278428959799439	2.563662	0.9059496	0.42103422
1443278428964804322	2.5967326	0.9107599	0.42853642
1443278428969992311	3.4011688	0.6285734	0.029503942
1443278428974875123	3.7104878	1.3047848	0.5119983
1443278428980581910	3.7315354	1.3078299	0.52064645
1443278428984945924	3.742241	1.3092203	0.5284389
1443278428990103394	3.624375	2.8559437	1.1223158
1443278428995840699	3.6318374	2.8545494	1.1352309
1443278429000021607	2.3484008	3.5606537	1.6314844
1443278429003592164	2.348464	3.5554743	1.6380599
1443278429010275514	1.7190329	3.239891	1.0642514
1443278429015341432	2.3811164	3.504982	-0.13697469
1443278429020254762	2.3772578	3.4994192	-0.12624657
1443278429025107057	2.4934666	5.605462	0.41323817
1443278429031057984	2.4898744	5.5948753	0.41794336
1443278429035269410	3.4905977	6.9364195	0.8112564
1443278429040304811	3.4901323	6.922408	0.8055203
1443278429045797975	4.8673506	5.295556	-1.2004975
1443278429050497682	4.8662434	5.285136	-1.2031968
1443278429060599000	3.9457784	3.9446201	-2.3262112
1443278429065481812	2.9542966	3.3995056	-2.4431593
1443278429070669801	2.9361625	3.3899279	-2.4426937
1443278429075583131	1.7159934	2.4414082	-2.3146524
1443278429080649049	1.6902757	2.4299335	-2.3312697
1443278429085653932	-0.10458362	2.311654	-1.5982027
1443278429090841920	-0.13676667	2.2967644	-1.6341591
1443278429096213014	-1.1133026	1.7548046	-1.6553812
1443278429100912721	-1.1495805	1.7396498	-1.7006208
1443278429110953004	-2.2056155	1.095252	-1.3736467
1443278429115866334	-3.0499458	1.1482992	-0.40538943
1443278429121054322	-3.1081033	1.130826	-0.47950596
1443278429125906617	-3.5846257	1.5699825	0.47609204
1443278429131643922	-3.6607962	1.5495338	0.37245154
1443278429136007936	-3.8869042	2.355032	0.8864667
1443278429141195924	-3.9601974	2.3358793	0.77394354
1443278429146567018	-3.786654	2.9505768	0.85970354
1443278429151297242	-3.192813	3.0693502	0.853449
1443278429154440553	-3.236199	3.0572853	0.7724294
1443278429161123902	-3.3343043	3.0418425	0.5965774
1443278429166220338	-2.587314	3.0338478	0.16275534
1443278429172171266	-2.3504028	2.9149637	-0.16547981
1443278429181967408	-2.764023	2.607893	-0.3009108
1443278429186514527	-2.8220263	2.6073027	-0.41346675
1443278429191702516	-2.538035	2.1889448	0.23088181
1443278429196463258	-2.593221	2.19269	0.11845845
1443278429201468141	-1.8761396	2.0443077	0.45829612
1443278429204977662	-1.9141021	2.0481262	0.37783843
1443278429211538941	-0.85083663	1.5989256	0.2527275
1443278429216574342	-0.90671986	1.610383	0.14128757
1443278429221640260	0.044727296	0.8628416	-0.1092788
1443278429226767213	-0.012124002	0.87924004	-0.22119582
1443278429232229859	0.8726398	-0.26636982	-0.16177619
1443278429236868531	0.82103336	-0.24558449	-0.26727605
1443278429241720826	0.8747207	-0.96076584	-0.4728874
1443278429246817262	0.82137007	-0.93189716	-0.5951061
1443278429251822144	0.9173331	-1.6118536	-1.0187116
1443278429261892945	0.8214455	-2.0399761	-1.2425027
1443278429266897828	1.1641192	-2.5982323	-0.8907101
1443278429271963746	1.1265628	-2.5597448	-1.0045598
1443278429276999146	1.091304	-2.5209055	-1.1144238
1443278429282492311	1.0350652	-3.0059357	-0.880394
1443278429287222535	1.0030551	-2.966651	-0.9791813
1443278429292074830	0.2467289	-3.1097202	-1.2037308
1443278429297140748	0.21401656	-3.0663757	-1.3047233
1443278429302176148	0.090393186	-3.2173557	-1.665014
1443278429312369019	0.034098744	-3.3387308	-2.0133219
1443278429317251832	0.0015817881	-3.2941551	-2.0997012
1443278429322500855	-0.3635131	-3.4177914	-1.8582416
1443278429327322633	-0.39251804	-3.374115	-1.93716
1443278429332296998	-0.8469583	-3.3991966	-1.3015423
1443278429339132936	-1.1489835	-3.299961	-0.9088812
1443278429342428834	-1.1615423	-3.2693253	-0.9573934
1443278429347769410	-1.3697766	-3.016241	-1.185791
1443278429352743775	-1.3886447	-2.9764748	-1.2508883
1443278429355887086	-1.3999562	-2.9502678	-1.2875414
1443278429362784059	-2.1224847	-2.79556	-1.18398
1443278429367636353	-2.3275151	-2.9276714	-1.367146
1443278429372824342	-2.344831	-2.8951826	-1.4119978
1443278429377676637	-2.2847848	-3.3476896	-1.2308207
1443278429382773072	-2.2978063	-3.3190966	-1.2663016
1443278429387747437	-2.1486652	-3.781437	-1.1594963
1443278429392935426	-2.1587896	-3.7558165	-1.1875529
1443278429398276002	-1.8677837	-4.273942	-1.6589622
1443278429403006227	-1.8738147	-4.2527122	-1.6763387
1443278429413077027	-1.500071	-4.8149347	-1.6161318
1443278429417959840	-1.2140445	-5.4288044	-1.3699164
1443278429423178346	-1.2153536	-5.410079	-1.3799605
1443278429428061158	-1.1074394	-5.938236	-1.1057148
1443278429433157594	-1.1030772	-5.9227505	-1.109951
1443278429438131959	-0.9646658	-6.3656445	-1.1035924
1443278429443167359	-1.1236383	-6.1080027	-1.1890044
1443278429448782594	-1.1105691	-6.0999393	-1.181098
1443278429453390748	-1.0974811	-6.0935726	-1.1700134
1443278429463461549	-0.8897464	-5.807557	-1.1813269
1443278429468313844	-0.46675503	-5.5147886	-0.93262863
1443278429473562867	-0.44452906	-5.5232534	-0.89860535
1443278429478384644	0.29190922	-5.2762833	-0.5167904
1443278429483359010	1.2038109	-5.0190315	0.039230347
1443278429488516480	1.2283827	-5.0371	0.08802652
1443278429493521363	1.2539939	-5.056941	0.14095592
1443278429499075562	2.1301854	-4.6673574	0.451859
1443278429504660279	2.4164064	-3.9626179	0.6995516
1443278429506918580	2.4267774	-3.9706783	0.72845244
1443278429514334352	1.9406494	-2.489213	0.7032223
1443278429518606812	1.9710771	-2.5172338	0.76625276
1443278429523977906	1.1408024	0.6470337	0.22495651
1443278429528769166	1.1821778	0.60661983	0.3044207
1443278429533896119	0.3183896	5.1160746	-0.4658513
1443278429538962037	0.36883003	5.065302	-0.37804508
1443278429543905885	-0.7342957	9.847023	-1.0108988
