gyroscope_timestamp	gyroscope_x_data	gyroscope_y_data	gyroscope_z_data
14230738040779	1.1944122	-0.3290863	0.0821991
14230741123055	1.1101227	-0.51234436	0.030883789
14230746158455	0.9549408	-0.561203	-0.0155181885
14230751163338	0.731369	-0.59664917	-0.04360962
14230756595467	0.46258545	-0.64186096	-0.042404175
14230761264656	0.1803894	-0.7163696	-0.014297485
14230764591072	0.1803894	-0.8348694	-0.014297485
14230771335457	-0.0859375	-0.8348694	0.030883789
14230776340340	-0.32295227	-1.0071411	0.0834198
14230781406258	-0.52819824	-1.2343903	0.13717651
14230786441658	-0.6943512	-1.5153809	0.18359375
14230791843269	-0.805542	-1.8305817	0.2117157
14230796512459	-0.8531952	-2.1592255	0.21292114
14230801578377	-0.8421936	-2.4695435	0.19094849
14230807102058	-0.7896576	-2.7371063	0.1616211
14230811618660	-0.71147156	-2.9386902	0.13717651
14230814975594	-0.61372375	-3.0681915	0.12007141
14230821719978	-0.4927826	-3.1353912	0.105407715
14230826724861	-0.34007263	-3.1598206	0.0821991
14230831790779	-0.1494751	-3.150055	0.04676819
14230836795662	0.0826416	-3.0950775	-0.0045318604
14230842075203	0.3477478	-2.9618988	-0.07293701
14230846866463	0.6311798	-2.7004547	-0.1670227
14230851871346	0.9207306	-2.2814026	-0.2965088
14230857150887	1.2102814	-1.7230682	-0.46266174
14230861972664	1.4912872	-1.0950928	-0.6520386
14230865329598	1.4912872	-0.48547363	-0.6520386
14230872073982	1.9372101	-0.48547363	-0.9476929
14230877109383	2.0105286	0.4772339	-0.96969604
14230882114265	1.9237823	0.8681946	-0.89515686
14230887149666	1.6867676	1.254242	-0.75709534
14230892581795	1.3642273	1.6195526	-0.6031647
14230897220467	1.0355835	1.8761139	-0.46878052
14230902255867	0.7460327	1.9420776	-0.3600464
14230907596443	0.51023865	1.8052521	-0.26841736
14230912326668	0.51023865	1.5205841	-0.26841736
14230915683601	0.3257599	1.5205841	-0.18655396
14230922427986	0.19136047	1.1711731	-0.114471436
14230927493904	0.09364319	0.8339844	-0.06072998
14230932468269	0.016662598	0.5762024	-0.031402588
14230937534187	-0.051742554	0.43814087	-0.025283813
14230942966316	-0.11526489	0.42347717	-0.033843994
14230947604988	-0.1641388	0.4882202	-0.047286987
14230952640389	-0.19223022	0.5700836	-0.05949402
14230958469246	-0.20199585	0.61405945	-0.0680542
14230962680672	-0.19711304	0.6104126	-0.07537842
14230966037605	-0.17756653	0.5762024	-0.07661438
14230972781990	-0.1360321	0.5236664	-0.07171631
14230977786873	-0.06517029	0.43692017	-0.06561279
14230982822273	0.0337677	0.28785706	-0.06437683
14230987888191	0.14250183	0.06674194	-0.07537842
14230993198250	0.23901367	-0.19958496	-0.10592651
14230997928474	0.30621338	-0.46958923	-0.16456604
14231002994392	0.33674622	-0.7176056	-0.25009155
14231008426521	0.3257599	-0.9533844	-0.3478241
14231013065193	0.26834106	-1.2075043	-0.41990662
14231016422127	0.26834106	-1.5043793	-0.41990662
14231023105476	0.060638428	-1.5043793	-0.3624878
14231028140877	0.0044403076	-2.1653442	-0.24885559
14231033176277	0.067977905	-2.3657074	-0.114471436
14231038211678	0.27566528	-2.3400574	0.024780273
14231043552254	0.587204	-2.0798035	0.15673828
14231048282478	0.9134064	-1.6888733	0.25935364
14231053317879	0.9134064	-1.2942505	0.31188965
14231058658455	1.3116913	-1.2942505	0.30699158
14231063388680	1.3116913	-0.6467438	0.30699158
14231066745613	1.3520203	-0.6467438	0.25201416
14231073489998	1.3238983	-0.38528442	0.15794373
14231078494881	1.2567139	-0.17515564	0.040664673
14231083530281	1.1614227	-0.0053253174	-0.082717896
14231088565682	1.0368042	0.16203308	-0.19631958
14231094028328	0.8865204	0.36972046	-0.2855072
14231098636482	0.7167206	0.62872314	-0.3453827
14231103671883	0.54078674	0.92193604	-0.3685913
14231109104012	0.3660736	1.2090454	-0.35394287
14231113742683	0.19015503	1.4485168	-0.3013916
14231117069099	0.010559082	1.5902252	-0.21708679
14231123844002	-0.17268372	1.5902252	-0.1169281
14231128848885	-0.34495544	1.4350739	-0.02407837
14231133884285	-0.4842224	1.1711731	0.028442383
14231138919685	-0.59295654	0.8852844	0.03211975
14231144351814	-0.71147156	0.62384033	0.011352539
14231149021004	-0.88494873	0.36239624	0.011352539
14231154056404	-1.1292877	0.07896423	0.050445557
14231159549568	-1.4212799	-0.23013306	0.12007141
14231164127205	-1.6973877	-0.601532	0.20191956
14231167453621	-1.6973877	-1.0963287	0.20191956
14231174167488	-1.9649658	-1.0963287	0.3631897
14231179202889	-1.9478455	-2.2557526	0.42796326
14231184238289	-1.8867645	-2.5782776	0.48414612
14231189304207	-1.8036957	-2.6014862	0.54034424
14231194583748	-1.7010651	-2.390152	0.59410095
14231199344490	-1.7010651	-2.0956879	0.59410095
14231204379890	-1.5923309	-2.0956879	0.62342834
14231209689949	-1.499466	-1.8806763	0.61242676
14231214450691	-1.4212799	-1.8232574	0.5684509
14231217838142	-1.3418732	-1.8354645	0.5146942
14231224552010	-1.2514801	-1.7487335	0.4658203
14231229526375	-1.1537323	-1.4762878	0.4096222
14231234622810	-1.0596466	-1.0804443	0.32655334
14231239627693	-0.970459	-0.6626282	0.21292114
14231245120857	-0.8788452	-0.2582245	0.0821991
14231249698494	-0.77745056	0.14248657	-0.047286987
14231254733894	-0.65771484	0.5309906	-0.15846252
14231260074471	-0.51475525	0.8816223	-0.24885559
14231264835213	-0.35716248	1.1748352	-0.31851196
14231268131111	-0.19100952	1.4045258	-0.3710327
14231274906014	-0.030975342	1.5731201	-0.41012573
14231279941414	0.10952759	1.6806335	-0.43945313
14231284946297	0.21948242	1.7160645	-0.4663391
14231290012215	0.2927704	1.6732941	-0.49443054
14231295352791	0.33065796	1.5547943	-0.5164337
14231300479744	0.33918762	1.3788757	-0.5213165
14231305057381	0.3269806	1.1589508	-0.5091095
14231310123299	0.2976532	0.9146118	-0.49443054
14231315158699	0.26101685	0.68247986	-0.4932251
14231318515633	0.26101685	0.51634216	-0.4932251
14231325229500	0.19259644	0.51634216	-0.53352356
14231330264900	0.1803894	0.50045776	-0.56773376
14231335300301	0.19015503	0.6055145	-0.61172485
14231340335701	0.21948242	0.725235	-0.6581421
14231345645760	0.25611877	0.8388672	-0.69358826
14231350375984	0.25611877	0.95248413	-0.69358826
14231355472420	0.28788757	0.95248413	-0.70944214
14231360874031	0.31233215	1.0795441	-0.70944214
14231365512703	0.3282013	1.2249146	-0.7045593
14231368900154	0.33065796	1.3849792	-0.7021179
14231375583504	0.315979	1.5413513	-0.6996765
14231380618904	0.28056335	1.6757355	-0.6874695
14231385654305	0.22436523	1.7759247	-0.6581421
14231390659187	0.15226746	1.8480072	-0.6068268
14231396030281	0.06919861	1.905426	-0.53964233
14231400760506	-0.01876831	1.957962	-0.4638977
14231405795906	-0.10670471	2.010498	-0.3869171
14231411105965	-0.19345093	2.0557098	-0.3123932
14231415866707	-0.2667694	2.0813599	-0.24276733
14231419284676	-0.31562805	2.0740356	-0.18534851
14231425937508	-0.32295227	2.0202637	-0.14257813
14231431003426	-0.2826538	1.9127655	-0.11569214
14231436008308	-0.19345093	1.7527161	-0.10470581
14231441013191	-0.07128906	1.5486755	-0.10470581
14231446506355	0.07408142	1.3251038	-0.11569214
14231451114510	0.23046875	1.114975	-0.13035583
14231456149910	0.39172363	0.9451599	-0.14379883
14231461490486	0.54200745	0.8217621	-0.15357971
14231466251228	0.65930176	0.74235535	-0.15968323
14231469577644	0.65930176	0.69836426	-0.15968323
14231476291512	0.731369	0.69836426	-0.15357971
14231481357430	0.68862915	0.7093506	-0.14257813
14231486331795	0.68862915	0.7667694	-0.12425232
14231491428230	0.60920715	0.7667694	-0.12425232
14231496829842	0.51023865	0.8535156	-0.07171631
14231501499031	0.40516663	1.0343475	-0.07171631
14231506534432	0.30743408	1.0343475	-0.04360962
14231512363289	0.22557068	1.0929871	-0.020401001
14231516605232	0.164505	1.1235352	-0.003326416
14231519931648	0.12173462	1.128418	0.007675171
14231526645515	0.09484863	1.1076508	0.010116577
14231531650398	0.08140564	1.0612335	0.0040130615
14231536716316	0.07286072	0.99401855	-0.0082092285
14231541751717	0.0667572	0.9085083	-0.022842407
14231547061775	0.05819702	0.8119812	-0.0362854
14231551822517	0.052093506	0.7093506	-0.046051025
14231556888435	0.050872803	0.6067352	-0.049728394
14231562351082	0.05819702	0.50289917	-0.047286987
14231566959236	0.07408142	0.40270996	-0.04484558
14231570285652	0.096084595	0.32086182	-0.04360962
14231576999519	0.11685181	0.2793274	-0.04850769
14231582004402	0.12905884	0.28909302	-0.057052612
14231587100838	0.1302948	0.34283447	-0.0680542
14231592105721	0.11929321	0.42347717	-0.077819824
14231597446297	0.10217285	0.5089874	-0.086380005
14231602207039	0.0826416	0.58229065	-0.090042114
14231607211922	0.06309509	0.62384033	-0.09126282
14231612552498	0.04598999	0.62506104	-0.08760071
14231617313240	0.026443481	0.5871887	-0.08149719
14231620639656	0.026443481	0.5151062	-0.08149719
14231627384041	-0.0077667236	0.5151062	-0.07171631
14231632419441	-0.0077667236	0.30986023	-0.070495605
14231637424324	-0.012649536	0.30986023	-0.070495605
14231642459724	-0.0065460205	0.19256592	-0.07661438
14231647983406	0.009338379	0.07896423	-0.08882141
14231652591560	0.034988403	-0.023651123	-0.10958862
14231657596443	0.0655365	-0.10673523	-0.1352539
14231663425301	0.098526	-0.16415405	-0.16212463
14231667636726	0.1278534	-0.19224548	-0.18899536
14231670993660	0.15106201	-0.18980408	-0.21708679
14231677707527	0.16571045	-0.16171265	-0.24641418
14231682712410	0.16938782	-0.11529541	-0.27453613
14231687747810	0.15715027	-0.061523438	-0.29530334
14231692783211	0.12661743	-0.009002686	-0.30018616
14231698062752	0.083862305	0.031326294	-0.28796387
14231702884529	0.03742981	0.05697632	-0.25985718
14231707919930	-0.0065460205	0.0655365	-0.22444153
14231713321541	-0.04197693	0.05821228	-0.18899536
14231717960213	-0.068847656	0.0337677	-0.16212463
14231721317146	-0.09082031	-0.009002686	-0.14746094
14231728061531	-0.10670471	-0.068847656	-0.14501953
14231733066414	-0.111587524	-0.13970947	-0.14990234
14231738132332	-0.10305786	-0.21424866	-0.15722656
14231743167732	-0.07861328	-0.28388977	-0.1670227
14231748386238	-0.045654297	-0.34007263	-0.17799377
14231753238533	-0.013885498	-0.36940002	-0.18655396
14231758273933	0.011779785	-0.36328125	-0.19143677
14231763492439	0.0337677	-0.32054138	-0.19143677
14231768375252	0.064315796	-0.25578308	-0.19023132
14231771701668	0.064315796	-0.18736267	-0.19023132
14231778476570	0.10952759	-0.18736267	-0.18045044
14231783450935	0.17059326	-0.12382507	-0.18045044
14231788486336	0.23535156	-0.0627594	-0.17190552
14231793521736	0.28544617	0.0032196045	-0.16334534
14231798953865	0.30743408	0.07896423	-0.15722656
14231803592537	0.29032898	0.16081238	-0.15478516
14231808597420	0.23535156	0.24388123	-0.15478516
14231813876961	0.16082764	0.315979	-0.15234375
14231818698738	0.09364319	0.35751343	-0.14257813
14231822086189	0.05819702	0.35017395	-0.12669373
14231828769539	0.0655365	0.2842102	-0.10592651
14231833774422	0.111968994	0.16325378	-0.0851593
14231838840340	0.17547607	0.006881714	-0.0680542
14231843875740	0.22924805	-0.14826965	-0.054611206
14231849216316	0.24879456	-0.2631073	-0.04850769
14231853946541	0.22802734	-0.3119812	-0.050949097
14231858981941	0.17182922	-0.2948761	-0.058288574
14231864383553	0.09364319	-0.23501587	-0.0692749
14231869022224	0.0044403076	-0.15927124	-0.077819824
14231872409676	0.0044403076	-0.08352661	-0.082717896
14231879123543	-0.17390442	-0.08352661	-0.077819824
14231884128426	-0.26553345	0.055755615	-0.05949402
14231889194344	-0.35838318	0.1058197	-0.03262329
14231894229744	-0.4451294	0.13270569	-0.0057678223
14231899478767	-0.5062256	0.12538147	0.013793945
14231904300545	-0.5269928	0.08505249	0.027236938
14231909335945	-0.5049896	0.0178833	0.041885376
14231914768074	-0.4524536	-0.056640625	0.061431885
14231919406746	-0.4524536	-0.11405945	0.0834198
14231922763680	-0.38771057	-0.13362122	0.0834198
14231929477547	-0.32174683	-0.13362122	0.101745605
14231934512947	-0.26065063	-0.11161804	0.110305786
14231939548348	-0.2007904	-0.060302734	0.11152649
14231944583748	-0.1335907	-0.0053253174	0.10664368
14231949802254	-0.057861328	0.03253174	0.0993042
14231954654549	0.021560669	0.050857544	0.089538574
14231959689949	0.09240723	0.059417725	0.073654175
14231965000008	0.14494324	0.075286865	0.054107666
14231969730232	0.16938782	0.1058197	0.034561157
14231973087166	0.16082764	0.1534729	0.017440796
14231979831551	0.11929321	0.20967102	0.0027923584
14231984866951	0.047210693	0.25976563	-0.014297485
14231989871834	-0.05053711	0.28541565	-0.03996277
14231998966072	-0.2850952	0.27565002	-0.11203003
14232001560066	-0.2850952	0.16447449	-0.11203003
14232004978035	-0.40115356	0.16447449	-0.14990234
14232010074471	-0.4976654	0.083847046	-0.18045044
14232015262459	-0.561203	7.7819824E-4	-0.19999695
14232020084236	-0.5795288	-0.084732056	-0.20976257
14232023441170	-0.5795288	-0.18736267	-0.20976257
14232030216072	-0.48054504	-0.18736267	-0.21832275
14232035312508	-0.3828125	-0.48791504	-0.23176575
14232040225838	-0.27653503	-0.6772766	-0.25376892
14232045291756	-0.18000793	-0.8556366	-0.27941895
14232050510262	-0.104263306	-0.9875946	-0.30262756
14232055362557	-0.060302734	-1.051117	-0.32217407
14232060397957	-0.044418335	-1.0486755	-0.34294128
14232065830086	-0.04685974	-0.9998169	-0.3685913
14232070438240	-0.04685974	-0.9277344	-0.3685913
14232073795174	-0.051742554	-0.9277344	-0.4003601
14232080509041	-0.045654297	-0.85198975	-0.4345703
14232085544441	-0.02609253	-0.78723145	-0.46878052
14232090610359	0.008117676	-0.745697	-0.50175476
14232095645760	0.052093506	-0.732254	-0.5323181
14232100894783	0.09729004	-0.73713684	-0.5567322
14232105716560	0.1327362	-0.7420349	-0.56895447
14232110751961	0.14982605	-0.7310333	-0.56163025
14232116153572	0.14250183	-0.6919403	-0.5384064
14232120792244	0.11929321	-0.627182	-0.50665283
14232124179695	0.087524414	-0.54777527	-0.47610474
14232130863045	0.059432983	-0.45614624	-0.4565735
14232135898445	0.038650513	-0.35595703	-0.4504547
14232140964363	0.03010559	-0.25578308	-0.46022034
14232145999764	0.039871216	-0.16783142	-0.48831177
14232151218269	0.07531738	-0.09817505	-0.5323181
14232156070564	0.13394165	-0.039535522	-0.5872803
14232161105965	0.20968628	0.019104004	-0.64837646
14232166354988	0.28910828	0.08505249	-0.7131195
14232171207283	0.3611908	0.1681366	-0.7925415
14232174533699	0.3611908	0.2793274	-0.7925415
14232181247566	0.46992493	0.2793274	-1.1077423
14232186282967	0.52246094	0.57496643	-1.3716278
14232191287849	0.58110046	0.70080566	-1.6660614
14232196384285	0.6483002	0.7753296	-1.9299622
14232201724861	0.719162	0.79733276	-2.1168823
14232206424568	0.7888031	0.777771	-2.2219543
14232211459969	0.7888031	0.71669006	-2.2219543
14232216861580	0.90852356	0.71669006	-2.2683716
14232221500252	0.90852356	0.4308014	-2.2683716
14232224887703	0.94885254	0.4308014	-2.245163
14232231601570	0.9732666	0.2023468	-2.1975098
14232236606453	0.9854889	-0.05419922	-2.1352081
14232241641853	0.99038696	-0.29977417	-2.087555
14232246707771	1.0001526	-0.49645996	-2.102234
14232251956795	1.0196991	-0.6247406	-2.2133942
14232256778572	1.0477905	-0.6882782	-2.407669
14232261813973	1.0661163	-0.70292664	-2.6104736
14232267246101	1.0331421	-0.6699524	-2.6996613
14232271884773	0.89875793	-0.5661011	-2.5713654
14232275211189	0.64341736	-0.3914032	-2.2256317
14232281925057	0.3086548	-0.22769165	-1.8016815
14232286990974	-0.023651123	-0.19958496	-1.4779358
14232292056892	-0.29606628	-0.357193	-1.3374176
14232297061775	-0.49642944	-0.6088562	-1.3349762
14232302677010	-0.6369324	-0.80555725	-1.3862915
14232307163094	-0.7200165	-0.8641968	-1.4546967
14232312167976	-0.74568176	-0.80067444	-1.550003
14232317447517	-0.7200165	-0.6772766	-1.6843872
14232322208260	-0.65649414	-0.54533386	-1.8407745
14232325595711	-0.65649414	-0.43049622	-1.8407745
14232332309578	-0.4512329	-0.43049622	-2.126648
14232337314461	-0.31806946	-0.28388977	-2.2280731
14232342380379	-0.17390442	-0.25456238	-2.301361
14232347415779	-0.029769897	-0.25456238	-2.3465729
14232352786873	0.10585022	-0.27166748	-2.3661041
14232357456062	0.10585022	-0.2826538	-2.3661041
14232362583015	0.22802734	-0.2826538	-2.3624573
14232367771004	0.33309937	-0.27044678	-2.336792
14232372623299	0.4161682	-0.22525024	-2.2818146
14232375919197	0.47114563	-0.14582825	-2.1853027
14232382663582	0.49313354	-0.02243042	-2.043579
14232387729500	0.46992493	0.14981079	-1.8749847
14232392703865	0.3905182	0.35995483	-1.7100372
14232397800301	0.25978088	0.5847473	-1.5744324
14232403140877	0.10462952	0.80589294	-1.4766998
14232407871101	-0.040740967	1.0245819	-1.407074
14232412906502	-0.1506958	1.254242	-1.3520813
14232418308113	-0.2142334	1.4888153	-1.2983398
14232422946785	-0.23744202	1.7014008	-1.240921
14232426303719	-0.23620605	1.8516693	-1.1822662
14232433017586	-0.22888184	1.9042053	-1.1297302
14232438022469	-0.23376465	1.8431244	-1.0991821
14232443149422	-0.26553345	1.6708527	-1.1150665
14232448154305	-0.30830383	1.4155121	-1.161499
14232453433846	-0.27285767	1.1479645	-1.1382904
14232458194588	-0.01876831	0.97813416	-0.9208069
14232463199471	0.5029144	0.97203064	-0.51763916
14232468692635	1.1320953	1.036789	-0.12425232
14232473270271	1.5792389	0.9769287	0.03944397
14232476657723	1.5792389	0.71669006	0.03944397
14232483371590	1.5157166	0.71669006	-0.2806244
14232488376473	1.3116913	0.40026855	-0.45410156
14232493442390	1.2139587	0.67759705	-0.5298767
14232498477791	1.2139587	1.0820007	-0.54086304
14232503726814	1.2249603	1.0820007	-0.54452515
14232508548592	1.2848206	1.5511322	-0.54452515
14232513553474	1.3459015	1.5511322	-0.57385254
14232518833015	1.3923187	1.5938873	-0.62516785
14232523685310	1.4326477	1.6012268	-0.6752472
14232526981209	1.4741821	1.6183319	-0.70944214
14232533725594	1.5291595	1.6598663	-0.7314453
14232538760994	1.5914764	1.7209473	-0.7632141
14232543796394	1.628128	1.7734833	-0.82551575
14232548831795	1.5926819	1.7490387	-0.9183655
14232554202889	1.4778442	1.5816803	-1.0112305
14232558902596	1.3300171	1.2701263	-1.0796356
14232563968514	1.2029572	0.9121704	-1.1248474
14232569339607	1.1113281	0.6213989	-1.1676025
14232574008797	1.0343628	0.44424438	-1.2091522
14232577365730	0.97206116	0.37460327	-1.2225952
14232584049080	0.936615	0.42103577	-1.1895905
14232589114998	0.9292908	0.6042938	-1.1309509
14232594150398	0.91952515	0.9023895	-1.0747528
14232599185799	0.8914337	1.2444763	-1.0307617
14232604404305	0.8523102	1.5499115	-0.97946167
14232610507820	0.82666016	1.7185059	-0.9000397
14232614292000	0.8303375	1.6415405	-0.7876587
14232619327400	0.85598755	1.3055725	-0.6605835
14232624362801	0.8779907	0.8901825	-0.56163025
14232627750252	0.8779907	0.66781616	-0.56163025
14232634433601	0.82421875	0.66781616	-0.58483887
14232639469002	0.7888031	0.9769287	-0.6886749
14232644534920	0.7888031	1.1271973	-0.7901001
14232649539803	0.797348	1.1271973	-0.7901001
14232654849861	0.84866333	1.0990906	-0.8475189
14232659610603	0.90608215	0.9586029	-0.83895874
14232664615486	0.92684937	0.8095398	-0.75709534
14232670108650	0.8889923	0.71546936	-0.61538696
14232674686287	0.7924652	0.68003845	-0.44433594
14232678073738	0.6556244	0.68247986	-0.2830658
14232684818123	0.500473	0.70202637	-0.1511383
14232689823006	0.35142517	0.72647095	-0.058288574
14232694858406	0.23046875	0.764328	-0.009414673
14232699924324	0.1461792	0.8217621	-0.009414673
14232705112312	0.10217285	0.8914032	-0.055847168
14232709964607	0.10217285	0.95980835	-0.13401794
14232714969490	0.15962219	1.0172272	-0.23544312
14232720249031	0.28666687	1.0587769	-0.35638428
14232725101326	0.48091125	1.089325	-0.49931335
14232728397224	0.717926	1.114975	-0.6569214
14232735172127	0.95373535	1.140625	-0.812088
14232740177010	1.1345367	1.1626129	-0.94281006
14232745181892	1.2249603	1.1736145	-1.0356598
14232750247810	1.2200623	1.1589508	-1.09552
14232755466316	1.1565399	1.1003113	-1.1407318
14232760318611	1.0856781	0.9744873	-1.1834717
14232765384529	1.0368042	0.77168274	-1.2103577
14232770725105	1.0135956	0.5175476	-1.2067108
14232775424812	1.0038147	0.263443	-1.1712646
14232778781746	1.0038147	0.038650513	-1.1712646
14232785495613	0.9989319	0.038650513	-1.0881958
14232790500496	0.9989319	-0.33642578	-1.0881958
14232795566414	1.0062561	-0.33642578	-1.06987
14232800601814	1.0209198	-0.5025635	-1.0637665
14232805911873	1.0368042	-0.64186096	-1.056427
14232810672615	1.0368042	-0.7408142	-1.0429993
14232815708015	1.0062561	-0.79089355	-1.0209961
14232821140144	0.93296814	-0.78723145	-0.98313904
14232825748299	0.82421875	-0.72125244	-0.92448425
14232829135750	0.7020569	-0.5844269	-0.83895874
14232835880135	0.59332275	-0.3779602	-0.7314453
14232840854500	0.52246094	-0.12261963	-0.61538696
14232845950935	0.5029144	0.12782288	-0.4981079
14232850986336	0.53834534	0.31106567	-0.35760498
14232856204842	0.62753296	0.37339783	-0.16334534
14232861026619	0.7594757	0.3000946	0.09197998
14232866031502	0.9207306	0.11315918	0.37297058
14232871341560	1.102768	-0.13726807	0.62586975
14232876193855	1.2970428	-0.39505005	0.816452
14232879459236	1.5010681	-0.601532	0.94229126
14232886234139	1.7038727	-0.70292664	1.0192719
14232891208504	1.88591	-0.654068	1.0595856
14232896243904	2.0325012	-0.43170166	1.0779114
14232901309822	2.1485748	-0.049316406	1.0864563
14232906680916	2.2304382	0.4466858	1.0986786
14232911380623	2.2169952	0.935379	1.1206665
14232916446541	2.0361786	1.2469177	1.1707458
14232921756599	1.7319641	1.3043365	1.2746124
14232926486824	1.5132751	1.2224731	1.4590912
14232929843758	1.5132751	1.2090454	1.4590912
14232936557625	1.5743561	1.2090454	1.7071075
14232941654060	1.9005585	1.3678741	1.9673309
14232946658943	2.2854004	1.6195526	2.1774597
14232951663826	2.5297546	1.8162537	2.3118439
14232957279060	2.5981598	1.8675537	2.39003
14232961765144	2.5700684	1.7575989	2.4499207
14232966770027	2.537094	1.5218201	2.5232086
14232972263191	2.5358582	1.2310333	2.6197205
14232976871346	2.5603027	0.9610443	2.722351
14232980197762	2.5969543	0.7484436	2.8078766
14232986911629	2.6409302	0.5847473	2.8542938
14232991947029	2.6995697	0.44058228	2.8555298
14232997043465	2.7655487	0.2817688	2.8200836
14233002048348	2.7924347	0.10217285	2.7651062
14233007724617	2.7215729	-0.05908203	2.7077026
14233012088631	2.5444183	-0.13970947	2.647812
14233017124031	2.3306122	-0.13117981	2.574524
14233022586678	2.155899	-0.096969604	2.478012
14233027194832	2.0325012	-0.12261963	2.37294
14233030551765	2.0325012	-0.22645569	2.37294
14233037265633	1.7490692	-0.22645569	2.2568817
14233042270515	1.5597076	-0.45614624	2.2580872
14233047336433	1.3825531	-0.48913574	2.267868
14233052402351	1.2542725	-0.45614624	2.2703094
14233057620857	1.1870728	-0.3596344	2.2666473
14233062442635	1.1651001	-0.1971283	2.267868
14233067478035	1.1528625	0.038650513	2.2837524
14233072757576	1.1210938	0.34527588	2.320404
14233077579353	1.1210938	0.70570374	2.371704
14233080905769	1.0563507	0.70570374	2.371704
14233087650154	0.963501	1.089325	2.4266815
14233092655037	0.83766174	1.4741669	2.495102
14233097659920	0.66174316	1.8858795	2.6209564
14233102725838	0.4296112	2.3990173	2.8298492
14233108493660	0.1803894	3.0196533	3.0400085
14233112796639	-0.019973755	3.5523071	3.0583344
14233117862557	-0.14335632	3.6512756	2.710144
14233123294685	-0.25332642	3.0892792	1.9783325
14233127902840	-0.4439087	1.9934082	1.0217133
14233131259773	-0.7420044	0.79489136	0.07121277
14233137973640	-1.0792084	-0.032211304	-0.6837921
14233143039558	-1.3565369	-0.22645569	-1.1688232
14233148135994	-1.5165863	0.18035889	-1.4131622
14233153110359	-1.5691223	0.9402771	-1.5035858
14233159030769	-1.5605621	1.7380676	-1.5170288
14233163120125	-1.5227051	2.320816	-1.4889069
14233168186043	-1.4652557	2.5480652	-1.418045
14233173618172	-1.3919678	2.3806763	-1.2775726
14233178256844	-1.3113403	1.8614502	-1.0442047
14233181613777	-1.3113403	1.0954285	-1.0442047
14233188480232	-1.2013855	1.0954285	-0.37471008
14233193332527	-1.1793823	-0.55511475	-0.042404175
14233198581551	-1.1488495	-1.117096	0.22636414
14233203403328	-1.0804291	-1.3602295	0.41696167
14233209140633	-0.970459	-1.2795868	0.5366821
14233213504646	-0.8507385	-0.950943	0.6014404
14233218509529	-0.76400757	-0.50379944	0.62586975
14233224002693	-0.74324036	-0.068847656	0.62953186
14233228793953	-0.74324036	0.2793274	0.62953186
14233231937264	-0.7859802	0.2793274	0.6344147
14233238986824	-0.8654022	0.5395508	0.65641785
14233243717049	-0.95947266	0.7667694	0.69918823
14233248782967	-1.0645447	1.0319061	0.7529297
14233253787849	-1.189148	1.3874207	0.804245
14233259769295	-1.3174438	1.8357849	0.843338
14233263858650	-1.4139557	2.3256989	0.86654663
14233269260262	-1.4603729	2.7789612	0.88365173
14233274265144	-1.4689331	3.1308289	0.90319824
14233279392098	-1.4664917	3.3605042	0.9276428
14233282321785	-1.4689331	3.479004	0.95085144
14233289432381	-1.4603729	3.5071259	0.9594116
14233294101570	-1.4115143	3.461914	0.94229126
14233300998543	-1.2930145	3.3507385	0.89707947
14233304202889	-1.0926514	3.1589203	0.8274536
14233310214851	-0.8275299	2.863266	0.7321625
14233314212654	-0.54896545	2.4441986	0.60266113
14233319705818	-0.30586243	1.9017639	0.42549133
14233324771736	-0.116485596	1.2896881	0.20559692
14233329654549	0.028884888	0.70570374	-0.04360962
14233332645271	0.028884888	0.2524414	-0.04360962
14233339755867	0.3282013	0.2524414	-0.57995605
14233344394539	0.52856445	-0.23013306	-0.86950684
14233350314949	0.7411499	-0.357193	-1.1676025
14233354526375	0.9182892	-0.42926025	-1.4522552
14233360080574	1.0331421	-0.41705322	-1.6831818
14233364597176	1.0331421	-0.3290863	-1.829773
14233369785164	1.1174469	-0.26678467	-1.8969727
14233375156258	1.3581085	-0.36940002	-1.9360809
14233380374764	1.4803009	-0.6943817	-1.9959412
14233383029793	1.4803009	-1.1659698	-1.9959412
14233390567635	1.5438232	-1.1659698	-2.0863495
14233394748543	1.5438232	-1.6351013	-2.1853027
14233400699471	1.5120544	-1.9930725	-2.270813
14233404849861	1.479065	-2.2032166	-2.3306885
14233415714119	1.4607391	-2.266739	-2.372223
14233420169685	1.4729614	-2.0541534	-2.3441315
14233425021980	1.4937286	-1.8721161	-2.2805939
14233431003426	1.523056	-1.6986389	-2.1840668
14233440982674	1.5939178	-1.4176483	-1.961731
14233445133064	1.6195679	-1.2893677	-1.9018707
14233451022957	1.614685	-1.1623077	-1.9043121
14233455203865	1.562149	-1.0315857	-1.948288
14233460819099	1.4546356	-0.871521	-1.9837189
14233465305183	1.2945862	-0.6565094	-1.9641724
14233471317146	1.0917816	-0.37428284	-1.882309
14233475681160	0.8621063	-0.04319763	-1.756485
14233480747078	0.6238556	0.28053284	-1.6049805
14233483737801	0.6238556	0.52731323	-1.6049805
14233491336678	0.24391174	0.52731323	-1.2299194
14233495548103	0.18647766	0.5285492	-1.0087891
14233501590584	0.21824646	0.23043823	-0.7668915
14233505588387	0.25978088	-0.14215088	-0.48342896
14233511356209	0.23413086	-0.3596344	-0.15357971
14233515659187	0.23413086	-0.23501587	-0.15357971
14233521457527	0.0044403076	-0.23501587	0.4474945
14233526553963	-0.10305786	0.8364258	0.58555603
14233531680916	-0.18122864	1.3825378	0.60510254
14233542209480	-0.30830383	1.7490387	0.4988098
14233545841072	-0.30830383	1.9640808	0.4988098
14233552036140	-0.3791504	1.9640808	0.45117188
14233555911873	-0.4500122	1.8846588	0.3998413
14233561710213	-0.5135498	1.7185059	0.31433105
14233565982674	-0.56729126	1.4961395	0.17626953
14233571811531	-0.5978546	1.2603607	3.5095215E-4
14233576389168	-0.58561707	1.0453491	-0.17434692
14233582279060	-0.5025482	0.8608551	-0.30995178
14233592410896	-0.12136841	0.5224304	-0.4272461
14233596195076	0.11929321	0.33551025	-0.42845154
14233602329109	0.33798218	0.16447449	-0.4138031
14233606265877	0.51268005	0.075286865	-0.3979187
14233611911629	0.6446228	0.10949707	-0.3808136
14233616367195	0.7472534	0.22189331	-0.33683777
14233622897957	0.84010315	0.29641724	-0.23544312
14233626743172	0.9280853	0.236557	-0.06561279
14233632755135	0.9830475	0.039871216	0.13717651
14233642856453	0.85354614	-0.2288971	0.34732056
14233646610115	0.7228241	-0.7090454	0.28256226
14233652774666	0.6678314	-0.90208435	0.1823883
14233656650398	0.6678314	-1.1048889	0.1823883
14233662753914	0.8804321	-1.1048889	0.21047974
14233666721199	0.8804321	-1.5275879	0.21047974
14233673343514	1.1626587	-1.5275879	0.60266113
14233677646492	1.2457275	-1.754837	0.8616638
14233683048103	1.2799225	-1.8061523	1.1292114
14233693210457	1.2457275	-1.8501434	1.4871826
14233696933601	1.1223297	-1.8501434	1.4871826
14233703403328	0.92440796	-1.702301	1.49086
14233706973885	0.705719	-1.3419037	1.4175568
14233713138435	0.52124023	-0.8422241	1.3576813
14233717075203	0.38928223	-0.3914032	1.3540192
14233723422859	0.28666687	-0.13117981	1.3735657
14233727634285	0.19136047	-0.033432007	1.345459
14233732211922	0.099731445	0.052093506	1.2355194
14233735477303	0.028884888	0.25	1.0595856
14233742252205	0.0019989014	0.5713196	0.86898804
14233747257088	0.024002075	0.92071533	0.7162781
14233752292488	0.08630371	1.1748352	0.62342834
14233757327889	0.16694641	1.2676849	0.57089233
14233762698982	0.25123596	1.2261505	0.5244751
14233767398689	0.3269806	1.1418457	0.46705627
14233773959969	0.38928223	1.0856476	0.4132843
14233777805183	0.43937683	1.0563202	0.39863586
14233782565926	0.49191284	1.0111389	0.4401703
14233785892342	0.49191284	0.9268341	0.4401703
14233792636726	0.6079712	0.9268341	0.62709045
14233797611092	0.6079712	0.67637634	0.7187195
14233802677010	0.63853455	0.5236664	0.7187195
14233807681892	0.63609314	0.5236664	0.8030243
14233813052986	0.61164856	0.34162903	0.8909912
14233819583748	0.57865906	0.12538147	1.0974579
14233824466560	0.587204	-0.2924347	1.1365356
14233827854012	0.587204	-0.38528442	1.1365356
14233834171150	0.59088135	-0.38528442	0.8628845
14233842929695	0.5920868	-0.2850952	0.67230225
14233848026131	0.6152954	-0.21791077	0.57455444
14233853031014	0.65197754	-0.20568848	0.57211304
14233858066414	0.6739502	-0.23257446	0.5965576
14233863590096	0.6629486	-0.24967957	0.60388184
14233868137215	0.6287384	-0.23135376	0.60266113
14233873142098	0.5835571	-0.18736267	0.60754395
14233879093025	0.52978516	-0.15194702	0.60876465
14233883243416	0.48580933	-0.14950562	0.5831146
14233886539314	0.5175781	-0.16903687	0.5110321
14233893314217	0.7020569	-0.18492126	0.36442566
14233898349617	1.0184784	-0.18371582	0.1164093
14233903385017	1.3165741	-0.17391968	-0.18167114
14233908420418	1.4179993	-0.15559387	-0.4028015
14233913944099	1.260376	-0.12870789	-0.4406891
14233918521736	0.9122009	-0.11894226	-0.32095337
14233923526619	0.48947144	-0.15927124	-0.17311096
14233929385994	0.080200195	-0.23867798	-0.10470581
14233933627937	-0.26185608	-0.28388977	-0.10958862
14233936954353	-0.26185608	-0.21791077	-0.10958862
14233943790291	-0.54408264	-0.21791077	-0.031402588
14233948734139	-0.54408264	0.1693573	-0.031402588
14233953830574	-0.4475708	0.1693573	0.117630005
14233958804939	-0.25209045	0.3343048	0.27278137
14233964328621	-0.056625366	0.40393066	0.35830688
14233968845223	0.043548584	0.37094116	0.34976196
14233973911140	0.009338379	0.25976563	0.26669312
14233979801033	-0.12870789	0.12294006	0.14938354
14233984042976	-0.30830383	0.014221191	0.027236938
14233987338875	-0.46957397	-0.03831482	-0.0851593
14233994022224	-0.57341003	-0.04319763	-0.17311096
14233999027107	-0.6039429	-0.029769897	-0.23052979
14234004093025	-0.56240845	-0.035873413	-0.26109314
14234009097908	-0.47077942	-0.08352661	-0.27697754
14234015018318	-0.37304688	-0.15927124	-0.29162598
14234019199226	-0.30830383	-0.22401428	-0.30873108
14234024265144	-0.28997803	-0.23989868	-0.32217407
14234030155037	-0.30706787	-0.20080566	-0.32583618
14234034305428	-0.34371948	-0.12506104	-0.3123932
14234037601326	-0.34371948	-0.03465271	-0.28674316
14234044376228	-0.44145203	0.067977905	-0.26597595
14234049442146	-0.48666382	0.17546082	-0.25865173
14234054416512	-0.51475525	0.26220703	-0.26597595
14234059482430	-0.5233154	0.30497742	-0.27330017
14234064975594	-0.5111084	0.29885864	-0.27697754
14234069522713	-0.481781	0.2548828	-0.27453613
14234074588631	-0.4512329	0.19622803	-0.25865173
14234079990242	-0.4329071	0.14614868	-0.21832275
14234084659432	-0.4316864	0.12538147	-0.15478516
14234087985848	-0.4316864	0.13392639	-0.15478516
14234094730232	-0.442688	0.13392639	-0.08760071
14234099735115	-0.4646759	0.15715027	-0.04484558
14234104770515	-0.4976654	0.1876831	-0.026519775
14234109836433	-0.54408264	0.2341156	-0.019195557
14234115238045	-0.60639954	0.31718445	-0.010650635
14234119876717	-0.69070435	0.46868896	-0.010650635
14234124942635	-0.805542	0.73135376	-0.04484558
14234130405281	-0.93992615	1.1491852	-0.15846252
14234135013435	-1.0694427	1.7246246	-0.383255
14234138370369	-1.1573944	2.3916779	-0.7241211
14234145053719	-1.189148	3.0257416	-1.1297302
14234150089119	-1.180603	3.499771	-1.5194702
14234155155037	-1.1622772	3.7416992	-1.8285522
14234160190437	-1.1512909	3.7209015	-2.0423584
14234165927742	-1.1317444	3.4387054	-2.18898
14234170230721	-1.0682068	2.9658813	-2.2781525
14234175296639	-0.93136597	2.44664	-2.2830353
14234180606697	-0.72612	2.0312653	-2.1584167
14234185336922	-0.495224	1.766159	-1.895752
14234188754890	-0.495224	1.5890045	-1.895752
14234195499275	-0.15679932	1.5890045	-1.1908264
14234200626228	-0.068847656	1.2310333	-0.9073639
14234205478523	0.011779785	1.023346	-0.72288513
14234210513924	0.12294006	0.79489136	-0.6239319
14234216007088	0.26345825	0.54808044	-0.57751465
14234220615242	0.40516663	0.30618286	-0.56285095
14234225620125	0.5187988	0.1058197	-0.56895447
14234231113289	0.59088135	-0.028549194	-0.5860596
14234235690926	0.59088135	-0.10185242	-0.5860596
14234239047859	0.626297	-0.10185242	-0.6043854
14234245792244	0.64097595	-0.14826965	-0.6214905
14234250827644	0.66174316	-0.21913147	-0.6422577
14234255863045	0.70939636	-0.34007263	-0.66426086
14234260898445	0.79000854	-0.48669434	-0.67770386
14234266330574	0.88531494	-0.5990906	-0.6715851
14234270938728	0.96717834	-0.627182	-0.641037
14234275974129	1.0062561	-0.54533386	-0.5872803
14234281375740	0.9940491	-0.36819458	-0.51519775
14234286075447	0.9476166	-0.15071106	-0.4406891
14234289371346	0.89508057	0.04109192	-0.3856964
14234296146248	0.85842896	0.15959167	-0.35882568
14234301425789	0.8462219	0.1999054	-0.35394287
14234306156014	0.84866333	0.19746399	-0.35394287
14234311221932	0.8498688	0.1876831	-0.3478241
14234316593025	0.8388977	0.17669678	-0.33805847
14234321292732	0.8132324	0.14492798	-0.32095337
14234326328133	0.76802063	0.091171265	-0.28918457
14234331607674	0.6861725	0.05329895	-0.23664856
14234336398933	0.5493469	0.075286865	-0.16822815
14234339755867	0.5493469	0.14492798	-0.16822815
14234346469734	0.15715027	0.14492798	-0.057052612
14234351505135	-0.028533936	0.24876404	-0.035079956
14234356571053	-0.17268372	0.2475586	-0.02772522
14234361575935	-0.2667694	0.20600891	-0.026519775
14234366885994	-0.31318665	0.09849548	-0.025283813
14234371646736	-0.31318665	-0.08717346	-0.022842407
14234376682137	-0.31318665	-0.3315277	-0.02407837
14234381931160	-0.28874207	-0.3315277	-0.026519775
14234386752937	-0.26553345	-0.8531952	-0.026519775
14234390140389	-0.27165222	-0.8531952	-0.028961182
14234396823738	-0.31930542	-1.0645599	-0.028961182
14234401859139	-0.4096985	-1.2050629	-0.026519775
14234406894539	-0.53063965	-1.261261	-0.019195557
14234411929939	-0.64915466	-1.2392731	-0.0069732666
14234417484139	-0.7236786	-1.1549835	0.0052337646
14234422031258	-0.7468872	-1.0218048	0.010116577
14234427066658	-0.7542114	-0.8666382	-0.0082092285
14234432498787	-0.7823334	-0.71881104	-0.049728394
14234437106941	-0.8238678	-0.59664917	-0.102264404
14234440463875	-0.8373108	-0.49523926	-0.14746094
14234447238777	-0.8006592	-0.4048462	-0.17678833
14234452182625	-0.7358856	-0.33763123	-0.20367432
14234457248543	-0.67848206	-0.3070984	-0.24397278
14234462283943	-0.64305115	-0.3083191	-0.2989502
14234467777107	-0.61738586	-0.32054138	-0.35882568
14234472385262	-0.57463074	-0.31809998	-0.4113617
14234477420662	-0.4903412	-0.2985382	-0.45289612
14234483249519	-0.36816406	-0.28633118	-0.48466492
14234487521980	-0.22520447	-0.316864	-0.50175476
14234490909432	-0.22520447	-0.39993286	-0.50175476
14234497562264	0.0667572	-0.39993286	-0.4797821
14234502567146	0.22192383	-0.6027374	-0.4455719
14234507694099	0.3929596	-0.6589508	-0.40647888
14234512668465	0.57865906	-0.6882782	-0.3649292
14234518436287	0.7729187	-0.7090454	-0.32339478
14234522708748	0.7729187	-0.7310333	-0.32339478
14234527774666	0.95983887	-0.7310333	-0.28674316
14234533054207	1.1210938	-0.75914	-0.27209473
14234537814949	1.2469482	-0.81166077	-0.29040527
14234541171883	1.3373413	-0.9081726	-0.3331604
14234547885750	1.4008789	-1.0474701	-0.3710327
14234552951668	1.4387665	-1.208725	-0.3783722
14234557956551	1.4472961	-1.3638763	-0.34172058
14234563022469	1.4192047	-1.4897308	-0.26229858
14234568485115	1.3459015	-1.5935669	-0.13157654
14234573093269	1.2249603	-1.6998596	0.051651
14234578128670	1.0673523	-1.8427887	0.23736572
14234584018562	0.9134064	-2.0321808	0.32899475
14234588199471	0.81077576	-2.2264252	0.25689697
14234591525887	0.7888031	-2.335144	0.050445557
14234598361824	0.82421875	-2.2740784	-0.18045044
14234603336189	0.86331177	-2.0162964	-0.34172058
14234608310555	0.8596649	-1.6021271	-0.40402222
14234613376473	0.797348	-1.1012115	-0.39179993
14234618900154	0.6825104	-0.5661011	-0.3453827
14234623477791	0.53956604	-0.045639038	-0.29774475
14234628482674	0.39172363	0.40881348	-0.26597595
14234634372566	0.26956177	0.7460022	-0.251297
14234638553474	0.19015503	0.9304962	-0.24520874
14234641940926	0.19015503	0.9586029	-0.24520874
14234648715828	0.16326904	0.9586029	-0.21832275
14234653629158	0.19871521	0.68981934	-0.20367432
14234658664558	0.25857544	0.4992218	-0.20243835
14234663730476	0.34042358	0.34283447	-0.22200012
14234669071053	0.4430542	0.24511719	-0.25621033
14234673801277	0.4430542	0.19502258	-0.25621033
14234678806160	0.55911255	0.19502258	-0.29286194
14234684207771	0.67762756	0.1534729	-0.317276
14234688907478	0.7814636	0.083847046	-0.32583618
14234692264412	0.8498688	-0.015106201	-0.31607056
14234699039314	0.86698914	-0.11773682	-0.29040527
14234704013680	0.8303375	-0.19224548	-0.24765015
14234709018562	0.7472534	-0.22645569	-0.18778992
14234714053963	0.6324158	-0.23989868	-0.12425232
14234719394539	0.48703003	-0.26556396	-0.07171631
14234724155281	0.32087708	-0.3132019	-0.042404175
14234729160164	0.15350342	-0.36695862	-0.033843994
14234734531258	0.0154418945	-0.40361023	-0.033843994
14234739230965	-0.07373047	-0.41461182	-0.033843994
14234742618416	-0.1177063	-0.409729	-0.030166626
14234749301765	-0.12992859	-0.4072876	-0.022842407
14234754367683	-0.12503052	-0.41949463	-0.013092041
14234759403084	-0.11282349	-0.45370483	-8.8500977E-4
14234764438484	-0.09449768	-0.50868225	0.010116577
14234769931648	-0.0700531	-0.5819702	0.019897461
14234774509285	-0.039535522	-0.66018677	0.028442383
14234779514168	-0.008987427	-0.7285919	0.038223267
14234785434578	0.0178833	-0.76890564	0.052886963
14234789584969	0.034988403	-0.7762451	0.07487488
14234792941902	0.034988403	-0.7615814	0.07487488
14234799686287	0.036209106	-0.7615814	0.12861633
14234804721687	-4.4250488E-4	-0.77134705	0.1481781
14234809726570	-4.4250488E-4	-0.8397522	0.14938354
14234814792488	-0.083496094	-0.8397522	0.14938354
14234820316170	-0.26065063	-0.9423828	0.12741089
14234824863289	-0.26065063	-1.0254669	0.12741089
14234829898689	-0.23988342	-1.0254669	0.1347351
14234835361336	-0.1519165	-0.9142914	0.15673828
14234839969490	-0.067611694	-0.73469543	0.17506409
14234843295906	-0.037094116	-0.55999756	0.18115234
14234850009773	-0.051742554	-0.44026184	0.17382813
14234855045174	-0.079833984	-0.37428284	0.1616211
14234860080574	-0.10914612	-0.32418823	0.1481781
14234865146492	-0.14703369	-0.25700378	0.13841248
14234870456551	-0.198349	-0.16415405	0.131073
14234875217293	-0.26185608	-0.065200806	0.12741089
14234880222176	-0.3327179	0.016662598	0.12496948
14234885562752	-0.40115356	0.07286072	0.11885071
14234890292976	-0.45489502	0.11315918	0.10784912
14234893649910	-0.4842224	0.14736938	0.09075928
14234900394295	-0.4927826	0.17424011	0.07243347
14234905399178	-0.4927826	0.1864624	0.05532837
14234910434578	-0.495224	0.1876831	0.04676819
14234915469978	-0.5049896	0.19012451	0.04800415
14234920963142	-0.51475525	0.20478821	0.057769775
14234925571297	-0.52211	0.23287964	0.07853699
14234930576180	-0.53063965	0.2683258	0.110305786
14234936344002	-0.54896545	0.30618286	0.1481781
14234940677498	-0.5819702	0.34527588	0.1933899
14234944003914	-0.5819702	0.38682556	0.1933899
14234950717781	-0.67481995	0.38682556	0.29478455
14234955783699	-0.67481995	0.467453	0.33631897
14234960819099	-0.7175598	0.467453	0.33631897
14234965854500	-0.75665283	0.50289917	0.35830688
14234971347664	-0.79577637	0.53222656	0.35342407
14234975925301	-0.8263092	0.5517578	0.33143616
14234980930183	-0.8397522	0.5566406	0.30455017
14234986453865	-0.832428	0.54808044	0.28378296
14234991000984	-0.8104248	0.5371094	0.26669312
14234994418953	-0.7835388	0.5407562	0.25569153
14235001071785	-0.75912476	0.5762024	0.25569153
14235006137703	-0.739563	0.64216614	0.27278137
14235011142586	-0.7224579	0.725235	0.30699158
14235016208504	-0.70658875	0.80589294	0.34976196
14235021701668	-0.69070435	0.8755188	0.38763428
14235026248787	-0.6760254	0.94148254	0.4132843
14235031314705	-0.6699219	1.0135803	0.43040466
14235036624764	-0.67237854	1.0905304	0.4450531
14235041354988	-0.67970276	1.1650696	0.45970154
14235044742439	-0.67970276	1.2273712	0.46705627
14235051456307	-0.66015625	1.2615662	0.45970154
14235056491707	-0.61128235	1.2481537	0.43528748
14235061496590	-0.54776	1.1821747	0.3973999
14235066562508	-0.4976654	1.0929871	0.34976196
14235071903084	-0.48910522	1.0245819	0.30088806
14235076663826	-0.52575684	0.9928131	0.24957275
14235081638191	-0.59906006	0.97203064	0.20315552
14235087375496	-0.6858063	0.92071533	0.17382813
14235091708992	-0.7603302	0.8327484	0.17015076
14235095065926	-0.7603302	0.7484436	0.17015076
14235101779793	-0.79333496	0.7484436	0.18359375
14235106845711	-0.77500916	0.71302795	0.1958313
14235111850594	-0.71391296	0.72158813	0.18971252
14235116947029	-0.6381531	0.71424866	0.16894531
14235122409676	-0.57463074	0.6226196	0.1481781
14235126987312	-0.5404358	0.43692017	0.13595581
14235131992195	-0.5367584	0.2157898	0.131073
14235137882088	-0.54896545	0.038650513	0.131073
14235142062996	-0.5563202	-0.056640625	0.1335144
14235145419930	-0.5502014	-0.09451294	0.14450073
14235152164314	-0.53308105	-0.11894226	0.1640625
14235157199715	-0.5135498	-0.16171265	0.18847656
14235162204598	-0.508667	-0.2130127	0.21903992
14235167270515	-0.5367584	-0.22525024	0.25935364
14235172763680	-0.6039429	-0.14826965	0.30944824
14235177341316	-0.6894684	0.022766113	0.3631897
14235182346199	-0.76156616	0.22555542	0.4108429
14235187839363	-0.7969818	0.37704468	0.4426117
14235192447517	-0.79577637	0.4332428	0.4560547
14235195773933	-0.79577637	0.40637207	0.45361328
14235202518318	-0.739563	0.40637207	0.43893433
14235207553719	-0.7053528	0.26220703	0.4181671
14235212558601	-0.6760254	0.2011261	0.3973999
14235217594002	-0.65771484	0.1559143	0.3815155
14235222934578	-0.6528168	0.11805725	0.36930847
14235227664803	-0.66015625	0.07896423	0.36198425
14235232730721	-0.6760254	0.04109192	0.3607483
14235238010262	-0.7077942	0.013000488	0.37297058
14235242771004	-0.7077942	-0.0028839111	0.3998413
14235246158455	-0.7627716	-0.0028839111	0.3998413
14235252872322	-0.8360748	-0.019989014	0.43528748
14235257877205	-0.9142761	-0.06640625	0.46217346
14235262973640	-0.9912262	-0.17759705	0.47070313
14235267948006	-1.0743256	-0.36328125	0.4633789
14235273746346	-1.1696167	-0.601532	0.44873047
14235278049324	-1.2612457	-0.85687256	0.42796326
14235283054207	-1.307663	-1.1000061	0.39007568
14235288425301	-1.2722473	-1.3211365	0.32899475
14235293125008	-1.1500549	-1.5166016	0.24713135
14235296512459	-0.98757935	-1.6888733	0.15917969
14235303195808	-0.858078	-1.8330231	0.0834198
14235309543465	-0.8018646	-1.9380951	0.034561157
14235313266609	-0.8018646	-1.9845276	0.01499939
14235318393562	-0.80674744	-1.973526	0.013793945
14235323795174	-0.7823334	-1.9210052	0.010116577
14235328372810	-0.739563	-1.8464661	-0.0069732666
14235333438728	-0.7077942	-1.7487335	-0.030166626
14235338931892	-0.69314575	-1.6216583	-0.04850769
14235343479012	-0.67970276	-1.4762878	-0.057052612
14235346896980	-0.67970276	-1.347992	-0.057052612
14235353610848	-0.586853	-1.347992	-0.066833496
14235358615730	-0.50743103	-1.2539368	-0.06437683
14235363651131	-0.4145813	-1.2710419	-0.04850769
14235368656014	-0.31195068	-1.2930298	-0.022842407
14235374576424	-0.20689392	-1.3088989	0.0027923584
14235378726814	-0.111587524	-1.3186951	0.017440796
14235383792732	-0.028533936	-1.3150177	0.017440796
14235389163826	0.048431396	-1.2881317	3.5095215E-4
14235393863533	0.048431396	-1.235611	3.5095215E-4
14235397342537	0.12294006	-1.235611	-0.033843994
14235403934334	0.18403625	-1.1781921	-0.079055786
14235408939217	0.21704102	-1.1268616	-0.13157654
14235414005135	0.20115662	-1.0731201	-0.19023132
14235419040535	0.12541199	-0.9973755	-0.26109314
14235424350594	-4.4250488E-4	-0.8959656	-0.344162
14235429172371	-0.12747192	-0.75668335	-0.4015808
14235434116219	-0.18856812	-0.5526581	-0.3808136
14235439884041	-0.1482544	-0.27044678	-0.26229858
14235444187019	-0.03465271	0.0496521	-0.077819824
14235447818611	0.08508301	0.32695007	0.121292114
14235454288338	0.16694641	0.494339	0.29844666
14235459293221	0.21824646	0.5285492	0.44628906
14235464359139	0.26956177	0.45280457	0.5672302
14235469364021	0.33918762	0.33062744	0.66374207
14235475253914	0.41984558	0.24021912	0.74072266
14235479465340	0.48703003	0.23287964	0.7993469
14235484500740	0.5163574	0.29273987	0.83721924
14235489841316	0.4955902	0.36727905	0.8604431
14235494571541	0.44181824	0.4124756	0.88243103
14235498660896	0.38684082	0.43569946	0.9178467
14235504611824	0.34898376	0.47601318	0.9789429
14235509677742	0.32453918	0.5676422	1.0583649
14235514713142	0.2952118	0.7044678	1.1377716
14235519718025	0.25001526	0.84742737	1.1976318
14235525272224	0.20115662	0.9659271	1.2294006
14235529819344	0.16326904	1.0477905	1.2355194
14235534824226	0.16326904	1.0990906	1.2355194
14235540317390	0.08508301	1.0990906	1.1878662
14235544895027	0.08508301	1.1479645	1.1878662
14235549350594	0.020324707	1.1479645	1.1438904
14235554996346	-0.044418335	1.1784973	1.10112
14235560001228	-0.08105469	1.2175903	1.0730286
14235565067146	-0.079833984	1.2285919	1.0669098
14235570102547	-0.04685974	1.167511	1.0779114
14235575626228	0.011779785	1.02211	1.1023407
14235580142830	0.08996582	0.8217621	1.1353302
14235585208748	0.17059326	0.6067352	1.1781006
14235590549324	0.24269104	0.39904785	1.233078
14235595249031	0.28910828	0.21699524	1.3124847
14235599460457	0.28422546	0.10217285	1.4322052
14235605319832	0.20359802	0.11071777	1.6056824
14235610355232	0.04232788	0.27809143	1.8317108
14235615421150	-0.16290283	0.59817505	2.0833893
14235620426033	-0.34739685	1.0331116	2.337494
14235626193855	-0.45368958	1.5205841	2.5855103
14235630588387	-0.4646759	1.998291	2.837204
14235635532234	-0.4206848	2.3990173	3.0974274
14235641300057	-0.42192078	2.6604462	3.339325
14235645633553	-0.5502014	2.7667542	3.5250244
14235649906014	-0.77500916	2.7789612	3.6178741
14235655704353	-0.95092773	2.7740784	3.5812225
14235660739754	-0.9301605	2.7337494	3.417511
14235665744637	-0.68092346	2.540741	3.1817322
14235670841072	-0.27774048	2.120453	2.953247
14235676242683	0.17182922	1.5474701	2.7785492
14235680850838	0.17182922	0.9878998	2.7785492
14235685916756	0.58110046	0.9878998	2.6380463
14235691196297	0.88531494	0.5762024	2.5
14235695987557	1.0502472	0.35139465	2.350937
14235700321053	1.0795593	0.27320862	2.198227
14235706088875	1.0123749	0.26708984	2.0381775
14235711124275	0.89875793	0.25608826	1.8683624
14235716129158	0.7729187	0.19868469	1.7022247
14235721164558	0.6483002	0.10461426	1.5653839
14235726657723	0.52490234	0.014221191	1.477417
14235731204842	0.4112854	-0.02609253	1.4456482
14235736270760	0.3282013	-0.0041046143	1.4590912
14235741580818	0.30255127	0.048416138	1.4920654
14235746311043	0.33918762	0.07772827	1.5116272
14235749667976	0.42349243	0.05821228	1.5042877
14235756442879	0.5334625	0.010559082	1.4786224
14235761417244	0.65930176	-0.029769897	1.4554138
14235766483162	0.7949066	-0.048080444	1.451767
14235771488045	0.9280853	-0.045639038	1.4627533
14235777225349	1.0502472	-0.024871826	1.4712982
14235781650398	1.1467743	0.013000488	1.4602966
14235786594246	1.212738	0.059417725	1.424881
14235792056892	1.2408295	0.09484863	1.3650208
14235796695564	1.2200623	0.1058197	1.2880402
14235801242683	1.1492157	0.09605408	1.1976318
14235806766365	1.0368042	0.08016968	1.10112
14235811771248	0.90852356	0.06430054	0.9972687
14235816837166	0.7924652	0.03742981	0.8885498
14235821933601	0.7924652	-0.02243042	0.7785797
14235827579353	0.6470642	-0.12261963	0.67962646
14235831943367	0.6470642	-0.24967957	0.67962646
14235836948250	0.6214142	-0.24967957	0.60266113
14235842288826	0.6214142	-0.37184143	0.54156494
14235847049568	0.6421814	-0.46714783	0.48538208
14235852054451	0.67274475	-0.52822876	0.42549133
14235857089851	0.7081604	-0.55755615	0.36198425
14235862491463	0.7496948	-0.5563202	0.30210876
14235867191170	0.80101013	-0.52456665	0.25445557
14235872226570	0.85354614	-0.46470642	0.21780396
14235878085945	0.8963165	-0.39260864	0.18482971
14235882266853	0.92440796	-0.3119812	0.15306091
14235887302254	0.9317322	-0.21913147	0.12617493
14235892764900	0.91464233	-0.107940674	0.0993042
14235897403572	0.8657532	0.0154418945	0.06387329
14235900699471	0.79000854	0.1351471	0.012557983
14235907474373	0.7020569	0.2316742	-0.04850769
14235912509773	0.62509155	0.29885864	-0.10470581
14235917545174	0.57499695	0.34527588	-0.14013672
14235922550057	0.55545044	0.38926697	-0.14990234
14235928104256	0.57011414	0.43569946	-0.13157654
14235932620857	0.62020874	0.47113037	-0.08149719
14235937686775	0.692276	0.480896	0.008911133
14235943393562	0.7606964	0.49189758	0.15673828
14235947727058	0.7961273	0.5835266	0.3631897
14235951145027	0.7961273	0.8181	0.3631897
14235957797859	0.719162	0.8181	0.7736969
14235962863777	0.60920715	1.5352631	0.8262329
14235967899178	0.60920715	1.7856903	0.8262329
14235972965096	0.46014404	1.7856903	0.73583984
14235978763435	0.12541199	1.8748932	0.31188965
14235983035896	0.12541199	1.67453	0.31188965
14235988071297	-0.0065460205	1.67453	0.1005249
14235993869637	-0.09938049	1.4949341	-0.066833496
14235998142098	-0.16046143	1.3324432	-0.18167114
14236001499031	-0.19589233	1.2151489	-0.24885559
14236008243416	-0.21299744	1.1516266	-0.27453613
14236013217781	-0.22644043	1.1455231	-0.27209473
14236018283699	-0.25820923	1.2127075	-0.25741577
14236023288582	-0.31684875	1.3544312	-0.25741577
14236029147957	-0.39137268	1.5230255	-0.2806244
14236033328865	-0.4475708	1.6403198	-0.31973267
14236038364265	-0.45977783	1.6317596	-0.3600464
14236043674324	-0.4182434	1.4729309	-0.3856964
14236048435066	-0.34007263	1.2102661	-0.39179993
14236051822517	-0.25820923	0.9427185	-0.3759308
14236058536385	-0.20567322	0.764328	-0.33683777
14236063541267	-0.19223022	0.7069092	-0.27697754
14236068576668	-0.19955444	0.725235	-0.19143677
14236073642586	-0.18978882	0.738678	-0.074157715
14236079166267	-0.12747192	0.69470215	0.08708191
14236083682869	-4.4250488E-4	0.60917664	0.30210876
14236088748787	0.17303467	0.533432	0.55622864
14236094547127	0.35751343	0.5016632	0.8079071
14236098789070	0.52124023	0.51634216	1.0082703
14236102146004	0.52124023	0.546875	1.0082703
14236108890389	0.7704773	0.546875	1.1903076
14236113895271	0.7704773	0.5395508	1.1903076
14236118961189	0.87675476	0.5395508	1.2025146
14236123996590	0.97694397	0.4796753	1.1951904
14236129489754	1.0710144	0.40270996	1.1731873
14236134189461	1.1540985	0.3343048	1.1292114
14236139102791	1.2176208	0.2976532	1.0547028
14236145084236	1.2493896	0.2952118	0.95085144
14236149173592	1.2420502	0.31962585	0.8286743
14236152500008	1.1931915	0.35383606	0.6942749
14236159244392	1.1113281	0.37704468	0.5489044
14236164249275	1.002594	0.37583923	0.39375305
14236169315193	0.87187195	0.35263062	0.2300415
14236174381111	0.7240448	0.32450867	0.06021118
14236180026863	0.55667114	0.315979	-0.110809326
14236184543465	0.37219238	0.33918762	-0.27085876
14236189426277	0.17427063	0.40393066	-0.4089203
14236195133064	-0.023651123	0.507782	-0.522522
14236199497078	-0.20567322	0.62750244	-0.6227112
14236202854012	-0.35960388	0.725235	-0.7290039
14236209567879	-0.48054504	0.7667694	-0.83895874
14236214603279	-0.57585144	0.7545624	-0.93548584
14236219669197	-0.64915466	0.7276764	-0.99534607
14236224857185	-0.69924927	0.72647095	-1.0087891
14236230167244	-0.7151184	0.7704468	-0.9757843
14236234805916	-0.6882477	0.8510742	-0.90859985
14236239810799	-0.62472534	0.9476013	-0.82063293
14236245334480	-0.5404358	1.0453491	-0.7351227
14236249851082	-0.4610138	1.1320801	-0.6667023
14236253208015	-0.4610138	1.2053833	-0.6667023
14236259921883	-0.4170227	1.2053833	-0.6202698
14236264987801	-0.4304657	1.2750092	-0.588501
14236269992683	-0.5049896	1.3544312	-0.56529236
14236275028084	-0.62472534	1.4521637	-0.54208374
14236280521248	-0.7542114	1.5511322	-0.52008057
14236285220955	-0.8495178	1.617096	-0.50175476
14236290134285	-0.87028503	1.6109924	-0.48587036
14236296146248	-0.79577637	1.5169373	-0.47122192
14236300205086	-0.63204956	1.3385468	-0.45533752
14236303592537	-0.4109192	1.0990906	-0.4406891
14236310275887	-0.17878723	0.8339844	-0.4321289
14236315311287	0.008117676	0.5945282	-0.42601013
14236320377205	0.07896423	0.43569946	-0.4162445
14236325412605	-0.02609253	0.40026855	-0.383255
14236330692146	-0.31930542	0.4772339	-0.317276
14236335849617	-0.74568176	0.585968	-0.23908997
14236340488289	-1.1977081	0.5884094	-0.20611572
14236346561287	-1.5691223	0.36727905	-0.27818298
14236350559090	-1.7926941	-0.096969604	-0.46878052
14236353916023	-1.7926941	-0.7114868	-0.46878052
14236360629890	-1.7523651	-0.7114868	-0.9709015
14236365695808	-1.5691223	-1.8024902	-1.1285095
14236370731209	-1.3455505	-2.0700378	-1.1773834
14236376163338	-1.1097412	-2.104248	-1.1272888
14236381381844	-0.87272644	-1.9454346	-0.9977875
14236385928963	-0.66015625	-1.6668701	-0.8108673
14236390842293	-0.5049896	-1.3370209	-0.59339905
14236396732185	-0.4280243	-0.9741516	-0.3685913
14236400913094	-0.4280243	-0.5722046	-0.3685913
14236404270027	-0.4170227	-0.5722046	-0.14379883
14236410983894	-0.43901062	-0.13850403	0.08831787
14236416202400	-0.45977783	0.29641724	0.32409668
14236421085213	-0.468338	0.69592285	0.546463
14236426303719	-0.48054504	1.0343475	0.73828125
14236431552742	-0.51475525	1.3092194	0.89219666
14236436771248	-0.5795288	1.5230255	1.0107117
14236441196297	-0.6540375	1.67453	1.088913
14236446475838	-0.69802856	1.7527161	1.1121216
14236451236580	-0.66625977	1.7465973	1.0730286
14236454624031	-0.520874	1.6598663	0.9862671
14236461368416	-0.24597168	1.5071411	0.88487244
14236466617439	0.13150024	1.3080139	0.7969055
14236471408699	0.54200745	1.0807648	0.7284851
14236476749275	0.9024048	0.8523102	0.664978
14236481876228	1.1479797	0.64704895	0.5806732
14236487399910	1.2579346	0.4784546	0.4584961
14236491550301	1.2420502	0.32818604	0.28378296
14236497257088	1.1101227	0.16203308	0.061431885
14236501651619	0.870636	-0.035873413	-0.19387817
14236504978035	0.870636	-0.264328	-0.19387817
14236511691902	0.11685181	-0.264328	-0.6874695
14236517368172	-0.33517456	-0.6956024	-0.86338806
14236521762703	-0.7810974	-0.82266235	-0.9757843
14236527652596	-1.1818237	-0.87031555	-1.0344391
14236532077644	-1.5117035	-0.86299133	-1.0649719
14236537845467	-1.7511597	-0.8287811	-1.0845337
14236541873787	-1.7511597	-0.77500916	-1.0967407
14236547550057	-1.906311	-0.6943817	-1.0906372
14236551975105	-1.906311	-0.5905304	-1.0906372
14236555362557	-1.8110199	-0.5905304	-1.0503235
14236562045906	-1.6069946	-0.49035645	-0.97213745
14236567966316	-1.3198853	-0.4256134	-0.74365234
14236572116707	-0.98757935	-0.4121704	-0.74365234
14236578342293	-0.66137695	-0.43414307	-0.52008057
14236582584236	-0.39015198	-0.45492554	-0.52008057
14236588138435	-0.19955444	-0.43904114	-0.4162445
14236592258308	-0.08961487	-0.37428284	-0.3111725
14236598789070	-0.059066772	-0.2618866	-0.20611572
14236602359627	-0.12626648	-0.09941101	-0.098587036
14236605655525	-0.3009796	0.12660217	0.021118164
14236612430428	-0.55140686	0.41125488	0.17015076
14236617984627	-0.7859802	0.70570374	0.34976196
14236622470711	-0.90571594	0.9280548	0.5305786
14236628635262	-0.8592987	1.0111389	0.66130066
14236632999275	-0.6711426	0.92559814	0.7126007
14236638553474	-0.4121399	0.69104004	0.7003937
14236642612312	-0.15557861	0.37216187	0.6710663
14236649265144	0.050872803	0.047210693	0.65641785
14236652713631	0.19992065	-0.23013306	0.65885925
14236656040047	0.19992065	-0.46591187	0.65885925
14236662784432	0.38563538	-0.46591187	0.67230225
14236668613289	0.4161682	-0.88375854	0.68330383
14236672824715	0.38807678	-1.0218048	0.6967163
14236678653572	0.29154968	-1.0657959	0.70162964
14236683109139	0.12905884	-1.003479	0.67962646
14236689151619	-0.083496094	-0.8422241	0.6173248
14236692966316	-0.083496094	-0.6027374	0.6173248
14236698978279	-0.5367584	-0.6027374	0.39375305
14236703037117	-0.5367584	-0.0786438	0.39375305
14236706424568	-0.7053528	-0.0786438	0.26545715
14236713107918	-0.805542	0.09849548	0.1481781
14236719058846	-0.84095764	0.1864624	0.045547485
14236723209236	-0.8263092	0.2023468	-0.04484558
14236729617928	-0.77989197	0.1693573	-0.123031616
14236733493660	-0.7187958	0.10461426	-0.18778992
14236739871834	-0.64671326	0.020324707	-0.23788452
14236743320320	-0.5587616	-0.076187134	-0.27209473
14236749301765	-0.4585724	-0.18125916	-0.28674316
14236753391121	-0.35960388	-0.28633118	-0.27330017
14236756748055	-0.28141785	-0.37428284	-0.22688293
14236763461922	-0.23010254	-0.43049622	-0.15357971
14236769534920	-0.19100952	-0.45858765	-0.066833496
14236773532723	-0.14213562	-0.48179626	0.019897461
14236780124519	-0.07861328	-0.51478577	0.105407715
14236784030769	-0.02609253	-0.5404358	0.18847656
14236788669441	-0.01020813	-0.52822876	0.26545715
14236793674324	-0.051742554	-0.46835327	0.32533264
14236799503182	-0.14459229	-0.38772583	0.35342407
14236803745125	-0.27041626	-0.31809998	0.34120178
14236807102058	-0.27041626	-0.27044678	0.34120178
14236813846443	-0.54896545	-0.27044678	0.2141571
14236819980476	-0.67726135	-0.19224548	0.11885071
14236823886726	-0.7969818	-0.12626648	0.008911133
14236828952644	-0.91059875	-0.046875	-0.12791443
14236834415291	-1.0266724	0.0056610107	-0.30751038
14236838992928	-1.0266724	-0.011444092	-0.30751038
14236844028328	-1.1354065	-0.011444092	-0.5139923
14236849490974	-1.2099152	-0.10305786	-0.6837921
14236854129646	-1.228241	-0.2130127	-0.75709534
14236857425545	-1.1842651	-0.2741089	-0.7180023
14236864200447	-1.0962982	-0.264328	-0.6043854
14236870334480	-0.9887848	-0.23013306	-0.46998596
14236874240730	-0.883728	-0.23135376	-0.3514862
14236880771492	-0.792099	-0.28877258	-0.27209473
14236884494637	-0.71391296	-0.3865204	-0.23544312
14236889346932	-0.64671326	-0.5013428	-0.23664856
14236894382332	-0.59051514	-0.6161804	-0.25376892
14236899844978	-0.54652405	-0.7249298	-0.26474
14236904453133	-0.51475525	-0.82510376	-0.25009155
14236907810066	-0.48910522	-0.91185	-0.20367432
14236914554451	-0.45733643	-0.9827118	-0.12913513
14236919559334	-0.40359497	-1.0254669	-0.04484558
14236924625252	-0.31930542	-1.0242462	0.033325195
14236929599617	-0.20933533	-0.9741516	0.10418701
14236934970711	-0.084732056	-0.8898468	0.1775055
14236939700935	0.039871216	-0.7970123	0.26789856
14236944736336	0.16326904	-0.720047	0.38031006
14236950015877	0.29032898	-0.6736145	0.5085907
14236954807137	0.4247284	-0.667511	0.6332092
14236958164070	0.4247284	-0.6956024	0.6332092
14236964908455	0.71183777	-0.6956024	0.7993469
14236969943855	0.82910156	-0.77134705	0.8323364
14236974948738	0.897522	-0.77378845	0.8396759
14236979984139	0.897522	-0.7444763	0.8396759
14236985416267	0.89508057	-0.7444763	0.7675934
14236990115974	0.89508057	-0.679718	0.7675934
14236995090340	0.8865204	-0.679718	0.6820679
14237000888680	0.9122009	-0.68704224	0.5831146
14237005161140	0.9683838	-0.7127075	0.4902649
14237008518074	1.0307007	-0.73347473	0.41452026
14237015262459	1.0795593	-0.73347473	0.36686707
14237020267342	1.1210938	-0.7114868	0.36198425
14237025302742	1.1748657	-0.6772766	0.41696167
14237030338142	1.2530518	-0.6308594	0.52568054
14237035770271	1.3532257	-0.5502167	0.6710663
14237040469978	1.4680786	-0.41461182	0.8360138
14237045444344	1.589035	-0.22279358	1.0070496
14237051273201	1.7063141	-0.001663208	1.179306
14237055515144	1.8089294	0.2206726	1.3430176
14237058872078	1.8871155	0.42713928	1.4871826
14237065585945	1.9323273	0.6055145	1.6093597
14237070621346	1.9408875	0.73991394	1.7180939
14237075656746	1.9201202	0.8217621	1.813385
14237080692146	1.8834686	0.8596344	1.8830261
14237085971687	1.8431396	0.8669586	1.9086761
14237090762947	1.8052826	0.8596344	1.8879089
14237095798348	1.7661743	0.8413086	1.8317108
14237101108406	1.7173157	0.80589294	1.7584076
14237105899666	1.6501007	0.7460022	1.6838989
14237109226082	1.6501007	0.66537476	1.6838989
14237115970467	1.4387665	0.66537476	1.5458221
14237120975349	1.4387665	0.5089874	1.4920654
14237126010750	1.3092499	0.5089874	1.4920654
14237131076668	1.18219	0.45890808	1.4615326
14237136508797	1.0685577	0.42469788	1.4542084
14237141147469	0.9830475	0.40026855	1.4542084
14237146152351	0.94151306	0.38682556	1.437088
14237151523445	0.95617676	0.38804626	1.3894348
14237156223152	1.0245819	0.40270996	1.3210297
14237159549568	1.1235352	0.42469788	1.2489624
14237166324471	1.2261658	0.43936157	1.179306
14237171329353	1.31781	0.42469788	1.1072388
14237176364754	1.3959961	0.35995483	1.0290375
14237181400154	1.4607391	0.24143982	0.9594116
14237186801765	1.509613	0.09361267	0.91664124
14237191501473	1.5401459	-0.046875	0.90319824
14237196506355	1.5584717	-0.15315247	0.9117584
14237202030037	1.5719147	-0.22769165	0.9276428
14237206577156	1.5804749	-0.2850952	0.94473267
14237209934090	1.5792389	-0.3254242	0.961853
14237216678474	1.5584717	-0.31930542	0.97650146
14237221652840	1.5181732	-0.2447815	0.98262024
14237226749275	1.4558563	-0.12506104	0.975296
14237231784676	1.3703461	-0.033432007	0.95573425
14237237033699	1.2554932	-0.027313232	0.9312897
14237241855476	1.1162109	-0.11161804	0.91296387
14237246860359	0.9806061	-0.2472229	0.90319824
14237252384041	0.8779907	-0.38772583	0.895874
14237256961678	0.8230133	-0.51234436	0.8799896
14237260288094	0.8230133	-0.61009216	0.8799896
14237267001961	0.80589294	-0.61009216	0.8091278
14237272037361	0.8156738	-0.6833954	0.8091278
14237277072762	0.8462219	-0.7408142	0.7749176
14237282108162	0.897522	-0.7799072	0.7492676
14237287387703	0.95983887	-0.78723145	0.71751404
14237292178963	1.0148163	-0.7481384	0.6661835
14237297214363	1.0490265	-0.6638336	0.6014404
14237304141853	1.0258179	-0.5526581	0.4902649
14237307346199	1.0258179	-0.3229828	0.4902649
14237310642098	0.97694397	-0.3229828	0.4560547
14237317355965	0.90364075	-0.21424866	0.4291687
14237322421883	0.80589294	-0.112854004	0.39619446
14237327457283	0.68862915	-0.02609253	0.34854126
14237332462166	0.55911255	0.026443481	0.28501892
14237337924812	0.43449402	0.03742981	0.21047974
14237342563484	0.3343048	0.020324707	0.13841248
14237347568367	0.26712036	-4.4250488E-4	0.073654175
14237353031014	0.22924805	-0.012664795	0.018676758
14237357639168	0.21092224	-0.015106201	-0.02772522
14237360996101	0.21092224	-0.0065460205	-0.06437683
14237367740486	0.21948242	0.011764526	-0.09126282
14237372775887	0.24635315	0.036209106	-0.110809326
14237377811287	0.27812195	0.0655365	-0.123031616
14237382846687	0.30743408	0.09484863	-0.13157654
14237388339851	0.33065796	0.12538147	-0.14013672
14237392886971	0.3453064	0.15715027	-0.14868164
14237397952889	0.35142517	0.19256592	-0.15722656
14237403476570	0.342865	0.23043823	-0.16578674
14237407993172	0.3184204	0.26464844	-0.17799377
14237411350105	0.3184204	0.2866516	-0.17799377
14237418125008	0.276886	0.2866516	-0.19511414
14237423099373	0.22436523	0.2976532	-0.21708679
14237428165291	0.16938782	0.30497742	-0.24153137
14237433200691	0.115615845	0.32940674	-0.26841736
14237438541267	0.06309509	0.37950134	-0.29530334
14237443271492	0.0068969727	0.45280457	-0.32095337
14237448306892	-0.055419922	0.52731323	-0.3453827
14237454166267	-0.12258911	0.585968	-0.3673706
14237458377693	-0.18734741	0.63238525	-0.383255
14237461734627	-0.24720764	0.68247986	-0.39179993
14237468448494	-0.2985077	0.752121	-0.3930359
14237473453377	-0.33883667	0.8351898	-0.39179993
14237478519295	-0.37182617	0.9146118	-0.39424133
14237483524178	-0.40481567	0.97325134	-0.4028015
14237488864754	-0.4439087	1.0074615	-0.4138031
14237493594978	-0.49154663	1.0306702	-0.42601013
14237498630379	-0.54408264	1.062439	-0.44189453
14237503940437	-0.59661865	1.1125336	-0.4638977
14237508701180	-0.64671326	1.1736145	-0.4932251
14237512119148	-0.64671326	1.2273712	-0.4932251
14237518771980	-0.7200165	1.2273712	-0.57507324
14237523837898	-0.7358856	1.2872467	-0.62516785
14237528842781	-0.73223877	1.3080139	-0.68014526
14237533908699	-0.70658875	1.3312225	-0.73876953
14237539340828	-0.65893555	1.3519897	-0.8023071
14237543979500	-0.6027374	1.3617554	-0.864624
14237548984383	-0.5526428	1.3532104	-0.9208069
14237554416512	-0.520874	1.333664	-0.9598999
14237559024666	-0.520874	1.3104553	-0.9598999
14237562412117	-0.50987244	1.3104553	-0.9819031
14237569187019	-0.51475525	1.2982483	-0.98802185
14237574130867	-0.520874	1.2982483	-0.98558044
14237579196785	-0.5196686	1.3104553	-0.9757843
14237584232185	-0.508667	1.3287811	-0.9574585
14237589511726	-0.48910522	1.345871	-0.9281311
14237594333504	-0.45733643	1.3581085	-0.89515686
14237599338387	-0.4145813	1.3581085	-0.86828613
14237605136726	-0.35960388	1.3385468	-0.8475189
14237609439705	-0.28997803	1.3055725	-0.8267517
14237612766121	-0.20199585	1.2725677	-0.7949829
14237619449471	-0.08961487	1.2518005	-0.7485657
14237624484871	0.047210693	1.2457123	-0.6972351
14237629550789	0.19871521	1.2481537	-0.64349365
14237634586189	0.3477478	1.2628021	-0.58117676
14237639865730	0.47846985	1.2921295	-0.5054321
14237644656990	0.5896454	1.3324432	-0.42236328
14237649692390	0.6861725	1.3678741	-0.34294128
14237654971932	0.7790222	1.3910828	-0.27453613
14237659763191	0.8681946	1.3971863	-0.21832275
14237663120125	0.8681946	1.3837585	-0.21832275
14237669833992	1.0148163	1.3837585	-0.14501953
14237674838875	1.0612335	1.3055725	-0.13035583
14237679904793	1.0795593	1.2383575	-0.12669373
14237684940193	1.0624695	1.1504059	-0.12669373
14237690341805	1.0099335	1.0453491	-0.12181091
14237695010994	0.93296814	0.9329376	-0.110809326
14237700046394	0.93296814	0.8193054	-0.110809326
14237705356453	0.84254456	0.8193054	-0.06437683
14237710117195	0.7472534	0.5969696	-0.06437683
14237713474129	0.64585876	0.5969696	-0.022842407
14237720157478	0.53712463	0.50045776	0.040664673
14237725253914	0.422287	0.42225647	0.1298523
14237730258797	0.30133057	0.35383606	0.23492432
14237735324715	0.16815186	0.26953125	0.33509827
14237740756844	0.016662598	0.14736938	0.4096222
14237745395515	-0.1519165	-0.02609253	0.44137573
14237750400398	-0.31806946	-0.25456238	0.4242859
14237755924080	-0.4463501	-0.52822876	0.35708618
14237760532234	-0.49642944	-0.832428	0.24468994
14237763797615	-0.4439087	-1.142746	0.10908508
14237770542000	-0.28385925	-1.4432983	-0.003326416
14237775546883	-0.035858154	-1.7218475	-0.038726807
14237780582283	0.28788757	-1.9784088	0.017440796
14237785648201	0.68006897	-2.2154236	0.12741089
14237790897224	1.1210938	-2.4304504	0.22024536
14237795719002	1.5572662	-2.607605	0.2459259
14237800754402	1.9017944	-2.724884	0.20191956
14237806247566	2.0569458	-2.7419891	0.1322937
14237810855721	1.9775391	-2.6051636	0.101745605
14237814182137	1.9775391	-2.2691956	0.101745605
14237820865486	1.2884827	-2.2691956	0.23368835
14237825900887	0.8657532	-1.1903992	0.32655334
14237830997322	0.49069214	-0.7176056	0.3790741
14237836002205	0.18283081	-0.41949463	0.3973999
14237841312264	-0.06150818	-0.26800537	0.40596008
14237846073006	-0.06150818	-0.18615723	0.40596008
14237851108406	-0.25576782	-0.18615723	0.4242859
14237856387947	-0.4206848	-0.11161804	0.45237732
14237861179207	-0.57463074	-0.011444092	0.4792633
14237864536140	-0.7310028	0.13270569	0.4927063
14237871280525	-0.8947296	0.33918762	0.4768219
14237876285408	-1.0572052	0.62506104	0.4108429
14237881290291	-1.2050323	0.98669434	0.28134155
14237886325691	-1.3198853	1.3849792	0.09197998
14237891788338	-1.3797455	1.7453918	-0.13769531
14237896427010	-1.3846283	1.9946136	-0.37471008
14237901462410	-1.3931885	2.11557	-0.57629395
14237906955574	-1.5239105	2.1448822	-0.7131195
14237911533211	-1.8831024	2.137558	-0.7778778
14237914890144	-2.4573212	2.1094513	-0.79130554
14237921604012	-3.1023865	2.0276184	-0.78886414
14237926639412	-3.6350403	1.8565674	-0.8023071
14237931674812	-3.9490356	1.5731201	-0.84017944
14237936740730	-4.0321198	1.1711731	-0.8988342
14237941959236	-3.9233856	0.65071106	-0.95625305
14237946781014	-3.6619263	0.055755615	-0.9916687
14237951816414	-3.2832031	-0.53067017	-0.99290466
14237957279060	-2.8384857	-1.0120239	-0.9635773
14237961887215	-2.3889008	-1.3211365	-0.91348267
14237965244148	-2.3889008	-1.4213104	-0.91348267
14237971958015	-1.6534119	-1.4213104	-0.8059845
14237976962898	-1.3980713	-1.0291443	-0.74612427
14237982028816	-1.2148132	-0.63694763	-0.6679077
14237987064217	-1.2148132	-0.1971283	-0.56773376
14237992343758	-1.0278778	0.24143982	-0.4663391
14237997135017	-1.0278778	0.6226196	-0.4663391
14238002170418	-0.9936676	0.6226196	-0.38935852
14238007449959	-0.9778137	0.8645172	-0.35394287
14238012241219	-0.97657776	0.9011688	-0.3624878
14238015628670	-0.9997864	0.73257446	-0.3991394
14238022312019	-1.0449982	0.44424438	-0.45166016
14238027316902	-1.1011963	0.14981079	-0.5054321
14238032382820	-1.1476135	-0.07984924	-0.5506439
14238037418221	-1.1696167	-0.23867798	-0.57873535
14238042697762	-1.1634979	-0.3461914	-0.58361816
14238047489021	-1.1317444	-0.40849304	-0.56407166
14238052524422	-1.0853119	-0.409729	-0.52497864
14238057773445	-1.0291138	-0.3413086	-0.47610474
14238062625740	-0.97169495	-0.21546936	-0.4272461
14238065921639	-0.92404175	-0.057861328	-0.3783722
14238072727058	-0.8959503	0.09605408	-0.32705688
14238077701424	-0.8947296	0.2206726	-0.27330017
14238082736824	-0.9167175	0.29885864	-0.22564697
14238087772224	-0.95336914	0.32574463	-0.18899536
14238093204353	-0.997345	0.30741882	-0.16212463
14238097843025	-1.0437622	0.26220703	-0.14257813
14238102939461	-1.0865326	0.20722961	-0.12547302
14238108341072	-1.1256256	0.16447449	-0.10714722
14238112949226	-1.1671753	0.14248657	-0.08760071
14238116306160	-1.1671753	0.13882446	-0.08760071
14238123020027	-1.2429199	0.13882446	-0.035079956
14238128024910	-1.2698059	0.13026428	-0.010650635
14238133060310	-1.2698059	0.103378296	0.011352539
14238138156746	-1.2893372	0.103378296	0.011352539
14238143405769	-1.3040161	0.059417725	0.03211975
14238148227547	-1.3149872	0.006881714	0.050445557
14238153232430	-1.3186646	-0.045639038	0.0675354
14238158725594	-1.3162231	-0.08596802	0.0834198
14238163303230	-1.3113403	-0.10549927	0.1005249
14238166690682	-1.3052216	-0.09817505	0.121292114
14238173374031	-1.3003387	-0.06640625	0.14205933
14238178409432	-1.2991028	-0.013885498	0.16038513
14238183475349	-1.3015594	0.052093506	0.17626953
14238188480232	-1.3101044	0.119262695	0.18727112
14238193790291	-1.3259888	0.1717987	0.18603516
14238198551033	-1.3528748	0.19746399	0.1640625
14238203586433	-1.3907471	0.1876831	0.121292114
14238208896492	-1.4408417	0.14370728	0.06021118
14238213657234	-1.4970245	0.06185913	-0.013092041
14238217075203	-1.5483551	-0.063964844	-0.102264404
14238223728035	-1.5862122	-0.24967957	-0.20367432
14238228732918	-1.6033325	-0.5001221	-0.30628967
14238233768318	-1.5935516	-0.79577637	-0.39424133
14238238834236	-1.5532379	-1.0926514	-0.45777893
14238244235848	-1.4811401	-1.3553467	-0.50419617
14238248935555	-1.3809662	-1.5666809	-0.54208374
14238253940437	-1.2539215	-1.7328491	-0.5726166
14238259250496	-1.1048584	-1.8623505	-0.5860596
14238264011238	-0.9326019	-1.9527588	-0.56651306
14238267368172	-0.9326019	-2.000412	-0.56651306
14238274051521	-0.5379944	-2.000412	-0.42601013
14238279147957	-0.5379944	-1.9918518	-0.42601013
14238284152840	-0.34251404	-1.9918518	-0.3282776
14238289218758	-0.17634583	-1.9503174	-0.23297119
14238294467781	-0.049301147	-1.8794708	-0.15722656
14238299259041	0.038650513	-1.7560577	-0.10714722
14238304752205	0.10707092	-1.563034	-0.077819824
14238309696053	0.18283081	-1.2979126	-0.058288574
14238314395760	0.30133057	-0.9753876	-0.046051025
14238317752693	0.4955902	-0.6247406	-0.047286987
14238324436043	0.7704773	-0.27288818	-0.074157715
14238329440926	1.0954437	0.07286072	-0.14013672
14238334567879	1.4130859	0.42347717	-0.25621033
14238339572762	1.6721039	0.7985382	-0.4174652
14238344882820	1.859024	1.2017059	-0.60928345
14238349643562	2.0007477	1.608551	-0.812088
14238354648445	2.1375732	1.971405	-1.0112305
14238360202644	2.296402	2.2389526	-1.1944733
14238364749764	2.4747772	2.3648071	-1.3423157
14238368076180	2.6568146	2.3147125	-1.432724
14238374820564	2.825409	2.0789185	-1.4486084
14238379794930	2.973236	1.6696472	-1.3850708
14238384891365	3.0990753	1.1247406	-1.2482452
14238389926765	3.205368	0.5053406	-1.0478821
14238395267342	3.2921143	-0.11161804	-0.79130554
14238399997566	3.3568573	-0.6479492	-0.49931335
14238405002449	3.4008484	-1.042572	-0.19755554
14238410770271	3.4350586	-1.2844849	0.07853699
14238415103767	3.4692688	-1.4176483	0.30578613
14238418460701	3.4692688	-1.5202637	0.30578613
14238425235603	3.515686	-1.5202637	0.48294067
14238430209969	3.5706635	-1.6571045	0.62220764
14238435214851	3.6231995	-1.847702	0.74316406
14238440250252	3.6622925	-2.0602722	0.8543396
14238445743416	3.6745148	-2.2423096	0.96429443
14238450351570	3.6488495	-2.3461456	1.074234
14238455417488	3.5755463	-2.3522644	1.1744232
14238460880135	3.449707	-2.271637	1.2379608
14238465427254	3.2774506	-2.1335754	1.233078
14238468784187	3.0721893	-1.9710846	1.1548615
14238475498055	2.8584137	-1.8012543	1.0363617
14238480594490	2.6751404	-1.6241302	0.9300842
14238485568855	2.5505219	-1.4335327	0.86776733
14238490634773	2.493103	-1.2233887	0.85554504
14238495975349	2.4833221	-0.9851532	0.8885498
14238500675057	2.4979858	-0.68460083	0.961853
14238505710457	2.5163116	-0.26678467	1.0632477
14238511264656	2.5224152	0.2817688	1.1683044
14238515811775	2.4979858	0.870636	1.2574921
14238519138191	2.4979858	1.3483276	1.2574921
14238525852058	2.297638	1.3483276	1.3906708
14238530887459	2.1192474	1.7099457	1.438324
14238535983894	1.9103546	1.7111816	1.4468842
14238540958260	1.7087555	1.6781921	1.4053192
14238546695564	1.5535889	1.6073303	1.3222504
14238551059578	1.4827423	1.4863739	1.2220764
14238556064461	1.5047302	1.3312225	1.1108856
14238561801765	1.6012421	1.1772919	0.9777374
14238566135262	1.6012421	1.0465546	0.8115692
14238569522713	1.7307434	1.0465546	0.8115692
14238576236580	1.859024	0.9500427	0.61364746
14238581241463	1.9640961	0.88772583	0.40107727
14238586307381	2.0373993	0.8510742	0.19215393
14238591342781	2.0752716	0.8339844	-0.002090454
14238596652840	2.078949	0.8376465	-0.18655396
14238601413582	2.050827	0.8804016	-0.3661499
14238606448982	1.9958649	0.99157715	-0.5323181
14238612247322	1.9176788	1.1894989	-0.6569214
14238616489265	1.8162537	1.4472809	-0.71435547
14238619876717	1.6965485	1.7087402	-0.6996765
14238626651619	1.5694733	1.9139862	-0.6398163
14238631625984	1.4448547	2.0337067	-0.56529236
14238636661385	1.3251343	2.0679169	-0.4956665
14238641727303	1.2139587	2.0459442	-0.43577576
14238647006844	1.1125641	2.0190582	-0.3795929
14238651737068	1.0245819	2.0447083	-0.31362915
14238656833504	0.9476166	2.1607666	-0.22688293
14238662296150	0.87675476	2.3660278	-0.1169281
14238666873787	0.80345154	2.617691	0.0064697266
14238670200203	0.80345154	2.846161	0.0064697266
14238676914070	0.60432434	2.846161	0.1982727
14238681949471	0.46992493	2.98909	0.2117157
14238687076424	0.31965637	2.8925781	0.16038513
14238692020271	0.16326904	2.7337494	0.06021118
14238697482918	0.0068969727	2.5505066	-0.05949402
14238702091072	-0.1519165	2.3586884	-0.17555237
14238707156990	-0.32295227	2.1717682	-0.27574158
14238712680672	-0.5062256	2.0019379	-0.3514862
14238717227791	-0.5062256	1.8504486	-0.3514862
14238720584724	-0.7016907	1.8504486	-0.40524292
14238727298592	-0.90083313	1.7026215	-0.4406891
14238732303474	-1.102417	1.5450287	-0.47122192
14238737399910	-1.2991028	1.3739777	-0.50787354
14238742374275	-1.4872589	1.2078247	-0.55552673
14238748172615	-1.6595306	1.0612335	-0.60928345
14238752445076	-1.8097992	0.9329376	-0.6581421
14238757480476	-1.9283142	0.7985382	-0.6923523
14238762821053	-1.9942627	0.64704895	-0.7021179
14238767612312	-1.9832916	0.49554443	-0.6850281
14238770938728	-1.8831024	0.38682556	-0.6508179
14238777683113	-1.7169495	0.37216187	-0.60928345
14238782626961	-1.5312347	0.49066162	-0.56773376
14238787723396	-1.3699799	0.75335693	-0.52497864
14238792758797	-1.241684	1.114975	-0.47122192
14238798221443	-1.1219635	1.4949341	-0.4028015
14238802829598	-0.97657776	1.8125763	-0.31851196
14238807895515	-0.7737732	2.0251465	-0.22320557
14238813754890	-0.5001068	2.1216736	-0.123031616
14238817935799	-0.1531372	2.1045685	-0.022842407
14238821262215	-0.1531372	1.9897308	-0.022842407
14238827976082	0.68862915	1.9897308	0.1640625
14238833072517	1.1088867	1.621994	0.25325012
14238838046883	1.4803009	1.4485168	0.33753967
14238843112801	1.7710724	1.2982483	0.40472412
14238848483894	1.9592133	1.1516266	0.43649292
14238853153084	1.9592133	0.98057556	0.42796326
14238858219002	2.0276184	0.7667694	0.42796326
14238864047859	1.8089294	0.7667694	0.3607483
14238868259285	1.8089294	0.3184204	0.3607483
14238871616219	1.5340576	0.3184204	0.36930847
14238878360603	1.1614227	0.22189331	0.4450531
14238883365486	0.7264862	0.263443	0.58921814
14238888431404	0.3098755	0.36483765	0.7798157
14238893466805	0.034988403	0.36116028	0.9594116
14238898807381	0.0044403076	0.107055664	1.0498047
14238903507088	0.23535156	-0.4072876	0.98994446
14238908573006	0.64585876	-1.0584564	0.7675934
14238914066170	1.0954437	-1.6974182	0.42549133
14238918613289	1.4619751	-2.2520752	0.038223267
14238921970223	1.6733246	-2.7285461	-0.3331604
14238928775642	1.7075348	-3.1390533	-0.64593506
14238933719490	1.5670319	-3.464035	-0.8841553
14238938785408	1.265274	-3.6888275	-1.0466461
14238943820808	0.82421875	-3.8452148	-1.1321716
14238949130867	0.28666687	-4.0162506	-1.1309509
14238953891609	-0.28018188	-4.285034	-1.0258789
14238958896492	-0.80430603	-4.688202	-0.812088
14238964633797	-1.2368011	-5.1964417	-0.51519775
14238969028328	-1.565445	-5.71933	-0.16212463
14238972324226	-1.565445	-6.148163	-0.16212463
14238979099129	-2.0016174	-6.148163	0.67230225
14238984134529	-2.1860962	-6.4328156	1.1353302
14238989108894	-2.3815613	-6.182373	1.5617065
14238994144295	-2.562378	-5.5959473	1.8536987
14238999606941	-2.666214	-4.6772003	1.913559
14239004245613	-2.666214	-3.515335	1.913559
14239009281014	-2.6295776	-3.515335	1.6985474
14239015109871	-2.089569	-2.2545166	0.7541504
14239019321297	-2.089569	0.1375885	0.7541504
14239022678230	-1.6802979	0.1375885	0.34120178
14239029422615	-1.2734528	1.1711731	0.12007141
14239034488533	-0.92404175	2.076477	0.077316284
14239039523933	-0.67726135	2.8583832	0.13595581
14239044498299	-0.60639954	3.5401	0.23492432
14239050083015	-0.7969818	4.161957	0.35708618
14239054599617	-1.2710114	4.7569427	0.48658752
14239059635017	-1.9234161	5.3226013	0.57577515
14239065128182	-2.5917053	5.808838	0.5647888
14239069705818	-3.1549225	6.1338196	0.42796326
14239073062752	-3.5788574	6.215683	0.18971252
14239079837654	-3.8525238	6.010437	-0.09492493
14239084781502	-3.9465942	5.5131836	-0.3856964
14239089969490	-3.8451843	4.7483826	-0.6569214
14239094882820	-3.5654144	3.7441406	-0.89637756
14239100284432	-3.1634674	2.5602722	-1.1040802
14239104953621	-2.7114258	1.3043365	-1.2873383
14239109989021	-2.2789307	0.107055664	-1.4473724
14239115695808	-1.9221954	-0.9106293	-1.576889
14239120212410	-1.6680756	-1.6729889	-1.66362
14239123355721	-1.6680756	-2.1555786	-1.66362
14239130252693	-1.4212799	-2.1555786	-1.6856232
14239135104988	-1.3675232	-2.4206848	-1.6184235
14239140201424	-1.3308716	-2.3180542	-1.5060272
14239145206307	-1.3308716	-2.1348114	-1.5060272
14239151187752	-1.2758942	-2.1348114	-1.2030334
14239155307625	-1.2758942	-1.7047577	-1.2030334
14239160526131	-1.2612457	-1.7047577	-1.0649719
14239165714119	-1.2636871	-1.5214996	-0.9635773
14239170657967	-1.2820129	-1.3822021	-0.90127563
14239173770760	-1.3137817	-1.2820282	-0.86582947
14239180728767	-1.3540955	-1.208725	-0.83895874
14239185550545	-1.3980713	-1.1598663	-0.8133087
14239190646980	-1.4444885	-1.1464233	-0.7827606
14239195590828	-1.4897003	-1.1757507	-0.7448883
14239201633308	-1.5300293	-1.2270508	-0.6899109
14239205631111	-1.5642395	-1.2600403	-0.6080475
14239211002205	-1.5911102	-1.2368317	-0.5005493
14239216556404	-1.6082153	-1.1366577	-0.369812
14239220920418	-1.6106567	-0.95462036	-0.22564697
14239224094246	-1.6008759	-0.7114868	-0.07537842
14239231021736	-1.5813293	-0.4414978	0.07243347
14239235843514	-1.5556793	-0.19224548	0.20436096
14239241275642	-1.5336761	0.0056610107	0.31066895
14239245944832	-1.5202332	0.1351471	0.38885498
14239251346443	-1.5214691	0.19256592	0.4426117
14239256046150	-1.5312347	0.18157959	0.4780426
14239261051033	-1.5361176	0.11071777	0.4975891
14239266910408	-1.5275879	-0.0028839111	0.50491333
14239271365974	-1.5019073	-0.14215088	0.5012665
14239274478767	-1.5019073	-0.28755188	0.5012665
14239281589363	-1.4188385	-0.28755188	0.4963684
14239286167000	-1.4188385	-0.5379944	0.5037079
14239291751717	-1.3394318	-0.60520935	0.5110321
14239296298836	-1.3394318	-0.6186218	0.5110321
14239303317879	-1.3088989	-0.6186218	0.49147034
14239306369637	-1.3088989	-0.48423767	0.49147034
14239312351082	-1.3626404	-0.48423767	0.42304993
14239317142342	-1.3626404	-0.23989868	0.42304993
14239321994637	-1.4261627	-0.23989868	0.37786865
14239324832771	-1.5043793	-0.13362122	0.32165527
14239332340096	-1.5801086	-0.063964844	0.2459259
14239336612557	-1.6412048	-0.032211304	0.15306091
14239342288826	-1.6802979	-0.033432007	0.051651
14239346652840	-1.6900635	-0.063964844	-0.049728394
14239351871346	-1.6595306	-0.13362122	-0.14501953
14239356723640	-1.5776672	-0.2618866	-0.23297119
14239362613533	-1.4384003	-0.46102905	-0.31362915
14239367587898	-1.2453613	-0.7224884	-0.3771515
14239372562264	-1.009552	-1.0157013	-0.4174652
14239375125740	-0.7554474	-1.2979126	-0.43577576
14239382663582	-0.5135498	-1.523941	-0.4406891
14239386936043	-0.31562805	-1.6619873	-0.43945313
14239392856453	-0.184906	-1.6900787	-0.43701172
14239397006844	-0.12747192	-1.6033325	-0.4321289
14239402652596	-0.13114929	-1.4115295	-0.42601013
14239407077644	-0.17024231	-1.1366577	-0.4296875
14239412326668	-0.20933533	-0.7970123	-0.4455719
14239417972420	-0.21177673	-0.40361023	-0.46878052
14239422397469	-0.1482544	0.039871216	-0.4773407
14239425479744	-0.1482544	0.5102234	-0.4773407
14239433139656	0.24879456	0.5102234	-0.40647888
14239437259529	0.24879456	1.3495483	-0.40647888
14239443302010	1.0502472	1.3495483	-0.24032593
14239447330330	1.0502472	1.8235779	-0.24032593
14239452945564	1.5584717	1.8235779	-0.16212463
14239457401131	2.0752716	1.8895416	-0.1169281
14239462772224	2.5456238	1.8211365	-0.1169281
14239467960213	2.9219208	1.617096	-0.16578674
14239473544930	3.1846008	1.3055725	-0.25741577
14239483554695	3.4558258	0.5676422	-0.5005493
14239487613533	3.5535736	0.2341156	-0.61050415
14239493594978	3.6610718	-0.056640625	-0.7009125
14239497684334	3.7673492	-0.3290863	-0.7815399
14239503360603	3.8418884	-0.63694763	-0.85972595
14239507785652	3.8565369	-1.0303497	-0.930603
14239513797615	3.7979126	-1.523941	-0.9843445
14239518497322	3.664734	-2.0932465	-1.0148773
14239523990486	3.4655914	-2.6870117	-1.022232
14239534000252	2.9427032	-3.6839447	-0.96725464
14239538028572	2.6665802	-3.9234009	-0.89515686
14239543979500	2.4308014	-3.901413	-0.7852173
14239548068855	2.2670746	-3.606964	-0.6446991
14239553897713	2.2011108	-3.0901947	-0.48831177
14239558139656	2.2328796	-2.4353333	-0.33805847
14239564548348	2.3428192	-1.7377319	-0.20487976
14239568668221	2.493103	-1.0780029	-0.08149719
14239574222420	2.647049	-0.51234436	0.052886963
14239584384773	2.8669434	-0.0627594	0.3815155
14239588321541	2.8669434	0.546875	0.3815155
14239594577644	2.9243622	0.546875	0.6820679
14239598392342	2.9243622	1.0025787	0.6820679
14239604373787	2.904831	1.0025787	0.85554504
14239608463142	2.8693848	1.2383575	0.85554504
14239614383553	2.8242035	1.4814911	0.9019928
14239618991707	2.7801971	1.7148285	0.936203
14239624667976	2.74234	1.9237518	0.96061707
14239634921883	2.6531372	2.2340698	0.9594116
14239638675545	2.5773926	2.3330383	0.92884827
14239645053719	2.4686737	2.373352	0.8812103
14239648746346	2.3257294	2.317154	0.8201294
14239654697273	2.1534576	2.1326752	0.7480469
14239658847664	1.9592133	1.8174591	0.6710663
14239665256355	1.7625122	1.4204102	0.59165955
14239669620369	1.584137	1.0123444	0.5061493
14239675296639	1.4387665	0.67149353	0.4096222
14239685428474	1.2408295	0.44180298	0.19703674
14239689029549	1.1907501	0.29029846	0.10418701
14239695316170	1.1858673	0.36361694	0.037002563
14239699100349	1.2298431	0.5920868	-0.0045318604
14239704868172	1.2994843	0.98301697	-0.030166626
14239709171150	1.3629913	1.4399567	-0.0521698
14239715854500	1.4033203	1.8186951	-0.08149719
14239719547127	1.4253235	2.0276184	-0.123031616
14239725742195	1.4363098	2.0862427	-0.17190552
14239735843514	1.4460907	2.0679169	-0.27209473
14239739383553	1.4460907	2.0068207	-0.27209473
14239744449471	1.4338684	2.0068207	-0.31851196
14239749484871	1.4069977	1.997055	-0.3502655
14239755008553	1.3679047	2.0153809	-0.35394287
14239759555672	1.3190155	2.076477	-0.3148346
14239764591072	1.2640533	2.1852112	-0.23297119
14239770480965	1.2017517	2.3330383	-0.1169281
14239774692390	1.1284485	2.5052948	0.011352539
14239777957771	1.0355835	2.6690063	0.12617493
14239784793709	0.9207306	2.7826385	0.20315552
14239789737557	0.78512573	2.8119507	0.23492432
14239794833992	0.6372986	2.7618713	0.22148132
14239799838875	0.48825073	2.6567993	0.17262268
14239805454109	0.33798218	2.5211792	0.098083496
14239809909676	0.18403625	2.3611298	0.011352539
14239816501473	0.026443481	2.1790924	-0.07171631
14239820682381	-0.13237	1.9860535	-0.14135742
14239825046394	-0.28997803	1.793045	-0.19631958
14239828372810	-0.28997803	1.6073303	-0.19631958
14239835086678	-0.61006165	1.6073303	-0.27818298
14239840091560	-0.7859802	1.2420349	-0.30995178
14239845157478	-0.9753418	1.0661163	-0.33805847
14239850162361	-1.1781616	0.9109497	-0.3673706
14239855502937	-1.387085	0.791214	-0.3930359
14239860233162	-1.5972137	0.69104004	-0.4138031
14239866916512	-1.8012543	0.5786438	-0.4272461
14239870578621	-1.9869385	0.44792175	-0.4345703
14239875369881	-1.9869385	0.33674622	-0.4345703
14239878757332	-2.1323242	0.33674622	-0.43577576
14239885440682	-2.203186	0.28785706	-0.4272461
14239890445564	-2.1738586	0.31106567	-0.40402222
14239895511482	-2.0394745	0.38560486	-0.35882568
14239900546883	-1.8317871	0.5089874	-0.29162598
14239906009529	-1.5972137	0.69836426	-0.21099854
14239910587166	-1.3809662	0.95492554	-0.13157654
14239915653084	-1.194046	1.2298279	-0.074157715
14239921512459	-1.0193481	1.4423981	-0.0521698
14239925693367	-0.8238678	1.5315857	-0.066833496
14239929050301	-0.586853	1.4961395	-0.099823
14239935794685	-0.30950928	1.3825378	-0.123031616
14239940860603	-0.0041046143	1.2395935	-0.11936951
14239945834969	0.3135376	1.0978699	-0.08760071
14239950870369	0.6287384	0.96713257	-0.042404175
14239956442301	0.9292908	0.857193	0.0027923584
14239960989420	1.1956329	0.7802124	0.04310608
14239965994303	1.4082031	0.73991394	0.07609558
14239971884196	1.5572662	0.73257446	0.098083496
14239976095622	1.6317749	0.73991394	0.10664368
14239979422038	1.6317749	0.73379517	0.10664368
14239986166422	1.5352631	0.73379517	0.098083496
14239991201823	1.3300171	0.61161804	0.101745605
14239996237223	0.9940491	0.4882202	0.1322937
14240001272623	0.53100586	0.32818604	0.20559692
14240006613200	-0.012649536	0.115615845	0.32899475
14240011343424	-0.012649536	-0.18247986	0.4963684
14240016378825	-0.5453186	-0.18247986	0.4963684
14240021841471	-0.95825195	-0.6161804	0.8018036
14240026449625	-1.1586151	-1.9894104	0.8018036
14240029806559	-1.1146393	-1.9894104	0.804245
14240036489909	-0.8641815	-2.839737	0.6368561
14240041525309	-0.50987244	-3.63385	0.31188965
14240046591227	-0.18000793	-4.223938	-0.09248352
14240051596110	0.021560669	-4.5183716	-0.4773407
14240057333415	0.05331421	-4.517166	-0.75709534
14240061697428	-0.07373047	-4.289917	-0.88171387
14240066702311	-0.31074524	-3.9563904	-0.84140015
14240072073405	-0.59661865	-3.6570587	-0.65937805
14240076803629	-0.8788452	-3.5238953	-0.39059448
14240080160563	-1.1219635	-3.620407	-0.09248352
14240086843913	-1.3137817	-3.9160767	0.19215393
14240091909831	-1.4616089	-4.2935944	0.44873047
14240096945231	-1.5752258	-4.591675	0.6869507
14240101950114	-1.6607361	-4.669876	0.91052246
14240107504313	-1.714508	-4.451187	1.10112
14240112020915	-1.7242737	-3.9331818	1.2159576
14240117056315	-1.6766205	-3.1867065	1.2245178
14240122579997	-1.5678864	-2.31073	1.1389923
14240127157633	-1.4225159	-1.3968811	1.0192719
14240130453532	-1.4225159	-0.51112366	1.0192719
14240137228434	-1.2648926	-0.51112366	0.9019928
14240142233317	-1.3699799	1.0942078	0.909317
14240147329752	-1.604538	1.7991333	0.89463806
14240152365153	-1.9160767	2.3916779	0.8079071
14240158255045	-2.2203064	2.81073	0.6332092
14240162374918	-2.2203064	2.98909	0.6332092
14240167471354	-2.447525	2.98909	0.39619446
14240172964518	-2.5587158	2.888916	0.14329529
14240177572672	-2.553833	2.512619	-0.086380005
14240180899088	-2.4634094	1.918869	-0.27453613
14240187612956	-2.3265839	1.2175903	-0.42601013
14240192587321	-2.1824188	0.560318	-0.54696655
14240197653239	-2.0516968	0.091171265	-0.6373749
14240202688639	-1.9429626	-0.09941101	-0.6923523
14240208456461	-1.8488922	-0.0065460205	-0.7082367
14240212728922	-1.7633667	0.30497742	-0.6850281
14240217794840	-1.675415	0.7460022	-0.63127136
14240223165934	-1.5837708	1.2420349	-0.5530853
14240227896159	-1.4897003	1.7429504	-0.4663391
14240231222575	-1.4041901	2.215744	-0.3820343
14240237966959	-1.3430939	2.627472	-0.30995178
14240242941325	-1.3149872	2.9536743	-0.25865173
14240248007243	-1.3174438	3.194336	-0.23544312
14240253042643	-1.3406525	3.369049	-0.24520874
14240258902018	-1.3773041	3.460678	-0.2855072
14240263113444	-1.4335022	3.3763885	-0.3502655
14240268118327	-1.5227051	3.0098724	-0.4345703
14240273519938	-1.6509705	2.3391418	-0.54086304
14240278189127	-1.8134613	1.4521637	-0.6679077
14240281607096	-1.8134613	0.4784546	-0.6679077
14240288320963	-2.125	0.4784546	-0.9391327
14240293356364	-2.1995392	-1.3309021	-1.0319977
14240298330729	-2.1995392	-2.0077362	-1.0735321
14240303457682	-2.1885376	-2.0077362	-1.0735321
14240309286540	-1.9356384	-2.4463348	-1.0124359
14240313467448	-1.9356384	-2.5782776	-1.0124359
14240318472331	-1.741394	-2.5782776	-0.9183655
14240323996012	-1.5336761	-2.3168182	-0.77542114
14240328573649	-1.334549	-1.8843536	-0.5909424
14240331900065	-1.1586151	-1.3333435	-0.39179993
14240338644450	-1.0156708	-0.73591614	-0.21708679
14240343679850	-0.91304016	-0.16539001	-0.09492493
14240348715250	-0.8507385	0.30618286	-0.028961182
14240353750651	-0.831192	0.6311798	0.0027923584
14240359671061	-0.85684204	0.7838898	0.028442383
14240363821452	-0.9277191	0.7728882	0.06265259
14240368856852	-1.0315552	0.62750244	0.105407715
14240374319498	-1.1488495	0.38194275	0.14694214
14240378927653	-1.2575684	0.06918335	0.1775055
14240382284586	-1.3321075	-0.27044678	0.1958313
14240388967936	-1.3565369	-0.5954132	0.1982727
14240394033854	-1.3198853	-0.87519836	0.18482971
14240399069254	-1.2270355	-1.0914459	0.15794373
14240404074137	-1.102417	-1.2331696	0.12617493
14240409445231	-0.98269653	-1.2893677	0.0993042
14240414175456	-0.8996124	-1.2551575	0.077316284
14240419180338	-0.8764038	-1.1390991	0.049209595
14240424520915	-0.91915894	-0.9558258	-0.0045318604
14240429251139	-1.0193481	-0.72125244	-0.09370422
14240432638590	-1.0193481	-0.46102905	-0.09370422
14240439321940	-1.3455505	-0.46102905	-0.35882568
14240444387858	-1.3455505	0.014221191	-0.49931335
14240449392741	-1.5434723	0.014221191	-0.49931335
14240454428141	-1.7438354	0.17546082	-0.6202698
14240460318034	-2.0651398	0.2683258	-0.7607727
14240464498942	-2.0651398	0.25608826	-0.7607727
14240469534342	-2.1225586	0.25608826	-0.7668915
14240475027506	-2.0663605	0.1717987	-0.72779846
14240479635661	-1.8782196	0.048416138	-0.6508179
14240482962077	-1.5691223	-0.10549927	-0.5530853
14240489706461	-1.1818237	-0.2741089	-0.45410156
14240494772379	-0.7737732	-0.43293762	-0.3661499
14240499777262	-0.40115356	-0.548996	-0.29406738
14240504812663	-0.10305786	-0.600296	-0.23544312
14240510702555	0.10462952	-0.57832336	-0.19143677
14240514883463	0.22436523	-0.49523926	-0.16456604
14240519918864	0.27200317	-0.36819458	-0.16456604
14240525747721	0.27078247	-0.21424866	-0.18534851
14240529989665	0.25001526	-0.046875	-0.21464539
14240533377116	0.23901367	0.119262695	-0.23297119
14240540121500	0.26589966	0.27320862	-0.23052979
14240545065348	0.35751343	0.41493225	-0.20367432
14240550100748	0.54200745	0.5407562	-0.15357971
14240555166666	0.8498688	0.6336212	-0.0839386
14240560903971	1.2909241	0.651947	-0.002090454
14240565237467	1.8382568	0.54319763	0.07609558
14240570272868	2.4393463	0.2683258	0.1164093
14240575613444	3.0245514	-0.17271423	0.0821991
14240580343668	3.542572	-0.71881104	-0.046051025
14240583761637	3.542572	-1.2710419	-0.046051025
14240590475504	3.9652863	-1.2710419	-0.49687195
14240595419352	4.290268	-1.724289	-0.49687195
14240600485270	4.516281	-2.004074	-0.72532654
14240605490153	4.6372375	-2.0981598	-0.91348267
14240611227457	4.644562	-2.0639496	-1.0637665
14240615591471	4.5370483	-2.004074	-1.1957092
14240620687907	4.336685	-2.0224	-1.3129883
14240625997965	4.089905	-2.170227	-1.4021759
14240630697672	3.8406525	-2.4475555	-1.4412842
14240634024088	3.619522	-2.826294	-1.4168396
14240640768473	3.4313965	-3.2685547	-1.3423157
14240645803873	3.2603455	-3.7157135	-1.2458038
14240650839274	3.083191	-4.067581	-1.1443787
14240655874674	2.8767395	-4.1921844	-1.0405426
14240661734049	2.6360474	-3.996704	-0.92936707
14240665945475	2.388031	-3.4786835	-0.8084259
14240670980875	2.1815643	-2.7114563	-0.6764679
14240676901286	2.06427	-1.8036957	-0.52497864
14240681021159	2.055725	-0.8739624	-0.3466034
14240684378092	2.055725	-0.035873413	-0.14624023
14240691214030	2.2597504	-0.035873413	0.061431885
14240696127360	2.3855896	1.1210785	0.25935364
14240701193278	2.4906616	1.4656067	0.43649292
14240706228678	2.568863	1.7099457	0.58799744
14240712088053	2.6238403	1.8699951	0.7211609
14240716299479	2.6555939	1.9506378	0.8396759
14240721304362	2.6629333	1.9689636	0.9386444
14240726828043	2.647049	1.9567413	0.9997101
14240731405680	2.6128387	1.9237518	0.99850464
14240734732096	2.6128387	1.8370209	0.99850464
14240741476481	2.5725098	1.8370209	0.92640686
14240746481364	2.532196	1.635437	0.7920227
14240751547282	2.4882202	1.2848053	0.62220764
14240756582682	2.4259186	0.8095398	0.44628906
14240762319987	2.3403778	0.29029846	0.28134155
14240766653483	2.2463074	-0.16171265	0.1347351
14240771688883	2.16568	-0.43537903	0.0040130615
14240777029459	2.116806	-0.45858765	-0.12059021
14240781759684	2.0923615	-0.23745728	-0.23908997
14240785116618	2.077713	0.15959167	-0.3453827
14240791891520	2.0667114	0.65805054	-0.4345703
14240796835368	2.0691528	1.1980591	-0.51275635
14240801901286	2.0948334	1.7441559	-0.59339905
14240806906168	2.1534576	2.2609558	-0.6837921
14240812796061	2.2365417	2.7301025	-0.77542114
14240816976969	2.3257294	3.1308289	-0.85728455
14240822103922	2.3904724	3.4435883	-0.92936707
14240827352946	2.4002533	3.6427155	-0.9990082
14240832113688	2.3403778	3.7245789	-1.0747528
14240835440104	2.3403778	3.707489	-1.0747528
14240842306559	2.034958	3.707489	-1.200592
14240847219889	1.819931	3.5254517	-1.2054749
14240852255290	1.5853577	3.422821	-1.1492767
14240857260172	1.3434601	3.3348541	-1.0307617
14240863180582	1.1076508	3.261551	-0.85850525
14240867361491	0.89263916	3.204132	-0.641037
14240872396891	0.7081604	3.168686	-0.3954773
14240877890055	0.55545044	3.163803	-0.14746094
14240882467692	0.55545044	3.1784668	-0.14746094
14240885855143	0.4271698	3.1784668	0.07243347
14240892507975	0.30377197	3.1735687	0.23736572
14240897543375	0.17303467	3.111267	0.33998108
14240902578776	0.0337677	2.9915314	0.38639832
14240907675211	-0.111587524	2.8547058	0.3912964
14240912954752	-0.26309204	2.7496338	0.36686707
14240917715495	-0.4329071	2.6824493	0.32043457
14240922720377	-0.63082886	2.6238098	0.25445557
14240928091471	-0.85440063	2.5382996	0.17262268
14240932791178	-1.0975342	2.4161072	0.077316284
14240936178629	-1.3491974	2.269516	-0.022842407
14240942861979	-1.6069946	2.1057892	-0.12791443
14240947927897	-1.8708801	1.9200897	-0.23544312
14240952963297	-2.1311035	1.6928558	-0.3466034
14240957968180	-2.3681183	1.403305	-0.4590149
14240963705485	-2.5501556	1.0563202	-0.56163025
14240968069498	-2.6295776	0.68003845	-0.6385956
14240973074381	-2.5550385	0.31106567	-0.67770386
14240978445475	-2.3119354	0.010559082	-0.6679077
14240983145182	-1.9515228	-0.12506104	-0.60072327
14240986502116	-1.9515228	0.008117676	-0.60072327
14240993338053	-1.2758942	0.008117676	-0.2830658
14240998281901	-1.0682068	1.0392303	-0.057052612
14241003286784	-0.90449524	1.6195526	0.1665039
14241008413737	-0.72491455	2.0214996	0.33998108
14241013815348	-0.50131226	2.202301	0.4340515
14241018392985	-0.24353027	2.2084198	0.45361328
14241023519938	-0.24353027	2.1094513	0.42060852
14241028921549	0.28300476	2.1094513	0.36198425
14241033529704	0.28300476	1.7185059	0.36198425
14241036886637	0.53590393	1.7185059	0.28622437
14241043600504	0.783905	1.4460602	0.19094849
14241048605387	1.0209198	1.1565094	0.06997681
14241053671305	1.2176208	0.88772583	-0.0680542
14241058706706	1.3397827	0.63972473	-0.19631958
14241064230387	1.3617859	0.37094116	-0.27085876
14241068746989	1.2884827	0.043533325	-0.25497437
14241073812907	1.1492157	-0.30221558	-0.14501953
14241079275553	0.9732666	-0.574646	0.03211975
14241083883707	0.7606964	-0.7176056	0.24957275
14241087271159	0.4772644	-0.73957825	0.50491333
14241093954508	0.12173462	-0.6699524	0.8189087
14241098959391	-0.22644043	-0.5538788	1.1829834
14241104025309	-0.4182434	-0.5172272	1.5275116
14241109030192	-0.3461609	-0.7420349	1.735199
14241114736979	-0.032211304	-1.3052521	1.7009888
14241119100993	0.3929596	-2.0639496	1.4077606
14241124136393	0.7790222	-2.7700806	0.93984985
14241129507487	1.0453491	-3.262436	0.4401703
14241134329264	1.1846313	-3.547104	0.017440796
14241137594645	1.1846313	-3.6924896	0.017440796
14241144277995	1.1137695	-3.6924896	-0.44189453
14241149313395	0.8681946	-3.665619	-0.46878052
14241154379313	0.47358704	-3.486023	-0.35882568
14241159384196	-0.013885498	-3.267334	-0.13891602
14241164785807	-0.50743103	-3.1292877	0.14205933
14241169485514	-0.50743103	-3.16716	0.14205933
14241174520915	-0.93870544	-3.16716	0.4340515
14241179830973	-1.2832336	-3.368744	0.7028351
14241184561198	-1.5703278	-3.5971985	0.93984985
14241187948649	-1.8574371	-3.652176	1.1328888
14241194754069	-2.2105103	-3.3663025	1.2611694
14241199697916	-2.6601257	-2.6967926	1.3051453
14241204702799	-3.169571	-1.7658386	1.2611694
14241209738200	-3.624054	-0.79089355	1.12677
14241215628092	-3.8684082	0.0496521	0.8812103
14241219839518	-3.798767	0.67759705	0.50735474
14241224844401	-3.4175873	1.074646	0.04310608
14241230337565	-2.8446045	1.2615662	-0.4003601
14241234915202	-2.2337494	1.3092194	-0.70700073
14241238272135	-1.7035065	1.345871	-0.81941223
14241245047038	-1.2954559	1.4680481	-0.7607727
14241250021403	-0.997345	1.683075	-0.59828186
14241255087321	-0.8495178	1.9237518	-0.4174652
14241260092204	-1.0120239	2.1351166	-0.30506897
14241266134684	-1.6558533	2.3183746	-0.31973267
14241270193522	-2.7273102	2.513855	-0.46266174
14241275228922	-3.8818512	2.7117767	-0.68014526
14241280569498	-4.7150574	2.7997284	-0.90982056
14241285299723	-5.04126	2.6115875	-1.1077423
14241288656657	-5.04126	2.0703583	-1.1077423
14241295340006	-4.475601	2.0703583	-1.3765106
14241300680582	-3.851303	0.35627747	-1.4486084
14241305410807	-3.1610107	-0.46102905	-1.4791412
14241310476725	-3.1610107	-1.0780029	-1.4669342
14241315756266	-1.9759369	-1.0780029	-1.4156036
14241320547526	-1.9759369	-1.5214996	-1.4156036
14241325643961	-1.5581207	-1.5214996	-1.327652
14241330892985	-1.2502441	-1.3871155	-1.2115936
14241335653727	-1.0413208	-1.117096	-1.0894165
14241339010661	-0.9326019	-0.80067444	-0.9806671
14241345694010	-0.92526245	-0.5001221	-0.9000397
14241350759928	-1.0046692	-0.25578308	-0.8475189
14241355795329	-1.1451721	-0.10185242	-0.82063293
14241360861247	-1.3174438	-0.088409424	-0.80963135
14241366751139	-1.4982605	-0.25212097	-0.8084259
14241370871012	-1.6741791	-0.5832062	-0.7974243
14241375936930	-1.8293457	-1.0083618	-0.7668915
14241381277506	-1.9490814	-1.4237518	-0.7192383
14241386007731	-2.0260315	-1.7401733	-0.6740265
14241389334147	-2.062683	-1.9075623	-0.64593506
14241396200602	-2.062683	-1.9112244	-0.6263733
14241401113932	-2.028473	-1.7658386	-0.5872803
14241406118815	-1.9649658	-1.5068207	-0.50419617
14241411184733	-1.880661	-1.1806335	-0.3771515
14241417044108	-1.7878113	-0.84098816	-0.21832275
14241421255534	-1.6973877	-0.52822876	-0.049728394
14241426351969	-1.6192017	-0.27044678	0.110305786
14241431784098	-1.5593414	-0.084732056	0.2459259
14241436361735	-1.5251465	0.026443481	0.34365845
14241439718668	-1.5251465	0.06430054	0.34365845
14241446524088	-1.5581207	0.06430054	0.43040466
14241451467936	-1.617981	-0.037094116	0.44873047
14241456472819	-1.617981	-0.15803528	0.44873047
14241461538737	-1.6888428	-0.15803528	0.46949768
14241466848795	-1.7548065	-0.3119812	0.4927063
14241471579020	-1.8024597	-0.48791504	0.5110321
14241476614420	-1.8305664	-0.6626282	0.5171356
14241481985514	-1.8440094	-0.8128967	0.5134735
14241486715739	-1.8464508	-0.91308594	0.5085907
14241490103190	-1.8403473	-0.9460602	0.5085907
14241496756022	-1.8183441	-0.89964294	0.5061493
14241501791422	-1.775589	-0.78356934	0.4817047
14241506857340	-1.7083893	-0.62841797	0.4181671
14241511862223	-1.6253204	-0.47935486	0.31677246
14241517202799	-1.5410309	-0.37672424	0.18971252
14241521994059	-1.4738159	-0.33398438	0.056549072
14241526998942	-1.4298401	-0.35351563	-0.07293701
14241532736247	-1.3980713	-0.4280548	-0.19876099
14241537039225	-1.3650818	-0.561203	-0.31973267
14241540457194	-1.307663	-0.7579193	-0.42845154
14241547201579	-1.2123566	-1.0157013	-0.51275635
14241552175944	-1.0657654	-1.3186951	-0.56040955
14241557180827	-0.86906433	-1.6375427	-0.56895447
14241562277262	-0.64183044	-1.947876	-0.54208374
14241567739909	-0.4121399	-2.2252045	-0.4956665
14241572317545	-0.21911621	-2.4524536	-0.43823242
14241577413981	-0.092056274	-2.6051636	-0.3783722
14241582846110	-0.04319763	-2.6576996	-0.31851196
14241587423747	-0.059066772	-2.5929565	-0.25621033
14241590811198	-0.059066772	-2.3986816	-0.25621033
14241597555582	-0.10305786	-2.3986816	-0.15234375
14241602560465	-0.10305786	-1.5886841	-0.15234375
14241607534831	-0.011444092	-1.5886841	-0.123031616
14241612600748	0.22312927	-0.9692688	-0.10348511
14241618185465	0.6152954	-0.23867798	-0.0851593
14241622641032	1.1394196	0.5383148	-0.06437683
14241627706950	1.7258606	1.2774506	-0.053390503
14241633078043	2.2902832	1.9029846	-0.077819824
14241637777750	2.764328	2.3648071	-0.16090393
14241642050211	3.1198425	2.6470184	-0.3123932
14241647848551	3.3776245	2.75943	-0.51763916
14241652853434	3.580429	2.719101	-0.74365234
14241657919352	3.773468	2.5480652	-0.9574585
14241662954752	3.9835968	2.2658386	-1.1468353
14241668295329	4.2157288	1.8981018	-1.3105469
14241673086588	4.460083	1.4594879	-1.4522552
14241678030436	4.686096	0.948822	-1.5610046
14241683462565	4.846161	0.35627747	-1.6233063
14241688131754	4.8889008	-0.32174683	-1.6318512
14241691763346	4.7777405	-1.0780029	-1.5927582
14241698294108	4.507721	-1.9038849	-1.5096893
14241703237956	4.114334	-2.782318	-1.380188
14241708273356	3.659851	-3.6558533	-1.1932678
14241713369791	3.2114716	-4.4059906	-0.94525146
14241719107096	2.8107605	-4.8861237	-0.6520386
14241723379557	2.471115	-4.9826355	-0.34294128
14241728414957	2.208435	-4.661331	-0.058288574
14241733755534	2.0483856	-3.975937	0.15673828
14241738455241	2.011734	-3.0596313	0.25813293
14241742605631	2.011734	-2.0932465	0.25813293
14241748556559	2.0887146	-2.0932465	0.23980713
14241753561442	2.2377625	-1.2331696	0.1665039
14241758627360	2.418579	-0.53923035	0.1457367
14241763662760	2.5957184	0.0154418945	0.24957275
14241769155924	2.7521057	0.4784546	0.46705627
14241773703043	2.8803864	0.8718567	0.7333832
14241778738444	2.9805756	1.1907196	0.98262024
14241784231608	3.0453339	1.4375153	1.1768646
14241788809245	3.056305	1.6403198	1.3088074
14241793112223	3.005005	1.8565674	1.3784637
14241798880045	2.8987122	2.1143494	1.384552
14241803915446	2.7631073	2.359909	1.3295746
14241808950846	2.6128387	2.4588776	1.219635
14241813986247	2.4442444	2.3037262	1.0656891
14241819387858	2.2463074	1.9152069	0.8812103
14241824057047	2.0300598	1.4436188	0.6735077
14241829092448	1.8236084	1.0832062	0.45726013
14241834402506	1.655014	0.99401855	0.24713135
14241839163248	1.531601	1.2224731	0.0675354
14241843252604	1.4460907	1.6390991	-0.0521698
14241849325602	1.3825531	1.959198	-0.099823
14241854269450	1.326355	1.9078674	-0.10470581
14241859274332	1.2799225	1.4399567	-0.13891602
14241864309733	1.2567139	0.803421	-0.26841736
14241869589274	1.2713776	0.35995483	-0.5139923
14241874472086	1.326355	0.32574463	-0.8328552
14241879446452	1.4021149	0.66293335	-1.1578217
14241885122721	1.4766235	1.1760559	-1.4253998
14241889547770	1.4766235	1.683075	-1.5976563
14241893667643	1.5389404	1.683075	-1.5976563
14241899588053	1.5975647	2.1033478	-1.6575012
14241904623454	1.6745453	2.4441986	-1.611084
14241909658854	1.780838	2.7496338	-1.471817
14241914724772	1.9164429	3.0733948	-1.2702332
14241920095866	2.0593872	3.4338226	-1.0381012
14241924765055	2.1717834	3.8064423	-0.8059845
14241929769938	2.2169952	4.1326294	-0.59706116
14241935049479	2.170578	4.3647614	-0.42601013
14241939901774	2.0300598	4.485718	-0.2989502
14241944235270	1.8138123	4.502823	-0.21099854
14241949942057	1.5474854	4.427063	-0.15602112
14241955007975	1.2493896	4.2719116	-0.12791443
14241960012858	0.93296814	4.0532227	-0.12669373
14241965048258	0.6055298	3.7807922	-0.14379883
14241970541422	0.27322388	3.4643555	-0.17066956
14241975088541	-0.059066772	3.1320343	-0.19631958
14241980154459	-0.38893127	2.8192902	-0.22200012
14241985525553	-0.71391296	2.5456238	-0.24885559
14241990194743	-1.0339966	2.2963715	-0.2806244
14241994863932	-1.3430939	2.0398254	-0.3111725
14242000296061	-1.6326447	1.7551575	-0.3319397
14242005300944	-1.8916473	1.4558411	-0.33439636
14242010366862	-2.1103363	1.1784973	-0.30751038
14242015402262	-2.282608	0.96836853	-0.24276733
14242020681803	-2.3901062	0.84742737	-0.1352539
14242025473063	-2.4035492	0.8095398	0.013793945
14242030477946	-2.4035492	0.83154297	0.19459534
14242035849040	-2.0077057	0.8840637	0.3839569
14242040579264	-2.0077057	0.9427185	0.3839569
14242044729655	-1.5996552	0.9427185	0.5513458
14242050650065	-1.1463928	1.0013428	0.66130066
14242055685465	-0.766449	1.0697632	0.68574524
14242060720866	-0.5379944	1.1467438	0.6148834
14242065786784	-0.4634552	1.1870575	0.45361328
14242071005290	-0.48054504	1.1369629	0.22515869
14242075857584	-0.5135498	0.99157715	-0.02772522
14242080862467	-0.49887085	0.8217621	-0.251297
14242086172526	-0.40237427	0.71058655	-0.3954773
14242090933268	-0.20811462	0.69714355	-0.43945313
14242095144694	0.07041931	0.75823975	-0.39424133
14242101004069	0.40396118	0.8535156	-0.29286194
14242106039469	0.7472534	0.95492554	-0.17434692
14242111044352	1.0490265	1.0514374	-0.07537842
14242116140788	1.2677155	1.1259766	-0.019195557
14242121542399	1.3727875	1.1333008	-0.0057678223
14242126181071	1.3532257	1.0111389	0.0015563965
14242131185954	1.2176208	0.73991394	0.056549072
14242136587565	0.97450256	0.37339783	0.19703674
14242141256754	0.62997437	0.00932312	0.42304993
14242144644206	0.62997437	-0.2594452	0.42304993
14242151388590	-0.29606628	-0.2594452	1.0375977
14242156423991	-0.7444458	-0.3119812	1.3625793
14242161428873	-1.0181122	-0.21424866	1.6215668
14242166464274	-0.9997864	-0.30586243	1.7168732
14242171865885	-0.67848206	-0.7420349	1.5580444
14242176535075	-0.67848206	-1.4420776	1.1243286
14242181570475	-0.1653595	-1.4420776	1.1243286
14242186880534	0.37583923	-2.1494598	0.50491333
14242191641276	0.8254547	-2.6552582	-0.12669373
14242194967692	1.1504211	-2.9374695	-0.6068268
14242201742594	1.3544617	-3.0999603	-0.87683105
14242206777995	1.4228821	-3.2551117	-0.98802185
14242211813395	1.3043671	-3.4786835	-1.0258789
14242216818278	0.96717834	-3.7890015	-1.0295563
14242222189372	0.447937	-4.1347656	-0.99290466
14242226919596	-0.1494751	-4.391327	-0.89027405
14242231924479	-0.69802856	-4.4353027	-0.7204437
14242237173502	-1.1121826	-4.244705	-0.5005493
14242241964762	-1.3785248	-3.9234009	-0.25253296
14242245352213	-1.5446777	-3.5923157	0.007675171
14242252066081	-1.6937408	-3.301529	0.27157593
14242257070963	-1.894104	-3.01445	0.5342407
14242262136881	-2.1714172	-2.682129	0.7956848
14242267172282	-2.500061	-2.2924042	1.0510254
14242272451823	-2.8042908	-1.8562317	1.270935
14242277243082	-2.9887695	-1.3736725	1.3943481
14242282247965	-2.9814453	-0.83122253	1.345459
14242287527506	-2.7737274	-0.22279358	1.0974579
14242292349284	-2.4291992	0.43814087	0.7101593
14242295706217	-2.4291992	1.1161957	0.7101593
14242302450602	-1.7205963	1.1161957	0.01499939
14242307791178	-1.4689331	2.3330383	-0.13645935
14242312460368	-1.26857	2.7630768	-0.17799377
14242317526286	-1.0999756	3.0196533	-0.17066956
14242322958415	-1.0425568	3.111267	-0.16456604
14242327597086	-1.0425568	3.112503	-0.16456604
14242332632487	-1.2905731	3.112503	-0.18167114
14242338003581	-1.9747314	3.134491	-0.23544312
14242342703288	-2.9680023	3.2371063	-0.344162
14242346060221	-3.925827	3.3495178	-0.52375793
14242352774088	-4.546463	3.3104095	-0.75465393
14242357809489	-4.738266	2.9927673	-0.98313904
14242362814372	-4.5660095	2.3941193	-1.1492767
14242367880290	-4.1322937	1.608551	-1.2311249
14242373312418	-3.5348663	0.752121	-1.240921
14242377951090	-2.8971405	-0.06640625	-1.2091522
14242382986491	-2.3278046	-0.75057983	-1.1651459
14242388601725	-1.892868	-1.2160645	-1.1297302
14242393026774	-1.6008759	-1.4262085	-1.1077423
14242396414225	-1.4298401	-1.4103241	-1.0845337
14242403158610	-1.3565369	-1.2417145	-1.0429993
14242408132975	-1.3565369	-0.9961548	-0.9757843
14242413198893	-1.4041901	-0.7481384	-0.9000397
14242418234293	-1.4799347	-0.57344055	-0.84262085
14242423483317	-1.5715637	-0.54777527	-0.8157501
14242428366129	-1.6717377	-0.7114868	-0.8108673
14242433340495	-1.7743683	-1.0327911	-0.8084259
14242439108317	-1.867218	-1.427414	-0.79374695
14242443411295	-1.9356384	-1.7976074	-0.7668915
14242446798747	-1.9356384	-2.0700378	-0.7668915
14242453512614	-1.9967346	-2.0700378	-0.7009125
14242458548014	-1.9967346	-2.18367	-0.6557007
14242463552897	-1.9967346	-2.0199432	-0.59339905
14242468740885	-1.9820557	-1.7450714	-0.51031494
14242474111979	-1.9209747	-1.4066467	-0.41500854
14242478781168	-1.9209747	-1.0572357	-0.41500854
14242483755534	-1.892868	-1.0572357	-0.31362915
14242489828532	-1.9026489	-0.73469543	-0.12059021
14242493826334	-1.9026489	-0.2802124	-0.12059021
14242497091715	-1.9490814	-0.2802124	-0.042404175
14242503927653	-2.0175018	-0.19348145	0.018676758
14242508871500	-2.089569	-0.20812988	0.061431885
14242513967936	-2.1445465	-0.3009796	0.09320068
14242518972819	-2.164093	-0.4414978	0.12617493
14242524801676	-2.1372223	-0.600296	0.16282654
14242529104655	-2.0688019	-0.75424194	0.20071411
14242534079020	-1.97229	-0.87887573	0.23612976
14242540060465	-1.8635559	-0.9582672	0.27033997
14242544149821	-1.7548065	-0.9875946	0.30578613
14242547506754	-1.6521912	-0.9741516	0.34609985
14242554220622	-1.5605621	-0.924057	0.38639832
14242559225504	-1.4848175	-0.8446655	0.4181671
14242564260905	-1.4273987	-0.7469177	0.4291687
14242569326823	-1.3919678	-0.6503906	0.4157257
14242574667399	-1.3797455	-0.57832336	0.3790741
14242579702799	-1.387085	-0.54533386	0.32409668
14242584433024	-1.4029541	-0.5526581	0.25813293
14242590536540	-1.4102936	-0.59420776	0.18971252
14242594473307	-1.3834076	-0.6626282	0.12617493
14242597830241	-1.3834076	-0.77256775	0.12617493
14242604544108	-1.1610565	-0.77256775	0.019897461
14242609610026	-1.1610565	-1.1977234	-0.022842407
14242614645426	-0.96925354	-1.510498	-0.022842407
14242620077555	-0.74568176	-1.510498	-0.08760071
14242625387614	-0.31930542	-2.166565	-0.1010437
14242629751627	-0.31930542	-2.4255676	-0.1010437
14242634787028	-0.1690216	-2.4255676	-0.09738159
14242640615885	-0.07861328	-2.5966034	-0.08149719
14242644857829	-0.04197693	-2.6552582	-0.06317139
14242648214762	-0.04197693	-2.580719	-0.06561279
14242654928629	-0.051742554	-2.3522644	-0.11325073
14242659994547	-0.037094116	-1.9649811	-0.21464539
14242664999430	0.04232788	-1.4384155	-0.3466034
14242670523112	0.23168945	-0.8141022	-0.46510315
14242675527995	0.55545044	-0.15682983	-0.53108215
14242680380290	1.0087128	0.4650116	-0.54452515
14242685110514	1.5572662	0.99645996	-0.52864075
14242690237467	2.1485748	1.4081879	-0.5139923
14242695211832	2.725235	1.6855164	-0.52008057
14242698507731	3.2371368	1.8211365	-0.5567322
14242705313151	3.6635132	1.8064728	-0.62760925
14242710440104	4.0117188	1.6464233	-0.7290039
14242715353434	4.3049164	1.3629913	-0.8499603
14242720480387	4.561493	1.0013428	-0.9757843
14242726248209	4.787506	0.6213989	-1.0991821
14242731131022	4.965866	0.26708984	-1.2213593
14242735495036	5.063614	-0.061523438	-1.3459778
14242741049235	5.0477295	-0.42193604	-1.4693756
14242745565836	4.8950195	-0.8825226	-1.5671082
14242748861735	4.8950195	-1.4811707	-1.5671082
14242755667155	4.600586	-1.4811707	-1.5683289
14242760794108	4.1864166	-2.2032166	-1.5683289
14242765676920	3.698944	-2.9863434	-1.4546967
14242770925944	3.2114716	-3.7205963	-1.2983398
14242776083415	2.7936401	-4.250824	-1.1333923
14242781698649	2.489441	-4.438965	-0.9867859
14242785849040	2.2988434	-4.2361755	-0.86582947
14242791372721	2.1998901	-3.6949463	-0.75709534
14242795889323	2.1632385	-2.9264832	-0.6446991
14242799307291	2.1669006	-2.0565948	-0.5164337
14242805960123	2.1998901	-1.20018	-0.3710327
14242811361735	2.2487488	-0.44638062	-0.20855713
14242816061442	2.3000793	0.170578	-0.02772522
14242821951334	2.3513794	0.6690521	0.17262268
14242826376383	2.4100342	1.0807648	0.38639832
14242831381266	2.4869995	1.4326324	0.598999
14242836203043	2.5883942	1.7588348	0.7956848
14242842520182	2.7069092	2.1045685	0.96673584
14242846243327	2.8217316	2.4894104	1.1047821
14242849569743	2.8217316	2.8644867	1.1988678
14242856314127	2.9573517	2.8644867	1.2257385
14242861654704	2.9720154	3.1576996	1.165863
14242866384928	2.9598083	2.9439087	1.0204773
14242872061198	2.9121552	2.4967346	0.8115692
14242876852457	2.808319	1.8577881	0.56111145
14242882284586	2.6299286	1.0978699	0.27645874
14242886526530	2.3733826	0.34773254	-0.042404175
14242892263834	2.0679474	-0.2288971	-0.3795929
14242896597331	1.7612915	-0.50624084	-0.69602966
14242899923747	1.7612915	-0.47080994	-0.69602966
14242906668131	1.5035095	-0.47080994	-0.9464569
14242912039225	1.326355	-0.2288971	-1.1004028
14242916738932	1.2310638	0.0655365	-1.1456146
14242922415202	1.2017517	0.3000946	-1.0930786
14242927023356	1.2225189	0.4466858	-0.9635773
14242932821696	1.2860413	0.55055237	-0.79130554
14242936880534	1.3996735	0.68614197	-0.6080475
14242942678873	1.5535889	0.92071533	-0.4455719
14242946920817	1.7173157	1.2652435	-0.330719
14242950277750	1.8504639	1.6671906	-0.2806244
14242957022135	1.9298859	2.0471497	-0.29286194
14242962789957	1.960434	2.3574677	-0.3453827
14242967062418	1.9665375	2.6128082	-0.4015808
14242973318522	1.9665375	2.871811	-0.4248047
14242977346842	1.960434	3.182129	-0.3979187
14242983267252	1.9286652	3.5339813	-0.32461548
14242987204020	1.8394928	3.8626404	-0.23297119
14242992788737	1.6806641	4.104538	-0.1511383
14242997335856	1.4656372	4.2450256	-0.09492493
14243000662272	1.4656372	4.3122253	-0.09492493
14243007376139	0.98794556	4.3122253	-0.06437683
14243013357584	0.7509308	4.3207855	-0.077819824
14243017446940	0.50413513	4.240143	-0.11203003
14243023794596	0.24145508	4.08255	-0.17434692
14243027883952	-0.035858154	3.855301	-0.26109314
14243033590739	-0.31562805	3.5852966	-0.3624878
14243037588541	-0.586853	3.3018646	-0.4614563
14243043203776	-0.8458557	3.0220947	-0.5372009
14243047659342	-0.8458557	2.7435455	-0.5372009
14243051016276	-1.0938568	2.7435455	-0.57751465
14243057730143	-1.338211	2.4576416	-0.57873535
14243063436930	-1.5801086	2.1583252	-0.48831177
14243067800944	-1.8183441	1.8480072	-0.48831177
14243074087565	-2.2716064	1.5389099	-0.34172058
14243078298991	-2.2716064	0.9976959	-0.34172058
14243084005778	-2.4597626	0.9976959	-0.251297
14243087942545	-2.5868073	0.79977417	-0.14379883
14243094015543	-2.6100311	0.6531677	-0.022842407
14243098013346	-2.487854	0.5541992	0.101745605
14243101370280	-2.2141876	0.5126648	0.20803833
14243108084147	-1.8415527	0.5700836	0.27767944
14243114065592	-1.4640503	0.77168274	0.29844666
14243118154948	-1.1634979	1.0966492	0.27278137
14243124380534	-0.95581055	1.4228516	0.21659851
14243128439372	-0.7896576	1.6109924	0.14938354
14243133261149	-0.59661865	1.617096	0.09564209
14243138296549	-0.33517456	1.5401459	0.07487488
14243143728678	7.9345703E-4	1.5144653	0.09075928
14243148397868	0.39416504	1.5914459	0.1298523
14243151724284	0.39416504	1.7111816	0.1298523
14243158438151	1.2053986	1.7111816	0.18359375
14243164480631	1.5291595	1.7966919	0.16282654
14243168508952	1.7368469	1.7551575	0.101745605
14243173544352	1.8028259	1.6732941	0.017440796
14243178793375	1.7197571	1.5022583	-0.0521698
14243183615153	1.5169373	1.1882782	-0.06437683
14243188620036	1.5169373	0.75335693	-0.06437683
14243193899577	1.2335052	0.75335693	0.16770935
14243198690836	0.9073181	0.2976532	0.16770935
14243202078288	0.5493469	-0.07130432	0.3839569
14243208792155	0.15838623	-0.277771	0.6332092
14243214956706	-0.5049896	-0.2985382	1.1634216
14243218862956	-0.5049896	-0.20692444	1.1634216
14243223867838	-0.5269928	-0.20692444	1.3601379
14243229299967	-0.23864746	-0.50868225	1.397995
14243233938639	0.27078247	-1.1219788	1.2037506
14243239004557	0.8132324	-1.8061523	0.804245
14243244375651	1.2383881	-2.2997284	0.33021545
14243249075358	1.5083923	-2.567276	-0.058288574
14243252432291	1.655014	-2.7725372	-0.29286194
14243259146159	1.6940918	-3.066986	-0.41500854
14243264181559	1.584137	-3.4554749	-0.51275635
14243269216959	1.2823639	-3.8598633	-0.62760925
14243274252360	0.80101013	-4.206848	-0.7375641
14243279684489	0.21336365	-4.463394	-0.8010864
14243284323161	-0.38526917	-4.627121	-0.7974243
14243289358561	-0.92404175	-4.739502	-0.7290039
14243294821207	-1.3760834	-4.859253	-0.588501
14243299429362	-1.7621613	-5.0034027	-0.3624878
14243302786295	-1.7621613	-5.090149	-0.3624878
14243309530680	-2.5428314	-5.090149	0.30455017
14243314535563	-3.0205383	-4.4548492	0.6527405
14243319570963	-3.5507507	-3.6277466	0.97406006
14243324606364	-4.1017456	-2.643036	1.2941589
14243329885905	-4.641754	-1.7145233	1.6545715
14243334677165	-4.641754	-0.976593	1.6545715
14243339743082	-5.1084595	-0.976593	2.0284119
14243344961588	-5.3479156	-0.43049622	2.2922974
14243349783366	-5.149994	0.04109192	2.2739716
14243353140299	-4.4132996	0.5652008	1.8964691
14243359854166	-3.291748	1.1809387	1.2746124
14243364889567	-2.1127777	1.8357849	0.6600647
14243369955485	-1.1402893	2.4686432	0.26057434
14243374960368	-0.47077942	3.029419	0.12373352
14243380270426	-0.20323181	3.4802399	0.17138672
14243385031168	-0.5502014	3.8357544	0.30455017
14243390066569	-1.6204224	4.1851654	0.4474945
14243395376627	-3.130478	4.5736847	0.5269165
14243400137370	-4.511032	4.8705597	0.46826172
14243403494303	-5.306381	4.821686	0.25813293
14243410238688	-5.416336	4.26947	-0.04850769
14243415274088	-4.9899597	3.2542267	-0.3661499
14243420309489	-4.236145	1.9518433	-0.63005066
14243425314372	-3.352829	0.5871887	-0.8267517
14243430777018	-2.5208282	-0.6174164	-0.9660187
14243435385172	-1.8488922	-1.4750671	-1.0710907
14243440420573	-1.3675232	-1.8965607	-1.1627045
14243445852702	-1.0608826	-1.9185638	-1.2433624
14243450491373	-0.8935089	-1.6534271	-1.3093262
14243453848307	-0.8935089	-1.2307281	-1.3093262
