accelerometer_timestamp	accelerometer_x_data	accelerometer_y_data	accelerometer_z_data
9657292971638	-6.805598	0.65623534	1.721121
9657302920368	-7.5486526	2.3185287	1.7815951
9657312930134	-8.522677	4.0228844	3.2121704
9657322939899	-13.12336	3.5319054	12.598251
9657332919147	-6.419101	2.277514	2.1472847
9657342898395	-5.3010764	1.5997233	2.1754262
9657352908161	-5.1076784	2.3385868	1.667233
9657362887409	-5.5372853	1.5576608	2.1080663
9657372927692	-6.2001066	1.585952	2.4037015
9657382906940	-6.824159	1.9507434	2.6473947
9657392886189	-7.1302724	1.961072	2.9812005
9657402865437	-7.0111203	1.6241226	3.4825082
9657412905720	-7.031478	1.5998731	3.6971617
9657422884968	-7.2989717	1.5191908	3.3822167
9657432894733	-7.689809	1.9023939	3.5116973
9657442904499	-7.7507324	2.0942948	2.646796
9657452883747	-7.4311466	2.7869046	3.0820909
9657462893513	-7.3302565	3.5670822	3.1668146
9657472872761	-7.372918	5.9939857	3.8371208
9657482852009	-7.6308317	6.656657	4.1198826
9657492892292	-6.683751	6.426885	4.530479
9657502871540	-6.362669	6.220614	4.966672
9657512881306	-5.8854613	7.0861144	4.511618
9657522860554	-5.3411927	6.5048733	4.668941
9657532870319	-5.021308	5.665269	4.442013
9657542849567	-4.294869	5.032984	3.8423598
9657552859333	-3.8119729	4.979994	3.6534526
9657562869099	-3.9939945	6.8569407	3.4039216
9657572848347	-4.649631	7.5949063	3.970643
9657582858112	-4.6518764	8.181537	5.936355
9657592867878	-5.1852174	9.032367	5.0356784
9657602877644	-5.687124	9.841285	5.598508
9657612887409	-5.5943165	9.491463	6.043682
9657622866657	-5.2524276	9.271271	5.5353394
9657632876423	-4.836742	9.574839	6.859935
9657642855671	-5.890401	10.977871	7.151229
9657652834919	-7.4420743	12.197386	7.760163
9657662844685	-7.380253	11.54624	8.044122
9657672854450	-7.8418927	9.705667	8.009994
9657682833698	-8.114626	8.18453	7.612869
9657692843464	-8.288564	6.415808	6.7903295
9657702822712	-8.481363	5.4116964	6.7157845
9657712832478	-9.010812	4.791386	5.482649
9657722842243	-9.473799	5.470075	6.15041
9657732821491	-10.101444	5.189409	5.785469
9657742831257	-10.409952	3.5964212	4.3667192
9657752841022	-10.742411	3.5765126	4.464466
9657762820271	-11.5188465	5.641768	2.878065
9657772830036	-11.492202	6.8466125	2.7702892
9657782809284	-11.607312	4.7457314	3.6510575
9657792819050	-10.6536455	5.0874705	2.3200254
9657802798298	-10.832973	5.812563	0.51912045
9657812808064	-10.095456	5.216053	-0.73572004
9657822787312	-11.046129	6.2141776	-1.733096
9657832827595	-10.436297	6.709647	-0.6632707
9657842806843	-10.762918	6.3045897	-0.30222154
9657852786091	-12.289594	6.0537114	-0.36718643
9657862795856	-12.805121	6.033653	-0.6927594
9657872805622	-12.8310175	5.1856666	-0.82179105
9657882784870	-13.346097	6.986871	-2.7175987
9657892794636	-13.481714	7.6484947	-3.5512152
9657902773884	-12.513977	6.6620464	-1.7429755
9657912783649	-12.462784	7.99233	-3.3019836
9657922762898	-12.454102	8.155191	-3.5977683
9657932772663	-11.552826	6.8701134	-4.309838
9657942751911	-9.648935	5.112319	-6.5940876
9657952761677	-9.1958275	4.9365845	-8.585097
9657962771442	-8.626561	4.4725494	-9.291778
9657972781208	-8.5357	4.330794	-8.546028
9657982760456	-8.7897215	5.8034315	-6.548732
9657992770222	-9.205557	7.254065	-4.8267126
9658002749470	-9.884695	8.443342	-4.5902047
9658012789753	-10.361303	8.481214	-2.667902
9658022769001	-10.578951	8.867559	-2.325564
9658032748249	-10.939402	7.6492434	-1.2409195
9658042758015	-10.568922	6.0040145	-0.7373666
9658052767780	-10.040221	4.6488824	0.7499405
9658062747028	-9.392219	6.123466	1.7176781
9658072756794	-9.061108	4.968019	1.8115329
9658082766560	-9.3751545	7.159462	2.8135493
9658092745808	-8.845555	8.439151	3.7779937
9658102725056	-8.797655	10.368488	4.0439906
9658112734821	-8.208181	11.934832	4.572242
9658122775104	-7.753277	11.740386	2.0103195
9658132754353	-7.4010596	12.623699	4.433331
9658142733601	-7.6342745	11.436967	4.084556
9658152712849	-7.8146496	10.255324	3.346441
9658162753132	-6.6493225	8.64632	3.0907726
9658172732380	-6.653514	9.144035	2.818938
9658182742146	-6.8064957	9.7884445	3.0407767
9658192751911	-6.4155087	10.605146	4.1950264
9658202731159	-5.8815694	11.089989	3.3042288
9658212740925	-5.805527	10.951077	3.7164717
9658222750690	-4.722679	10.6994505	3.9980361
9658232729938	-4.4469523	10.907368	4.9076943
9658242709187	-4.2189765	10.510543	4.8099475
9658252718952	-3.737428	11.184442	4.281247
9658262728718	-2.2576053	10.379266	3.7703595
9658272707966	-1.7269588	9.219627	3.2051349
9658282717731	-1.9776874	7.9514647	3.3015344
9658292727497	-1.9937041	7.568112	3.2994387
9658302706745	-2.02454	7.083869	3.3103662
9658313082722	-2.8710296	6.9067874	3.2331266
9658322726276	-2.8798614	7.341483	3.4766703
9658332736042	-2.2179377	7.39582	3.6558475
9658342715290	-2.8925848	7.0307293	2.3956182
9658352725056	-2.6378145	5.663922	2.9437783
9658362704304	-2.9852421	4.054768	3.4549654
9658372714069	-3.379672	3.1826816	3.3087194
9658382693317	-3.8685553	1.235381	3.888913
9658392703083	-4.6524754	1.8098863	2.3546035
9658402682331	-4.5638595	1.4236894	1.6130457
9658412692097	-4.4027944	0.2640509	1.4608122
9658422701862	-4.115841	-0.9011261	1.4557228
9658432711628	-4.4487486	-2.2492228	1.4103671
9658442690876	-4.339476	-2.0706441	1.556613
9658452670124	-4.312981	-0.77868074	2.5695565
9658462679890	-3.873046	1.321452	2.6056316
9658472689655	-3.0014086	2.1255798	1.7363892
9658482668903	-2.1589603	1.9455043	0.014819183
9658492678669	-1.6622932	2.9627888	-0.6343808
9658502657917	-1.6522641	4.953649	0.7484436
9658512667683	-1.9636166	4.4411144	2.1838088
9658522677448	-3.6398308	4.5204496	2.0287313
9658532656696	-4.841831	4.7114525	2.1142035
9658542666462	-6.0540104	5.3308644	2.431843
9658552645710	-6.5120583	4.652026	2.8680358
9658562655476	-7.526349	3.7068915	2.741998
9658572665241	-15.197297	-3.3154554	8.128846
9658582675007	-16.270416	-4.143683	4.027525
9658592684772	-12.246633	6.77566	5.8722887
9658602694538	-12.775184	9.513617	5.8155565
9658612673786	-8.895252	9.760753	6.7178802
9658622653034	-7.599846	6.516399	5.115013
9658632662800	-7.9981675	5.2850595	3.030598
9658642642048	-7.3994126	6.060447	1.7925224
9658652651813	-7.118148	6.2725563	1.7224681
9658662631062	-7.666308	5.605543	0.932411
9658672640827	-8.112979	3.3657508	3.3103662
9658682650593	-8.013287	5.040618	3.0313463
9658692629841	-9.655521	7.2039194	1.9925065
9658702639606	-11.586955	8.484057	4.3161244
9658712649372	-12.219989	8.640033	5.0620236
9658722628620	-12.367581	8.442743	6.423143
9658732638386	-12.877571	8.590486	7.4621325
9658742617634	-12.238998	10.093361	7.8933854
9658762637165	-10.461296	11.060051	6.401139
9658772616413	-4.108506	13.297598	0.3659889
9658792635944	-2.45729	12.925771	-1.6393908
9658802645710	-1.2846286	12.9363985	-1.1879296
9658812624958	-2.1809647	12.606035	-1.5862514
9658822604206	-2.0996838	10.175839	0.5221143
9658832613972	-4.44815	10.947335	1.1091934
9658842623737	-5.7520885	13.427677	3.4564621
9658852602985	-6.1948676	13.318704	6.5165486
9658862612751	-6.8302965	10.604697	9.702673
9658872591999	-7.4056997	7.2025723	9.914184
9658882601765	-8.118218	4.6566663	10.147697
9658892611530	-10.277628	0.50759447	8.932525
9658902590778	-11.660901	-1.7714163	8.590486
9658912600544	-12.7482395	-3.6827917	8.159832
9658922579792	-13.335768	-4.949158	7.404802
9658932589558	-12.337344	-3.6464171	3.624413
9658942599323	-10.846445	-2.7478359	1.4136603
9658952578571	-8.842562	-0.50924104	-1.7112415
9658962588337	-7.098688	1.4498849	-4.136947
9658972598103	-4.775669	3.0087433	-4.177812
9658982607868	-2.0366647	5.278174	-4.9216156
9658992587116	-2.0372634	6.743926	-4.75591
9659002596882	-1.802851	6.684649	-3.4194891
9659012606647	-1.7769548	7.264693	-2.2118006
9659022585895	-2.493814	7.293583	-0.34787658
9659032595661	-2.6689498	6.699319	0.44547364
9659042574909	-3.0811927	6.755751	0.20058289
9659052584675	-3.0678704	6.753955	-0.032183073
9659062563923	-2.5469537	5.8357644	-1.0126442
9659072573689	-3.518583	4.537664	-1.2967534
9659082552937	-6.777606	3.7190163	-1.563349
9659092562702	-10.951377	-1.3762381	-3.8934035
9659102572468	-7.163653	0.85277665	-2.1026773
9659112551716	-9.659264	2.0737875	-1.5834073
9659122561481	-10.98311	5.0177155	0.28740233
9659132571247	-12.772789	6.186036	1.8336868
9659142550495	-11.477083	2.7864556	3.9628592
9659152529743	-11.701017	0.90531737	3.2958462
9659162570026	-11.95459	-0.33395553	2.092798
9659172549274	-11.088791	-1.2747492	0.5947133
9659182559040	-10.012528	-0.9099577	-2.1405487
9659192568806	-9.337283	0.20357665	-3.4343083
9659202548054	-10.59392	2.5339308	-4.614155
9659212557819	-10.307865	3.615731	-3.8815782
9659222537067	-10.47327	3.5539095	-3.6908748
9659232546833	-10.538835	3.755241	-3.2498918
9659242526081	-11.799812	3.6116896	-1.993255
9659252535847	-12.191398	4.16434	-1.0127939
9659262545612	-11.207344	4.6090655	-1.4706917
9659272524860	-10.443782	6.052963	-1.8895208
9659282534626	-10.376122	6.3604236	-2.1627026
9659292513874	-10.996732	6.105803	-1.5043716
9659302523640	-12.270284	6.250851	-0.9000783
9659312533405	-14.130765	6.941515	0.9038205
9659322512653	-15.063925	7.9752655	1.3763878
9659332552937	-16.38837	8.457113	2.520309
9659342532185	-16.862286	10.8682995	3.566783
9659352938679	-15.794255	11.4890585	4.4834766
9659362521198	-15.819853	11.304941	4.4441085
9659372500446	-13.8087845	8.295	4.9734077
9659382510212	-11.843072	8.6136875	1.6953745
9659392519978	-11.8813925	10.002649	1.5524217
9659402499226	-9.041348	8.503817	5.054689
9659412508991	-6.3186603	7.0668044	5.8766294
9659422488239	-5.702841	5.6890697	6.4628105
9659432498005	-9.635014	4.1761656	7.683223
9659442507771	-11.347453	3.53445	8.451276
9659452487019	-11.1513605	3.6230657	8.682395
9659462496784	-10.946437	2.7114615	8.015681
9659472476032	-12.622651	0.10852432	6.7768574
9659482485798	-12.27657	-0.41598496	5.814359
9659492465046	-11.078013	-2.845882	3.3596137
9659502474812	-10.730287	-2.5259972	2.3065536
9659512484577	-10.625954	-0.99977094	1.7980609
9659522463825	-9.397758	1.1305989	1.359473
9659532473591	-8.180189	2.0845652	0.50504977
9659542483356	-7.3389387	3.504662	-1.3942008
9659552462604	-7.4829392	3.8239481	-2.3333478
9659562472370	-5.939499	3.0130842	-1.8628762
9659572482136	-4.9865804	2.526147	-0.60264677
9659582461384	-4.1342525	2.0263362	0.67674273
9659592471149	-4.367917	2.3366408	1.0582993
9659602450398	-4.234694	2.6821225	1.9338286
9659612460163	-3.6028578	1.541195	3.0407767
9659622469929	-4.205804	1.486409	3.919599
9659632479694	-5.104685	1.531166	4.4935055
9659642458942	-5.5458174	1.4645544	4.4316845
9659652468708	-5.843698	0.65084654	6.585256
9659662447956	-6.2185187	1.0193802	6.822363
9659672457722	-6.4723907	2.3397844	6.8442173
9659682436970	-6.0367966	3.2219	5.3808603
9659692477253	-5.410349	3.0883777	4.350104
9659702425983	-4.7536645	1.6911832	2.8080108
9659712435749	-4.891079	1.0288106	1.4663507
9659722445515	-4.9018564	0.86714673	0.32721955
9659732455280	-4.420607	0.984353	-0.4263135
9659742465046	-3.8005967	2.1185446	-0.49546966
9659752474812	-3.8300853	2.6096733	-0.16121475
9659762454060	-3.8227506	2.4971073	0.5272037
9659772433308	-4.1556582	2.7839108	-0.26225463
9659782473591	-4.4032435	4.53467	-0.6147716
9659792452839	-5.593269	2.8716285	1.2825329
9659802462604	-5.964048	1.6251705	2.2580543
9659812441853	-8.832233	0.7032376	2.4168742
9659822451618	-9.418115	0.40056702	4.181105
9659832430866	-11.580219	-0.013172608	6.2254043
9659842440632	-11.290871	-0.34203872	6.911128
9659852419880	-11.20435	-1.5634987	5.4208274
9659862429646	-10.314601	-0.8758287	3.8811293
9659872439411	-9.705966	0.24833359	1.8642234
9659882449177	-8.966055	0.54082537	-1.581162
9659892428425	-9.000783	0.7994875	-4.5264373
9659902438190	-11.068583	0.9618997	-7.707173
9659912478474	-13.275444	1.676813	-6.480025
9659922427204	-16.224012	1.0520123	-1.7877324
9659932406452	-18.692978	1.8634748	0.3490741
9659942416218	-19.507883	2.2129982	0.7659572
9659952425983	-19.487526	3.3084202	3.2726445
9659962466267	-19.53378	4.547992	5.248236
9659972414997	-18.95119	7.019952	5.513634
9659982424763	-16.72053	7.305857	6.205346
9659992434528	-15.191758	8.892858	5.9318647
9660002413776	-13.867911	8.60276	4.1023693
9660012393024	-11.480376	8.387508	2.530338
9660022402790	-10.241403	8.372989	1.1117381
9660032412556	-9.322165	9.434581	0.087118834
9660042391804	-8.701106	9.032217	0.037871245
9660052401569	-7.4212675	6.377488	0.40520737
9660062411335	-6.1516075	8.0050535	-1.493594
9660072390583	-5.766159	7.2182894	-1.1147319
9660082369831	-5.67934	5.699997	-3.7498522
9660092379597	-5.9508753	4.6475353	-2.532284
9660102358845	-6.3869185	3.070415	-2.8008256
9660112399128	-6.2974043	3.0835876	-1.6952248
9660122378376	-6.5554676	3.9398072	-1.7732126
9660132388142	-7.4188724	6.067183	-0.86295545
9660142367390	-7.183562	7.055428	-0.025447082
9660152377155	-7.379055	6.060447	0.94648176
9660162356403	-7.388186	4.8234196	1.3588742
9660172335651	-7.723938	3.6160305	0.7605684
9660182375935	-8.0878315	2.0164568	0.19354752
9660192355183	-7.0380645	0.14519806	-0.021854553
9660202364948	-6.748716	-0.7560777	-0.14789246
9660212374714	-8.438252	-0.20447479	-0.54726195
9660222353962	-9.378597	0.6553372	-0.23441254
9660232333210	-10.610835	1.9893631	-1.9895128
9660242342976	-10.009984	3.5110986	-3.6553986
9660252352741	-10.341096	5.9463844	-3.8675075
9660262331989	-11.063942	5.8311243	-1.7937199
9660272341755	-10.925331	3.7592826	-0.30476624
9660282351521	-10.131681	1.2361294	2.4575894
9660292361286	-8.850346	0.5132826	4.2409806
9660302340534	-5.7574773	0.5809419	1.507066
9660312350300	-5.004094	0.8056247	-0.49666718
9660322329548	-3.2600706	1.7857864	-0.02814148
9660332339313	-2.3450234	3.155139	-4.265829
9660342349079	-1.0666819	5.3558626	-5.3560123
9660352358845	-0.9108559	5.337002	-3.2644117
9660362338093	-2.6345215	6.7855396	-1.703757
9660372347858	-4.818929	5.3384986	-0.5480104
9660382327106	-6.057304	4.7749205	-0.15477814
9660392336872	-8.627758	4.645889	-1.104104
9660402346638	-10.099198	5.850434	-1.8276993
9660412325886	-9.461675	5.529651	-1.6868422
9660422335651	-10.102941	5.508545	-3.0133836
9660432314899	-10.760374	5.165608	-3.1972015
9660442294147	-11.732602	2.943928	-3.1066396
9660452303913	-11.543096	1.179098	-2.8961773
9660462313679	-12.570709	0.8225395	-2.9422815
9660472323444	-12.360097	0.3264711	-2.738106
9660482302692	-11.180699	0.81535447	-2.073039
9660492281940	-11.111094	0.80787003	-1.2400213
9660502291706	-12.112062	2.1685405	-1.6251705
9660512270954	-10.861862	3.4269736	-2.309697
9660522280720	-9.548493	5.050198	-1.9305354
9660532290485	-8.928782	8.197553	-3.5106497
9660542300251	-8.951835	9.8221245	-2.757865
9660552279499	-12.237951	10.157278	0.25911117
9660562319782	-12.168495	7.9924793	4.8103967
9660572299030	-13.029505	8.493338	7.2771173
9660592288044	-11.478281	10.269994	6.2565393
9660602297810	-9.312285	11.412268	5.9300685
9660612307575	-8.139474	10.561737	5.4097505
9660622286823	-7.9049115	8.918604	3.8998404
9660632296589	-7.1566176	7.971972	3.1919622
9660642275837	-5.975873	6.9629207	1.2774435
9660652285603	-6.1300526	6.5830107	0.8795709
9660662295368	-5.6297927	6.382727	0.47406417
9660672274616	-4.8777566	6.5517254	0.18696122
9660682284382	-4.505481	6.5490313	0.6701564
9660692263630	-3.4432898	5.2415004	2.1094134
9660702273395	-4.0092626	5.1380653	2.8596532
9660712252644	-5.630691	5.485942	3.1005025
9660722262409	-6.690337	6.4803243	3.5612442
9660732302692	-6.135142	7.541168	3.3715887
9660742251423	-5.199887	6.8569407	2.8297155
9660752261189	-5.8490868	7.248826	1.4630575
9660762270954	-6.5650477	7.368128	0.9032217
9660772280720	-6.535709	7.5606275	1.0600955
9660782259968	-6.0053616	6.0257196	2.577041
9660792239216	-5.942193	5.350623	2.6146128
9660802248981	-5.655539	4.9690666	1.7992585
9660812258747	-5.6272483	5.4932766	0.68437684
9660822268513	-4.6240344	5.9905424	0.123343505
9660832247761	-4.4033933	5.738317	0.1405577
9660842257526	-4.522246	5.487888	0.771346
9660852236774	-4.9470625	5.147346	1.2648697
9660862246540	-5.0957036	4.7125	2.1885989
9660872256306	-4.590803	3.967799	2.2353017
9660882266071	-5.019063	3.7744012	3.3837135
9660892245319	-3.1557376	2.2089565	1.5515236
9660902224567	-2.357298	0.9837543	-2.5503964
9660912234333	-7.7131605	5.2576666	-0.6369255
9660922244099	-7.281009	5.214257	1.9158659
9660932223347	-4.812043	3.6555483	1.9218535
9660942233112	-4.532425	2.8244765	3.4250276
9660952212360	-4.7970743	2.7690916	4.0963817
9660962222126	-3.699856	1.5581099	3.8005967
9660972231892	-3.447032	1.7708175	4.221222
9660982211140	-2.8569589	2.4108865	3.5937269
9660992220905	-1.814826	1.9049387	0.60608965
9661002230671	-1.1690689	1.8021026	-3.956722
9661012240437	-0.9994716	1.4618601	-3.946094
9661022250202	-0.81535447	0.8140073	-1.8597326
9661032229450	-0.88855225	0.9927356	-0.5056485
9661042239216	-0.90696394	0.7300319	0.0017962647
9661052248981	-1.0431807	0.5093907	0.020806732
9661062228229	-1.1355386	0.7958949	0.008981323
9661072237995	-1.4019846	6.7060547	-0.87522995
9661082217243	-1.1606864	15.869998	-2.4101381
9661092227009	12.5198145	19.37466	1.2985497
9661102236774	19.213894	19.536024	4.127367
9661112216022	19.52869	19.573597	5.0856743
9661122225788	5.943241	19.334543	3.7495527
9661132205036	1.0249187	13.670921	2.5761428
9661142214802	-1.339265	6.8340387	2.577939
9661152194050	-1.0267149	4.880601	2.3135889
9661162203815	-0.18890716	3.745511	3.1808853
9661172213581	1.137784	4.292923	3.5756145
9661182223347	2.1041744	7.6893597	4.5075765
9661192233112	3.647465	12.888199	9.283095
9661202212360	4.0498285	15.220499	7.6501412
9661212191608	3.6211197	12.2102585	2.7472372
9661222201374	3.3756304	10.282417	0.8894504
9661232180622	2.5858727	9.105565	-1.3076806
9661242190388	2.9707224	8.746013	-2.9249177
9661252169636	3.609893	8.533754	-7.8305163
9661262179401	4.151317	9.192534	-10.084978
9661272158649	4.051625	8.251291	-8.464747
9661282168415	4.429589	6.341413	-6.4610143
9661292147663	4.8749127	5.2341657	-5.58803
9661302187946	5.0868716	5.4645367	-3.728746
9661312167194	4.572092	6.954538	-2.2411394
9661322176960	4.4815307	8.840317	2.6933491
9661332156208	4.6171484	9.980795	5.881719
9661342165974	3.634442	10.47836	8.350984
9661352175739	1.3787827	11.071278	10.851684
9661362154987	-0.7614665	11.76718	6.6454306
9661372134235	-2.09669	12.003688	2.909799
9661382144001	-2.3237677	11.821068	-0.56941587
9661392123249	-2.9427307	11.189082	-8.857231
9661402163532	-3.637885	10.493329	-17.64351
9661412142780	-2.0959415	8.616383	-7.348519
9661422152546	-1.0981164	7.5751476	-3.5218763
9661432162312	-0.056732025	6.574628	-1.2168196
9661442141560	0.5999524	6.177953	-0.44801834
9661452120808	1.2472064	5.3986735	-0.8919951
9661462130573	2.341431	4.4402165	-0.6502478
9661472140339	3.0778995	4.3185196	-1.0347981
9661482119587	3.7784426	3.6464171	-1.3750405
9661492159870	4.2578955	3.5293608	-1.4724879
9661502139118	3.9811213	3.304678	-2.1433928
9661512118366	2.9192295	3.360961	-3.0216165
9661522097614	1.5435901	3.6817439	-3.8877153
9661532107380	1.0349479	4.0965314	-4.1857457
9661542117146	0.5083429	4.6402006	-4.2941203
9661552126911	0.062719576	5.136269	-4.5979886
9661562106159	-0.20731887	5.2494335	-4.781806
9661572115925	-1.0819501	5.873935	-4.622687
9661582156208	-1.4964381	6.06389	-4.636758
9661592104938	-2.0703447	7.035969	-5.2159033
9661602114704	-2.5828788	7.644154	-5.195246
9661612124470	-3.4899926	8.104446	-5.753136
9661622103718	-3.6997063	9.1126	-5.665119
9661632113483	-4.240382	10.371483	-5.8588166
9661642092731	-4.8350954	12.29618	-6.4762826
9661652071980	-5.008734	14.573694	-6.930438
9661662081745	-3.4343083	16.108751	-7.0418067
9661672091511	-2.0113673	14.031521	-6.7071023
9661682101276	-0.45340714	10.3512745	-5.3456836
9661692080524	0.05269043	8.558153	-5.0226555
9661702090290	1.1919713	8.208929	-3.4275723
9661712069538	1.5820601	10.091265	-1.7025595
9661722109821	2.2064118	13.377531	2.993026
9661732089069	3.4822087	17.281263	3.4620008
9661742098835	4.1281157	19.202967	-2.8485763
9661752108601	10.221495	17.017212	-18.775156
9661762118366	9.595197	11.794273	-13.643977
9661772097614	5.3841534	7.760462	3.3356636
9661782076862	2.7668464	5.396428	5.0513954
9661792086628	-0.08023316	3.8853204	2.5291407
9661802065876	-0.8589139	4.70786	1.2769945
9661812106159	-0.5445676	6.6680336	2.90935
9661822085407	-0.12992981	7.9475727	3.4858012
9661832064655	0.43319917	8.741971	3.0972092
9661842074421	0.7839198	10.240654	3.0126352
9661852053669	0.8430469	11.313923	3.2819252
9661862063435	1.2972025	14.96513	4.1930804
9661872073200	1.1826906	17.300722	3.9362147
9661882052448	-0.0028440857	16.755108	2.739603
9661892062214	-0.2706372	14.285094	2.7640023
9661902071980	-0.09370514	11.023376	2.4191194
9661912051228	0.27572662	9.178463	0.8807684
9661922060993	-0.26839188	8.994347	-8.574769
9661932070759	0.16226257	8.065678	-9.154214
9661942050007	1.4335688	7.031478	-4.2954674
9661952059772	1.8598824	7.534282	-0.35341507
9661962039021	1.4108162	8.09292	0.45191026
9661972018269	0.82463515	8.793763	0.74485105
9661982028034	0.4857399	8.78538	0.46164
9661992037800	0.0981958	8.449479	0.024998017
9662002017048	0.015717316	8.055498	-0.119900666
9662012026813	-0.18800904	7.794441	-0.32018417
9662022036579	0.16810043	7.1653	-0.5400769
9662032046345	0.3221301	6.794371	-0.42122406
9662042025593	0.6367758	6.8868785	-0.0889151
9662052035358	0.61252624	6.4912515	-0.0199086
9662062045124	0.60070086	6.6966243	0.33171022
9662072024372	0.8840616	7.3985147	0.31359786
9662082034138	1.0711725	7.0846176	0.40520737
9662092043903	1.3701009	7.551796	0.8782237
9662102023151	1.4377601	7.362739	1.0009685
9662112032917	1.7074993	7.95386	1.1657758
9662122012165	1.900448	7.8091106	1.2400213
9662132021931	1.9459534	8.679701	1.103655
9662142031696	1.825454	9.317524	1.2371773
9662152010944	1.4221926	10.123149	0.9422905
9662161990192	1.3281881	9.76689	0.8168514
9662171999958	0.9583072	9.791289	0.54875886
9662182009724	1.0144404	9.902059	0.36434233
9662191988972	0.7417076	9.961036	0.2549199
9662201998737	0.91849	10.247391	0.2841092
9662211977985	0.6813831	10.402617	0.0597258
9662221987751	0.68557435	10.353819	-0.5547464
9662232028034	0.9288185	10.64182	-1.2969031
9662242007282	0.6066884	11.025023	-2.1890478
9662252017048	0.6800358	11.225456	-2.230362
9662261996296	0.44682083	10.798244	-1.3010944
9662272006062	0.22318588	10.8473425	-0.36808455
9662282015827	0.46238846	10.944191	0.41882905
9662292025593	0.17453705	11.729159	1.3754897
9662302004841	-0.09250763	11.657758	1.7206719
9662312014606	-0.45759842	13.591886	1.9643651
9662322024372	-0.7623646	14.197077	2.4207659
9662332003620	-0.5851332	14.779816	3.2867153
9662341982868	-0.5210664	14.432537	3.7824843
9662351992634	0.06885681	12.958852	3.6958146
9662361971882	0.46598098	12.383299	3.668122
9662371981647	0.7336244	12.122392	2.684368
9662381960895	1.848955	12.624148	-0.3475772
9662392001179	2.3499632	13.288167	-1.1241623
9662402010944	2.8244765	11.888877	1.0075548
9662411990192	3.835474	11.043884	2.7249334
9662421969440	5.991291	9.916878	5.4272637
9662431979206	7.6025405	9.110206	6.745273
9662441958454	8.713231	8.576265	5.875432
9662451968220	8.196805	8.315059	3.1172676
9662461977985	6.7882338	8.606203	-1.1273057
9662471987751	4.162245	10.397977	-10.04082
9662481966999	4.269272	10.555749	-6.2026515
9662491976765	3.781736	10.014774	-2.6023383
9662501956013	3.1076875	9.21364	-1.694626
9662511965778	1.4275813	8.609047	-2.2354515
9662521975544	-0.09924362	9.172326	-2.7913952
9662531954792	-1.9628682	11.148367	-4.0448885
9662541964558	-2.470313	12.370725	-3.1395712
9662551943806	-2.4743545	12.081078	-0.5346881
9662561953571	-0.95441526	10.089469	0.14040802
9662571932819	-0.26719436	8.430169	-1.0327024
9662581912067	0.90411985	6.5666943	-1.7899777
9662591921833	1.7494121	5.4702244	-1.8163229
9662601901081	1.943259	5.1036367	-1.2281959
9662611910847	1.3415103	4.9877777	-1.1624826
9662621920612	0.98480207	4.782405	-1.4904506
9662631899860	0.7361691	4.4676094	-1.5401473
9662641909626	1.223406	4.113446	-1.0650352
9662651919392	2.222129	3.4326618	-1.7527052
9662661898640	1.8854791	3.3645535	-2.962639
9662671908405	1.8742524	3.875441	-2.8292665
9662681918171	1.1728112	3.8603225	-2.5930576
9662691897419	1.6284636	4.1736207	-2.470313
9662701876667	1.5916401	4.403094	-2.974315
9662711886433	1.488804	4.3210645	-4.044739
9662721865681	1.269061	4.687203	-4.2983117
9662731875446	1.058898	4.6524754	-4.17886
9662741885212	0.54606444	4.8401847	-4.111051
9662751925495	0.17408799	5.1003437	-4.662654
9662761904743	-0.23875351	5.619764	-5.3009267
9662771883991	-0.7500902	6.123167	-5.9022264
9662781893757	-1.4596148	6.7633853	-7.1489835
9662791903522	-1.5718813	7.2983727	-8.195607
9662801882771	-1.9941531	8.309819	-9.172775
9662811923054	-2.4523504	9.607921	-10.32942
9662821902302	-2.699187	10.820399	-10.963351
9662831881550	-2.4483087	12.847933	-11.078762
9662841891315	-1.9981947	13.470488	-10.647658
9662851870564	-0.55399793	13.133688	-9.012908
9662861849812	0.52540743	12.430151	-7.6389146
9662871890095	1.1943663	10.870994	-5.6769447
9662881869343	2.0724404	10.433454	-4.7821054
9662891879108	2.9773088	13.633948	-3.3196468
9662901858356	4.35205	16.170872	-0.5281018
9662911898640	5.6131773	16.812288	4.344116
9662921877888	8.49244	16.790585	2.1200414
9662931887653	10.250684	13.405224	-9.1114025
9662941897419	7.597002	5.692961	-16.19153
9662951907185	4.6964836	4.0838075	-7.4369845
9662961886433	1.6343014	4.162394	-1.9712508
9662971865681	0.09086105	3.7015028	-0.9066646
9662981875446	-0.021106109	5.395979	0.8798703
9662991885212	-0.20058289	9.570349	3.4521213
9663001894978	0.43843827	11.399096	6.1852875
9663011874226	0.6421646	13.476775	8.169561
9663021853474	0.46657974	12.688813	7.0718937
9663031863239	0.6692583	10.913206	4.946314
9663041842487	0.54097503	10.52147	2.74095
9663051852253	0.93914706	9.6670475	2.583328
9663061862019	1.8133292	8.941656	4.2725654
9663071841267	1.6904347	10.417586	1.7428257
9663081851032	1.0461745	12.889696	-2.4099884
9663091830280	0.6120772	14.461428	-7.5018
9663101840046	0.41358992	13.153597	-9.278755
9663111819294	0.7548802	10.407707	-6.967411
9663121859577	1.744622	8.3587675	-2.706372
9663131838825	1.5775695	8.006251	-1.402733
9663141818073	1.1978091	8.486602	-0.37077895
9663151827839	1.4534775	8.58839	0.23381378
9663161807087	1.2070899	8.255632	0.24234603
9663171816853	0.73572004	7.9197307	0.081430666
9663181796101	0.37197646	7.5968523	-0.38185593
9663191866901	0.80248123	6.7068033	-0.5150789
9663201846149	0.8288264	6.3108764	-0.4179309
9663211825398	1.0945239	5.983058	-0.011376343
9663221835163	1.1711645	6.3592257	-0.16675323
9663231814411	0.7081773	6.8066454	-0.08996292
9663241824177	0.6933582	7.4615335	0.044756927
9663251803425	0.613125	8.659343	0.024998017
9663261813190	0.5984555	9.284293	0.14669494
9663271792438	0.2775229	9.52619	0.07918534
9663281802204	0.04550537	9.4491005	0.18157242
9663291811970	-0.09415421	9.499247	0.17109421
9663301821735	-0.19728974	9.422007	0.43724075
9663311800983	-0.26449996	9.523795	0.6300398
9663321810749	-0.5083429	9.291927	0.6110294
9663331820515	-0.1884581	8.601862	0.55863833
9663341830280	-0.22752686	8.608748	0.4724176
9663351840046	-0.16914825	9.641151	0.7370673
9663361788776	-0.22662872	10.292896	0.8611592
9663371768024	-0.087268524	10.161769	1.1292517
9663381777790	0.08038285	10.074051	1.38013
9663391787556	0.39113662	9.986034	1.8670675
9663401797321	0.4872368	10.091714	2.4399261
9663411776569	0.3305127	10.543774	2.0040326
9663421755817	0.35116974	10.283016	1.8184186
9663431765583	0.15223342	10.273137	1.3841716
9663441775349	0.089214474	10.023307	0.4631369
9663451754597	0.32721955	9.861194	0.035775606
9663461764362	1.2410692	10.288106	-2.8240273
9663471774128	2.1884491	11.019335	-11.382629
9663481814411	1.7119899	11.332634	-1.7875828
9663491824177	1.332978	11.951297	2.1960833
9663501803425	0.19534378	13.764327	3.1840289
9663511813190	-0.44637176	15.063026	3.302732
9663521792438	-0.4285588	14.735956	2.7834618
9663531802204	-0.12888199	12.288995	2.2350023
9663541781452	0.13217515	11.234288	2.3709197
9663551791218	0.7634125	10.837314	2.8738737
9663561770466	1.1774515	11.81029	2.5315356
9663571749714	1.9425105	13.117223	1.1030562
9663581789997	2.6917026	13.224849	1.2220588
9663592135456	4.2766066	12.303215	3.9493873
9663601779011	5.8784256	11.774665	5.7612195
9663611758259	7.627239	11.696527	6.2318406
9663621737507	9.922715	11.019934	3.9529798
9663631747272	10.299632	11.590697	-3.7805383
9663641757038	8.370893	12.819192	-8.761281
9663651736286	7.7423496	11.413615	-3.5744169
9663661746052	5.6881714	9.654623	1.344055
9663671725300	3.9654038	8.517588	1.2590318
9663681735065	1.4995816	7.7555223	-0.9315129
9663691744831	-0.15612534	7.524702	-2.6969416
9663701724079	-1.5483801	8.010741	-3.6039057
9663711764362	-2.7951374	8.269703	-3.2093263
9663721774128	-3.4376016	9.303004	-2.7008336
9663731722858	-2.9081526	10.346185	-1.6368462
9663741732624	-2.6536818	11.426339	-0.9834549
9663751711872	-1.259481	10.551707	-2.2520669
9663761721638	-0.25117767	9.382489	-2.1794677
9663771731403	1.2596306	7.7073226	-1.8342856
9663781710651	2.0474424	7.503147	-2.0719912
9663791750935	2.2989194	7.725884	-0.05987549
9663801730183	2.056723	6.56864	1.2674145
9663811709431	1.9919078	6.0595493	1.3695021
9663821719196	1.1802956	5.427563	-0.15028748
9663831698444	1.5212865	4.38558	-1.0030642
9663841708210	2.306703	3.0195208	-1.3606704
9663851717976	2.3364913	2.3544538	-2.2393432
9663861697224	2.127376	1.5971787	-2.4195685
9663871706989	2.0746856	1.6866925	-2.8235784
9663881686237	1.943259	2.6197023	-2.5369244
9663891696003	1.5414945	3.2778835	-2.9364436
9663901675251	1.3272899	4.0627017	-3.3871565
9663911715534	1.2184662	4.728966	-3.6465669
9663921694782	1.4284794	5.3037705	-4.006868
9663931735065	0.9952803	6.1623855	-4.502936
9663941683796	0.6119275	6.410569	-4.5860133
9663951693562	-0.04430786	6.972351	-4.8952703
9663961703327	-0.33485368	7.0691996	-5.4104986
9663971682575	-0.62989014	7.5812845	-6.560857
9663981692341	-1.0240206	7.86719	-7.596553
9663991671589	-1.1669732	8.415799	-8.893605
9664001681355	-1.545536	9.748328	-9.592053
9664011691120	-2.4358845	11.557766	-9.344768
9664021670368	-3.9496865	15.087874	-7.514374
9664031649616	-4.881948	17.693356	-7.1331167
9664041628864	-4.378994	18.532063	-7.7755804
9664051669147	-2.6893075	15.48949	-7.5107813
9664061678913	-0.63752425	11.599079	-5.4365444
9664071658161	0.60324556	7.3600445	-5.1903067
9664081637409	0.22617966	5.4616923	-5.258565
9664091647175	0.44098297	5.92453	-3.8922062
9664101626423	1.6570542	8.743169	-1.3822256
9664111666706	3.3880546	12.347822	5.0485516
9664121645954	5.0268464	12.737911	9.228459
9664131655720	9.170081	12.59885	7.9852943
9664141634968	11.180849	11.181897	2.2709277
9664151644733	9.893227	13.4169	-15.742763
9664161685017	3.370092	16.131056	-19.224972
9664171694782	2.1619542	12.87802	-6.601123
9664181674030	1.7342935	6.79976	3.683989
9664191653278	1.3018428	5.1841693	3.4956808
9664201663044	0.7873627	5.4408855	2.3623874
9664211642292	0.88181627	6.706354	1.71678
9664221652058	1.6622932	6.8033524	3.206931
9664231661823	1.7693207	7.7366614	3.5230737
9664241641071	1.3313315	8.487051	3.4645455
9664251650837	1.6465759	9.66555	3.4832566
9664261660603	2.112557	10.315498	3.8474493
9664271639851	2.6286836	12.865446	3.9288797
9664281649616	2.1342618	16.113691	2.993026
9664291628864	0.15507752	17.299974	4.601132
9664301608112	-2.0565734	16.369959	0.8893007
9664311617878	-3.0532007	13.5836525	-5.5886283
9664321627644	-2.2110522	10.571616	-5.8918977
9664331606892	-0.9422905	8.6523075	-4.0911427
9664341616657	-0.20207977	7.1898484	-2.754572
9664351595905	-0.07544312	7.094347	-1.8477576
9664361605671	0.06361771	7.861951	-2.2252724
9664371615437	-0.20297791	8.120913	-2.6060805
9664381625202	-0.6021977	8.894054	-2.277514
9664391604450	-0.66162413	8.953331	-1.5958314
9664401614216	-0.9503737	8.1369295	-0.7086264
9664411593464	-0.9871971	7.393874	-0.278421
9664421603229	-0.7890093	7.082372	0.11765534
9664431612995	-0.25312364	6.7518597	0.16166382
9664441592243	-0.26060808	6.3689556	0.3186873
9664451602009	-0.024399262	6.1921735	0.74290514
9664461611774	0.4896318	6.0486217	1.1946657
9664471621540	1.2250525	6.4806232	1.8971548
9664481600788	1.88024	6.861731	3.0346394
9664491610554	3.0500574	7.401658	3.8676572
9664501589802	3.8694534	7.486831	4.271667
9664511599567	4.307293	7.579039	4.397855
9664521578815	4.398453	7.7529774	2.8404932
9664531588581	3.9704933	7.8535686	1.5624509
9664541567829	3.619623	8.354876	-0.064066775
9664551577595	3.446433	8.937016	-0.8464897
9664561587360	3.0020072	10.189461	-2.054328
9664571597126	2.830913	11.143876	-2.6433532
9664581576374	2.012565	12.641362	-2.7544222
9664591616657	0.98570025	13.194312	-2.2132974
9664601595905	0.47601014	13.77241	-1.3391153
9664611575153	-0.024848327	13.160482	-0.49023056
9664621584919	-0.35760635	12.667857	-0.18875748
9664631564167	-0.9190887	11.152858	-0.26300308
9664641573933	-1.3126204	10.470127	-0.27288255
9664651553181	-1.8122814	9.591604	-0.3357518
9664661562946	-1.9794836	9.387578	-1.1255095
9664671542194	-2.5247996	8.621471	-4.1592507
9664681582478	-2.0275338	8.9320755	-3.7770956
9664691592243	-1.6540604	11.705059	-0.68018556
9664701602009	-2.0410056	13.912219	1.5118561
9664711581257	-2.1405487	13.579761	2.3159838
9664721560505	-1.3281881	11.695929	2.7509794
9664731570271	-0.68437684	10.903775	3.2934513
9664741580036	-0.13861175	11.032658	4.2558002
9664751559284	0.6348299	11.75251	5.1624646
9664761569050	1.2963043	13.037139	5.969736
9664771548298	1.6428337	13.309273	6.437064
9664781588581	2.1016297	13.014386	6.2974043
9664791567829	3.5977683	12.626693	6.230793
9664801547077	6.599626	14.148278	1.5428417
9664811526325	15.670164	12.249028	-2.176474
9664821536091	18.892214	11.404484	-5.4266653
9664831515339	15.087126	13.362712	-9.191636
9664841555622	10.563533	13.427677	-4.3037004
9664851534870	7.211404	10.986104	0.0889151
9664861544636	5.0011	8.613388	1.0657837
9664871523884	3.4048197	6.8569407	-0.26524842
9664881503132	0.6692583	5.548063	-3.7070413
9664891512898	-0.6954538	6.4445486	-3.2207024
9664901522663	-1.9516416	8.578062	-1.1274555
9664911501911	-2.7985804	10.159972	-1.5190412
9664921511677	-4.0267763	12.866943	-2.5324337
9664931521442	-3.988905	13.617482	-3.2653098
9664941500690	-3.4582586	12.63747	-2.735711
9664951510456	-2.386637	10.349478	-2.1993763
9664961520222	-1.3265414	9.19463	-1.7706679
9664971499470	-0.21121079	8.100704	-0.28874955
9664981509235	0.680934	7.0096235	0.40954834
9664991519001	1.6789087	5.245542	1.056952
9665001498249	2.2388942	4.424499	1.1103909
9665011508015	2.8301647	3.1825318	-0.7855664
9665021487263	2.7714868	2.4822881	-1.7161812
9665031497028	2.3537054	2.1104612	-1.7224681
9665041476276	2.3517594	1.9383192	-1.9679576
9665051486042	2.0892055	1.8208137	-2.1619542
9665061495808	2.0965402	1.8239571	-2.3837929
9665071475056	1.8538948	2.352957	-2.4671695
9665081484821	1.4105169	2.9451256	-2.8171418
9665091464069	1.2244537	3.3702416	-2.852618
9665101473835	0.5879773	3.9080732	-3.1768436
9665111483601	0.4403842	4.195176	-3.7077897
9665121493366	0.42930725	4.6577144	-3.803291
9665131472614	0.12992981	5.5842876	-4.1733217
9665141451862	-0.36119887	5.947432	-4.4138713
9665151461628	-1.2331357	6.611302	-4.6421466
9665161471394	-1.8217118	6.7708697	-4.8376403
9665171450642	-2.384242	7.210655	-5.5088444
9665181490925	-2.7068212	7.5877213	-5.9010286
9665191470173	-2.7195446	8.675809	-6.589896
9665201479938	-2.7825637	9.745185	-6.969956
9665211459187	-2.5188122	12.740007	-6.938222
9665221468952	-2.3152354	15.4564085	-6.6873436
9665231448200	-1.9383192	17.968485	-6.940168
9665241427448	-1.2778926	19.077827	-8.6225195
9665251467731	-0.20477417	16.95105	-9.450598
9665261446980	0.78661424	12.311598	-9.17038
9665271456745	0.93989545	10.284963	-8.445887
9665281466511	2.1896467	10.105336	-6.60232
9665291506794	3.7544925	12.711566	-3.9175036
9665301455524	3.1775923	17.345032	0.68048495
9665311434772	2.9659324	17.651594	3.049758
9665321444538	4.1989183	15.47467	2.0149598
9665331454304	9.678574	11.1899805	1.8146764
9665341433552	13.003908	5.9438396	-9.561517
9665351473835	7.302564	7.410789	-6.171067
9665361453083	3.674409	6.924151	-0.63782364
9665371432331	1.30319	5.802833	3.0530512
9665381442097	0.7680528	5.26081	5.124294
9665391421345	0.9689351	5.7690034	5.6154227
9665401431110	1.3674065	6.68914	5.137167
9665411410358	1.143023	7.9248204	4.10671
9665421420124	1.0294093	9.347312	3.4141004
9665431429890	1.3639636	9.9396305	2.552043
9665441439655	1.4480886	10.698103	2.7229874
9665451449421	2.0196002	11.2771	3.575914
9665461428669	2.5276437	12.350667	4.118386
9665471438435	2.2522166	15.167509	4.4487486
9665481417683	1.2463083	18.656004	7.458989
9665491427448	0.18262024	18.169966	5.3212843
9665501406696	-1.7173787	15.636035	-3.6525545
9665511416462	-2.8569589	10.313703	-12.518917
9665521395710	-1.5374528	6.9374733	-7.1061726
9665531405476	-0.48109955	5.4099	-1.4850618
9665541415241	-0.5505551	5.4899836	-0.38305342
9665551394489	-0.5731581	6.364465	-0.843945
9665561404255	-0.7592212	7.021898	-1.2630734
9665571414021	-0.60863435	7.1639524	-1.0201286
9665581393269	-0.21465363	6.9856734	-0.55953646
9665591403034	-0.09535172	7.147337	-0.15552658
9665601443317	0.1938469	6.339916	-0.09385483
9665611392048	0.35131943	6.2854295	-0.29099488
9665621401813	0.55414766	6.6828527	-0.47421387
9665631411579	0.82807803	7.116052	0.1128653
9665641390827	1.2105327	7.7553725	0.36149827
9665651400593	1.1958632	8.197702	0.5902226
9665661379841	1.5801141	8.667426	1.2241544
9665671389606	1.6193326	8.91067	1.560954
9665681399372	1.8512005	8.938961	1.4001883
9665691378620	1.6920813	9.811197	1.629212
9665701388386	2.0416045	9.847123	1.2894187
9665711367634	2.0083735	9.971364	1.2005036
9665721377399	1.9077828	10.114616	1.1943663
9665731387165	1.9655626	10.349178	0.9380992
9665741366413	1.4241385	10.499765	0.5824388
9665751345661	1.1305989	10.208022	0.7056326
9665761355427	1.0868897	10.19006	0.47047165
9665771365192	1.1343411	10.1140175	0.6360274
9665781344440	1.0053095	9.807305	0.76416093
9665791354206	1.1713142	10.330617	0.62165725
9665801333454	0.5920189	10.26236	-0.5632787
9665811343220	0.343835	10.220596	-3.9998324
9665821383503	0.82268924	10.059531	-10.688224
9665831362751	1.0662328	10.725047	-7.45854
9665841403034	0.48199767	11.858789	-0.0955014
9665851382282	-0.104183346	12.532538	1.8377284
9665861392048	-0.8557704	12.458143	2.4084916
9665871371296	-1.1162288	12.884756	2.479893
9665881381062	-1.3389657	13.186229	3.0573921
9665891360310	-0.082777865	11.912079	4.4771895
9665901370075	0.42676255	11.208392	5.3016753
9665911349323	0.9017249	11.653117	5.544021
9665921359089	1.6052618	11.993958	5.927224
9665931338337	2.4632776	12.151731	7.0672536
9665941348103	3.8467007	12.451407	7.3390884
9665951327351	6.561605	12.523258	7.986043
9665961337116	12.952715	12.191098	7.0765343
9665971316364	16.029566	16.385675	-8.800798
9665981326130	15.384857	17.637373	-13.188175
9665991335895	12.53179	16.183596	-5.2578163
9666001315144	8.934321	12.684921	0.7521858
9666011355427	6.5384035	10.201137	1.2618759
9666021334675	4.021986	8.297695	-1.1741583
9666031313923	1.7061521	6.9217563	-3.0886772
9666041323689	0.79514647	7.555089	-3.114723
9666051333454	-0.60998154	10.112821	-3.231929
9666061343220	-1.3027409	10.895244	-3.2847693
9666071322468	-2.4054978	12.668456	-1.2229569
9666081301716	-2.4304957	13.90713	0.368833
9666091311481	-2.3628364	13.12815	-2.206711
9666101290729	-1.8974543	11.498788	-2.8955786
9666111300495	-0.6225554	9.875564	-1.5576608
9666121310261	0.68781966	8.003107	0.08217911
9666131320026	2.0146606	6.469696	1.9059864
9666141299274	2.8133996	4.461622	2.5321343
9666151309040	2.882406	3.3262331	1.6343014
9666161288288	2.5180635	2.5406666	-0.29294083
9666171298054	2.0561242	1.7862355	-0.5324428
9666181277302	1.7703685	1.3129197	-1.6356486
9666191287067	1.5893948	1.4242882	-2.2004242
9666201296833	1.4347664	1.0831475	-2.3619382
9666211276081	1.4256353	1.3362712	-2.6683512
9666221285847	1.3907579	1.5328125	-2.703977
9666231265095	0.7936496	2.9868886	-3.1421158
9666241274860	0.15762222	3.5935771	-3.974984
9666251254108	-0.32332763	4.232149	-4.1617956
9666261263874	-0.54756135	4.55398	-4.5360174
9666271273640	-0.78377014	4.6075687	-5.2712884
9666281283405	-0.9193881	5.2206936	-5.3224816
9666291262653	-1.1234138	5.5004616	-5.544171
9666301272419	-0.9716295	6.016738	-6.2810884
9666311251667	-0.8183482	5.812563	-7.3880367
9666321597126	-0.42212218	5.7514896	-8.892708
9666331271198	-0.8339159	6.3722486	-9.432934
9666341250446	-2.0396585	8.135881	-10.537188
9666351229694	-2.7940896	10.034234	-10.8224945
9666361239460	-3.364254	12.811558	-10.691517
9666371615437	-3.444487	13.802049	-10.137369
9666381258991	-3.4202375	13.729599	-8.961414
9666391238239	-3.100802	13.386363	-5.875432
9666401248005	-1.7530046	14.127322	-3.7592826
9666411288288	1.6913328	19.229912	-0.34608033
9666421237019	4.44321	19.529438	1.4521303
9666431246784	10.7171135	19.272274	-2.5391698
9666441256550	15.247293	10.892399	-10.3264265
9666451266315	12.255165	2.898273	-9.587862
9666461276081	6.087541	0.89962924	-5.947432
9666471255329	2.6077273	-0.14295273	-5.3018246
9666481265095	-0.35236725	-0.7008426	-1.1356883
9666491244343	-0.79200304	1.5506254	3.5528617
9666501223591	-0.30057496	4.781058	4.6033773
9666511233356	0.18860778	6.763984	5.5547986
9666521243122	1.7636325	8.65081	5.517077
9666531222370	2.9350965	10.337653	6.3021946
9666541232136	4.156706	11.460319	8.017628
9666551211384	4.6021795	11.980935	7.860454
9666561221149	4.525988	12.320879	7.474706
9666571230915	3.4646952	12.585978	7.50195
9666581210163	2.1793182	14.09469	6.396199
9666591219929	0.6471043	16.520994	-0.98929274
9666601229694	-0.87463117	18.862576	-9.912537
9666611239460	-2.259102	18.940712	-14.947018
9666621218708	-0.71221894	14.7600565	-6.2635746
9666631228474	0.18905686	10.402318	-0.37990996
9666641207722	0.041463777	8.547825	0.4936734
9666651217487	-0.12648697	7.5999956	0.07155121
9666661196735	0.050594788	6.6252227	-0.23381378
9666671237019	0.1963916	6.5973806	-0.16405883
9666681216267	0.36434233	6.5101123	-0.07484436
9666691195515	0.52480865	6.411617	0.14639556
9666701205280	0.71281767	6.1748095	0.35670823
9666711215046	0.6354286	5.7294855	0.43080413
9666721194294	0.5652246	5.3004775	0.60833496
9666731204060	0.6887178	5.0226555	0.65099627
9666741213825	0.97626984	5.1709967	0.97118044
9666751193073	1.1894265	5.7261925	0.92148376
9666761202839	1.1261083	6.2507014	1.1255095
9666771182087	1.1297008	7.010222	1.0683284
9666781191853	1.0502161	7.522607	0.9559122
9666791201618	1.7066011	8.180489	0.830473
9666801211384	1.7089962	8.662486	1.011746
9666811190632	2.0101697	9.441466	0.6459068
9666821200398	2.0583696	9.840836	0.40116578
9666831179646	2.095193	10.6999	0.20282821
9666841189411	2.2408402	11.343861	0.07753876
9666851168659	2.1164489	11.569141	-0.1992357
9666861178425	1.6634908	11.338771	-0.29159364
9666871188190	1.5199393	11.250605	-0.19040406
9666881167438	1.2166699	11.066038	-0.15567628
9666891177204	0.95531344	11.07472	-0.22064118
9666901186970	1.117576	11.051369	0.42781037
9666911166218	0.97656924	11.056757	0.31150222
9666921145466	1.0282118	11.037746	-0.009729767
9666931155231	1.4347664	9.993967	-7.1374574
9666941164997	1.6105009	10.360704	-6.268964
9666951174763	1.1111394	12.061318	-1.4335688
9666961184528	0.8602611	12.556938	0.17618363
9666971163776	0.4272116	11.900403	1.3126204
9666981173542	-0.14100677	10.932666	1.5091617
9666991152790	-0.5692662	10.2966385	1.3913567
9667001162556	-0.8321196	10.755284	1.8007553
9667011141804	-1.2461586	11.4452	2.7937903
9667021151569	-1.2545412	11.197615	3.099754
9667031130817	-0.9539662	10.579849	3.6320472
9667041140583	-0.08652008	9.957743	3.9490879
9667051150349	0.9618997	10.318193	3.9142103
9667061129597	2.018702	10.814261	3.4783168
9667071139362	2.8931837	11.764036	3.6495607
9667081149128	4.561015	12.88281	4.224964
9667091128376	7.9814024	13.188325	5.6943088
9667101138142	11.431278	13.769865	5.5386324
9667111117390	13.211677	16.170572	1.6137941
9667121127155	12.902419	16.96512	-4.7553115
9667131136921	9.501641	14.856007	-10.625205
9667141146687	7.4934173	11.073373	-6.2513003
9667151125935	5.9903927	8.413255	-0.87403244
9667161135700	4.695436	7.155121	0.97402453
9667171145466	2.6770332	6.5208898	-0.78975767
9667181124714	1.0205777	6.725963	-1.5464342
9667191134480	-0.14385086	7.41049	-1.237327
9667201113728	-1.8380278	8.528066	-0.29413834
9667211123493	-3.6685712	10.607093	-3.7919147
9667221133259	-4.5786786	13.283227	-3.3600626
9667231081989	-4.244424	13.703553	-3.0323942
9667241091755	-3.3259337	12.037218	-4.0924897
9667251101521	-2.1805155	10.880873	-3.1395712
9667261080769	-0.45280838	9.498797	-0.83152086
9667271121052	0.5601352	8.306227	0.26854157
9667281100300	1.5485299	7.141649	1.0350975
9667291079548	3.1252012	5.015171	2.2791605
9667301089313	3.873046	3.6786003	1.0871892
9667311099079	4.2429266	2.5438101	-0.6408174
9667321078327	3.8300853	2.5560846	-0.7548802
9667331088093	2.8154953	2.3396347	-1.273851
9667341097858	2.3234682	1.748963	-1.6634908
9667351077106	1.56769	1.2572355	-1.8791922
9667361086872	1.4383589	1.4346167	-2.2417383
9667371066120	1.0065069	1.7910255	-2.8455825
9667381045368	0.90277267	2.4783962	-3.3398547
9667391055134	0.84199905	3.282075	-3.984115
9667401095417	0.5682184	3.9190004	-4.5902047
9667411074665	0.20088226	4.1978703	-4.9147296
9667421053913	-0.39442977	4.9609838	-5.1296825
9667431063679	-1.0862911	5.5015097	-5.4965696
9667441073444	-1.4299763	6.0188336	-6.551875
9667451052692	-1.8221608	6.522087	-7.2134995
9667461062458	-2.5240512	7.0398607	-7.2913375
9667471072224	-3.373385	8.201145	-7.221732
9667481051472	-4.3586364	10.024354	-6.8401756
9667491061237	-4.894372	12.649895	-5.811964
9667501040485	-5.3126025	16.028519	-5.3024235
9667511050251	-4.1837997	18.233583	-5.304669
9667521029499	-2.6307793	17.069004	-6.338868
9667531039265	-1.1593392	13.9318285	-7.1133575
9667541049030	-0.9216335	9.80057	-6.6373477
9667551028278	-1.2525952	8.459658	-5.97258
9667561038044	-0.121846616	10.939252	-2.8499236
9667571078327	1.0139914	14.113401	1.4781761
9667581027058	2.934797	18.263222	6.0170374
9667591036823	4.354445	18.83129	2.264042
9667601016071	8.618777	14.634916	-4.989424
9667611025837	13.249397	9.48278	-17.601297
9667621066120	11.3306875	8.253387	-17.317638
9667631045368	4.4448566	9.938882	-0.82463515
9667641055134	2.239493	7.496561	3.0705647
9667651034382	0.92941725	6.0570045	5.2691927
9667661013630	1.0496173	6.033653	5.000651
9667671023395	1.5497273	7.3592963	4.252956
9667681033161	1.9877166	8.286918	3.7905674
9667691012409	2.2143452	8.473879	2.3824456
9667701022175	2.1474345	8.865165	1.7971628
9667711031940	2.3013144	9.416469	1.8281484
9667721041706	2.9168344	9.811796	2.560725
9667731020954	2.8830047	9.851463	3.1126273
9667741030720	2.6921515	11.6615	3.5058596
9667751009968	2.558779	14.5034895	3.556155
9667761019733	1.5829582	16.281942	2.5610244
9667770998981	0.019758912	15.344741	1.5408957
9667781008747	-0.73601943	12.3345	0.75203615
9667791018513	-0.89783293	9.711954	1.4959891
9667800997761	-1.7223184	7.7761793	1.8621277
9667811007526	-1.515299	6.1107426	-4.7057643
9667821017292	-0.69290906	6.066285	-4.9632287
9667830996540	-0.07229965	6.7286577	-2.6979895
9667841006306	-0.26719436	7.2730756	-1.3593233
9667850985554	-0.2161505	7.3606434	-0.086969145
9667860964802	-0.3276686	7.560328	-0.5658234
9667870974567	0.07574249	6.773864	-2.191892
9667880984333	0.28351045	7.3332505	-2.6776319
9667891024616	0.3661386	7.664362	-2.0098705
9667901003864	0.5721103	8.660091	-0.8759784
9667910983112	0.24189697	8.72326	-0.5442682
9667920992878	0.42017624	8.956176	-0.042960662
9667931002644	0.58109164	9.005722	0.001646576
9667941012409	0.70248914	8.9778805	-0.09086105
9667950991657	0.8779243	9.08401	-0.03487747
9667961001423	0.8946895	9.381441	0.31389725
9667971011189	0.9491762	9.678873	0.4975653
9667980990437	0.7538324	9.454041	0.4845424
9667990969685	1.065185	9.968221	0.76790315
9668000979450	0.98704743	10.314451	1.1485616
9668010958698	0.8653505	10.21865	1.407074
9668020968464	1.2272978	10.042168	1.4898518
9668030947712	0.94079363	9.933044	1.7301022
9668040957478	1.192121	10.119257	2.0766315
9668050936726	1.1951147	9.76674	2.1486318
9668060946491	1.2317885	9.5053835	2.3517594
9668070956257	1.3624667	10.065069	2.647245
9668080935505	1.314716	10.136171	1.8631755
9668090945271	0.89109695	10.225387	1.2958553
9668100924519	0.58558226	10.56503	0.40311173
9668110934284	0.5650749	10.793455	-0.37766466
9668120913532	0.36838394	10.81486	-1.9014958
9668130923298	0.93989545	10.648257	-5.2528768
9668140963581	0.6502478	12.216247	-6.160589
9668150973347	0.72075117	13.00271	-0.7924521
9668160983112	1.0120454	12.774435	2.2978716
9668170962360	1.1889775	12.260854	3.079097
9668180941608	1.341211	11.942466	3.084935
9668190951374	1.4879059	11.173215	3.2507899
9668200930622	1.8064435	11.455828	3.428321
9668210970905	2.296225	11.769875	2.9139903
9668220950153	3.0886772	12.064013	2.483785
9668230959919	4.084107	11.662697	1.171913
9668240969685	5.2590137	11.19043	1.3434563
9668250918415	7.181466	11.078163	3.791765
9668260928181	9.244177	12.378359	5.63593
9668270907429	10.582094	12.388687	4.2372384
9668280917194	10.405312	13.057946	-6.668483
9668290896442	8.881182	13.411361	-6.8731074
9668300936726	7.157516	11.518397	-2.0767813
9668310915974	5.5275555	10.263407	-0.11780503
9668320895222	3.3109648	9.093889	-0.8400531
9668330904987	1.7679734	8.553962	-1.9702029
9668340914753	0.42825943	8.713979	-2.6093738
9668350894001	-0.74739575	9.321266	0.016465759
9668360903767	-1.3606704	10.308313	1.352737
9668370883015	-2.1157005	12.052486	-0.33380586
9668380892780	-2.739603	13.68095	-1.7016613
9668390872028	-2.4932153	12.6919565	-3.4417927
9668400881794	-1.9077828	11.106604	-4.0921903
9668410922077	-0.6917116	8.77595	-2.137555
9668420901325	0.013771363	7.7092686	-0.4046086
9668430911091	0.8827144	6.793772	0.57420594
9668440890339	2.2387445	5.175338	1.1440709
9668450869587	2.9741652	4.225713	0.20911515
9668460879353	3.4058676	3.1518457	-0.52196455
9668470889118	3.4172437	2.3929238	-1.011746
9668480868366	2.768493	2.2201831	-1.5823594
9668490878132	2.2869444	1.9026933	-1.961521
9668500857380	1.57248	1.9223026	-2.5292902
9668510867146	1.2986994	2.323169	-2.9168344
9668520876911	1.0579998	2.4641757	-3.2700999
9668530856159	0.3546126	2.767445	-3.4712815
9668540835407	-0.0690065	3.131937	-3.7106338
9668550875690	-0.183219	3.4648447	-3.8206549
9668560854938	-0.2616559	3.8240976	-4.1180863
9668570864704	-0.43724075	4.4771895	-4.093088
9668580874470	-0.30132338	5.182523	-4.177962
9668590853718	-0.6477031	5.3461328	-4.052822
9668600863483	-1.1861334	6.129903	-4.055666
9668610842731	-1.2605287	6.127358	-4.5030856
9668620852497	-1.1262579	6.6045656	-5.6934104
9668630862263	-1.0512639	6.8781967	-7.0513864
9668640872028	-1.5337106	7.707772	-8.954379
9668650851276	-2.1752765	9.442514	-10.005493
9668660861042	-2.9789553	12.8873005	-9.022038
9668670840290	-3.5492692	15.4073105	-8.400381
9668680850056	-4.160299	16.243921	-8.236173
9668690829304	-4.104764	14.749578	-7.5127273
9668700869587	-2.4809408	12.932507	-6.305338
9668710848835	-0.16555573	12.47431	-4.2694216
9668720858601	1.3689034	15.087126	-1.1072475
9668730837849	2.6307793	17.783619	2.8443851
9668740817097	4.7445335	19.404747	2.390529
9668750826862	11.721974	18.062788	-11.047776
9668760836628	16.065641	11.887679	-19.032322
9668770876911	11.000324	11.708053	-8.705747
9668780825642	4.242478	6.939569	1.0195298
9668790835407	2.2754183	4.1348515	2.7062223
9668800845173	0.34188902	2.7047255	4.041745
9668810824421	-0.4697232	2.628085	3.8067338
9668820803669	-0.27707383	4.264931	4.043242
9668830813435	0.26509872	5.7425084	3.4069152
9668840823200	1.6510665	7.840396	2.895878
9668850802448	2.6912534	8.730595	2.4357347
9668860812214	3.8853204	9.951905	3.5389407
9668870821980	5.1831217	11.2771	4.8156357
9668880801228	5.7031403	12.150832	4.872368
9668890810993	5.331613	13.709242	3.946094
9668900790241	4.4242	15.350728	2.3337967
9668910800007	2.5333319	17.57645	-0.8797206
9668920809772	0.89364165	18.419048	-3.0234127
9668930819538	-1.1686199	15.908019	-6.7903295
9668940798786	-1.6919316	12.12793	-6.205346
9668950808552	-1.3096266	9.156309	-3.5702257
9668960818317	-0.55654263	6.7292566	-1.0596465
9668970797565	-0.2122586	6.4066772	-0.3528163
9668980807331	-0.39203477	6.8066454	0.46912444
9668990786579	-0.16810043	7.504494	0.7348219
9669000796345	-0.20926483	8.16028	0.5771997
9669010806110	-0.24788453	8.390652	0.651595
9669020785358	-0.10987152	8.224946	0.5218149
9669030795124	-0.036823425	7.739805	0.66850984
9669040804890	0.05029541	7.4121366	0.7418573
9669050784138	0.22857468	6.9153194	0.85921323
9669060793903	0.30132338	7.1332664	0.86475176
9669070773151	0.5348378	7.5347314	0.7165599
9669080782917	0.7734416	7.7188487	0.78062665
9669090762165	0.9542656	7.7444453	0.7018904
9669100741413	0.91325086	8.057445	0.61881316
9669110751179	1.029559	8.172854	0.6836284
9669120760944	1.3144166	8.526569	0.61147845
9669130770710	1.411415	9.033115	0.7586224
9669140749958	1.5319144	9.456435	0.78691363
9669150759724	1.5096108	9.813593	0.34967285
9669160738972	1.7622854	10.311756	0.46059218
9669170779255	1.9696041	10.809771	0.25506958
9669180758503	1.9899619	10.707983	0.07783814
9669190768269	1.6167879	10.509795	-0.23785537
9669200747517	1.3889617	10.2298765	-0.10837463
9669210757282	1.2213103	10.264305	-0.6119275
9669220736530	0.85023195	10.381811	-0.9533675
9669230746296	1.1341914	10.236912	-5.2843113
9669240756062	0.89992857	9.998009	-6.871461
9669250765827	0.5559439	10.730885	-4.217929
9669260775593	0.567919	11.166779	-2.4507036
9669270754841	0.035326537	11.184741	-0.20627105
9669280764606	0.10103989	11.011252	0.60683805
9669290743855	-0.52376086	10.839858	1.45707
9669300753620	-0.82358736	11.414663	2.3285577
9669310763386	-1.3554313	11.955189	2.9341984
9669320773151	-1.0038126	12.640164	3.424429
9669330752399	-0.43709105	11.959979	3.6428246
9669340731647	0.90052736	10.99763	3.420537
9669350741413	1.1127859	10.918894	3.5866914
9669360720661	1.8085392	11.59893	4.3941126
9669371096638	2.274969	11.791579	5.179679
9669380709675	3.4874477	11.426339	5.0998945
9669390719440	6.108497	12.18556	2.5656648
9669400698689	10.254576	14.044095	-6.603518
9669410708454	15.939604	12.583732	-3.8363721
9669420718220	16.890127	13.159435	-1.8651215
9669430697468	11.28144	12.566817	-1.2865746
9669440707233	7.418573	10.737621	-0.9996213
9669450716999	4.389472	7.589368	-0.49187714
9669460696247	2.5920098	5.9001307	-1.8660196
9669470706013	0.76730436	6.5553184	-1.0006691
9669480715778	-0.36838394	8.559501	-0.60803556
9669490695026	-0.6851253	8.972342	-2.0453467
9669500704792	-1.4072237	8.582851	-3.6148329
9669510714558	-2.0296295	8.741222	-3.5323544
9669520724323	-3.150648	9.963132	-2.8512707
9669530673054	-3.6818933	12.163257	-1.1816428
9669540682819	-3.6741097	14.621295	-1.719175
9669550692585	-3.319048	13.300891	-3.550317
9669560671833	-2.618954	11.151959	-3.8002973
9669570712116	-0.4340973	9.285341	-2.1453388
9669580691364	0.89648575	8.042476	-0.37062928
9669590701130	2.514471	6.314469	0.4102968
9669600680378	3.3073723	5.2027307	0.02694397
9669610659626	3.3376093	4.669839	-1.4269825
9669620669392	2.72179	4.559219	-2.9047096
9669630679157	1.9236498	4.6960344	-3.392096
9669640688923	1.4759308	4.3282495	-3.4037719
9669650668171	1.0770104	4.9885263	-3.0753548
9669660647419	0.5275031	5.0856743	-3.3332684
9669670657185	0.42257127	5.165458	-2.8120522
9669680636433	-0.15193406	4.889582	-3.4030235
9669690646198	0.17842895	4.797374	-3.1720536
9669700625446	0.35491195	4.773723	-3.2947984
9669710635212	0.558788	4.628525	-3.5584002
9669720644978	0.23261628	4.853956	-3.7511992
9669730624226	-0.18232086	5.1353707	-3.6890786
9669740633991	-0.717458	5.5826406	-3.8776863
9669750613239	-1.3763878	5.826933	-3.9335203
9669760623005	-1.8411713	6.169271	-4.050277
9669770632771	-2.133663	6.249654	-4.195326
9669780673054	-2.5577312	6.326444	-4.273014
9669790652302	-2.7041268	6.0912833	-4.119583
9669800631550	-3.28926	6.4265857	-4.088897
9669810641315	-3.8151164	6.7388363	-3.9348674
9669820651081	-4.1661363	7.441176	-4.2674756
9669830630329	-4.175866	8.8476515	-4.7171407
9669840640095	-3.6453695	10.899284	-5.346432
9669850649860	-2.9542565	12.152779	-6.0483227
9669860629108	-2.4557931	12.99328	-6.6033683
9669870608356	-2.5360262	12.7956915	-6.248157
9669880618122	-2.7696905	11.264226	-5.980364
9669890597370	-2.911745	9.832454	-5.2691927
9669900607136	-1.7423767	10.966046	-3.2669563
9669910616901	-0.45610154	13.927487	0.5430707
9669920626667	0.8631052	17.72584	4.952451
9669930636433	3.7558396	19.49022	3.687881
9669940615681	6.86697	19.541414	-2.425556
9669950625446	12.25292	14.435382	-10.955567
9669960635212	9.23325	9.178912	-18.98053
9669970644978	3.976481	8.50202	-9.560319
9669980654743	1.7835411	6.064938	0.04430786
9669990633991	0.5322931	3.135829	4.9293995
9670000613239	-0.80487627	1.7684226	5.7011943
9670010623005	-1.4235398	1.357078	5.0614247
9670020602253	-1.2069402	3.5528617	4.004323
9670030612019	-0.6680608	5.7934027	3.3319213
9670040591267	0.8427475	8.309221	2.6300309
9670050601032	2.1615052	9.736952	2.9178822
9670060610798	3.1427147	11.484118	4.7975235
9670070590046	3.961961	12.495865	5.174739
9670080599812	4.487818	14.127023	3.545078
9670090579060	4.735852	16.395405	3.0096414
9670100588825	2.9668305	18.93203	2.8624973
9670110598591	0.4685257	19.027681	1.6344512
9670120608356	-0.9153465	16.488512	-0.5379813
9670130618122	-4.0390506	11.625874	-16.400345
9670140597370	-2.185605	8.174052	-8.543184
9670150607136	-0.0809816	7.4880285	-1.2699591
9670160586384	-0.0398172	8.937764	-0.33215928
9670170596149	-0.16256195	9.140293	-0.15358062
9670180575398	0.07679031	8.453072	0.19444565
9670190585163	0.2814148	8.109536	0.50070876
9670200594929	0.359702	6.908883	0.69754946
9670210574177	0.40850052	6.872808	0.7282356
9670220553425	0.5375322	6.3444066	0.80053526
9670230563190	0.62959075	6.2834835	0.69635195
9670240572956	0.7327263	6.4764323	0.96668977
9670250582722	0.7631131	6.8960094	0.98135924
9670260561970	1.147364	6.9690576	1.0767109
9670270571735	1.1843371	7.258406	1.4057268
9670280550983	1.4741346	7.209458	1.2446617
9670290560749	1.7089962	7.643555	1.0630893
9670300570515	1.6639398	7.9882884	1.1686199
9670310549763	1.5983762	8.242609	0.7890093
9670330538776	1.6675323	8.82445	0.6506969
9670340548542	1.6362474	9.210347	0.48514116
9670350558308	1.7832417	9.761352	0.16151413
9670360537556	1.7555493	9.976005	0.23905289
9670370547321	1.859583	10.529853	0.53289187
9670380557087	1.5612533	10.531799	0.4260141
9670390536335	1.1563454	10.59856	0.29428804
9670400546101	1.3374687	10.724149	0.41927812
9670410555866	1.2448114	10.858869	0.49816406
9670420535114	1.3136683	10.572664	0.5040019
9670430544880	1.0931767	10.772498	0.49127838
9670440554646	0.7819739	11.073972	0.19399658
9670450533894	0.43215135	10.933264	-0.30761033
9670460543659	0.3966751	11.298655	-0.9156459
9670470522907	1.1862831	10.722054	-11.474389
9670480532673	1.4506334	10.848091	-11.380684
9670490572956	1.2737013	11.842922	-2.603087
9670500552204	0.9364526	13.215569	1.6122972
9670510531452	0.74036044	13.659395	4.9825387
9670520541218	0.17229171	12.970378	5.1036367
9670530520466	-0.064665526	12.08931	4.7672863
9670540530231	0.068407744	10.812316	3.6314483
9670550509480	0.066012725	10.81995	3.2524366
9670560519245	0.420775	11.183693	3.4585578
9670570498493	0.94872713	10.892998	3.5368452
9670580508259	1.8158739	10.806627	3.1641202
9670590518024	2.4816892	10.664872	2.7147546
9670600497272	4.354894	12.905113	-2.3626869
9670610507038	6.084098	12.60888	-1.4880556
9670620516804	7.866741	10.694361	0.53274214
9670630496052	9.742491	9.517958	-0.86609894
9670640505817	9.923464	10.181827	-2.874622
9670650485065	7.446265	12.022998	-2.5499473
9670660525349	7.0007915	11.131751	-1.2106824
9670670504597	7.1287756	8.3191	0.29817992
9670680483845	5.3780165	8.20863	0.12499008
9670690493610	2.9945228	8.502319	-0.4378395
9670700472858	1.007405	9.180409	-0.6056406
9670710513142	0.042661287	10.060879	-0.531844
9670720492390	-1.375789	11.544443	0.7640112
9670730471638	-1.7916243	13.61883	0.5957611
9670740481403	-3.1913636	15.127393	-2.8048673
9670750491169	-3.539689	13.496085	-5.7160134
9670760470417	-2.0636086	11.653417	-4.3198667
9670770480183	-1.049318	10.250384	-2.5822802
9670780459431	0.2508783	8.869805	-1.0744656
9670790469196	1.366658	7.558831	-0.30177248
9670800478962	2.1835093	6.0794578	0.7830217
9670810458210	3.466192	4.592001	0.14953904
9670820467976	4.0026765	4.0933876	-0.39368135
9670830447224	3.3178506	4.151916	-1.4982344
9670840487507	2.8886929	4.3504033	-1.4781761
9670850466755	2.5956025	4.007017	-1.3265414
9670860446003	2.040407	3.9953415	-1.6615448
9670870455769	1.2299923	4.280798	-1.6209792
9670880435017	0.80113405	4.377946	-2.1826112
9670890444782	0.44816804	4.655469	-2.918032
9670900454548	0.40386018	4.7283673	-3.3754807
9670910433796	-0.006586304	4.888684	-3.5386415
9670920443562	-0.07289841	4.82312	-3.8535864
9670930422810	-0.099543	5.071604	-4.1239243
9670940432575	-0.37392244	5.26575	-4.2718167
9670950411823	-0.87672687	5.543572	-4.381838
9670960421589	-1.2139755	5.618716	-4.378395
9670970431355	-1.7241147	6.090984	-4.4191103
9670980441120	-2.1195922	6.476133	-4.4316845
9670990420368	-2.5399182	6.859336	-5.19345
9671000430134	-2.8623476	7.352261	-5.617818
9671010439899	-3.305127	7.9511657	-5.897436
9671020419147	-3.7449124	9.133407	-6.258635
9671030428913	-4.0983276	11.24761	-7.156917
9671040408161	-4.572691	13.147161	-7.8477306
9671050417927	-4.730014	14.621744	-7.6387653
9671060397175	-3.9589672	14.0813675	-6.5541205
9671070406940	-2.6806257	11.809392	-6.009553
9671080386189	-1.7808467	8.395442	-5.2985315
9671090395954	-1.3501923	7.689659	-4.590504
9671100405720	-0.5499564	10.056238	-1.2380754
9671110384968	0.65234345	14.246774	2.46208
9671120394733	3.7200642	19.015707	4.1833506
9671130404499	6.327791	19.519558	-0.56208116
9671140414265	9.518556	19.54276	-9.246122
9671150424030	9.169632	12.857063	-16.495846
9671160403278	6.6653395	8.620125	-15.109879
9671170413044	4.814588	3.5308576	-3.6712656
9671180422810	3.1124775	1.4319223	2.3565495
9671190402058	1.1934682	0.6277945	4.610712
9671200411823	-0.2776726	-0.63273424	2.237547
9671210391071	-0.18007553	1.8137783	2.5816813
9671220400837	-0.07664063	4.4189606	2.8190877
9671230380085	-0.022453308	6.2096868	2.6235943
9671240389851	1.5798148	8.188871	2.9109964
9671250399616	2.905009	9.395961	5.1542315
9671260378864	3.6866834	10.595567	6.9413652
9671270388630	3.967799	12.022549	9.423204
9671280367878	1.9748433	15.021263	8.6611395
9671290377644	1.0741663	16.05636	2.0761826
9671300387409	0.17049545	16.841478	-5.262606
9671310397175	-1.5612533	18.341808	-16.683256
9671320406940	-2.0046313	16.411871	-14.774876
9671330386189	-1.0121951	12.265045	-4.2790017
9671340365437	-0.3794609	10.865456	-1.513802
9671350405720	0.18950592	10.106533	-0.8852591
9671360384968	-0.106877744	9.37695	-0.38125718
9671370394733	-0.17004639	8.545579	0.7192543
9671380373981	-0.09759705	7.285799	1.1485616
9671390353229	0.07978409	6.7204247	1.0027647
9671400362995	0.6147716	6.9416647	1.0431807
9671410372761	0.6911128	6.941066	0.8839119
9671420352009	1.3826747	6.8937645	0.72164935
9671430361774	1.5371535	7.2613997	0.8238867
9671440341022	1.6839981	7.4115376	0.7276369
9671450350788	1.7187259	7.556137	0.9080118
9671460330036	1.6236736	7.7585163	0.47136977
9671470370319	1.8272502	7.8626995	0.8586145
9671490359333	2.2026696	7.9962215	0.7699988
9671500338581	2.2694306	8.408764	0.77448946
9671510348347	1.9972966	8.806188	0.48663804
9671520358112	2.0127146	9.209449	0.17438737
9671530337360	1.9058368	9.333391	0.18591338
9671540347126	2.012864	9.702523	0.28321105
9671550356892	1.9232007	9.968969	0.37796402
9671560336140	1.8395247	10.030642	0.45550278
9671570345905	1.6893868	10.1840725	0.6524931
9671580325153	1.6200811	10.191108	0.6637198
9671590334919	1.7028589	10.2580185	0.9114546
9671600344685	1.5239809	9.667796	0.3939807
9671610323933	1.6661851	9.451345	0.352966
9671620333698	1.4620098	9.826316	0.27797195
9671630343464	1.1021581	10.447674	-0.041613463
9671640322712	1.074765	10.373279	-0.2585124
9671650332478	1.221909	10.135274	-0.081430666
9671660342243	1.1879296	10.872491	0.37841308
9671670352009	1.3323793	11.379636	0.5864804
9671680331257	1.2832814	11.476185	0.94872713
9671690310505	1.4573693	11.693533	0.89678514
9671700320271	1.4072237	12.086166	-0.01287323
9671710299519	1.1470647	12.57954	-2.1921914
9671720309284	1.9455043	13.438754	-2.219734
9671730349567	1.984573	13.448334	1.6340021
9671740328815	2.0401075	12.427457	3.048411
9671750308064	2.0469933	11.576178	2.5524921
9671760317829	2.6686506	10.4059105	1.7727635
9671770297077	3.1918125	10.545421	1.3669574
9671780306843	3.9169047	11.687097	0.8837622
9671790286091	4.6921425	12.230018	0.66791105
9671800295856	5.7901096	12.956008	-2.081272
9671810275104	6.178402	12.260554	-1.3287867
9671820284870	6.189928	11.230845	0.6604266
9671830264118	5.992638	10.396331	0.64470935
9671840304401	6.658603	10.142908	0.5731581
9671850283649	6.272107	9.875264	0.13112731
9671860293415	6.200556	9.217832	-0.35371444
9671870272663	5.9113574	7.536228	0.13142669
9671880282429	5.7453523	7.230714	0.5816904
9671890292194	5.2947893	7.9585004	0.32721955
9671900271442	4.648284	9.039253	-0.34248778
9671910250690	3.4187407	9.802964	-0.7152127
9671920260456	2.7319689	10.061626	0.26300308
9671930270222	0.96519285	10.337952	1.6799566
9671940279987	-1.0967692	13.610447	4.3771977
9671950259235	-1.5530205	15.857873	4.071683
9671960238483	-2.8942313	16.42624	-4.1191344
9671970248249	-3.0207183	14.863341	-9.752669
9671980288532	-0.977617	11.854149	-6.213429
9671990267780	0.3489244	10.167157	-3.0759535
9672000247028	1.8613793	8.319849	-1.015638
9672010256794	3.0835876	7.0025883	0.5201683
9672020236042	3.9871087	6.0752664	0.43634263
9672030245808	4.3902206	5.103487	-0.5072951
9672040225056	3.5723214	4.4459047	-1.3915063
9672050234821	2.908901	3.815715	-2.150428
9672060244587	2.4956102	3.7586837	-2.5402176
9672070223835	2.121688	3.0529015	-2.7818153
9672080233601	1.6808547	3.052602	-3.468138
9672090212849	1.0800041	3.4890945	-3.3600626
9672100222614	0.755479	3.9672003	-3.182981
9672110232380	0.6027965	4.486021	-2.908302
9672120211628	0.23261628	4.744234	-2.9837453
9672130251911	-0.09205856	5.115163	-2.974315
9672140231159	-0.0875679	5.1817746	-2.8792624
9672150210407	-0.35610947	4.857998	-3.3608112
9672160250690	-0.585732	4.4388695	-3.3874557
9672170229938	-0.86729646	5.0388217	-2.8768675
9672180422810	-1.0177336	5.2341657	-3.0961616
9672190218952	-1.3730947	5.1852174	-3.0009594
9672200198200	-1.4217435	5.023853	-2.9879365
9672210207966	-1.5206877	5.3215837	-2.9746141
9672220217731	-1.6048127	5.4342995	-3.315755
9672230196980	-1.4667997	5.761968	-3.7723055
9672240237263	-1.4798226	5.942642	-4.115841
9672250216511	-1.6266674	6.467002	-4.875661
9672260195759	-1.45707	6.415958	-5.435347
9672270205524	-1.4343174	7.1404514	-6.2695622
9672280215290	-1.4181509	7.6511893	-7.561526
9672290225056	-1.3205539	8.5154915	-8.356672
9672300204304	-1.1355386	9.746532	-10.085427
9672310183552	-1.271007	11.248059	-11.115585
9672320193317	-1.2986994	12.4785	-11.107203
9672330172565	-1.1990067	13.042678	-10.500514
9672340212849	-1.0868897	12.191697	-9.191187
9672350161579	-0.87088895	11.096575	-7.423363
9672360171345	-0.26554778	8.89166	-4.6972322
9672370181110	-0.10852432	7.796387	-2.905009
9672380160358	-0.12708573	6.9633694	-2.2911355
9672390170124	0.07843689	6.527027	-0.37511992
9672400179890	1.0274634	6.7928743	0.4486171
9672410189655	3.0859826	8.566087	0.14474899
9672420168903	5.2494335	11.176358	-1.4495856
9672430178669	7.7529774	15.947238	-5.276827
9672440188435	8.715925	19.320173	-13.774655
9672450198200	4.7722263	19.352955	-12.297827
9672460177448	1.631158	13.547278	-4.4662623
9672470187214	0.7228468	8.090825	-0.3851491
9672480196980	0.97342575	3.6030076	2.1383033
9672490176228	1.1118878	2.2694306	2.173031
9672500155476	1.348396	2.9755125	-1.1109897
9672510165241	2.2495222	4.0983276	0.54786074
9672520175007	2.9639864	6.2227097	2.131717
9672530154255	3.2591724	7.5938587	2.6370661
9672540164021	3.2385154	8.510552	1.8628762
9672550143269	3.7019517	9.595796	2.018253
9672560153034	3.6200721	10.065069	2.3565495
9672570162800	3.8507423	10.585687	3.21711
9672580142048	3.2142658	12.363989	3.0311966
9672590151813	3.0924194	16.544046	4.198619
9672600161579	1.6934285	18.577717	4.964277
9672610171345	-0.54471725	17.48484	2.0390596
9672620150593	-1.7339941	14.66695	-3.5869908
9672630160358	-3.0532007	11.258089	-14.499598
9672640170124	-0.69725007	7.1916447	-6.399642
9672650149372	0.32961455	6.7696724	-1.637445
9672660159138	0.4779561	7.732919	0.50235534
9672670138386	0.5773494	8.084838	0.57944506
9672680117634	0.6420149	8.311915	0.4712201
9672690157917	0.81924635	7.9159884	0.14145584
9672700137165	0.8725355	7.276219	0.36269578
9672710146931	0.79963714	6.8725085	0.3344046
9672720126179	0.9017249	6.652017	0.26644593
9672730135944	1.1021581	6.697672	0.33410522
9672740145710	1.2811857	6.865174	0.8662486
9672750124958	1.3603711	7.4600368	0.7810757
9672760134724	1.6479231	7.988438	0.75996965
9672770113972	1.3816268	8.1352825	0.8149054
9672780123737	1.8317409	8.228089	0.8238867
9672790164021	2.783312	8.630154	1.2413685
9672800112751	2.829566	8.710985	1.1123369
9672810122517	2.3412812	8.942703	0.96668977
9672820101765	2.1424947	9.215735	0.16420853
9672830111530	2.2194347	9.234746	0.11885285
9672840121296	1.7865349	9.216334	-0.029488677
9672850131062	1.5019766	9.832454	0.006586304
9672860110310	1.1879296	9.873768	0.03622467
9672870120075	1.0657837	10.032737	-0.018411713
9672880129841	1.0515633	10.11327	0.3489244
9672890109089	0.988694	10.529703	0.5851332
9672900118855	1.0502161	10.529553	0.8649014
9672910128620	1.0466236	10.577005	1.5121554
9672920077351	1.1861334	10.602752	1.6796571
9672930087116	1.0012679	10.26206	2.039958
9672940066364	1.0551558	9.956097	2.1704865
9672950076130	1.0166858	9.875414	1.8583854
9672960055378	0.9009764	10.125394	1.5235318
9672970065144	0.90217394	10.5603895	0.97058165
9672980074909	0.50011003	11.1566	0.17753083
9672990084675	0.58902514	11.444451	-0.48274612
9673000063923	0.73721695	11.610306	-2.3278093
9673010134724	1.2708572	11.688892	-7.528295
9673020113972	1.1020083	11.772269	-0.9219328
9673030123737	0.96938413	12.341386	1.5072157
9673040102985	1.3117223	12.415032	2.6168582
9673050082233	1.3747412	11.706706	3.2248938
9673060091999	1.2464579	11.117231	3.0401778
9673070071247	1.1502081	10.603949	2.465972
9673080050495	1.3650115	10.8103695	2.2611978
9673090060261	1.8523979	10.897339	1.9399658
9673100070026	2.3930736	11.34431	0.43095383
9673110049274	4.1165895	11.728261	-1.2581336
9673120089558	5.324877	10.266701	1.033451
9673130312946	6.879394	9.083411	3.1174173
9673140048054	7.430548	8.871601	3.4694853
9673150057819	7.8987746	8.887768	2.3333478
9673160037067	7.830217	9.589508	0.23396347
9673170046833	7.857161	10.155032	-2.2194347
9673180026081	6.615493	12.002491	-5.77529
9673190096882	6.399193	11.584559	-5.4899836
9673200045612	6.8557434	10.167756	-2.6641598
9673210024860	6.47269	8.990604	-0.4805008
9673220034626	4.115691	9.2331	1.0457253
9673230044392	2.650089	9.485025	1.8967057
9673240023640	1.3160633	9.212892	1.5599061
9673250063923	0.016016694	9.565708	0.63018954
9673260043171	-1.5834073	10.149644	1.9398161
9673270052937	-2.3968158	13.302986	2.3358924
9673280032185	-2.7762766	14.265485	-3.1994467
9673290011433	-1.9898121	11.375295	-6.379883
9673300021198	-0.38589752	9.1367	-4.440516
9673310030964	0.9566606	6.8660717	-2.2439835
9673320010212	1.6916323	5.834567	-1.0115963
9673330019978	2.271676	5.1720448	-0.27527755
9673339999226	3.0725107	4.261937	-0.18531464
9673350008991	3.560945	3.701802	-0.065114595
9673360018757	3.8715491	3.0761032	-0.5670209
9673370028522	3.2946486	2.8235784	-0.9234297
9673380007771	2.5113277	2.859354	-1.307531
9673389987019	1.7720151	2.6867628	-1.7896783
9673399996784	1.0499167	2.9045599	-2.4117846
9673410006550	0.7649094	3.219954	-2.8942313
9673419985798	0.09385483	3.9053788	-3.4582586
9673429965046	-0.34787658	4.315526	-3.9701939
9673440005329	-0.86699706	4.5192523	-4.4259963
9673450015095	-0.83511335	4.816684	-4.7782135
9673459994343	-1.1087444	5.107828	-4.828958
9673470004108	-1.6804056	5.998476	-5.1774335
9673480013874	-2.151925	6.7060547	-4.9461646
9673489993122	-2.6229954	7.4440203	-4.537664
9673500002888	-2.4276516	8.297246	-5.729336
9673510012653	-2.6831703	8.92998	-6.8894234
9673519991901	-2.4066954	11.204051	-8.106243
9673530001667	-2.5982969	13.3794775	-7.8743753
9673539980915	-2.650089	16.382683	-7.063811
9673549960163	-2.6331742	16.74912	-6.7768574
9673559969929	-2.7548711	15.727644	-7.8149486
9673569979694	-2.4917185	14.385984	-8.125403
9673579989460	-0.9940828	15.678396	-4.022585
9673589968708	0.6598279	18.550623	1.0886861
9673599978474	2.5421636	19.472258	4.8810496
9673609988239	6.314469	17.424965	1.3985417
9673619967487	12.379706	11.699371	-4.4036922
9673630007771	17.492025	2.0942948	-18.846708
9673639987019	10.031838	3.739374	-9.226663
9673649996784	3.5467246	5.957012	3.9835162
9673659976032	1.0241703	4.3412724	5.823041
9673669955280	-0.6487509	3.182981	5.4413347
9673679965046	-1.2808864	4.3830357	4.2065525
9673689944294	-1.2368779	6.577921	4.2743616
9673699954060	0.18217117	8.573571	4.157155
9673709963825	1.56769	9.504036	4.22691
9673719943073	3.0055997	11.269166	6.5651975
9673729952839	3.3600626	12.058025	7.397766
9673739962604	3.5786083	14.222973	7.868238
9673749941853	3.1048434	16.245268	6.322552
9673759951618	2.629432	16.798668	3.8731956
9673769961384	1.0249187	14.785953	4.581373
9673779940632	-0.14145584	12.119397	4.491709
9673789950398	-1.979783	9.592203	-16.344511
9673799960163	-1.7938696	7.4782987	-14.877711
9673809939411	0.20597167	7.37202	-3.8193078
9673819949177	0.805475	8.190817	-1.1076965
9673829928425	1.2352313	9.327254	-0.11196716
9673839938190	1.3711487	8.958271	0.050145723
9673849947956	1.5817608	8.457413	0.25102797
9673859927204	1.7076489	7.460336	0.65803164
9673869936970	1.5413448	7.336843	0.64036834
9673879916218	1.4239888	7.0409083	0.80936694
9673889895466	1.1455678	7.343429	0.86445236
9673899935749	0.58438474	7.9378433	0.20477417
9673909914997	0.84454376	7.980355	-0.027842103
9673919924763	1.1639795	7.6511893	-0.025596771
9673929904011	1.3400134	7.9713736	-0.24264541
9673939913776	0.87088895	8.231382	-0.19235
9673949923542	1.173859	8.402477	-0.11915222
9673959933308	1.0759625	8.44903	0.030386811
9673969943073	1.2370276	8.233928	0.18785934
9673979922321	1.1391312	8.462802	0.3691324
9673989932087	1.4441968	8.539891	0.38844222
9673999911335	1.2626244	8.928483	0.5956114
9674009921101	1.4691948	9.49251	0.9277707
9674019930866	1.4916481	9.514215	1.1386821
9674029910114	1.2949572	9.973161	1.397943
9674039889362	1.5567627	10.011481	1.4097683
9674049899128	1.4977853	10.129436	1.3653108
9674059908894	1.6886384	9.780063	1.391207
9674069918659	1.7705182	9.901609	1.3965957
9674079867390	1.5829582	9.657766	1.1861334
9674089877155	1.2281959	9.796977	0.8517288
9674099856403	1.1193722	10.2828665	0.05583389
9674109896687	0.8520282	10.578352	-0.52061737
9674119875935	0.9729767	10.609188	-1.9489472
9674129885700	1.2021501	10.038724	-8.906479
9674139925983	1.1331437	10.54557	-4.735702
9674149905231	0.6893166	11.919414	-0.6316864
9674159914997	0.50325346	11.655811	-0.053438872
9674169894245	0.43439665	10.749297	0.13891113
9674179904011	0.28500733	10.797796	0.6379733
9674189883259	-0.16271164	11.449242	2.3209236
9674199893024	-0.7789801	12.567266	2.6394613
9674209872272	-0.8825647	12.913496	3.0282028
9674219851521	-0.88960004	12.398417	2.757865
9674229861286	-0.47705796	11.490854	2.6593697
9674239840534	0.8020322	10.105186	3.1388228
9674249880817	1.7039067	10.017618	3.4983752
9674259860065	2.9451256	10.207124	2.0444486
9674269869831	3.967799	10.061028	1.5364051
9674279849079	6.362968	9.461076	2.9770093
9674289858845	9.0623045	9.188044	3.9576201
9674299838093	11.54115	9.016201	2.2999673
9674309847858	12.9115505	10.341545	-7.156019
9674319827106	10.274035	11.544443	-7.1298237
9674329836872	6.7398844	10.641071	-3.2365694
9674339877155	5.8459435	9.784253	-0.52196455
9674349856403	4.592001	9.101973	0.848286
9674359835651	3.4461336	8.887618	0.6427634
9674369845417	1.9291883	9.340127	-0.4245172
9674379824665	1.0722203	9.169632	-2.5915608
9674389834431	0.101488955	9.322913	-3.930227
9674399844196	-0.47211823	9.884845	-1.6096028
9674409823444	-1.4403049	11.265124	0.20237915
9674419802692	-2.6762846	13.771662	0.5894742
9674429812458	-2.9547057	15.082786	-1.2442126
9674439822224	-1.9398161	12.971875	-2.6595194
9674449831989	-0.52989805	10.253078	-3.2302825
9674459811237	0.7586224	7.9131446	-1.8398241
9674469821003	1.6480728	6.3430595	-0.3650908
9674479800251	2.8803103	4.956942	0.68123335
9674489810017	3.5286121	4.0176454	-0.13247451
9674499789265	3.2831228	3.7507503	-0.9421408
9674509829548	2.2138963	3.6567457	-2.0588186
9674519808796	1.8723065	3.6997063	-2.2329066
9674529788044	1.4780264	3.3705409	-2.5397685
9674539797810	1.3178595	3.2780333	-2.3797512
9674549807575	1.0976673	3.6908748	-2.1122575
9674559786823	0.9196875	4.1722736	-2.2977219
9674569796589	0.89004916	4.450246	-2.1728814
9674579806355	0.8822653	4.81354	-2.451003
9674589785603	0.67764086	4.954996	-2.588567
9674599795368	0.5628296	5.6646705	-3.0657747
9674609805134	0.5511539	6.0219774	-3.4317636
9674619784382	0.42796004	6.0299106	-3.6486626
9674629794147	0.12558883	6.355035	-3.7553906
9674639803913	-0.26030868	7.221433	-3.8291872
9674649813679	-0.46957353	7.9064083	-4.6517267
9674659792927	-0.6081853	8.59812	-5.2679954
9674669802692	-0.7393126	9.926607	-7.8788657
9674679781940	-0.93450665	11.357482	-9.44431
9674689791706	-1.9582279	14.446459	-9.017697
9674699770954	-3.2956965	17.216599	-6.9876194
9674709780720	-5.0623226	18.025965	-5.292095
9674719790485	-5.485942	16.747623	-4.8138394
9674729769733	-5.191504	14.037509	-4.368216
9674739779499	-2.4471111	12.258758	-2.19758
9674749758747	-0.36389327	12.91649	-0.28695327
9674759768513	2.3102958	14.4046955	3.9080732
9674769778278	4.3923163	16.236437	5.9635987
9674779788044	8.115374	15.30642	2.2617965
9674789767292	12.0459	11.508967	-9.747729
9674799777058	9.807006	7.4077954	-19.060614
9674809786823	5.3982244	6.9475026	-9.4491005
9674819766071	3.253185	5.6275473	0.8342152
9674829775837	0.57420594	2.4254065	6.037096
9674839755085	-1.2201128	0.78526706	4.242777
9674849764851	-1.9243982	3.5004706	2.396666
9674859744099	-1.5203884	6.283334	3.1201117
9674869753864	-0.08053253	9.099427	4.1617956
9674879763630	1.14931	10.353819	5.0485516
9674889742878	3.7429664	11.4697485	6.714886
9674899752644	5.3980746	12.258608	7.305708
9674909731892	6.205496	14.129118	6.9007998
9674919741657	5.0000525	16.582815	4.3728566
9674929751423	3.507955	16.134798	3.3617094
9674939730671	1.2609777	13.643378	3.3260834
9674949740437	0.33380586	12.032129	0.33784744
9674959750202	-1.3727952	10.433454	-15.5938225
9674969729450	-0.74889266	8.336314	-9.994117
9674979739216	0.99363375	7.6718464	-1.4639556
9674989748981	1.5793657	7.8025246	1.4606625
9674999728229	1.2430152	8.189171	2.3179297
9675009707478	1.4790742	8.138126	2.376907
9675019747761	1.3567786	7.8433895	1.7925224
9675029727009	1.0629396	7.511679	1.0431807
9675039736774	0.8107141	7.1437445	0.8710387
9675049716022	0.72808594	6.967561	0.54696256
9675059756306	0.50070876	7.028185	0.46328658
9675069735554	0.53109556	7.250323	0.16914825
9675079745319	0.31943572	7.733668	0.22004242
9675089724567	0.60429335	8.153694	0.28051665
9675099734333	1.2325369	8.145162	0.8294252
9675109713581	1.3001962	8.400681	1.0503658
9675119692829	1.5892452	8.999435	1.0325528
9675129672077	1.8714083	9.134604	1.0898836
9675139712360	2.0778291	9.407337	0.8086185
9675149691608	2.1863534	9.525292	0.6688092
9675159701374	2.4149282	9.388776	0.18726058
9675169680622	2.0642076	9.318123	0.1499881
9675179720905	2.071692	9.572743	-0.13771363
9675189700153	1.72157	9.780212	-0.14894028
9675199709919	1.5118561	9.613459	-0.08068222
9675209689167	1.2572355	9.89173	0.1525328
9675219698933	1.1936178	10.067914	0.86220706
9675229678181	0.91355026	10.316846	0.8626561
9675239687946	0.64036834	10.302626	1.0367441
9675249667194	0.7008426	10.357861	1.07716
9675259676960	0.6950047	10.431358	1.0145901
9675269686726	0.64096713	10.619666	1.4717395
9675279696491	1.1545491	10.538086	1.5681391
9675289675739	0.9976753	10.678345	1.6563057
9675299654987	0.75398207	10.248288	1.3808784
9675309664753	0.72105056	10.062974	0.80053526
9675319644001	0.6658154	9.770632	0.4899312
9675329653767	0.6030958	9.531429	0.32302827
9675339633015	0.8089178	9.404194	0.05508545
9675349642780	0.62704605	9.372459	-0.7807764
9675359683064	1.0035132	9.525742	-2.1522245
9675369662312	1.0100995	11.156301	-2.1793182
9675379702595	0.99752563	11.829301	0.76760375
9675389712360	0.9753717	12.427906	2.6860144
9675399661091	0.89483917	12.333003	2.817441
9675409670856	0.8759784	10.743908	2.2710772
9675419680622	1.0321038	10.442734	1.7618363
9675429659870	1.7768052	10.540481	1.542692
9675439669636	3.0476623	10.56009	0.97776675
9675449679401	3.8737943	10.543923	1.4419514
9675459658649	4.8428793	10.450667	2.379452
9675469668415	5.7390656	10.405461	3.0590386
9675479647663	6.928492	10.480755	2.7077193
9675489657429	8.153095	10.499466	2.3797512
9675499636677	10.110126	9.18011	-1.8233583
9675509646442	10.460847	8.84825	-2.6759853
9675519656208	8.821456	9.682316	-1.2271482
9675529635456	6.4622116	10.069111	1.1964619
9675539614704	5.8052278	9.884845	1.6069084
9675549654987	3.9880068	9.323662	0.5099895
9675559634235	2.704426	9.779464	-0.6521938
9675569613483	2.6129663	9.372609	-2.1936882
9675579623249	2.1270766	9.209898	-2.6692493
9675589633015	2.5047414	8.49274	-2.065405
9675599612263	1.8920654	8.371491	-1.9902612
9675609622028	1.1220666	8.411009	-0.7030879
9675619601276	-0.76475966	9.711655	3.0719118
9675629611042	-1.9784359	11.659254	3.3082705
9675639590290	-3.1246023	13.566139	0.28740233
9675649600056	-3.480712	13.795911	-1.518143
9675659609821	-2.665058	11.329789	-4.9557443
9675669619587	-1.1781999	9.659114	-4.581373
9675679629353	-0.060324553	8.795111	-2.1258793
9675689608601	1.3070819	7.6823244	-0.7825726
9675699618366	2.8301647	6.4397583	0.044906616
9675709597614	4.1733217	4.625681	-1.1681708
9675719607380	4.2869353	4.4926076	-2.2110522
9675729586628	3.7805383	3.9748342	-2.9279113
9675739596394	3.2066317	4.574487	-2.7975326
9675749606159	2.2772145	4.372108	-2.398163
9675759585407	1.7160316	5.106631	-2.366878
9675769595173	1.2751982	5.3748727	-2.2191353
9675779574421	0.6893166	6.0150914	-2.4725583
9675789584187	0.29892838	5.9866505	-2.7315197
9675799563435	0.4098477	6.05416	-2.7671456
9675809603718	0.15492782	6.259234	-2.8138485
9675819582966	-0.23965164	6.4816713	-3.0546978
9675829562214	-0.31374756	6.1478653	-3.1431637
9675839571980	-0.49561936	6.5087647	-3.4525704
9675849551228	-0.800685	6.5253806	-3.3400044
9675859560993	-1.287772	6.1671753	-3.207979
9675869570759	-1.5618521	6.6946783	-3.4684374
9675879580524	-1.8260527	7.23715	-3.6783009
9675889559772	-1.9586769	7.6707983	-4.128714
9675899569538	-2.444267	8.468939	-3.9883063
9675909579304	-3.6148329	10.449321	-3.5259178
9675919558552	-4.219276	11.839629	-3.2314801
9675929568317	-4.86653	14.202167	-3.2094758
9675939547565	-4.709207	15.904576	-3.479215
9675949557331	-4.099974	16.847466	-4.373306
9675959536579	-3.1235545	14.302308	-5.8164544
9675969515827	-2.6141639	11.864628	-6.5753765
9675979525593	-2.7755282	8.950487	-6.5352597
9675989535358	-2.4927664	8.6225195	-5.8237896
9675999545124	-0.8414003	10.800341	-1.4501843
9676009554890	0.99587905	13.352234	2.6006918
9676019564655	3.8477485	14.934443	5.557044
9676029543903	6.33812	13.592634	3.8983433
9676039553669	9.755663	11.384875	1.2177178
9676049563435	13.0506115	9.379795	-5.7947497
9676059573200	11.848162	7.705227	-18.633102
9676069552448	3.7139268	11.197016	-8.119864
9676079562214	0.83825684	11.345357	2.9596453
9676089541462	-0.26839188	6.652167	6.3200073
9676099520710	-0.77957886	5.3708315	4.382736
9676109530476	-0.91489744	6.2020526	2.1689897
9676119540241	-0.11047027	7.416477	2.277514
9676129519489	1.257535	8.599168	2.8479776
9676139529255	2.559228	10.449171	3.6570451
9676149508503	3.1588812	11.001073	3.7718563
9676159518269	3.2855177	11.269465	3.9146595
9676169497517	2.8936327	11.714041	4.084556
9676179507282	1.9380199	12.377312	3.1937585
9676189547565	1.0445279	11.997401	2.1248314
9676199526813	0.2508783	10.900632	1.4111155
9676209536579	-0.19010468	10.299333	0.7782317
9676219546345	-0.50924104	10.039473	0.44382706
9676229525593	-0.5628296	10.397229	0.123044126
9676239504841	-0.54786074	10.136471	-2.413581
9676249514606	1.095422	8.608449	-6.1674747
9676259524372	1.5561639	8.449928	-3.5362463
9676269503620	1.4485377	9.162895	-1.3765374
9676279513386	0.925226	9.6107645	-0.29428804
9676289492634	0.6173163	8.982072	0.30611342
9676299502399	0.5213658	7.8415933	0.6391708
9676309481647	0.7191046	7.679181	0.6996451
9676319491413	0.84424436	7.149283	0.977617
9676329470661	1.1123369	7.608528	1.0529104
9676339480427	1.4063256	7.9370947	1.2972025
9676349490192	1.443598	8.085735	1.063239
9676359469440	1.7097446	8.51609	1.267564
9676369479206	1.7607884	8.817714	1.2747492
9676379488972	1.683549	8.9927	0.93106383
9676389468220	1.658551	9.205108	0.4593947
9676399477985	1.7434245	9.096733	0.4376898
9676409487751	1.932182	8.979826	0.3570076
9676419497517	1.6937279	8.985215	0.34473312
9676429476765	1.6762143	9.086555	0.101339266
9676439486530	1.5916401	8.897797	0.42107436
9676449496296	1.3790822	9.080418	0.56492525
9676459475544	1.2832814	9.219927	0.646805
9676469485310	1.2659175	9.002728	0.79260176
9676479464558	1.1317964	9.311088	0.73691756
9676489474323	1.099763	9.59834	1.0331515
9676499484089	1.3091775	9.738299	1.4747332
9676509463337	1.5596068	9.839339	1.5166461
9676519473103	1.547482	9.7989235	1.5872992
9676529482868	1.493145	9.803563	1.3648617
9676539462116	0.9403446	10.177785	0.79544586
9676549441364	0.7921527	10.313403	0.63812304
9676559451130	0.76161623	10.455158	0.17498611
9676569430378	0.64411056	10.298285	-0.065713346
9676579470661	0.5891748	10.321187	-0.43589357
9676589449909	0.47062135	10.225387	-0.3023712
9676599459675	0.37047958	10.087672	-0.66821045
9676609469440	0.47765672	10.4726715	-1.0054592
9676619418171	0.7300319	10.172247	-3.1624737
9676629458454	1.2317885	10.431358	-6.984775
9676639468220	0.9431886	11.576477	-0.9830058
9676649477985	0.66536635	12.319531	2.0160077
9676659457233	0.6655161	11.422747	3.0380824
9676669466999	0.6030958	10.400971	3.382067
9676679446247	0.32078293	10.035431	2.9355454
9676689456013	0.5011578	10.222991	2.6634114
9676699435261	0.7072792	10.330617	2.9045599
9676709445026	1.4650035	10.851534	2.2405407
9676719454792	2.5987458	10.624007	2.0185523
9676729434040	3.2123199	10.116862	2.4598348
9676739443806	4.081263	10.078392	2.9294083
9676749423054	5.665269	10.665771	3.4284704
9676759432819	7.1422477	10.834769	2.3743625
9676769442585	10.467882	11.732602	-6.209986
9676779421833	11.025622	12.027938	-6.7638345
9676789401081	8.810978	11.622431	-2.0760329
9676799410847	6.4316754	11.220817	0.617466
9676809390095	4.1439824	10.428214	1.5630497
9676819430378	3.300786	9.217682	0.87133807
9676829409626	2.8898904	8.551118	-0.9859996
9676839388874	1.9335293	8.187075	-2.0007393
9676849398640	1.0056088	8.350984	-1.7829423
9676859408405	-0.31659165	8.128397	-1.3837225
9676869418171	-1.0568024	8.866363	0.23650818
9676879397419	-1.9188597	10.538685	0.9671388
9676889407185	-2.8337572	12.486584	-0.58812696
9676899783161	-3.6220179	13.83004	-4.716841
9676909396198	-3.133883	12.253669	-6.501131
9676919405964	-1.8362316	10.480156	-5.1082773
9676929385212	-0.03891907	8.538394	-2.2960753
9676939394978	0.7382648	7.8661423	-0.88690567
9676949374226	2.247127	6.6740212	0.2574646
9676959383991	2.8413913	5.763315	0.38963974
9676969363239	3.5588493	4.9042516	-0.3610492
9676979373005	3.4307158	4.4947033	-1.4858103
9676989382771	3.2678545	4.5575724	-1.5742763
9676999392536	2.9571006	4.7132487	-1.6816031
9677009371784	2.4806414	4.8945217	-1.6801062
9677019381550	1.9854712	5.369334	-2.129322
9677029360798	1.7112415	5.5289025	-2.7499316
9677039340046	1.2169693	5.856571	-2.7571166
9677049349812	1.0264156	6.3792844	-3.262765
9677059359577	1.0885364	6.646329	-3.2388148
9677069369343	0.9451346	6.4156585	-3.4203873
9677079379108	0.88481003	6.8135314	-3.6438725
9677089327839	0.5445676	6.567443	-3.6024086
9677099337604	0.5201683	6.687194	-3.8458025
9677109347370	0.013771363	7.023844	-3.9537282
9677119357136	-0.47181883	6.8738556	-3.7952077
9677129366901	-0.67928743	6.8970575	-3.8160145
9677139346149	-1.1252102	7.6206527	-3.94804
9677149355915	-1.4618601	7.8237805	-4.2550516
9677159335163	-1.2560381	8.31925	-4.5036845
9677169344929	-1.5539186	9.277258	-4.983886
9677179354694	-1.6581019	10.452464	-5.3178415
9677189364460	-1.7809964	11.921359	-5.5890775
9677199343708	-2.2059627	13.455668	-5.954318
9677209353474	-1.9740949	14.526242	-5.906567
9677219332722	-1.475332	14.246774	-6.8997517
9677229311970	-0.9770183	12.376114	-7.2724767
9677239352253	-0.5798941	10.143955	-7.033873
9677249331501	-0.049846344	8.757389	-6.831494
9677259341267	0.89483917	9.196426	-5.7083793
9677269320515	2.277963	11.599079	-3.1494508
9677279330280	2.8297155	13.778398	0.0044906614
9677289340046	3.2552805	15.637831	2.416425
9677299349812	4.6616063	15.484849	2.0266356
9677309329060	7.0958443	11.947555	-0.15193406
9677319308308	8.640332	8.788973	-8.504415
9677329379108	5.170847	7.795789	-14.395864
9677339358356	2.3052063	7.3696246	-6.6680336
9677349337604	1.3045372	5.9372535	-1.1361374
9677359347370	0.61761564	4.4628196	4.202361
9677369326618	0.3171904	3.9239402	5.1838703
9677379305866	0.46882507	5.21276	3.687432
9677389315632	0.9702823	7.1450915	2.5560846
9677399294880	1.7932708	9.732611	1.8202149
9677409304646	3.1213093	11.118579	1.8744022
9677419314411	4.41462	13.134586	2.8229797
9677429324177	4.5195518	15.635885	3.4473312
9677439303425	3.395539	16.026573	3.4675393
9677449313190	0.5590874	13.023667	3.9651046
9677459322956	-0.38859192	10.917697	3.8269417
9677469302204	-0.015268249	10.190509	0.2640509
9677479311970	0.35895357	10.408456	-6.1328964
9677489321735	0.5610333	9.97376	-9.31977
9677499300983	1.7636325	9.181606	-3.1807356
9677509280231	2.741549	9.476045	1.4178516
9677519289997	2.548151	9.855355	1.8839822
9677529269245	1.6747174	9.990973	1.6408877
9677539279011	1.397943	9.307046	0.85756665
9677549258259	0.9809102	8.776699	0.40655458
9677559268024	0.9874965	7.997569	-0.046403505
9677569277790	0.67614394	8.281978	-0.23935227
9677579257038	0.592917	7.9596977	-0.41164398
9677589297321	0.5869295	7.8544664	-0.76790315
9677599246052	0.7586224	7.619605	-0.8509804
9677609286335	0.9169931	7.74205	-0.8656499
9677619296101	1.0039623	7.9068575	-0.89424044
9677629275349	0.8402028	8.071365	-0.92567503
9677639285114	0.9422905	8.46819	-0.62165725
9677649264362	0.95351714	8.768167	-0.12394226
9677659274128	1.1475137	9.014255	0.06451584
9677669283894	1.4552737	9.105116	0.5893245
9677679263142	1.3576767	8.816815	0.7789801
9677689272907	1.2500505	8.997041	1.0394385
9677699282673	1.4171032	9.009614	0.9223819
9677709261921	0.91519684	8.79526	0.8655002
9677719271687	1.1801459	9.239087	0.70368665
9677729250935	0.97746736	9.410031	0.76281375
9677739260700	0.6325845	9.749077	0.42810974
9677749239948	0.78661424	10.067914	0.30296996
9677759249714	0.66686326	10.183474	0.1896556
9677769228962	0.65907943	10.1438055	0.001646576
9677779238728	0.56627244	10.2193985	0.33275804
9677789217976	0.5749544	10.027199	0.22333556
9677799227741	0.99453187	9.844129	-0.10208771
9677809206989	1.0374925	9.590556	0.23980133
9677819216755	1.1750565	9.7658415	0.28994706
9677829226521	1.065185	9.681567	0.52226394
9677839205769	1.1247611	9.671239	0.6189629
9677849215534	1.2027489	9.520352	-0.15477814
9677859225300	1.3052857	9.717642	-0.9108559
9677869235065	1.3313315	9.915979	-1.7777033
9677879214313	1.4744339	9.968071	-1.9016455
9677889224079	1.0231224	9.992022	-1.4215938
9677899264362	0.5959108	11.222912	-0.064066775
9677909243610	0.33335677	11.544144	0.71880525
9677919253376	-0.17543519	11.952495	1.0925779
9677929232624	-0.20118164	11.814332	1.0496173
9677939211872	-0.45595184	11.448942	0.8970845
9677949221638	-0.51283354	10.591375	0.58049285
9677959200886	-0.552052	10.661429	0.37661684
9677969241169	-0.30446684	10.548564	0.83810717
9677979220417	-0.5402266	10.758428	1.233435
9677989230183	-0.0029937744	10.527308	0.90337145
9677999209431	1.1184741	10.602602	0.69470537
9678009219196	2.4128325	10.352323	2.2888901
9678019228962	3.2918046	10.2828665	4.078269
9678029238728	5.164261	10.572065	5.124294
9678039187458	6.5042744	10.931468	4.7490244
9678049197224	8.329279	10.30517	4.0371046
9678059206989	11.268867	9.633368	-1.3364209
9678069186237	12.593462	9.583072	-7.009474
9678079196003	9.706715	9.322614	-4.398603
9678089205769	7.049291	9.136551	-2.1064196
9678099185017	4.1981697	8.347541	-1.144969
9678109164265	2.6668541	8.124056	-0.5522017
9678119174030	1.4995816	8.567285	-0.98704743
9678129183796	0.75338334	8.654552	-1.6157401
9678139193562	1.1704161	8.03065	-2.6854157
9678149172810	1.2135265	8.423284	-3.0702653
9678159182575	1.0455757	8.520881	-1.9978954
9678169161823	-0.22872436	8.667426	-0.17229171
9678179171589	-1.5688875	9.441616	0.16346008
9678189150837	-2.6541307	10.26221	0.51433045
9678199160603	-3.076253	11.216026	0.3713777
9678209139851	-2.8077114	11.731105	-0.028590545
9678219180134	-2.3028114	10.240953	-1.5392491
9678229159382	-1.8495538	9.279952	-3.3097672
9678239169147	-1.2072395	8.285271	-4.040847
9678249148395	-0.1950444	7.7534266	-4.012107
9678259158161	1.0644364	7.1355114	-3.5119967
9678269167927	1.9696041	7.0983887	-3.2287858
9678279177692	2.6285338	6.8279014	-3.0029054
9678289156940	2.9535081	6.712192	-2.7214906
9678299166706	3.0415251	6.437962	-2.3215225
9678309145954	2.6586213	6.367309	-2.4041505
9678319155720	2.5162673	6.1941195	-2.324067
9678329134968	2.053879	5.7992406	-2.4364834
9678339144733	1.4067746	5.5723124	-2.594405
9678349123981	0.7232959	5.7468495	-3.1756463
9678359103229	0.51118696	5.931266	-2.998265
9678369112995	0.101488955	6.61699	-3.0308971
9678379122761	0.10627899	7.0379148	-3.3226404
9678389132526	-0.3213817	7.197034	-3.1964529
9678399111774	-0.45071274	7.4021072	-3.2980917
9678409121540	-0.79005706	7.5793386	-3.2189062
9678419131306	-0.83795744	7.757468	-3.1593301
9678429141071	-1.1412268	7.898924	-3.3221915
9678439120319	-1.4260844	8.210726	-3.355572
9678449130085	-1.5639478	8.474627	-3.2216005
9678459139851	-1.7660276	8.374934	-3.555107
9678469119099	-1.3473482	8.374635	-3.4458344
9678479128864	-1.287323	8.86262	-3.4988241
9678489108112	-1.4585669	9.811946	-3.9721398
9678499117878	-1.3052857	10.778037	-4.5120673
9678509127644	-1.3391153	12.353661	-5.3411927
9678519106892	-1.4480886	13.520634	-5.7170615
9678529086140	-1.4359639	13.6520605	-5.97737
9678539095905	-1.1150312	12.765754	-5.4862413
9678549105671	-0.4552034	11.222013	-4.9282017
9678559084919	0.52346146	11.3097315	-4.493805
9678569094685	1.4135106	12.418924	-4.144881
9678579104450	2.4544458	14.833254	-2.8903396
9678589083698	3.2121704	16.746426	-2.0368145
9678599062946	4.453389	17.015417	-1.2578343
9678609103229	4.61161	14.006972	-0.9982741
9678619112995	3.8170624	9.210946	-2.334246
9678629092243	3.926335	6.54469	-2.9594958
9678639132526	4.5830197	3.796555	-4.7166915
9678649111774	4.434828	2.1644988	-10.272388
9678659121540	3.4540672	3.564238	-6.5060706
9678669100788	2.3185287	5.0222063	1.305585
9678679110554	1.5049704	6.2869263	4.297563
9678689089802	1.7792001	8.1987505	4.345314
9678699069050	2.6970913	9.854308	2.638114
9678709078815	4.0724316	14.039454	1.4735358
9678719088581	4.9681687	18.158888	2.0368145
9678729098347	2.7563682	17.373173	2.7809172
9678739077595	0.45235932	13.0557	2.7916946
9678749056843	-0.50759447	9.364676	2.1234841
9678759066608	-1.0056088	6.1604395	1.4453943
9678769076374	-0.7662566	5.3009267	1.6699274
9678779086140	0.09624985	6.684649	3.4370027
9678789095905	0.44786865	8.662187	3.299289
9678799075153	1.0940748	10.940001	0.9859996
9678809084919	2.0547771	11.774216	-4.7108536
9678819094685	2.3851402	10.892549	-6.942114
9678829073933	2.2929318	9.944121	-2.464625
9678839053181	2.3489153	9.793085	0.18247055
9678849093464	1.9020946	9.631271	0.72164935
9678859072712	1.3804294	9.503437	0.50355285
9678869051960	0.8940907	8.682545	0.022602998
9678879061726	1.0222243	7.9718227	-0.25970992
9678889040974	0.6971004	7.2509217	-0.32871643
9678899050739	0.8066725	7.0820727	-0.27168503
9678909060505	0.87627774	6.9302883	-0.12933105
9678919070271	0.7547305	7.149133	0.21255799
9678929080036	0.6996451	7.572004	0.0371228
9678939028767	0.85412383	8.099058	0.43544447
9678949038532	1.194516	8.497379	0.7547305
9678959048298	1.0726694	8.81457	0.99108905
9678969027546	1.484014	9.080866	1.2748989
9678979037312	1.823508	9.172626	1.5805632
9678989016560	2.0713925	9.593999	1.6699274
9678999026325	1.6356486	9.701626	1.3621674
9679009036091	1.9314336	9.755962	1.1931688
9679019015339	2.0719912	9.825268	0.834814
9679029025104	1.5904427	9.951007	0.51298326
9679039004353	1.439257	9.761052	0.21016297
9679049014118	1.2365785	9.683513	-0.08128098
9679059023884	1.1412268	9.507928	0.122445375
9679069033649	0.85307604	9.854608	0.20073257
9679079012898	0.6397696	9.874965	0.1592688
9679089022663	0.59980273	9.826466	0.5034032
9679099032429	0.6129753	9.948761	0.5945636
9679109011677	0.5834866	9.889934	0.81161225
9679119021442	0.8852591	9.936787	1.257984
9679129000690	1.1852353	9.7691345	1.6657361
9679139285114	1.37534	9.462422	1.9446062
9679148989704	1.5196398	9.654773	1.6286132
9679158968952	1.4015355	10.209669	1.1346405
9679168978718	1.0629396	10.222392	0.5891748
9679178988483	1.1225157	9.982142	0.056732025
9679188998249	0.8026309	9.855057	-0.266895
9679198977497	0.38155654	9.761052	-0.7955955
9679209017780	0.086969145	10.160871	-0.8307724
9679219302204	0.047451325	10.682385	-1.1549982
9679229006794	0.14894028	11.796519	-1.1204201
9679238986042	0.5641768	12.968283	-0.6135741
9679249026325	1.4627582	12.018357	1.0868897
9679259005573	1.5000306	11.383079	1.911525
9679269015339	1.4221926	10.956017	2.1366568
9679278994587	1.5819104	10.659035	2.338437
9679289004353	1.6173866	11.051518	2.5325835
9679299014118	2.210154	11.304043	2.3222709
9679308993366	2.972818	11.345806	1.8503022
9679318972614	4.192781	11.010204	1.585503
9679328982380	5.1994376	10.784024	1.629212
9679338961628	6.0414367	10.171498	1.685046
9679348971394	7.172485	9.859397	0.35670823
9679358950642	8.972791	9.576336	-2.497706
9679368960407	9.548344	10.008188	-0.41478744
9679378970173	8.699759	10.129286	1.3175601
9679388979938	7.3468723	10.109078	0.90950865
9679398959187	6.3340783	9.832902	0.23920257
9679408968952	5.235962	9.959839	-0.11002121
9679418948200	4.224066	9.998158	-0.51522857
9679428957966	3.5968702	9.679471	-0.71027297
9679438967731	3.309917	9.475446	-1.5149995
9679448946980	2.2882915	9.033864	-1.7218693
9679458956745	1.0370435	8.549023	-0.9702823
9679468966511	0.10642868	9.277108	0.17393829
9679478945759	-0.54726195	10.562186	1.1793975
9679488925007	-1.3084291	11.459869	1.049318
9679498934772	-1.7670753	12.150682	-1.205593
9679508914021	-2.0161574	12.492272	-3.1030471
9679518923786	-1.3395643	10.674004	-4.011957
9679528933552	-0.25911117	9.196725	-2.9250672
9679538943317	0.5519023	7.7116637	-1.481619
9679548922565	1.3633648	6.325097	-0.37856278
9679558932331	2.1146526	5.639822	0.102237396
9679568911579	2.8933332	4.814738	-0.27542725
9679578921345	2.8883936	4.264931	-1.0431807
9679588900593	2.2195845	4.0267763	-2.2182372
9679598940876	1.9284397	4.0974293	-2.4122338
9679608920124	1.4440471	3.8534367	-2.64485
9679618929890	0.8626561	3.9818697	-2.7672954
9679628909138	0.592917	4.3963575	-2.9234207
9679638888386	-0.16136444	4.452042	-2.984344
9679648898151	-0.62839323	4.6589117	-3.0151799
9679658938435	-0.619861	5.3736753	-3.1241534
9679668917683	-0.5957611	5.6130276	-3.3462913
9679678896931	-0.77523786	5.7875648	-3.4016762
9679688906696	-1.0565029	5.9224343	-3.4473312
9679698916462	-1.009351	6.061944	-3.7525465
9679708926228	-1.3189073	6.894064	-4.136498
9679718905476	-1.4879059	7.620503	-4.2682242
9679728915241	-1.8657203	8.688232	-4.8053074
9679738894489	-2.175576	9.102871	-5.5073476
9679748904255	-2.4650738	10.173444	-7.3759117
9679758914021	-2.7514284	11.293565	-8.963061
9679768923786	-2.6012907	13.435162	-8.651409
9679778903034	-2.3406825	13.63305	-7.538324
9679788882282	-2.3673272	12.820839	-7.0310287
9679798892048	-1.9212548	11.200758	-7.09794
9679808871296	-1.7028589	10.407857	-7.4836874
9679818881062	-1.0779085	8.515641	-7.4155793
9679828890827	-0.52226394	7.6823244	-6.993158
9679838870075	1.5630497	9.604627	-3.9079235
9679848910358	2.9861403	11.852353	0.59516233
9679858889606	4.234095	14.79179	4.591552
9679868868855	6.532266	17.426012	4.027824
9679878878620	10.873987	17.06616	0.51657575
9679888888386	15.559843	12.813804	-17.606089
9679898928669	8.968899	12.774136	-16.866476
9679908877399	2.6716442	11.643986	0.830473
9679918887165	1.0891352	7.6697507	2.8027716
9679928896931	0.19055374	4.656816	3.7408707
9679938876179	-0.11106903	4.1113505	3.3627572
9679948855427	-0.051941987	5.152585	2.0425026
9679958865192	0.4926256	7.135811	1.41381
9679968874958	1.1433225	8.710985	1.126707
9679978884724	2.2829027	10.250085	2.6143136
9679988863972	3.2148647	11.942166	3.7236567
9679998873737	2.95261	14.544654	4.6455894
9680008852985	1.581611	15.174395	5.3890934
9680018862751	0.45415556	13.018877	5.66003
9680028872517	0.2773732	11.19492	4.300707
9680038851765	1.1485616	10.037827	1.7266594
9680048861530	1.7392333	9.485475	-0.069305874
9680058840778	1.3730947	9.075178	-7.154522
9680068850544	1.0355465	8.31461	-7.7923455
9680078860310	2.009122	7.8987746	-3.230582
9680088839558	2.44771	8.464448	0.19459534
9680098849323	2.1065693	9.16574	0.65773225
9680108828571	0.9836046	9.206755	0.42751098
9680118807819	0.8393047	8.890462	0.17812958
9680128848103	0.5230124	8.33392	0.11301498
9680138827351	0.5040019	8.161927	-0.09639954
9680148837116	0.5269043	7.8294687	0.0916095
9680158816364	0.47421387	7.747439	-0.060923308
9680168856647	0.46523255	7.9329033	0.056732025
9680178835895	0.28425887	7.922126	-0.021704864
9680188815144	0.28889924	7.936795	-0.061821442
9680198824909	0.280367	8.382419	-0.05718109
9680208834675	0.355361	8.387958	0.11496094
9680218813923	0.71790713	8.508606	0.019758912
9680228823689	0.83571213	8.804391	0.2775229
9680238833454	1.1894265	8.5943775	0.6141728
9680248843220	1.3132192	8.681497	0.517923
9680258822468	1.3382171	8.868308	0.82523394
9680268832233	1.5178436	8.806038	1.0994637
9680278811481	1.4961388	9.172925	0.93375826
9680288790729	1.3617183	9.720785	0.8358618
9680298800495	1.4049783	9.842932	0.8291258
9680308810261	1.1705658	9.878707	0.6030958
9680318789509	1.1467652	9.572893	0.21435425
9680328768757	0.8361612	9.75237	-0.061671752
9680338778522	0.75937086	9.494007	0.11690689
9680348788288	0.7408095	9.51646	0.064964905
9680358767536	0.5658234	9.5217	0.17872833
9680368777302	0.6221063	9.678873	0.13442047
9680378756550	0.67644334	9.2239685	0.30865815
9680388766315	0.7734416	9.66091	0.3555107
9680398776081	0.87687653	9.665999	0.2136058
9680408785847	0.90531737	9.91553	0.1511856
9680418765095	0.77329195	9.682016	0.1525328
9680428988483	0.8339159	9.692794	0.05583389
9680438998249	0.73347473	9.852362	0.298629
9680448794392	0.85786605	10.446626	0.6753955
9680458773640	0.88720506	11.000923	0.6863228
9680468813923	0.6951544	12.159514	1.1319461
9680478762653	0.3875441	12.851675	1.2921131
9680488772419	0.5300478	13.167518	1.2780423
9680498751667	0.33455428	12.571458	1.4581178
9680508761433	0.27183473	12.255764	1.4298266
9680518740681	0.16136444	12.155173	1.3187577
9680528780964	0.04445755	12.221485	1.509461
9680538760212	0.8518785	11.98378	1.705254
9680548769978	1.2740006	11.57498	1.7530046
9680558779743	2.2094054	11.618389	1.015638
9680568789509	3.2221994	12.119247	-1.441652
9680578768757	4.638704	11.940519	-1.2413685
9680588778522	6.3854213	10.11297	3.2943494
9680598757771	7.1798196	9.643846	4.7957273
9680608737019	7.782017	9.23295	5.346582
9680618746784	7.5947566	8.573272	-1.3123211
9680628756550	6.7003665	8.646021	-5.9381514
9680638735798	5.801037	8.18947	-3.0289512
9680648776081	4.5514355	7.8155475	-0.96175003
9680658755329	3.5690281	8.467142	0.29039612
9680668734577	3.2828233	9.408834	0.38050872
9680678744343	2.517016	9.645791	-0.54217255
9680688723591	2.2388942	9.931996	-1.3953983
9680698733356	1.2347822	9.62259	-2.5484505
9680708743122	0.38425094	9.857751	-2.5502467
9680718752888	-1.0008187	10.135274	-1.5675403
9680728732136	-1.8217118	10.302775	-1.3415103
9680738711384	-2.115401	11.579021	-2.5715024
9680748721149	-2.234254	11.850856	-3.0716126
9680758730915	-1.7281563	11.448493	-2.5912614
9680768710163	-0.291893	9.714049	-2.0166063
9680778719929	0.3847	8.855735	-1.5944842
9680788699177	1.2847782	7.5818834	-0.86759585
9680798708942	1.6185842	7.0522847	-0.37601808
9680808688190	1.963018	6.937623	-0.47810578
9680818697956	2.561623	6.4764323	-1.0268646
9680828738239	2.87088	6.0143433	-2.088457
9680838717487	2.8421397	5.307214	-2.2730231
9680848696735	2.7569668	4.5090733	-2.5523424
9680858706501	2.4757018	4.1324563	-2.29862
9680868685749	2.0799248	3.6742594	-2.5728498
9680878695515	1.2145743	4.2273593	-2.9683273
9680888674763	0.78975767	4.841981	-3.2359707
9680898684528	0.18097366	5.259463	-3.239713
9680908663776	-0.0019459534	5.6270986	-3.2678545
9680918673542	-0.18022522	5.9707837	-3.208877
9680928713825	-0.033679962	6.094277	-3.5953734
9680938693073	-0.06990463	6.5234346	-3.7916152
9680948702839	-0.18546432	6.908883	-4.080215
9680958682087	-0.547711	7.0427046	-3.9366636
9680968691853	-0.8310718	7.5735006	-3.9556742
9680978671101	-1.2784914	7.6432557	-4.027674
9680988680866	-1.438808	8.28063	-4.0222855
9680998690632	-1.2419673	8.550968	-4.191883
9681008700398	-1.4545254	9.221274	-5.242548
9681018679646	-1.7351917	9.940379	-6.359675
9681028689411	-1.861978	11.198961	-7.2648425
9681038729694	-2.072141	13.101954	-8.022567
9681048678425	-2.3763084	14.327156	-7.67484
9681058688190	-2.6720934	14.310691	-7.4115376
9681068667438	-2.1417463	13.163925	-7.3197784
9681078646687	-1.377735	10.52656	-6.6985703
9681088656452	-0.5769003	8.875942	-5.2335668
9681098666218	-0.023950195	7.509733	-3.4760714
9681108645466	0.78631485	7.3456745	-2.1176462
9681118655231	1.5784676	8.176597	0.30371842
9681128695515	2.649191	9.309291	4.313879
9681138674763	4.1089554	10.963351	5.6727533
9681148654011	9.227112	12.934004	5.103188
9681158663776	13.225897	15.381265	-2.7402017
9681168673542	11.215727	18.463804	-18.503172
9681178683308	4.3173223	18.116077	-8.658295
9681188662556	1.4940431	13.481415	2.9928763
9681198672321	0.48648834	6.928492	5.239854
9681208651569	0.121846616	5.136419	3.8922062
9681218630817	-0.31644195	5.2085686	1.524879
9681228640583	-0.40550673	6.3858705	1.0071057
9681238650349	-0.005388794	8.600965	1.2003539
9681248660114	0.37003052	10.876981	1.6694783
9681258639362	0.5186714	12.476405	2.746788
9681268649128	0.17274079	12.397669	3.9146595
9681278628376	-0.26464966	11.576925	4.609365
9681288638142	-0.27183473	10.519824	3.766168
9681298647907	0.082478486	9.952803	3.2735426
9681308657673	1.309477	9.690249	2.68332
9681318636921	2.0734882	9.697584	2.2926323
9681328646687	2.5947044	9.773026	1.4103671
9681338625935	2.9755125	9.985136	-0.7417076
9681348605183	2.3008654	9.779913	-7.4634795
9681358614948	2.2460792	8.897497	-5.2302737
9681368624714	2.3703208	9.024433	-2.658771
9681378634480	1.7461189	9.103469	-0.7231462
9681388583210	1.2184662	8.889863	-0.012573852
9681398592976	0.8222401	8.207133	0.29129425
9681408602741	0.53289187	7.850874	0.20207977
9681418581989	0.40131545	7.6710978	0.1871109
9681428622272	0.24474105	7.671397	0.1950444
9681438601521	0.34727782	7.720645	0.26629624
9681448611286	0.2616559	7.5875716	0.25027955
9681458621052	0.43185195	7.688911	0.3570076
9681468630817	0.5730084	7.848479	0.4673282
9681478610065	0.6354286	8.006251	0.50250506
9681488619831	0.85756665	8.387808	0.5578899
9681498599079	0.8548723	8.678503	0.8205936
9681508608845	1.143023	8.610245	0.7123686
9681518618610	1.4873071	9.161698	0.7632628
9681528597858	1.3398638	9.178463	0.5119354
9681538607624	1.4212945	9.443711	0.47451323
9681548617390	1.3732443	9.567803	0.8425978
9681558596638	1.2549902	9.906849	0.9196875
9681568606403	0.9979747	10.16117	0.5363347
9681578585651	0.7905061	9.955647	0.52735335
9681588595417	0.7958949	10.025851	0.46223876
9681598574665	0.359702	9.915081	0.09595047
9681608584431	0.27946883	9.847572	0.0059875487
9681618594196	0.2865042	9.702523	0.3544629
9681628573444	0.32976425	9.523945	0.052241363
9681638583210	0.4843927	9.661808	0.3608995
9681648562458	0.68722093	9.840237	0.5019063
9681658572224	0.9244775	10.022558	0.5815407
9681668551472	1.0084529	10.211615	0.5056485
9681678561237	1.1543994	10.514884	0.7408095
9681688540485	1.3760884	10.2773285	0.66132474
9681698550251	1.4379098	10.044862	0.5309459
9681708590534	1.5332615	10.345885	0.11421249
9681718539265	1.7054036	10.439441	-0.4791536
9681728579548	1.7498611	10.710378	-1.4847624
9681738558796	1.2293935	11.524834	-1.1120375
9681748568562	0.8376581	12.063414	0.32003447
9681758578327	0.16585511	12.77204	1.3708493
9681768557575	0.03397934	12.69076	1.2516971
9681778567341	0.27512786	11.839929	0.6397696
9681788577106	0.64096713	11.495195	0.5641768
9681798556355	0.34608033	11.150312	0.9713301
9681808566120	0.74110883	11.097921	0.7214996
9681818575886	1.1527529	10.887011	0.6110294
9681828555134	1.9736458	10.857821	0.8080197
9681838564899	2.3168821	10.770403	1.382525
9681848544147	3.4766703	10.626701	3.0346394
9681858584431	4.282744	10.729688	4.8288083
9681868533161	5.69371	11.27201	4.5613146
9681878542927	7.201674	10.735974	3.2265403
9681888522175	8.051756	10.197245	-5.2196455
9681898531940	7.6868153	10.183174	-5.984705
9681908541706	6.676566	9.692345	-4.1469765
9681918520954	4.5249405	8.895552	-1.2777429
9681928530720	2.9033625	8.927585	-0.13471985
9681938509968	1.9040406	9.068892	-0.2282753
9681948550251	1.5310162	8.610844	-0.5852829
9681958529499	0.8452922	8.39619	-1.1865824
9681968539265	-0.3131488	8.599318	-0.87687653
9681978518513	-1.4115646	8.965456	-0.013322297
9681988528278	-2.1116588	10.784324	0.6803352
9681998507526	-2.4062462	12.241993	0.11241623
9682008517292	-2.3831942	12.494368	-1.8703606
9682018496540	-2.5777895	11.7986145	-4.916077
9682028506306	-1.7977616	10.25712	-5.2739825
9682038516071	-0.9318123	9.536519	-3.4735267
9682048495319	0.015567627	8.451874	-2.1906943
9682058505085	0.47211823	7.8664417	-1.4413527
9682068514851	0.970432	7.467521	-0.26929
9682078494099	2.03412	7.6318793	1.332978
9682088503864	2.6014402	6.7514105	1.185385
9682098483112	3.45751	5.072352	-0.95441526
9682108492878	3.77006	4.1198826	-2.02933
9682118502644	3.4599051	3.9683976	-2.2100043
9682128481892	3.1789393	4.0279737	-2.5752447
9682138491657	2.4671695	4.277954	-2.8758197
9682148470905	1.9806812	4.637955	-3.3069232
9682158480671	1.4572197	4.8803015	-3.1440618
9682168459919	0.7643106	5.175338	-3.2096255
9682178469685	0.56687117	5.707032	-3.0061986
9682188479450	0.35775605	5.8844132	-3.1085856
9682198489216	0.5266049	5.9224343	-3.334915
9682208468464	0.35371444	6.3780866	-3.9989343
9682218478229	-0.05852829	6.75171	-4.1864944
9682228487995	-0.5763016	7.289092	-4.081263
9682238467243	-1.1570938	7.3827972	-4.349505
9682248477009	-1.8224602	7.8020754	-4.4758425
9682258975056	-2.1585114	8.193362	-4.634213
9682268466022	-2.6125174	9.019943	-4.562063
9682278475788	-3.1689103	9.75252	-4.993017
9682288485554	-3.5751655	10.880723	-5.0452585
9682298464802	-3.690725	11.758348	-5.1572256
9682308474567	-3.911067	12.934154	-4.850663
9682318453815	-3.5212774	14.261144	-4.50099
9682328494099	-3.19795	14.767691	-5.02041
9682338473347	-1.8242564	14.704971	-5.2570677
9682348452595	-0.07933502	15.972835	-4.145629
9682358462360	0.87627774	17.56223	-2.7741811
9682368472126	2.599644	19.420315	-1.7583934
9682378451374	3.422932	19.53812	-3.0144315
9682388430622	4.4478507	16.624279	-3.2835717
9682398440388	4.4027944	9.927056	-4.6672945
9682408419636	4.9424224	3.683989	-5.17429
9682418459919	5.5242624	0.11466156	-9.744586
9682428439167	5.50615	-2.0261865	-13.644127
9682438479450	2.7379563	0.59920394	-0.13307327
9682448458698	1.2470567	1.7396823	4.3689647
9682458437946	0.3439847	2.712659	6.795718
9682468417194	0.009879456	5.0772915	4.3873763
9682478426960	0.8716374	8.841514	1.8919158
9682488436726	2.6680517	11.066637	1.5895445
9682498446491	7.0660563	14.71021	3.5558555
9682508425739	9.075478	19.043549	5.7472982
9682518435505	6.1689715	19.527342	5.048851
9682528445271	-0.011825409	15.176191	2.9629385
9682538424519	-1.2513977	11.249257	2.1656964
9682548434284	-1.6784596	8.470585	1.780697
9682558444050	-1.2617263	7.822134	3.5902839
9682568423298	-0.20821701	9.619745	1.782643
9682578433064	0.31763947	11.326197	-16.934284
9682588412312	1.2449611	10.27179	-9.532028
9682598422077	1.6941769	9.999506	-2.8548632
9682608401325	1.2504996	10.051448	0.061222687
9682618411091	0.911754	9.733509	1.13973
9682628390339	1.2509487	9.026529	1.0753638
9682638400104	1.2945081	8.013436	0.7455995
9682648379353	1.4706917	7.1474867	0.76910067
9682658389118	1.3735437	7.0687504	0.31644195
9682668398884	1.3367202	6.979087	0.49337402
9682678378132	1.1243119	6.962172	0.5574408
9682688418415	1.0264156	7.0409083	0.24653733
9682698397663	0.7057823	7.2422395	-0.015118561
9682708407429	0.9834549	7.610773	-0.15178436
9682718386677	1.2370276	8.421188	-0.3171904
9682728396442	0.91759187	8.441246	-0.13142669
9682738406208	1.0898836	8.9927	-0.103434905
9682748385456	1.1538006	9.153615	0.29773086
9682758395222	1.296454	9.09868	0.33994308
9682768404987	1.5762222	8.943452	0.6170169
9682778384235	1.3117223	8.84376	0.7695497
9682788394001	1.3533357	8.772508	1.0755135
9682798373249	0.9831555	9.139095	1.2487034
9682808383015	1.0909314	9.306597	0.968486
9682818392780	0.9172925	9.69908	0.7406598
9682828372028	0.8533754	9.611961	0.75817335
9682838381794	0.88061875	9.93469	0.62989014
9682848391560	0.649649	9.796827	0.61552
9682858370808	0.5315446	9.814191	0.69216067
9682868746784	0.7301816	9.679621	0.85053134
9682878359821	0.72868466	9.888288	1.1394305
9682888369587	0.9909393	9.880803	1.3956976
9682898348835	0.889151	9.910441	1.4763799
9682908328083	0.7316785	10.346185	1.4286292
9682918337849	0.57824755	10.73822	1.0436298
9682928317097	0.40565643	10.68972	0.33784744
9682938357380	0.19549347	10.633737	-0.010927277
9682948336628	0.18366806	10.629097	-0.583786
9682958346394	0.25836274	10.351424	-1.2144246
9682968356159	0.24459137	10.280622	-1.8456619
9682978396442	0.1751358	10.988949	-1.5952327
9682988375690	0.2773732	12.038566	0.033230897
9682998385456	0.6604266	12.682676	1.6649877
9683008364704	0.9577084	12.9854965	2.437082
9683018374470	1.345552	12.801679	2.9606931
9683028353718	1.4150075	12.459939	3.2494428
9683038363483	1.3751903	11.794872	3.286266
9683048342731	1.5367044	11.518996	3.0579908
9683058352497	1.7700691	11.572884	2.7722352
9683068331745	2.4149282	11.401191	-0.01886078
9683078310993	3.7736526	11.52678	-3.7621267
9683088320759	5.233866	10.171498	-0.6821315
9683098361042	6.15056	9.1025715	2.1330643
9683108340290	6.7412314	8.713531	3.161725
9683118319538	7.3317537	8.876242	2.2761667
9683128329304	8.416847	9.976005	-1.4757811
9683138339069	8.380921	9.92571	-3.7866755
9683148318317	7.7062745	9.125623	-1.5343094
9683158328083	6.4345193	7.4997044	0.057779845
9683168307331	5.1524353	7.5149727	-0.4926256
9683178317097	3.2184572	8.777746	-0.066312104
9683188326862	2.0368145	9.543554	0.05643265
9683198306110	0.8041278	9.978848	-0.9891431
9683208315876	0.048349455	9.547446	-1.8976039
9683218295124	-0.7711963	9.200617	-3.0380824
9683228304890	-2.3378384	10.468182	-0.13442047
9683238284138	-3.06802	11.780203	0.42107436
9683248293903	-3.4910402	13.812527	-1.4732364
9683258303669	-3.6631823	12.889247	-4.596791
9683268282917	-2.703528	11.632011	-4.2745113
9683278292683	-1.4206957	10.193502	-2.8125014
9683288302448	-0.0823288	8.899444	-1.3624667
9683298281696	0.94708055	8.209528	-0.24833359
9683308291462	1.3644127	7.54985	0.18142273
9683318270710	2.8307633	6.5219374	0.22483246
9683328280476	3.8314326	5.382208	-0.46104127
9683338259724	3.924988	4.710405	-1.8086888
9683348300007	3.6045043	4.4815307	-2.46208
9683358279255	2.749183	4.350553	-2.8707304
9683368289021	2.3893313	4.4713516	-2.571353
9683378268269	1.9835253	4.586612	-2.587669
9683388278034	1.8808388	4.6628036	-2.8463311
9683398257282	1.3579761	5.0771422	-3.060386
9683408267048	0.9210347	5.382208	-2.8681855
9683418246296	0.8342152	5.9381514	-2.7346632
9683428256062	0.47765672	6.247558	-2.805915
9683438235310	0.33425492	6.2209134	-3.011288
9683448245075	0.16001724	6.168223	-3.5754647
9683458285358	0.0185614	6.6946783	-3.9477406
9683468264606	-0.43080413	6.5598087	-3.8208046
9683478274372	-1.1847862	6.5987277	-3.9224432
9683488253620	-1.4323714	7.0563264	-3.9808218
9683498263386	-1.3771362	6.9183135	-4.3426194
9683508242634	-1.8928139	7.1850586	-4.572242
9683518252399	-1.9983444	8.480914	-4.6214895
9683528262165	-2.379452	9.501941	-4.8388376
9683538271931	-3.1278956	11.604468	-5.1283355
9683548251179	-3.620521	13.447436	-5.208419
9683558230427	-4.3054967	15.383659	-4.971312
9683568270710	-4.7672863	17.30731	-5.014123
9683578249958	-4.5690985	15.95547	-5.1729426
9683588229206	-2.8764184	11.407628	-5.107229
9683598238972	-1.8910176	8.860824	-4.943021
9683608218220	-0.8544232	6.7846413	-4.679569
9683618227985	-0.18082398	6.4563737	-3.7492533
9683628207233	1.2799883	10.186467	-0.9716295
9683638247517	1.9215541	12.524156	3.0979578
9683648226765	3.368146	13.231884	5.2855086
9683658206013	7.0105214	14.118191	4.2704697
9683668215778	10.853181	12.77234	0.5556445
9683678225544	13.393698	13.38307	-17.427809
9683688265827	7.1658983	14.170133	-19.32616
9683698245075	1.4254857	13.063035	-4.417464
9683708254841	-0.20686981	9.238189	1.2491524
9683718234089	0.025297394	5.109924	4.7162423
9683728243855	-0.05852829	3.6097436	5.1386642
9683738223103	-0.122595064	3.3835638	3.4208364
9683748202351	0.23561005	5.77065	1.6988173
9683758212116	0.920885	7.9814024	1.393602
9683768221882	2.1607566	11.123817	2.3599923
9683778201130	2.6867628	13.380076	3.0624816
9683788241413	2.8142977	16.107254	4.6536727
9683798190144	1.2141252	15.1154175	5.1980906
9683808230427	-0.98195803	12.1925955	3.62576
9683818209675	-1.0274634	10.664423	2.4608827
9683828219440	-0.8490344	9.677975	2.0565734
9683838229206	-0.004191284	9.527088	4.4137216
9683848208454	0.8301737	9.739496	3.7940104
9683858187702	1.9974463	9.398805	-13.306579
9683868197468	2.4879763	8.466843	-8.215516
9683878207233	1.6075072	9.075328	-3.131937
9683888186481	0.9369017	9.294921	-1.0630893
9683898196247	0.53828067	8.948242	-0.09056167
9683908175495	0.2574646	8.508606	0.15432908
9683918215778	0.11136841	7.8088117	0.083825685
9683928195026	0.70024383	7.1422477	0.009729767
9683938204792	0.8928932	6.918014	0.12663665
9683948184040	0.65234345	7.1893997	0.14714402
9683958163288	0.75742495	7.350315	0.13950989
9683968173054	0.89109695	7.8821588	0.50250506
9683978182819	1.1984079	8.201295	0.75143737
9683988162067	1.5780185	8.624615	1.0639874
9683998171833	1.9288888	8.652757	1.4482384
9684008181599	2.3578968	8.727152	1.6679814
9684018160847	2.6981392	8.666228	1.9835253
9684028140095	2.7267296	8.697663	1.7422271
9684038149860	2.0227437	8.834628	1.161285
9684048159626	2.063459	8.789272	0.7129674
9684058138874	1.7685722	8.8195095	-0.083825685
9684068148640	1.2431648	9.087453	-0.3677852
9684078158405	1.2597803	9.572893	-0.4950206
9684088168171	0.7617659	9.762998	-0.21061203
9684098177937	0.66342044	10.0963545	-0.24908203
9684108157185	0.43963578	10.098899	-0.14534774
9684118166950	0.39053786	9.972262	0.11301498
9684128176716	0.33889526	10.071656	0.2561174
9684138155964	0.327968	10.037677	0.59381515
9684148165729	0.314496	10.070458	0.45894563
9684158175495	0.45565248	10.168654	0.938698
9684168154743	0.6041437	9.848619	1.3283377
9684178164509	0.67764086	9.982142	1.1464659
9684188143757	0.62300444	10.007589	0.88436097
9684198153522	0.94303894	10.303374	0.51537824
9684208132771	1.1383827	10.362202	-0.5960605
9684218203571	2.4932153	11.261532	-6.819818
9684228152302	2.9129424	11.4062805	-5.207072
9684238162067	1.9303857	12.917837	0.012573852
9684248141315	1.2205619	14.387481	2.509232
9684258151081	0.7705975	13.433964	3.3039293
9684268130329	0.15432908	11.732153	2.9147387
9684278140095	0.14085709	10.671159	2.810855
9684288149860	0.6090834	10.516681	2.9455748
9684298129108	1.006956	10.266701	2.7605593
9684308108356	1.4617103	10.582094	2.532883
9684318118122	2.0502863	10.667417	1.0127939
9684328127888	3.367547	10.615624	0.030835876
