gyroscope_timestamp	gyroscope_x_data	gyroscope_y_data	gyroscope_z_data
9657292971638	0.002131594	0.71731687	-0.29843837
9657302920368	0.35173035	0.81857234	-0.20144603
9657312930134	0.7460947	0.61073184	0.4338007
9657322939899	0.9656598	-0.43593284	1.3557607
9657332919147	1.2481099	-0.63418096	2.0208514
9657342898395	1.5710623	-0.185458	2.0485635
9657352908161	1.2395833	-0.23342155	1.8609738
9657362887409	0.72051424	-0.020251475	1.6541991
9657372927692	0.10445291	0.118309066	1.382407
9657382906940	-0.39543068	0.23128888	1.2033442
9657392886189	-0.56490093	0.29950362	1.1692369
9657402865437	-0.3613236	0.22063065	1.1479201
9657412905720	0.09699179	0.047962997	1.0743765
9657422884968	0.6832095	-0.12044146	1.0072278
9657432894733	1.3014024	-0.22276278	0.9368817
9657442904499	1.8865542	-0.29097724	0.82923084
9657452883747	2.3896353	-0.3378747	0.73223853
9657462893513	2.839424	-0.5009499	0.67574865
9657472872761	3.309464	-0.8025851	0.78339946
9657482852009	3.8104134	-1.0285459	1.0114915
9657492892292	4.187724	-1.1990817	1.1521834
9657502871540	4.3603916	-1.4047909	1.0583887
9657512881306	4.3337455	-1.5998412	0.9816473
9657522860554	4.1003246	-1.708558	1.0551913
9657532870319	3.8445208	-1.83646	1.1425906
9657542849567	3.728343	-1.8822913	1.1607102
9657552859333	3.9788177	-1.6456727	1.0050962
9657562869099	4.4264746	-1.1436572	0.9091696
9657572848347	4.883724	-0.59474456	0.99017423
9657582858112	5.1299357	-0.074609786	1.0765083
9657592867878	4.6449738	0.47430313	1.1223397
9657602877644	4.4723063	1.0829034	1.1511176
9657612887409	4.1738687	1.6787132	1.2267932
9657622866657	3.8946154	2.284116	1.1873565
9657632876423	3.5610046	2.8330293	1.0349398
9657642855671	3.2391179	3.1058867	0.8676017
9657652834919	2.8213043	3.2401836	0.9987011
9657662844685	2.4002938	3.2252614	1.3333782
9657672854450	2.0528266	3.0952282	1.6339476
9657682833698	1.8535128	2.7946582	1.8055497
9657692843464	1.8076813	2.384306	1.901476
9657702822712	1.9750195	1.9569001	1.8940148
9657712832478	2.312894	1.482597	1.8950812
9657722842243	2.603871	0.96885747	1.9590319
9657732821491	2.8564775	0.4231422	2.0037978
9657742831257	3.06645	0.020250943	1.8982786
9657752841022	3.146389	-0.17586558	1.5987744
9657762820271	3.0835037	-0.4689744	1.3770779
9657772830036	3.1613107	-0.71411973	1.3173904
9657782809284	3.44909	-0.8302972	1.2939415
9657792819050	3.53649	-1.3173909	1.2140027
9657802798298	3.2412496	-1.7895625	1.0136231
9657812808064	2.8287654	-1.5284294	1.0264132
9657822787312	2.1956506	-1.286481	1.134064
9657832827595	1.589182	-1.330181	1.176698
9657842806843	1.3184562	-1.2875473	1.0583887
9657852786091	1.1159444	-1.2640984	0.91449916
9657862795856	0.7663456	-1.5529436	0.8345604
9657872805622	0.45511746	-1.8748302	0.72158
9657882784870	0.39969334	-2.3150265	0.5553077
9657892794636	0.32934728	-2.3843067	0.5169369
9657902773884	-0.081005104	-2.3352778	0.59154665
9657912783649	-0.4700402	-2.516472	0.4700394
9657922762898	-0.9901748	-2.547382	0.4796321
9657932772663	-1.5604047	-2.841556	0.81857234
9657942751911	-1.6883065	-3.2199333	1.1649737
9657952761677	-1.3205884	-3.0611215	1.1308666
9657962771442	-1.0285459	-2.4312043	0.75248975
9657972781208	-1.1372625	-1.763982	0.37411287
9657982760456	-1.3003374	-1.3610908	0.12150646
9657992770222	-1.3035347	-1.2161351	0.004263188
9658002749470	-1.1564476	-1.1788301	0.08526776
9658012789753	-1.1329987	-1.1202086	0.27285737
9658022769001	-1.3770785	-1.1500523	0.46577623
9658032748249	-1.594512	-1.1990817	0.64377314
9658042758015	-1.6403434	-1.1329987	0.67681444
9658052767780	-1.6339481	-0.80045354	0.45192006
9658062747028	-1.6200925	-0.6853419	0.16520654
9658072756794	-1.5550756	-0.68321025	0.19824784
9658082766560	-1.2577031	-0.5766252	0.19505018
9658092745808	-1.2683617	-0.61499554	-0.1332313
9658102725056	-1.5998412	-0.76101744	-0.24301425
9658112734821	-1.8215377	-0.9645943	-0.13216549
9658122775104	-1.8503162	-1.0189531	0.0948602
9658132754353	-1.864172	-0.8814581	0.30696446
9658142733601	-1.842855	-0.7087907	0.551044
9658152712849	-1.7533236	-0.5851519	0.5020152
9658162753132	-1.7479943	-0.392233	0.41674688
9658172732380	-1.550812	-0.142824	0.39862755
9658182742146	-1.3493662	0.12470385	0.35173035
9658192751911	-1.2225302	0.123638056	0.26113307
9658202731159	-1.1681719	0.053291984	0.31016186
9658212740925	-1.202279	0.20890635	0.3837056
9658222750690	-1.3280494	0.2899109	0.27392316
9658232729938	-1.3674861	0.34959874	0.20037943
9658242709187	-1.393066	0.3783766	0.25793514
9658252718952	-1.0413357	0.38050818	0.52333194
9658262728718	-0.7247785	0.5595709	0.7983214
9658272707966	-0.80151933	0.90064275	0.80684835
9658282717731	-0.93261904	1.3259171	0.884655
9658292727497	-0.95073867	1.5422845	0.97844994
9658302706745	-0.76847804	1.6616596	0.95606685
9658313082722	-0.75781953	1.6861743	0.9187623
9658322726276	-1.1159452	1.6552649	0.8324285
9658332736042	-1.3312469	1.5977086	0.7908603
9658342715290	-1.7714431	1.6051698	0.7706094
9658352725056	-1.7746406	1.6563307	0.99337184
9658362704304	-1.8076822	1.6083671	0.9411454
9658372714069	-2.0027325	1.413317	0.57555866
9658382693317	-1.644607	1.2235953	0.5489124
9658392703083	-1.1724354	0.779136	0.70665836
9658402682331	-1.0594553	0.65443164	0.8015188
9658412692097	-1.0967598	0.54464895	0.65443164
9658422701862	-1.2491765	0.609666	0.26219887
9658432711628	-1.2577031	0.65336585	-0.25793594
9658442690876	-1.2609011	0.57236123	-0.6896053
9658452670124	-0.5553082	0.45298585	-0.87719494
9658462679890	0.26539627	0.40928605	-0.94754124
9658472689655	0.54358315	0.43806416	-0.92942137
9658482668903	0.21530166	0.5190687	-0.87506306
9658492678669	-0.25793594	0.48389584	-0.72158056
9658502657917	-0.38477245	0.87079906	-0.5883493
9658512667683	-0.37304762	1.3856049	-0.6757492
9658522677448	-0.4529864	1.3706827	-0.847351
9658532656696	-0.6661565	0.927289	-1.0008333
9658542666462	-0.7343712	0.52333194	-1.1329987
9658552645710	-0.4092866	0.48282978	-1.3696177
9658562655476	0.046897203	0.7247777	-1.6435409
9658572665241	0.9955037	0.678946	-1.8950818
9658582675007	1.2523736	0.5851514	-2.4162824
9658592684772	0.07247766	1.0509279	-2.4205456
9658602694538	0.013855628	0.5808876	-2.0826714
9658612673786	0.6181927	0.68534106	-1.4122517
9658622653034	0.9422112	0.81644076	-0.9880431
9658632662800	0.7929919	0.46044698	-0.8931824
9658642642048	0.66402435	0.4252738	-0.87612915
9658652651813	0.65336585	0.64270705	-0.87612915
9658662631062	0.5158711	0.7599509	-0.76528066
9658672640827	0.35599354	0.8143092	-0.9017093
9658682650593	0.38477165	0.57769024	-1.1916208
9658692629841	0.26326466	0.5904806	-1.4122517
9658702639606	0.08420196	0.77593833	-1.2619668
9658712649372	-0.02238307	0.89318186	-0.95180446
9658722628620	-0.11404615	1.0477302	-0.7173174
9658732638386	-0.19185333	1.085035	-0.53079355
9658742617634	-0.24727744	0.7770041	-0.16520707
9658762637165	-0.2621994	0.41035184	0.09699179
9658772616413	-0.2707263	0.30696446	0.74289733
9658792635944	-0.47750106	0.5627683	1.021084
9658802645710	-0.67894655	0.7780702	1.2076077
9658812624958	-0.81111205	0.99124	1.4719385
9658822604206	-1.2491765	1.0946276	1.7181498
9658832613972	-1.9334522	1.0392035	1.8876201
9658842623737	-2.7275105	1.3706827	2.2372189
9658852602985	-3.4171152	1.4335679	2.441862
9658862612751	-3.2241964	1.0605203	2.6497028
9658872591999	-2.5655015	0.91556495	2.7818682
9658882601765	-1.6275533	0.8015188	2.428006
9658892611530	-1.3046006	0.40608865	1.6669892
9658902590778	-1.2417153	-0.04263428	0.7823337
9658912600544	-0.8025851	-0.67148596	-0.07674138
9658922579792	0.25686935	-1.4133174	-0.7951243
9658932589558	1.3919997	-1.7778379	-1.487927
9658942599323	1.9920733	-1.8961475	-1.9984691
9658952578571	1.9515711	-1.83646	-2.3214216
9658962588337	1.6435403	-1.3419056	-2.4717064
9658972598103	1.525231	-0.6544324	-2.4812992
9658982607868	1.4207776	0.050094593	-2.2627997
9658992587116	1.092496	0.76208246	-1.7469285
9659002596882	0.7343704	1.3557607	-1.3514984
9659012606647	0.4263396	1.6435403	-1.1489865
9659022585895	0.12044066	1.5646676	-0.99443847
9659032595661	0.0074605793	1.3600245	-0.8921166
9659042574909	0.07460926	0.96885747	-0.85374606
9659052584675	0.34107184	0.7674114	-0.86760247
9659062563923	0.6714852	0.7876629	-0.76634645
9659072573689	0.9134331	0.84948236	-0.741832
9659082552937	1.5145725	0.81857234	-0.640576
9659092562702	1.6819111	0.7130531	-0.6363128
9659102572468	0.8771944	0.9187623	-1.0850358
9659112551716	0.45724958	1.0296109	-1.5369558
9659122561481	0.31655717	1.3941313	-1.73627
9659132571247	-0.2696605	1.4058559	-1.4612807
9659142550495	-0.53932047	1.3813412	-1.0733114
9659152529743	-0.12363885	1.0061619	-0.97312117
9659162570026	0.35386193	0.6597606	-0.9027754
9659172549274	0.6480366	0.4252738	-0.9677922
9659182559040	0.6672217	0.31655717	-1.195884
9659192568806	0.63311434	0.48922482	-1.4591491
9659202548054	0.6395097	0.8558771	-1.6584628
9659212557819	0.46151277	1.0679814	-1.578524
9659222537067	0.4114179	1.1639079	-1.4314371
9659232546833	0.4902906	1.3163244	-1.3898686
9659242526081	0.4806979	1.340839	-1.5252315
9659252535847	0.30589867	0.97844994	-1.6947018
9659262545612	0.21743326	0.58834875	-1.706426
9659272524860	0.20890635	0.4188785	-1.6680555
9659282534626	0.12044066	0.35599354	-1.5369558
9659292513874	0.40395707	0.51054186	-1.3173909
9659302523640	0.58728296	0.58301973	-1.089299
9659312533405	0.60007334	0.58301973	-0.740766
9659322512653	0.7375678	0.48389584	-0.27712163
9659332552937	0.6917364	0.36558598	0.2259599
9659342532185	0.46257856	0.09272861	0.8217698
9659352938679	-0.0010663297	-0.3165577	1.5241652
9659362521198	-0.68427604	-0.7642149	2.2585359
9659372500446	-1.29714	-0.94754124	2.8149095
9659382510212	-1.8865548	-0.87826073	2.910836
9659392519978	-2.283051	-0.47856686	3.011026
9659402499226	-2.318224	-0.0021321268	3.1762326
9659412508991	-2.0965273	-0.48176426	2.946009
9659422488239	-1.8396573	-0.9358164	2.2883797
9659432498005	-1.9888763	-1.5913144	1.6616596
9659442507771	-2.4876943	-2.3512654	1.3632219
9659452487019	-2.7371032	-2.567633	1.2417148
9659462496784	-2.7061932	-2.7744076	0.85054815
9659472476032	-2.6560986	-3.2615013	0.31229344
9659482485798	-2.4567845	-3.4288397	-0.29310885
9659492465046	-2.0165884	-3.2956083	-0.76741225
9659502474812	-1.3834735	-2.8543465	-1.1681719
9659512484577	-0.63418096	-2.5196695	-1.4687417
9659522463825	-0.007461112	-2.334212	-1.6669897
9659532473591	0.45085427	-2.148754	-1.665924
9659542483356	0.7034607	-1.921728	-1.4975195
9659552462604	0.7226458	-1.4580832	-1.1159452
9659562472370	0.46684203	-0.8793265	-0.8697341
9659572482136	0.15454803	-0.48815957	-0.9592653
9659582461384	0.07460926	-0.25687015	-1.0818381
9659592471149	0.14495532	-0.2664626	-1.1468549
9659602450398	0.26006725	-0.22915809	-1.0434673
9659612460163	0.5478466	-0.28245062	-1.0797062
9659622469929	0.7269096	-0.4476574	-1.2534399
9659632479694	0.67574865	-0.4092866	-1.4047909
9659642458942	0.4327349	-0.50947684	-1.4889928
9659652468708	0.20357683	-0.6043373	-1.5113757
9659662447956	0.17693058	-0.6960001	-1.5710632
9659672457722	0.693868	-0.58088845	-1.1074183
9659682436970	1.0658498	-0.6554982	-0.59474456
9659692477253	0.8867868	-0.62672037	-0.29737255
9659702425983	0.63524646	-0.47856686	-0.3197551
9659712435749	0.71731687	-0.3986281	-0.4146161
9659722445515	1.0040303	-0.27818742	-0.5457158
9659732455280	1.1095496	-0.19931445	-0.7482268
9659742465046	1.0114915	-0.009593239	-0.904907
9659752474812	0.89318186	0.32614988	-0.9699238
9659762454060	0.6778802	0.5563735	-0.9496729
9659772433308	0.77487254	1.0253474	-0.57022995
9659782473591	1.0658498	1.6211575	0.060753096
9659792452839	1.0754426	2.2510748	0.6043365
9659802462604	0.73969936	2.5164716	0.65443164
9659812441853	0.35599354	2.7264442	0.49561986
9659822451618	-0.05542464	2.8564775	0.44232735
9659832430866	-0.40075967	2.720049	0.4210106
9659842440632	-0.48389637	2.2404163	0.14602113
9659852419880	-0.15881175	1.5795892	-0.16094388
9659862429646	0.5371881	1.1159444	-0.2611336
9659872439411	1.3216536	0.9027749	-0.2600678
9659882449177	1.8289983	0.9987011	-0.16307548
9659892428425	1.8929491	1.3642876	-0.015988022
9659902438190	1.5646676	2.0059295	0.035172634
9659912478474	0.76101667	2.7339048	-0.021317273
9659922427204	0.07247766	3.1165447	-0.28245062
9659932406452	-0.21956538	2.861807	-0.5467816
9659942416218	-0.29950416	2.3033013	-0.577691
9659952425983	-0.2621994	1.9632955	-0.3741134
9659962466267	0.20464262	1.6616596	0.20144524
9659972414997	0.8985111	1.331246	1.0274789
9659982424763	1.4250412	0.97098905	1.6009066
9659992434528	1.7789035	0.58834875	1.980349
9660002413776	1.7767715	0.29630622	2.2020457
9660012393024	1.723479	0.20357683	2.3299477
9660022402790	1.4591484	0.031975243	2.3672523
9660032412556	1.0658498	-0.025580462	2.5132742
9660042391804	0.5798218	-0.0820709	2.6976657
9660052401569	-0.0724782	-0.13749501	2.6475713
9660062411335	-0.76847804	0.028777853	2.4045575
9660072390583	-1.2896789	0.3336107	2.2116385
9660082369831	-1.3802762	0.49988306	1.9068053
9660092379597	-1.3706834	0.8548113	1.6328818
9660102358845	-1.3749467	1.0402694	1.3728145
9660112399128	-1.195884	1.0754426	0.97951573
9660122378376	-0.8462852	1.0946276	0.5585051
9660132388142	-0.5787568	1.3493657	0.2685939
9660142367390	-0.50627893	1.4783337	0.14175767
9660152377155	-0.5084105	1.4079875	0.053291984
9660162356403	-0.4625791	1.112747	-0.11937566
9660172335651	-0.2696605	0.8036504	-0.38264033
9660182375935	0.063950755	0.66402435	-0.7940585
9660192355183	0.38796905	0.5563735	-1.5241657
9660202364948	0.57555866	0.27818662	-2.531394
9660212374714	0.75355583	-0.0010663297	-3.6547997
9660222353962	1.061586	-0.3751792	-4.4818997
9660232333210	1.5945113	-0.8057831	-4.7504935
9660242342976	2.3171575	-1.0946282	-4.2591367
9660252352741	3.103755	-1.2193328	-3.2423158
9660262331989	3.9425788	-1.502849	-1.7959573
9660272341755	4.905041	-1.8300647	-0.39969388
9660282351521	5.2429156	-2.1658075	0.25793514
9660292361286	4.5863523	-2.7317736	0.5553077
9660302340534	3.8498497	-3.1964843	0.76101667
9660312350300	3.3979297	-2.8319638	0.98377943
9660322329548	2.9150996	-2.2947752	1.261966
9660332339313	2.178597	-1.8545793	1.531626
9660342349079	1.5742604	-0.84308785	1.5753261
9660352358845	0.9571332	0.50841	1.2172004
9660362338093	0.35386193	1.5337579	1.033874
9660372347858	0.06288496	1.8726981	1.0050962
9660382327106	0.15881123	1.8215373	1.0082935
9660392336872	0.20464262	1.5795892	1.0189524
9660402346638	0.15454803	1.2704929	1.2044101
9660412325886	0.26113307	0.70772415	1.4932557
9660422335651	0.4369981	0.09166281	1.7959567
9660432314899	0.4689736	-0.33254573	2.0816045
9660442294147	0.42953727	-0.67042017	2.263865
9660452303913	0.47430313	-0.89744616	2.2318895
9660462313679	0.39010063	-1.1990817	2.014456
9660472323444	0.0074605793	-1.5636021	1.7341379
9660482302692	-0.46471068	-1.7405331	1.3365756
9660492281940	-0.62778616	-1.7010971	0.6565632
9660502291706	-0.6576298	-1.6925702	-0.11830986
9660512270954	-0.7695441	-1.4357003	-0.6011399
9660522280720	-0.96246266	-1.0562578	-0.7972562
9660532290485	-1.337642	-0.38264033	-0.73650277
9660542300251	-1.8918841	0.45405164	-0.48389637
9660552279499	-2.368319	1.0445325	-0.041568484
9660562319782	-2.6774154	1.1671053	0.58301973
9660572299030	-2.8895197	-0.073543996	1.5369552
9660592288044	-2.1562147	-0.32934782	2.0048637
9660602297810	-0.735437	-0.3815745	2.1775312
9660612307575	0.63098276	-0.65869564	2.0666828
9660622286823	1.4857947	-0.9923069	1.7980886
9660632296589	1.4698069	-1.4325029	1.4314363
9660642275837	1.0679814	-1.436766	1.0360056
9660652285603	0.66295856	-1.2246621	0.8910503
9660662295368	0.2899109	-0.9997674	1.0669156
9660672274616	-0.05968783	-0.88572186	1.3397729
9660682284382	-0.39969388	-0.6874735	1.652067
9660692263630	-0.6608272	-0.62352246	1.73094
9660702273395	-0.84415364	-0.62458825	1.510309
9660712252644	-0.93261904	-0.4689744	1.2481099
9660722262409	-0.926224	-0.19078752	1.0871665
9660732302692	-0.842022	0.13109916	1.0146888
9660742251423	-0.57342786	0.3666523	0.7706094
9660752261189	-0.21636799	0.6395097	0.4913564
9660762270954	-0.039436888	0.8835892	0.48709324
9660772280720	-0.087399885	1.0669156	0.5947441
9660782259968	-0.13642922	0.9848452	0.64057547
9660792239216	-0.13856082	0.78553104	0.5190687
9660802248981	-0.13429762	0.6128634	0.35386193
9660812258747	-0.14815351	0.57236123	0.3016352
9660822268513	-0.20144603	0.6725512	0.381574
9660832247761	-0.22063118	0.7130531	0.46790782
9660842257526	-0.17906323	0.66295856	0.58728296
9660852236774	-0.10019025	0.5542419	0.7418315
9660862246540	0.0	0.3144256	0.8889187
9660872256306	0.07780665	0.02557993	0.97098905
9660882266071	0.10871663	-0.47536945	1.0914303
9660892245319	0.15135011	-1.3674861	1.2907442
9660902224567	0.11617721	-1.3546957	1.2811514
9660912234333	-0.15028511	-0.77593887	1.9302539
9660922244099	-0.3741134	-0.8910508	3.2114058
9660932223347	-0.47536945	-1.5486804	4.141893
9660942233112	-0.45511797	-2.3757799	4.701464
9660952212360	-0.18226062	-3.3446376	5.2354546
9660962222126	0.22702569	-4.222898	5.6479383
9660972231892	0.68747264	-4.844289	5.8078165
9660982211140	1.3045998	-4.448858	5.80675
9660992220905	2.0336416	-3.05899	5.6575317
9661002230671	2.3619232	-0.72264636	5.3793445
9661012240437	2.1103828	1.4634116	5.1800303
9661022250202	1.6712526	2.6230567	5.0883675
9661032229450	1.3355098	3.067516	5.021219
9661042239216	1.0839691	3.2625668	4.97219
9661052248981	0.8985111	3.3680854	4.925293
9661062228229	0.72051424	3.4927897	4.900778
9661072237995	0.5371881	3.6910384	4.9178314
9661082217243	0.31868878	4.200515	5.184294
9661092227009	0.45724958	5.716153	5.671387
9661102236774	1.4953873	8.371185	4.907173
9661112216022	2.6518345	10.480502	1.1639079
9661122225788	3.1378622	10.719254	-1.0424014
9661132205036	3.076043	10.109588	-1.3205884
9661142214802	2.867136	9.245183	-0.99443847
9661152194050	2.6028054	8.253942	-0.5851519
9661162203815	1.7053595	5.9794183	-0.15241697
9661172213581	0.5659662	2.9929063	0.17693058
9661182223347	-0.20038024	0.4700394	0.36984968
9661192233112	0.04263348	-2.27559	0.70878994
9661202212360	2.1679385	-6.2277617	1.2950073
9661212191608	3.6761162	-8.807118	1.4356995
9661222201374	4.045966	-10.089335	0.9741867
9661232180622	3.8615742	-10.642512	0.39010063
9661242190388	3.4874609	-10.489031	0.0053289854
9661252169636	2.9065726	-9.639548	-0.24727744
9661262179401	2.0528266	-7.668791	-0.37944293
9661272158649	1.2140027	-5.314328	-0.3581262
9661282168415	0.52439773	-3.179431	-0.33680892
9661292147663	-0.075675584	-1.26623	-0.48815957
9661302187946	-0.5958104	0.7162511	-0.86547035
9661312167194	-0.9347506	2.705127	-1.1894891
9661322176960	-1.0370724	4.0566244	-1.1798965
9661332156208	-0.9635285	4.14509	-0.9560676
9661342165974	-0.70239544	3.3211882	-0.7706099
9661352175739	0.33467653	1.6296844	-1.0466652
9661362154987	2.2755895	-1.0392041	-2.0538933
9661372134235	3.3435714	-2.7925274	-2.8522148
9661382144001	3.7315404	-3.2572377	-3.1240065
9661392123249	3.898879	-2.5431182	-2.8895197
9661402163532	3.1559818	0.050094593	-2.3054335
9661412142780	2.25747	1.8151424	-1.5497462
9661422152546	1.6115648	1.9302539	-1.0455989
9661432162312	1.0679814	1.3632219	-0.72584426
9661442141560	0.58941454	0.67468286	-0.42740592
9661452120808	0.27285737	0.25793514	-0.17373398
9661462130573	0.19931364	0.24407952	-0.07780718
9661472140339	0.26965997	0.39010063	-0.105519235
9661482119587	0.33467653	0.5489124	-0.15774596
9661492159870	0.3581254	0.6011391	-0.25154117
9661502139118	0.30483288	0.53185886	-0.37837714
9661512118366	0.15774542	0.40822026	-0.4188793
9661522097614	-0.06608315	0.29524016	-0.30909687
9661532107380	-0.3208209	0.18439168	-0.14815351
9661542117146	-0.58408606	0.059687298	-0.029844182
9661552126911	-0.83456093	0.008526376	0.026645726
9661562106159	-1.0317432	0.14495532	0.026645726
9661572115925	-1.1404599	0.536122	0.0053289854
9661582156208	-1.2129375	0.9955037	-0.040502686
9661592104938	-1.2577031	1.4335679	-0.08633409
9661602114704	-1.295008	1.6392769	-0.07780718
9661612124470	-1.332313	1.5124409	0.01705302
9661622103718	-1.3429714	1.1138128	0.11404561
9661632113483	-1.2822177	0.4188785	0.059687298
9661642092731	-1.0242821	-0.29204303	-0.09699259
9661652071980	-0.62991774	-0.7738073	-0.22702649
9661662081745	-0.23661894	-0.8239024	-0.1961165
9661672091511	0.054358315	-0.5489132	-0.17266817
9661682101276	0.2259599	-0.31122845	-0.3506651
9661692080524	0.26326466	-0.29737255	-0.5446495
9661702090290	0.0127898315	-0.7077249	-0.5894151
9661712069538	-0.4934891	-1.4079882	-0.34746715
9661722109821	-0.7834	-2.2222974	0.30589867
9661732089069	-0.23875053	-3.5983098	1.376012
9661742098835	0.9283548	-4.457385	2.3779113
9661752108601	1.744796	-1.3195225	2.5068789
9661762118366	1.5710623	2.7594852	1.4154485
9661772097614	0.72051424	2.5942788	0.63311434
9661782076862	-0.5041473	1.0264132	0.4199443
9661792086628	-1.465544	-0.04476614	0.38050818
9661802065876	-1.8886867	-0.15561436	0.4274054
9661812106159	-1.8822913	0.10338711	0.6618927
9661822085407	-1.6414093	0.41035184	0.927289
9661832064655	-1.4868612	0.71731687	1.1234055
9661842074421	-1.4751369	0.9827131	1.2502415
9661852053669	-1.4889928	1.2086735	1.3184562
9661862063435	-1.4229102	1.2843488	1.2950073
9661872073200	-1.1202086	1.3653535	0.9976353
9661882052448	-0.6640249	1.6200917	0.64377314
9661892062214	-0.17479977	1.7138864	0.41035184
9661902071980	0.37624475	1.155381	0.30376682
9661912051228	0.83988935	0.30589867	0.15561382
9661922060993	0.7247777	0.15667963	0.044765607
9661932070759	-0.5680983	1.4911236	0.046897203
9661942050007	-1.3920002	2.1039875	-0.004263721
9661952059772	-1.6637924	1.896147	-0.22169697
9661962039021	-1.7224138	1.376012	-0.38903564
9661972018269	-1.7309407	0.86333823	-0.40075967
9661982028034	-1.7245454	0.5073442	-0.32508463
9661992037800	-1.7202822	0.33574232	-0.2707263
9662002017048	-1.7128211	0.32934728	-0.24727744
9662012026813	-1.7010971	0.40608865	-0.23022388
9662022036579	-1.6765825	0.49561986	-0.21317007
9662032046345	-1.6275533	0.59261245	-0.2153022
9662042025593	-1.5476146	0.6949338	-0.24301425
9662052035358	-1.4623466	0.800453	-0.26539677
9662062045124	-1.3813419	0.8729307	-0.25793594
9662072024372	-1.3077983	0.89637953	-0.20357762
9662082034138	-1.2363864	0.86014086	-0.10765136
9662092043903	-1.1617765	0.7599509	0.001065797
9662102023151	-1.0871674	0.6054023	0.08313616
9662112032917	-1.0029653	0.4178127	0.12577018
9662122012165	-0.91023594	0.21743326	0.13323076
9662132021931	-0.82283664	0.056489907	0.118309066
9662142031696	-0.7524905	-0.06395155	0.09805759
9662152010944	-0.71092236	-0.16840446	0.112979814
9662161990192	-0.699198	-0.23661894	0.13109916
9662171999958	-0.72264636	-0.24514584	0.081004575
9662182009724	-0.77700466	-0.23128968	0.002131594
9662191988972	-0.85268027	-0.20890687	-0.04796353
9662201998737	-0.9272898	-0.19398493	-0.0842025
9662211977985	-1.0104262	-0.15454857	-0.07993878
9662221987751	-1.0861015	-0.028778385	-0.046897735
9662232028034	-1.1404599	0.25900093	0.001065797
9662242007282	-1.1798965	0.8324285	0.087399356
9662252017048	-1.1202086	1.5827869	0.17586477
9662261996296	-0.904907	2.2596016	0.2344868
9662272006062	-0.57129574	2.7104561	0.26539627
9662282015827	-0.18439221	2.8650045	0.26006725
9662292025593	0.18545748	2.7296417	0.20570895
9662302004841	0.48282978	2.4184132	0.13323076
9662312014606	0.7055923	2.0602877	0.06288496
9662322024372	0.8697333	1.6819111	-0.013856427
9662332003620	1.033874	1.1596445	-0.081005104
9662341982868	1.1937516	0.509476	-0.099124454
9662351992634	1.3493657	-0.15774596	-0.06608315
9662361971882	1.5401529	-0.7695441	-0.0724782
9662371981647	1.8236691	-1.1777643	-0.10978296
9662381960895	2.561237	-1.0455989	-0.039436888
9662392001179	3.8818254	-0.01279063	0.25367194
9662402010944	4.788863	0.8590748	0.54251736
9662411990192	4.8933167	0.95926476	0.72904116
9662421969440	4.5906153	0.33893973	0.77593833
9662431979206	4.23249	-0.88785344	0.6277854
9662441958454	3.912735	-2.466377	0.35919118
9662451968220	3.5801897	-3.6238904	0.112979814
9662461977985	3.3872712	-3.8551798	-0.049029328
9662471987751	3.1804957	-2.2169685	0.015987223
9662481966999	2.7253778	-0.3378747	0.38477165
9662491976765	2.2979724	0.48602742	0.8089799
9662501956013	2.1135802	0.63311434	1.0839691
9662511965778	2.2393503	0.6693533	1.1436565
9662521975544	2.5281959	0.7151852	0.9315527
9662531954792	2.653966	0.8899845	0.48922482
9662541964558	2.4749033	1.1532494	-0.11404615
9662551943806	2.1615431	0.7354362	-0.6853419
9662561953571	1.8876201	-0.5084105	-0.8164416
9662571932819	1.6435403	-1.3856055	-0.63737863
9662581912067	1.5540088	-1.5071121	-0.4050234
9662591921833	1.5987744	-1.2118717	-0.29204303
9662601901081	1.5731945	-1.0392041	-0.30483368
9662611910847	1.4964532	-0.86653614	-0.37837714
9662621920612	1.3941313	-0.68427604	-0.46471068
9662631899860	1.3280487	-0.20890687	-0.533991
9662641909626	1.1500517	-0.008526909	-0.5553082
9662651919392	0.7674114	-0.44232816	-0.57342786
9662661898640	0.381574	-0.6096665	-0.62458825
9662671908405	0.16094308	-0.24301425	-0.67255175
9662681918171	0.015987223	0.12044066	-0.676815
9662691897419	-0.16307548	0.16840392	-0.656564
9662701876667	-0.4050234	0.019185146	-0.61286396
9662711886433	-0.63098353	-0.09805839	-0.549979
9662721865681	-0.8377583	-0.15881175	-0.45618433
9662731875446	-1.0008333	-0.185458	-0.34426975
9662741885212	-1.1308671	-0.142824	-0.24621163
9662751925495	-1.2609011	0.037304495	-0.20997268
9662761904743	-1.4058566	0.33467653	-0.22276278
9662771883991	-1.5561415	0.7556874	-0.24834323
9662781893757	-1.6978991	1.2896781	-0.25260696
9662791903522	-1.7959573	1.7320057	-0.21210428
9662801882771	-1.7927599	1.7810351	-0.0937952
9662811923054	-1.5689316	1.1692369	0.046897203
9662821902302	-1.202279	0.16307494	0.08420196
9662831881550	-0.8931824	-0.7397002	0.036238696
9662841891315	-0.63737863	-1.0178868	-0.017053818
9662851870564	-0.35919198	-0.74289787	-0.15668015
9662861849812	-0.0842025	-0.30803105	-0.40289178
9662871890095	0.14815272	-0.073543996	-0.6533666
9662881869343	0.3250841	-0.16520707	-0.8292314
9662891879108	0.25047457	-0.61819345	-0.735437
9662901858356	-0.12683651	-1.2992716	-0.285648
9662911898640	-0.3932991	-2.2745242	0.3613228
9662921877888	0.20357683	-3.509844	0.879326
9662931887653	0.7055923	-3.24125	0.91556495
9662941897419	0.99017423	0.070345536	0.30483288
9662951907185	1.0829034	3.0142236	-0.039436888
9662961886433	0.4220764	3.6665237	0.2931083
9662971865681	-0.5467816	2.6870072	0.885721
9662981875446	-1.0861015	0.76314825	1.2779535
9662991885212	-1.3845394	0.52120036	1.4591484
9663001894978	-1.2587689	1.6041039	1.4346337
9663011874226	-0.8612072	2.6848757	1.2140027
9663021853474	-0.5904814	3.174101	1.0733106
9663031863239	-0.635247	3.160245	0.91130126
9663041842487	-1.0701135	2.7296417	0.7812679
9663051852253	-1.678714	2.0581563	0.73010695
9663061862019	-2.0208519	0.9677917	0.58941454
9663071841267	-1.8940157	-1.0562578	0.36238858
9663081851032	-1.7586528	-2.6433084	0.26539627
9663091830280	-1.9110693	-3.0174217	0.15241644
9663101840046	-2.2659974	-2.048564	-0.009593239
9663111819294	-2.4397306	-0.7173174	-0.19824864
9663121859577	-2.34487	0.11617721	-0.45511797
9663131838825	-2.2670634	0.34533504	-0.68321025
9663141818073	-2.224429	0.44872266	-0.74502945
9663151827839	-2.2340217	0.34426922	-0.68214446
9663161807087	-2.2297585	0.123638056	-0.53932047
9663171816853	-2.1743345	-0.0724782	-0.36345518
9663181796101	-2.0208519	-0.07674138	-0.16733865
9663191866901	-1.7842332	0.11617721	0.031975243
9663201846149	-1.5529436	0.26433045	0.13642868
9663211825398	-1.3514984	0.31122765	0.13962607
9663221835163	-1.1948181	0.3016352	0.09059701
9663231814411	-1.0946282	0.2835156	0.02557993
9663241824177	-1.0466652	0.2845814	-0.015988022
9663251803425	-1.0274795	0.33680812	-0.017053818
9663261813190	-1.0104262	0.4231422	-0.006395315
9663271792438	-0.98697734	0.53505623	-0.005329518
9663281802204	-0.95393604	0.66295856	-0.020251475
9663291811970	-0.91876286	0.7951235	-0.03837109
9663301821735	-0.88785344	0.91663074	-0.046897735
9663311800983	-0.84308785	0.99976695	-0.020251475
9663321810749	-0.7951243	1.037072	0.015987223
9663331820515	-0.76847804	1.0264132	0.036238696
9663341830280	-0.7727415	0.9976353	0.029843649
9663351840046	-0.80045354	0.96033055	-0.004263721
9663361788776	-0.8239024	0.90703803	-0.045831937
9663371768024	-0.85374606	0.8121773	-0.11404615
9663381777790	-0.8942487	0.6267196	-0.20357762
9663391787556	-0.9272898	0.29737204	-0.32295302
9663401797321	-0.9347506	-0.16627286	-0.4604475
9663411776569	-0.92942137	-0.68427604	-0.5574398
9663421755817	-0.93794805	-1.1703035	-0.55104476
9663431765583	-0.9645943	-1.5572072	-0.46790862
9663441775349	-0.98591155	-1.7565212	-0.32934782
9663451754597	-0.95287025	-1.7021629	-0.19078752
9663461764362	-0.8239024	-1.3152593	-0.0852683
9663471774128	-0.5009499	0.5126737	-0.023448868
9663481814411	0.23235469	2.9300213	0.10765083
9663491824177	0.78446525	3.4171147	0.22915728
9663501803425	1.1532494	2.9364164	0.2835156
9663511813190	1.3941313	2.2947745	0.2941741
9663521792438	1.4996505	1.6360794	0.26433045
9663531802204	1.5294944	1.0413351	0.14815272
9663541781452	1.595577	0.55317557	0.0
9663551791218	1.7565204	0.11724327	-0.12577072
9663561770466	2.107185	-0.20677528	-0.15668015
9663571749714	2.9161654	-0.1406924	-0.07674138
9663581789997	3.9820151	0.24088159	0.12044066
9663592135456	4.6225915	0.16627233	0.30056942
9663601779011	4.7281103	-0.79938775	0.41035184
9663611758259	4.6364474	-2.36299	0.49668565
9663621737507	4.5863523	-3.9436455	0.42953727
9663631747272	4.54585	-4.351866	0.1801285
9663641757038	3.8924837	-2.5068796	0.088465154
9663651736286	2.8191729	-0.97631913	0.23022309
9663661746052	1.9387808	-1.0551921	0.3613228
9663671725300	1.4474238	-1.7352042	0.6128634
9663681735065	1.3461683	-1.954769	0.7706094
9663691744831	1.5667992	-1.5412195	0.8100457
9663701724079	1.880159	-0.68321025	0.70772415
9663711764362	2.1391606	0.045831405	0.40822026
9663721774128	2.1125145	0.12790178	-0.05968783
9663731722858	1.6211575	-0.32934782	-0.62352246
9663741732624	1.0072278	-1.2545058	-1.1639087
9663751711872	0.651234	-2.0016665	-1.2438475
9663761721638	0.5702294	-2.0315104	-1.08397
9663771731403	0.66402435	-1.6861749	-0.94327754
9663781710651	0.80578226	-0.92942137	-0.99870163
9663791750935	0.89424795	0.020250943	-1.2267936
9663801730183	1.1692369	0.6693533	-1.3035347
9663811709431	1.4932557	1.0434667	-1.3269837
9663821719196	1.6883059	1.2747562	-1.2310568
9663831698444	1.5849185	1.376012	-1.0850358
9663841708210	1.2427809	1.3099294	-1.0104262
9663851717976	0.7876629	1.112747	-0.9571337
9663861697224	0.360257	0.9368817	-0.87826073
9663871706989	0.001065797	0.836692	-0.7876637
9663881686237	-0.37731135	0.58941454	-0.58088845
9663891696003	-0.7162516	0.25367194	-0.30589947
9663901675251	-0.9816481	0.004263188	-0.051160924
9663911715534	-1.1809623	-0.20464343	0.17586477
9663921694782	-1.3493662	-0.34959927	0.32721567
9663931735065	-1.4730048	-0.38690403	0.39543015
9663941683796	-1.5422853	-0.2696605	0.40182492
9663951693562	-1.5625362	-0.03090998	0.38050818
9663961703327	-1.5614705	0.2803182	0.3485324
9663971682575	-1.5454828	0.63204855	0.34107184
9663981692341	-1.5252315	1.0061619	0.3613228
9663991671589	-1.5156391	1.3610902	0.39223224
9664001681355	-1.4996511	1.482597	0.40182492
9664011691120	-1.3333787	1.0658498	0.29737204
9664021670368	-1.0018996	0.11511141	0.015987223
9664031649616	-0.6938685	-0.82283664	-0.34426975
9664041628864	-0.31229424	-0.9390144	-0.44019657
9664051669147	0.12790178	-0.36771864	-0.3751792
9664061678913	0.38903484	-0.0937952	-0.50627893
9664071658161	0.36345437	-0.29843837	-0.76741225
9664081637409	0.13429682	-0.45405218	-0.9347506
9664091647175	-0.2259607	-0.4689744	-0.8697341
9664101626423	-0.75675374	-0.71305394	-0.471106
9664111666706	-1.2598348	-1.2630327	0.2472769
9664121645954	-1.4111856	-2.3459363	1.1020888
9664131655720	-1.3056667	-3.8413236	1.710689
9664141634968	-1.2726253	-4.853882	1.6083671
9664151644733	-0.5446495	-4.4030266	0.76101667
9664161685017	1.2310563	0.03943609	-0.03090998
9664171694782	1.6808454	2.4173474	0.26219887
9664181674030	0.7055923	1.7117548	0.8697333
9664191653278	-0.30270153	0.73223853	1.1500517
9664201663044	-0.6874735	0.6672217	1.3205879
9664211642292	-0.862273	0.91663074	1.5156382
9664221652058	-1.0924966	0.9667256	1.6552649
9664231661823	-1.215069	0.9315527	1.695767
9664241641071	-1.2353206	1.2278589	1.689372
9664251650837	-1.2513083	1.638211	1.6083671
9664261660603	-1.2566373	1.9068053	1.437831
9664271639851	-1.190555	1.9632955	1.2054759
9664281649616	-1.1191429	1.8940148	0.8526797
9664291628864	-1.0829041	1.2182662	0.40502286
9664301608112	-1.0040312	-1.4570173	0.053291984
9664311617878	-1.6680555	-3.4373665	0.093794405
9664321627644	-2.6155963	-3.7027633	0.22063065
9664331606892	-3.1101508	-3.0131583	0.09059701
9664341616657	-3.0302122	-2.010193	-0.23661894
9664351595905	-2.496221	-1.1159452	-0.5318594
9664361605671	-1.7874309	-0.465777	-0.6810787
9664371615437	-1.2470449	0.23128888	-0.71092236
9664381625202	-0.9773849	1.0658498	-0.6512345
9664391604450	-0.8292314	1.8524469	-0.5457158
9664401614216	-0.72584426	2.45785	-0.42953807
9664411593464	-0.67788076	2.8127778	-0.35279667
9664421603229	-0.6757492	2.9619968	-0.32934782
9664431612995	-0.72264636	2.9779847	-0.34533557
9664441592243	-0.81217784	2.9065726	-0.3943649
9664451602009	-0.9155655	2.7594852	-0.4476574
9664461611774	-1.0157552	2.497286	-0.48389637
9664471621540	-1.0786405	2.078407	-0.4732376
9664481600788	-1.0999577	1.4740701	-0.38796985
9664491610554	-1.0647845	0.6395097	-0.2280923
9664501589802	-0.9699238	-0.38690403	-0.043700077
9664511599567	-0.8281656	-1.4985852	0.07460926
9664521578815	-0.6896053	-2.4418628	0.13429682
9664531588581	-0.61606133	-3.0035658	0.20357683
9664541567829	-0.620325	-3.1538503	0.30376682
9664551577595	-0.67894655	-2.9641292	0.44232735
9664561587360	-0.7802026	-2.4802334	0.6160608
9664571597126	-0.8910508	-1.763982	0.81750655
9664581576374	-0.9933727	-0.84521943	0.97951573
9664591616657	-1.0509284	0.17053579	1.0434667
9664601595905	-0.9880431	1.0711788	0.9677917
9664611575153	-0.8281656	1.7650473	0.77487254
9664621584919	-0.6810787	2.277721	0.52439773
9664631564167	-0.6320494	2.620925	0.27498895
9664641573933	-0.65869564	2.7946582	0.05116039
9664651553181	-0.7397002	2.8628728	-0.15987755
9664661562946	-0.88572186	2.8916507	-0.35279667
9664671542194	-1.2523742	2.882058	-0.47643524
9664681582478	-1.1372625	2.448257	-0.44445974
9664691592243	0.43060333	1.682977	-0.14708772
9664701602009	1.3014024	1.2491757	0.001065797
9664711581257	1.567865	0.9944377	-0.04263428
9664721560505	1.8044837	0.7418315	-0.11511194
9664731570271	2.099724	0.46257856	-0.22276278
9664741580036	2.4216108	0.05116039	-0.28777987
9664751559284	2.7616172	-0.5180032	-0.31016266
9664761569050	3.0195525	-1.3344445	-0.26752838
9664771548298	3.1346645	-2.404558	-0.12150726
9664781588581	3.1645083	-3.6494708	0.14388953
9664791567829	3.2401836	-4.916766	0.44659054
9664801547077	3.713421	-5.605305	0.7983214
9664811526325	4.8187075	-4.6055384	0.7770041
9664821536091	5.4230437	-3.149587	-0.15987755
9664831515339	4.8283005	-1.1489865	-1.0882331
9664841555622	3.5450165	0.17799637	-0.9795165
9664851534870	2.4109523	-0.046897735	-0.3176235
9664861544636	1.4527533	-0.80898046	0.30696446
9664871523884	0.6491024	-1.3195225	0.67361706
9664881503132	0.31549138	-0.95180446	0.6821437
9664891512898	0.9336843	-0.21743378	0.3144256
9664901522663	1.8268665	-0.14495613	-0.11724407
9664911501911	2.086934	-0.6491029	-0.8313635
9664921511677	1.5742604	-1.4175807	-1.4847294
9664931521442	0.76421404	-1.8567109	-1.8993449
9664941500690	0.381574	-1.7650478	-1.8119453
9664951510456	0.52439773	-1.3770785	-1.3387077
9664961520222	0.82816505	-0.741832	-1.0935624
9664971499470	1.1074177	-0.11511194	-0.90917015
9664981509235	1.3248513	0.2824498	-0.7492926
9664991519001	1.4548849	0.45938116	-0.68427604
9665001498249	1.5060458	0.44126156	-0.6949343
9665011508015	1.4122511	0.49561986	-0.74502945
9665021487263	1.1532494	0.8100457	-0.7940585
9665031497028	0.8452186	1.0264132	-0.7812684
9665041476276	0.5499782	1.0487963	-0.76101744
9665051486042	0.27179158	1.049862	-0.7087907
9665061495808	0.030909447	1.0317425	-0.6437739
9665071475056	-0.19931445	0.97205484	-0.55104476
9665081484821	-0.45725012	0.8025846	-0.449789
9665091464069	-0.7002638	0.6181927	-0.33680892
9665101473835	-0.9454091	0.3687839	-0.20677528
9665111483601	-1.1681719	0.095925994	-0.0820709
9665121493366	-1.3642882	-0.11511194	0.0031973913
9665131472614	-1.53589	-0.21636799	0.015987223
9665141451862	-1.6797798	-0.2153022	-0.036239497
9665151461628	-1.7671794	-0.110848755	-0.09805839
9665161471394	-1.8012868	0.11084822	-0.10338764
9665171450642	-1.7959573	0.4146153	-0.061819427
9665181490925	-1.7799698	0.7141189	0.0053289854
9665191470173	-1.7618505	0.9358159	0.10338711
9665201479938	-1.700031	0.9240916	0.23875
9665211459187	-1.4815317	0.5798218	0.33893973
9665221468952	-1.111682	-0.09166361	0.33254492
9665231448200	-0.67788076	-0.7290417	0.21423534
9665241427448	-0.18226062	-0.8281656	0.061818894
9665251467731	0.34533504	-0.20784108	-0.10765136
9665261446980	0.7343704	0.50414675	-0.28884566
9665271456745	0.7812679	0.678946	-0.37304762
9665281466511	0.58728296	0.105518706	-0.23875053
9665291506794	0.3677181	-1.2822177	0.027712055
9665301455524	0.3826398	-3.0888336	0.4188785
9665311434772	0.5958099	-4.313495	1.0935619
9665321444538	0.2931083	-4.0193205	1.6478038
9665331454304	-0.62672037	-2.761618	1.7778374
9665341433552	-0.14708772	-1.6765825	1.1042204
9665351473835	0.19718204	1.0573229	0.022382537
9665361453083	-0.33254573	1.8684349	0.25473776
9665371432331	-0.95073867	1.4762019	0.8548113
9665381442097	-1.4794002	0.4902906	1.3589586
9665391421345	-1.7447969	-0.61499554	1.5561407
9665401431110	-1.7735747	-1.3770785	1.5486798
9665411410358	-1.8140769	-1.5550756	1.5785235
9665421420124	-1.9750203	-1.3003374	1.744796
9665431429890	-2.2457464	-0.740766	1.9771515
9665441439655	-2.4844968	0.03410684	2.1743336
9665451449421	-2.5058136	0.7588848	2.2500088
9665461428669	-2.3096974	1.1937516	2.193519
9665471438435	-1.8769624	1.446358	2.0688143
9665481417683	-0.92196083	0.8452186	1.7618499
9665491427448	0.4199443	-1.1212745	1.19162
9665501406696	0.9358159	-2.3757799	0.6491024
9665511416462	-1.1415256	-1.7746406	0.7002633
9665521395710	-2.7978566	-0.9816481	0.59687567
9665531405476	-3.1314676	-0.7311733	0.22063065
9665541415241	-2.7243128	-0.7951243	-0.13429762
9665551394489	-2.1540833	-0.6885395	-0.36771864
9665561404255	-1.6744509	-0.28245062	-0.465777
9665571414021	-1.3408399	0.2824498	-0.4092866
9665581393269	-1.0988914	0.7940577	-0.25047535
9665591403034	-0.9059728	1.1393932	-0.0842025
9665601443317	-0.7738073	1.3600245	0.022382537
9665611392048	-0.6960001	1.5721282	0.046897203
9665621401813	-0.6544324	1.7831666	0.01705302
9665631411579	-0.62672037	1.966493	-0.040502686
9665641390827	-0.6032715	2.0858681	-0.10125605
9665651400593	-0.57555944	2.0986583	-0.1310997
9665661379841	-0.55104476	1.9835464	-0.11404615
9665671389606	-0.52866197	1.7320057	-0.06075363
9665681399372	-0.51693743	1.3845385	0.0
9665691378620	-0.5126742	1.0040303	0.06821394
9665701388386	-0.533991	0.66402435	0.12044066
9665711367634	-0.577691	0.39543015	0.12044066
9665721377399	-0.62885195	0.20251103	0.075675055
9665731387165	-0.69173694	0.06288496	-0.020251475
9665741366413	-0.7834	-0.025580462	-0.099124454
9665751345661	-0.88678765	-0.13749501	-0.15454857
9665761355427	-1.0061628	-0.25793594	-0.19078752
9665771365192	-1.1244718	-0.39543068	-0.23022388
9665781344440	-1.2310568	-0.56383514	-0.3133603
9665791354206	-1.323786	-0.7492926	-0.39756227
9665801333454	-1.423976	-0.8601414	-0.42207694
9665811343220	-1.6073018	-0.6032715	-0.3581262
9665821383503	-1.8950818	0.59261245	-0.29843837
9665831362751	-0.7908611	2.582554	-0.1310997
9665841403034	0.90597224	3.3776782	0.12683597
9665851382282	1.6510011	3.0270135	0.26006725
9665861392048	1.910003	2.4653106	0.3016352
9665871371296	2.0251145	1.9462416	0.30803028
9665881381062	2.1167777	1.4207776	0.30376682
9665891360310	2.24468	0.86014086	0.18226008
9665901370075	2.4322696	0.15135011	-0.046897735
9665911349323	2.6475713	-0.67255175	-0.28671405
9665921359089	2.8500824	-1.4271734	-0.471106
9665931338337	3.0056965	-2.3011703	-0.52972776
9665941348103	3.1048207	-3.370218	-0.40182546
9665951327351	3.1346645	-4.6375136	-0.19398493
9665961337116	3.2082078	-6.154218	-0.40289178
9665971316364	3.8264015	-5.9080067	-0.88891923
9665981326130	4.8528147	-1.8289988	-1.123406
9665991335895	4.5650353	0.9454086	-0.93794805
9666001315144	3.643075	1.1713691	-0.33254573
9666011355427	2.5953445	0.31975457	0.31122765
9666021334675	1.7010963	-0.4583159	0.78553104
9666031313923	1.510309	-0.7162516	0.9326185
9666041323689	1.8204714	-0.55211055	0.7588848
9666051333454	2.171136	-0.6427076	0.39649594
9666061343220	2.1306338	-0.79938775	-0.073543996
9666071322468	1.4314363	-1.1159452	-1.0797062
9666081301716	0.68747264	-2.135964	-2.010193
9666091311481	0.40502286	-2.808515	-2.126371
9666101290729	0.5990075	-2.2031124	-1.7202822
9666111300495	1.0317425	-1.151118	-1.159645
9666121310261	1.5305603	-0.13856082	-0.778071
9666131320026	1.9856782	0.39329857	-0.6032715
9666141299274	2.286248	0.4135495	-0.5371889
9666151309040	2.412018	0.44445896	-0.5435837
9666161288288	2.2894456	0.54678077	-0.52972776
9666171298054	1.9974025	0.5659662	-0.43166965
9666181277302	1.6222233	0.536122	-0.31868932
9666191287067	1.2203978	0.5990075	-0.2696605
9666201296833	0.8239019	0.63631225	-0.25580436
9666211276081	0.44552475	0.61179763	-0.2739237
9666221285847	0.14388953	0.59367824	-0.39969388
9666231265095	-0.0820709	0.63311434	-0.471106
9666241274860	-0.280319	0.7130531	-0.4487232
9666251254108	-0.49775228	0.76101667	-0.4167477
9666261263874	-0.74716103	0.69813144	-0.4114187
9666271273640	-1.0221505	0.6054023	-0.40715498
9666281283405	-1.3152593	0.6128634	-0.4508548
9666291262653	-1.5668	0.7375678	-0.5030815
9666301272419	-1.73627	0.7919261	-0.48176426
9666311251667	-1.8332623	0.75142395	-0.39010143
9666321597126	-1.8545793	0.6608264	-0.27818742
9666331271198	-1.7320065	0.402891	-0.16094388
9666341250446	-1.4399637	-0.15774596	-0.067148946
9666351229694	-1.126604	-0.8825239	-0.05222672
9666361239460	-0.7951243	-1.3802762	-0.03090998
9666371615437	-0.39756227	-1.2982059	-0.010659036
9666381258991	0.0127898315	-0.9667264	-0.024514664
9666391238239	0.40715444	-1.0381383	-0.09059781
9666401248005	0.5808876	-1.8822913	-0.19291912
9666411288288	0.36558598	-3.1304018	0.024514131
9666421237019	0.27605477	-3.8519824	1.0189524
9666431246784	0.52759564	-2.9364169	2.1285021
9666441256550	1.7607841	-0.704527	1.7554545
9666451266315	2.762683	2.1039875	0.4924225
9666461276081	1.7320057	3.634548	-0.03090998
9666471255329	0.023448335	3.7571208	0.12577018
9666481265095	-0.57129574	1.6350133	0.7023949
9666491244343	-1.6947018	-1.5849193	1.0690472
9666501223591	-2.8905854	-3.157048	1.2427809
9666511233356	-3.4725394	-3.206077	1.4676752
9666521243122	-3.8168092	-2.813844	1.7010963
9666531222370	-3.945777	-1.927057	1.794891
9666541232136	-3.9393816	-1.174567	1.77464
9666551211384	-3.7741752	-0.94114596	1.7959567
9666561221149	-3.3819425	-0.94114596	1.8545785
9666571230915	-2.6209254	-1.1148794	1.8012862
9666581210163	-0.74609524	-2.2414827	1.46128
9666591219929	0.77167517	-2.9161658	1.219332
9666601229694	1.0946276	-2.0037982	1.3706827
9666611239460	-0.29097724	1.0072278	1.9750195
9666621218708	-1.4559512	2.9119017	1.9366492
9666631228474	-1.5763924	2.632649	1.1042204
9666641207722	-1.4165149	1.8396566	0.30803028
9666651217487	-1.4804659	1.3248513	-0.029844182
9666661196735	-1.7458627	1.064784	-0.067148946
9666671237019	-2.0165884	0.9240916	0.004263188
9666681216267	-2.2052438	0.8462844	0.060753096
9666691195515	-2.3065	0.779136	0.052226186
9666701205280	-2.325685	0.6810779	0.0
9666711215046	-2.2841167	0.5840856	-0.06501735
9666721194294	-2.198849	0.4924225	-0.11724407
9666731204060	-2.076276	0.39969334	-0.15774596
9666741213825	-1.9238596	0.29737204	-0.1961165
9666751193073	-1.7437311	0.20677476	-0.23342155
9666761202839	-1.5422853	0.13749447	-0.24194846
9666771182087	-1.3248521	0.07887244	-0.18652381
9666781191853	-1.1063524	0.030909447	-0.08953201
9666791201618	-0.8931824	0.0031973913	0.020250943
9666801211384	-0.6960001	0.0031973913	0.12470385
9666811190632	-0.5329252	0.052226186	0.20997214
9666821200398	-0.4188793	0.15561382	0.28138402
9666831179646	-0.36345518	0.30909607	0.34533504
9666841189411	-0.37837714	0.49775147	0.38583744
9666851168659	-0.4636449	0.70878994	0.381574
9666861178425	-0.5862177	0.9208942	0.3336107
9666871188190	-0.74502945	1.0914303	0.26326466
9666881167438	-0.93048745	1.2001469	0.18332589
9666891177204	-1.1255376	1.2161347	0.082070366
9666901186970	-1.3056667	1.1266031	-0.043700077
9666911166218	-1.4357003	0.9422112	-0.16094388
9666921145466	-1.4964536	0.736502	-0.2280923
9666931155231	-1.4730048	0.8249677	-0.23128968
9666941164997	-0.4114187	1.1692369	-0.0031979238
9666951174763	0.52226615	0.9773841	0.21423534
9666961184528	0.6586948	0.44552475	0.21743326
9666971163776	0.58195394	-0.15774596	0.10765083
9666981173542	0.5499782	-0.66189325	-0.054358847
9666991152790	0.5659662	-0.99443847	-0.21210428
9667001162556	0.6203245	-1.2108059	-0.33680892
9667011141804	0.8260335	-1.3973297	-0.39969388
9667021151569	1.2278589	-1.5699974	-0.42953807
9667031130817	1.7842325	-1.7330723	-0.45618433
9667041140583	2.378977	-1.9313207	-0.52866197
9667051150349	2.924692	-2.182861	-0.6981322
9667061129597	3.4181805	-2.446126	-0.96566063
9667071139362	3.7986894	-2.6123986	-1.2438475
9667081149128	3.9638958	-2.8490171	-1.3706834
9667091128376	4.0171885	-3.3659544	-1.3888028
9667101138142	4.012925	-4.2644663	-1.5891825
9667111117390	3.761384	-4.9071736	-1.7117553
9667121127155	3.1208086	-4.5224023	-1.4996511
9667131136921	2.327816	-2.1817954	-1.0605211
9667141146687	1.8236691	0.28884512	-0.57342786
9667151125935	1.5284287	1.3216536	-0.15241697
9667161135700	1.3568265	1.2843488	0.14815272
9667171145466	1.4474238	1.1393932	0.2931083
9667181124714	1.9537027	1.3653535	0.1790627
9667191134480	2.691271	1.5657334	-0.15348276
9667201113728	3.2710934	1.2662295	-0.63737863
9667211123493	2.9865115	0.5297272	-1.3802762
9667221133259	1.880159	-0.18865593	-2.2734582
9667231081989	0.8771944	-1.2417153	-2.64544
9667241091755	0.5020152	-1.4644781	-2.3171582
9667251101521	0.545715	-0.8835897	-1.8577768
9667261080769	0.7386336	-0.23022388	-1.4591491
9667271121052	0.91023546	0.15454803	-1.1468549
9667281100300	1.106352	0.5521098	-0.96566063
9667291079548	1.3365756	0.72904116	-0.920895
9667301089313	1.4847288	0.86014086	-1.0402699
9667311099079	1.4197117	1.2118711	-1.2289252
9667321078327	1.1713691	1.3813412	-1.3259178
9667331088093	0.86227244	1.437831	-1.2246621
9667341097858	0.6160608	1.5614699	-0.9923069
9667351077106	0.4156811	1.6147624	-0.7716757
9667361086872	0.1790627	1.4399632	-0.62991774
9667371066120	-0.11937566	1.1692369	-0.49881807
9667381045368	-0.46790862	0.7546216	-0.28884566
9667391055134	-0.81430995	0.35066456	-0.0852683
9667401095417	-1.0690477	0.093794405	0.06714814
9667411074665	-1.2566373	-0.04476614	0.16520654
9667421053913	-1.4165149	-0.12470465	0.20677476
9667431063679	-1.5230999	-0.07780718	0.23342101
9667441073444	-1.5902483	0.11084822	0.27072576
9667451052692	-1.6648581	0.39329857	0.30270103
9667461062458	-1.7533236	0.65443164	0.31122765
9667471072224	-1.8183403	0.7023949	0.27179158
9667481051472	-1.8375257	0.37411287	0.16627233
9667491061237	-1.7703774	-0.28777987	0.0063947826
9667501040485	-1.5294952	-0.9038412	-0.10658503
9667511050251	-1.0690477	-1.1447233	-0.005329518
9667521029499	-0.5148058	-0.9336848	0.16733813
9667531039265	-0.09166361	-0.5574398	0.07780665
9667541049030	0.100189716	-0.4050234	-0.23022388
9667551028278	-0.053292517	-0.64803714	-0.45618433
9667561038044	-0.5659667	-1.2161351	-0.41035238
9667571078327	-1.0583895	-2.1626098	0.036238696
9667581027058	-0.81111205	-3.7677798	0.91663074
9667591036823	0.07674085	-5.15978	1.9345173
9667601016071	0.33254492	-4.6524353	2.4066892
9667611025837	0.58941454	-2.512209	1.6541991
9667621066120	1.19162	1.6094332	0.02131674
9667631045368	0.8761286	2.5324593	-0.25260696
9667641055134	-0.31016266	1.4964532	0.35705933
9667651034382	-1.3120614	0.37517866	0.8761286
9667661013630	-1.791694	-0.67788076	1.2640979
9667671023395	-1.9206619	-1.5060464	1.5753261
9667681033161	-1.9089376	-2.0283127	1.8833566
9667691012409	-1.9110693	-2.0805395	2.171136
9667701022175	-1.9537033	-1.5167049	2.384306
9667711031940	-1.9377155	-0.42314273	2.485562
9667721041706	-1.7693111	0.651234	2.5356567
9667731020954	-1.5241657	1.3440367	2.4535863
9667741030720	-1.2491765	1.638211	2.3235524
9667751009968	-0.8793265	1.7831666	2.1039875
9667761019733	-0.4135503	2.109317	1.6627257
9667770998981	-0.14708772	2.526064	1.1308666
9667781008747	-0.20357762	2.7211146	0.7546216
9667791018513	-0.392233	2.556974	0.53505623
9667800997761	-0.49029115	0.6245877	0.45831537
9667811007526	-1.6627265	-2.2670634	0.6597606
9667821017292	-2.8106468	-3.320123	0.5627683
9667830996540	-3.371284	-3.1314676	0.17799637
9667841006306	-3.3179915	-2.5420525	-0.17266817
9667850985554	-2.8053174	-2.0080616	-0.3165577
9667860964802	-2.0474982	-1.6041045	-0.26752838
9667870974567	-1.3461688	-1.047731	-0.1332313
9667880984333	-0.9123681	-0.2248949	-0.024514664
9667891024616	-0.6459055	0.64377314	0.047962997
9667901003864	-0.4188793	1.3451024	0.095925994
9667910983112	-0.20677528	1.8364592	0.119374864
9667920992878	-0.034107372	2.172202	0.13429682
9667931002644	0.08420196	2.3981621	0.13856028
9667941012409	0.14282346	2.5484471	0.13216496
9667950991657	0.14175767	2.6337147	0.10978243
9667961001423	0.09059701	2.6582294	0.082070366
9667971011189	0.0031973913	2.6262538	0.049028795
9667980990437	-0.105519235	2.5218008	0.011724034
9667990969685	-0.2238291	2.3448696	-0.029844182
9668000979450	-0.34746715	2.0837367	-0.07141213
9668010958698	-0.48069844	1.7458619	-0.11298035
9668020968464	-0.6107323	1.3301803	-0.15881175
9668030947712	-0.7311733	0.8590748	-0.21636799
9668040957478	-0.83242935	0.34107184	-0.2749895
9668050936726	-0.89957774	-0.2259607	-0.33254573
9668060946491	-0.920895	-0.83242935	-0.39649647
9668070956257	-0.91982865	-1.4495565	-0.4529864
9668080935505	-0.9240924	-2.0006008	-0.4689744
9668090945271	-0.95393604	-2.3864386	-0.42314273
9668100924519	-1.0178868	-2.54525	-0.34426975
9668110934284	-1.0882331	-2.4631796	-0.2685947
9668120913532	-1.151118	-2.0986588	-0.22169697
9668130923298	-1.202279	-1.1713696	-0.23875053
9668140963581	-0.9134339	0.81857234	-0.26539677
9668150973347	0.26219887	2.7434974	-0.068214744
9668160983112	1.2353197	3.290279	0.015987223
9668170962360	1.8460518	3.0227504	-0.068214744
9668180941608	2.2500088	2.5068789	-0.15881175
9668190951374	2.5271301	1.8780273	-0.20784108
9668200930622	2.7680118	1.1479201	-0.22063118
9668210970905	3.1080182	0.45618352	-0.18972173
9668220950153	3.7070258	-0.07780718	-0.105519235
9668230959919	4.331614	-0.44445974	0.002131594
9668240969685	4.4403305	-0.49775228	-0.026646258
9668250918415	4.134432	-0.80151933	-0.17479977
9668260928181	3.9372497	-2.1093175	-0.19078752
9668270907429	3.8232033	-3.6377466	-0.10658503
9668280917194	3.457617	-4.1493545	-0.12470465
9668290896442	2.6081345	-2.943878	-0.0937952
9668300936726	1.7607841	-2.2564049	0.03304104
9668310915974	1.1639079	-2.3246193	0.16520654
9668320895222	0.8537455	-2.590016	0.2344868
9668330904987	0.8452186	-2.452521	0.16733813
9668340914753	0.96885747	-1.8663036	-0.08633409
9668350894001	1.1660395	-1.2470449	-0.5489132
9668360903767	1.5017824	-1.4985852	-1.1308671
9668370883015	1.5060458	-1.8908182	-1.8215377
9668380892780	1.3387072	-1.8716328	-2.2489436
9668390872028	1.3696169	-1.4101198	-2.0538933
9668400881794	1.488992	-0.55957144	-1.5923802
9668410922077	1.5987744	0.26965997	-1.2406496
9668420901325	1.6360794	0.7652798	-1.0392041
9668430911091	1.6552649	0.82709926	-0.89851195
9668440890339	1.6680549	0.62245613	-0.8270998
9668450869587	1.5763919	0.4220764	-0.8164416
9668460879353	1.418646	0.37624475	-0.8718657
9668470889118	1.2012126	0.45405164	-0.904907
9668480868366	0.9667256	0.6075339	-0.93794805
9668490878132	0.7663456	0.8015188	-0.920895
9668500857380	0.6032707	0.9464744	-0.84521943
9668510867146	0.43912998	1.0146888	-0.6970659
9668520876911	0.21849905	0.9944377	-0.5084105
9668530856159	-0.06608315	0.8697333	-0.3240188
9668540835407	-0.39649647	0.6288512	-0.1406924
9668550875690	-0.7301075	0.32082036	0.02557993
9668560854938	-1.0146894	0.08526776	0.1502843
9668570864704	-1.2289252	0.014921425	0.22169644
9668580874470	-1.4005271	0.12683597	0.23235469
9668590853718	-1.5348243	0.35173035	0.20464262
9668600863483	-1.6286192	0.64377314	0.1918528
9668610842731	-1.6637924	0.86120665	0.25047457
9668620852497	-1.6691213	1.02215	0.34426922
9668630862263	-1.6307508	1.1948174	0.45192006
9668640872028	-1.4964536	1.3163244	0.5478466
9668650851276	-1.215069	1.1212739	0.5542419
9668660861042	-0.88785344	0.31762296	0.4284712
9668670840290	-0.5329252	-0.8516145	0.24407952
9668680850056	-0.25473854	-1.6296849	0.06501655
9668690829304	-0.04796353	-1.6723189	0.014921425
9668700869587	0.22915728	-1.5273631	0.036238696
9668710848835	0.40502286	-1.74906	-0.036239497
9668720858601	0.07993824	-2.6017404	0.010658237
9668730837849	-0.47750106	-3.7645824	0.49561986
9668740817097	-0.74609524	-4.444595	1.3919997
9668750826862	-0.18012902	-3.989477	1.9249249
9668760836628	1.595577	-0.72371215	0.83775777
9668770876911	1.8865542	2.1114488	-0.3240188
9668780825642	0.60007334	2.1700702	-0.0959268
9668790835407	-0.58302027	1.2875465	0.23555261
9668800845173	-1.3397735	0.13749447	0.4220764
9668810824421	-1.7543896	-1.131933	0.59687567
9668820803669	-1.8726987	-2.155149	0.8654698
9668830813435	-1.8567109	-2.4599822	1.2321222
9668840823200	-1.9483743	-2.3107631	1.6669892
9668850802448	-2.2159023	-1.8982791	1.9483737
9668860812214	-2.5324597	-1.4037248	2.0304441
9668870821980	-2.6422424	-1.2161351	2.002732
9668880801228	-2.4802334	-1.2918105	1.8982786
9668890810993	-2.046432	-1.5337584	1.7266767
9668900790241	-1.2012132	-1.8982791	1.510309
9668910800007	-0.3304136	-1.8503162	1.3419049
9668920809772	0.1502843	-1.0146894	1.2971392
9668930819538	0.13109916	0.2899109	1.3269829
9668940798786	-0.36771864	1.5422845	1.3173904
9668950808552	-0.86547035	2.0315099	1.1425906
9668960818317	-1.117011	1.8353933	0.8654698
9668970797565	-1.2758228	1.4751362	0.6192587
9668980807331	-1.4612807	1.1234055	0.4274054
9668990786579	-1.6488703	0.8100457	0.26646206
9669000796345	-1.7543896	0.61073184	0.13856028
9669010806110	-1.7895625	0.5116079	0.06288496
9669020785358	-1.7948915	0.46577623	0.02131674
9669030795124	-1.7831675	0.4231422	0.002131594
9669040804890	-1.7479943	0.35173035	-0.008526909
9669050784138	-1.6872406	0.25793514	-0.026646258
9669060793903	-1.5966437	0.16094308	-0.054358847
9669070773151	-1.4825975	0.07247766	-0.07993878
9669080782917	-1.365354	-0.007461112	-0.0937952
9669090762165	-1.2534399	-0.07887298	-0.09805839
9669100741413	-1.1447233	-0.1396266	-0.074609786
9669110751179	-1.044533	-0.1705366	-0.040502686
9669120760944	-0.95180446	-0.18119483	-0.015988022
9669130770710	-0.87826073	-0.17906323	0.010658237
9669140749958	-0.81963897	-0.1705366	0.046897203
9669150759724	-0.7812684	-0.13642922	0.088465154
9669160738972	-0.75995165	-0.067148946	0.12790178
9669170779255	-0.75781953	0.01705302	0.15561382
9669180758503	-0.7812684	0.12150646	0.17053579
9669190768269	-0.826034	0.23555261	0.18758908
9669200747517	-0.8814581	0.34746662	0.22276224
9669210757282	-0.93155324	0.47643474	0.26433045
9669220736530	-0.94327754	0.6501682	0.30909607
9669230746296	-0.7503584	0.99976695	0.33893973
9669240756062	-0.009593239	1.6446064	0.402891
9669250765827	0.44659054	1.9227933	0.4135495
9669260775593	0.36238858	1.7266767	0.32188642
9669270754841	0.13749447	1.2875465	0.17266738
9669280764606	0.004263188	0.7940577	0.01705302
9669290743855	-0.017053818	0.37304708	-0.0959268
9669300753620	0.13109916	-0.045831937	-0.11298035
9669310763386	0.44339314	-0.5030815	-0.028778385
9669320773151	0.8526797	-0.9560676	0.06288496
9669330752399	1.3493657	-1.3365761	-0.0010663297
9669340731647	1.8524469	-1.62329	-0.29097724
9669350741413	2.2809186	-1.9355838	-0.65869564
9669360720661	2.6294515	-2.3864386	-1.0040312
9669371096638	2.9289553	-3.0675166	-1.2598348
9669380709675	3.1581132	-3.9702916	-1.4058566
9669390719440	3.3947318	-4.784601	-1.5017831
9669400698689	4.5224013	-3.696368	-1.3216542
9669410708454	5.671387	-0.719449	-1.1255376
9669420718220	5.6990995	0.62991697	-1.1639087
9669430697468	4.7174516	0.78659713	-0.9017093
9669440707233	2.9865115	0.17160158	-0.17799717
9669450716999	1.3429706	-0.68214446	0.4210106
9669460696247	0.44552475	-1.345103	0.5180027
9669470706013	0.45511746	-1.9004108	0.35279614
9669480715778	0.7940577	-2.6848764	0.4274054
9669490695026	0.99337184	-3.3446376	0.6480366
9669500704792	0.8217698	-3.462947	0.75248975
9669510714558	0.45618352	-3.1559823	0.39543015
9669520724323	0.059687298	-2.715786	-0.42634013
9669530673054	-0.29204303	-2.2308242	-1.6808459
9669540682819	-0.2280923	-2.1444902	-2.461048
9669550692585	0.15561382	-1.7106895	-2.2798536
9669560671833	0.57662445	-0.7823342	-1.7767721
9669570712116	0.8697333	0.060753096	-1.3589592
9669580691364	0.9987011	0.4913564	-1.0914308
9669590701130	1.033874	0.5180027	-1.0104262
9669600680378	1.0125573	0.40822026	-1.0765089
9669610659626	0.9368817	0.4210106	-1.2331885
9669620669392	0.7439631	0.6682875	-1.330181
9669630679157	0.46364436	0.99124	-1.3429714
9669640688923	0.19611599	1.1937516	-1.2992716
9669650668171	-0.033041574	1.3269829	-1.2832836
9669660647419	-0.16200967	1.4122511	-1.2619668
9669670657185	-0.15668015	1.4911236	-1.1084844
9669680636433	-0.1396266	1.4676752	-0.84521943
9669690646198	-0.17373398	1.3184562	-0.6437739
9669700625446	-0.34426975	0.8217698	-0.48815957
9669710635212	-0.59474456	0.21636745	-0.38690403
9669720644978	-0.8175074	-0.21743378	-0.32508463
9669730624226	-0.9805823	-0.42634013	-0.30270153
9669740633991	-1.0338749	-0.3815745	-0.2696605
9669750613239	-1.011492	-0.1406924	-0.2238291
9669760623005	-0.95073867	0.2280915	-0.15987755
9669770632771	-0.87826073	0.64697075	-0.073543996
9669780673054	-0.7897953	1.0253474	0.019185146
9669790652302	-0.7173174	1.2598342	0.105518706
9669800631550	-0.71305394	1.3109951	0.16627233
9669810641315	-0.80471724	1.2044101	0.19398439
9669820651081	-0.96246266	0.96992326	0.18119429
9669830630329	-1.1468549	0.7247777	0.12470385
9669840640095	-1.2939421	0.567032	0.07354346
9669850649860	-1.3056667	0.4806979	0.001065797
9669860629108	-1.1106162	0.4806979	-0.11830986
9669870608356	-0.7972562	0.39649594	-0.25900173
9669880618122	-0.48176426	0.21210374	-0.35173088
9669890597370	-0.20890687	-0.13749501	-0.38050872
9669900607136	-0.061819427	-0.8601414	-0.31016266
9669910616901	-0.19398493	-1.884423	-0.12150726
9669920626667	-0.30589947	-3.206077	0.38477165
9669930636433	0.118309066	-4.4190145	1.2203978
9669940615681	0.74076515	-4.123774	1.7032279
9669950625446	1.2331879	-2.0965273	1.2736903
9669960635212	2.5090103	0.9336843	0.036238696
9669970644978	2.705127	4.18879	-0.44126236
9669980654743	1.8023521	4.400894	0.14815272
9669990633991	0.44872266	2.890585	0.7450289
9670000613239	-0.7748731	0.77487254	1.0232158
9670010623005	-1.5582731	-1.089299	1.0882323
9670020602253	-1.9110693	-2.325685	1.234254
9670030612019	-2.0432348	-2.6656911	1.6062355
9670040591267	-2.2372193	-2.5218015	2.054958
9670050601032	-2.63265	-1.9291886	2.3022356
9670060610798	-2.8436882	-1.4921902	2.3160918
9670070590046	-2.7264447	-1.4079882	2.2553382
9670080599812	-2.3438044	-1.3184568	2.1285021
9670090579060	-1.7522577	-1.0487968	1.9355834
9670100588825	-0.7492926	-0.6395102	1.6211575
9670110598591	0.59367824	-0.07993878	1.2875465
9670120608356	1.5220336	0.46577623	1.0146888
9670130618122	1.1116812	1.6648573	0.9752525
9670140597370	-0.23448734	2.946009	0.91130126
9670150607136	-0.8718657	2.5090103	0.5734271
9670160586384	-0.9709896	1.907871	0.20251103
9670170596149	-0.8729315	1.8737639	0.071411334
9670180575398	-0.79832196	2.0464315	0.058621503
9670190585163	-0.7727415	2.101856	0.047962997
9670200594929	-0.77700466	2.0251145	0.015987223
9670210574177	-0.79938775	1.8822908	-0.031975776
9670220553425	-0.83242935	1.7181498	-0.087399885
9670230563190	-0.8697341	1.5412188	-0.14602192
9670240572956	-0.9113018	1.3504317	-0.20997268
9670250582722	-0.95073867	1.1234055	-0.25047535
9670260561970	-0.9827139	0.8548113	-0.25473854
9670270571735	-1.0040312	0.5691636	-0.21743378
9670280550983	-1.011492	0.2941741	-0.15241697
9670290560749	-1.0072286	0.047962997	-0.075675584
9670300570515	-0.9901748	-0.13749501	0.0074605793
9670310549763	-0.9272898	-0.27818742	0.15454803
9670330538776	-0.88891923	-0.22915809	0.21530166
9670340548542	-0.84521943	-0.0959268	0.26752785
9670350558308	-0.79832196	0.11511141	0.29950362
9670360537556	-0.7524905	0.381574	0.29950362
9670370547321	-0.7162516	0.6501682	0.27072576
9670380557087	-0.70239544	0.8697333	0.2238283
9670390536335	-0.7301075	1.0178863	0.19931364
9670400546101	-0.80045354	1.1052861	0.20677476
9670410555866	-0.904907	1.1393932	0.21423534
9670420535114	-1.0296116	1.1106154	0.19505018
9670430544880	-1.1585792	1.0349398	0.16733813
9670440554646	-1.2960739	0.9731207	0.16094308
9670450533894	-1.4250418	0.9763183	0.1886554
9670460543659	-1.5156391	1.1234055	0.2259599
9670470522907	-1.4943221	1.8066155	0.21956486
9670480532673	-0.29843837	4.3944993	0.21956486
9670490572956	1.0892981	5.7054944	0.30803028
9670500552204	1.4111848	5.0755773	0.35919118
9670510531452	1.1255372	3.146389	0.4124837
9670520541218	0.9528695	1.1393932	0.46790782
9670530520466	1.0392035	-0.31122845	0.48282978
9670540530231	1.2672952	-1.2598348	0.39436436
9670550509480	1.5081774	-1.9259912	0.19611599
9670560519245	1.7341379	-2.466377	-0.039436888
9670570498493	1.9537027	-2.986512	-0.2707263
9670580508259	2.138095	-3.4885275	-0.49135694
9670590518024	2.2766552	-3.946843	-0.699198
9670600497272	3.0056965	-3.775241	-0.62991774
9670610507038	4.5479813	-2.616662	-0.16307548
9670620516804	5.361225	-2.163676	0.041567683
9670630496052	5.3111305	-2.334212	-0.21210428
9670640505817	4.5160065	-2.2286928	-0.57236207
9670650485065	3.023816	-2.0432348	-0.3623894
9670660525349	1.4666095	-1.9441108	0.26965997
9670670504597	0.27285737	-2.048564	0.40822026
9670680483845	-0.45511797	-2.176466	0.19718204
9670690493610	-0.8057831	-1.8492498	0.10232131
9670700472858	-0.37731135	-1.2907447	0.06714814
9670710513142	0.86120665	-0.77593887	-0.068214744
9670720492390	2.0709462	-0.57022995	-0.42634013
9670730471638	2.6145296	-0.8590756	-1.0722451
9670740481403	2.3736475	-1.1639087	-1.5636021
9670750491169	1.7618499	-1.1703035	-1.6701871
9670760470417	1.2534394	-0.5915472	-1.7021629
9670770480183	1.1649737	-0.31868932	-1.5039147
9670780459431	1.212937	-0.18012902	-1.1937524
9670790469196	1.1649737	-0.12044146	-0.9358164
9670800478962	1.1244713	-0.16733865	-0.8910508
9670810458210	1.1308666	-0.39969388	-0.96566063
9670820467976	1.0072278	-0.49562067	-1.090365
9670830447224	0.7993872	-0.2728579	-1.1969497
9670840487507	0.62139034	0.123638056	-1.2182671
9670850466755	0.5606367	0.4689736	-1.1287355
9670860446003	0.5265293	0.7695436	-1.067982
9670870455769	0.48709324	0.9528695	-1.0498626
9670880435017	0.45405164	0.99337184	-0.9560676
9670890444782	0.3719813	0.9677917	-0.7727415
9670900454548	0.24407952	0.8462844	-0.556374
9670910433796	0.052226186	0.63204855	-0.36558676
9670920443562	-0.17266817	0.39543015	-0.21210428
9670930422810	-0.4039576	0.18652327	-0.10871716
9670940432575	-0.62352246	0.07780665	-0.057556238
9670950411823	-0.79832196	0.12577018	-0.039436888
9670960421589	-0.92196083	0.2931083	-0.017053818
9670970431355	-0.9880431	0.53399044	0.02557993
9670980441120	-0.99763584	0.78659713	0.08953121
9670990420368	-0.9571337	1.02215	0.14815272
9671000430134	-0.8921166	1.2065419	0.18119429
9671010439899	-0.8398899	1.2459782	0.15987702
9671020419147	-0.80151933	1.1521834	0.07887244
9671030428913	-0.7375686	0.99976695	-0.08633409
9671040408161	-0.62245667	0.8111115	-0.32295302
9671050417927	-0.471106	0.53292465	-0.49455488
9671060397175	-0.37837714	0.10765083	-0.55957144
9671070406940	-0.38583824	-0.4519206	-0.5680983
9671080386189	-0.43273544	-0.89638036	-0.6597614
9671090395954	-0.48496217	-1.2470449	-0.79938775
9671100405720	-0.69067115	-1.8119453	-0.740766
9671110384968	-1.1340646	-2.7285764	-0.21317007
9671120394733	-1.1372625	-3.8338625	0.8089799
9671130404499	-0.015988022	-4.2634006	1.5465482
9671140414265	1.6243548	-2.78933	1.261966
9671150424030	3.0461988	0.13323076	0.44765687
9671160403278	3.194352	2.8287654	0.32614988
9671170413044	2.5718956	4.3252187	0.8260335
9671180422810	1.4293045	3.998003	1.2363856
9671190402058	0.13642868	2.4514546	1.3280487
9671200411823	-1.0924966	0.34533504	1.2683611
9671210391071	-2.2148366	-2.0816052	1.2118711
9671220400837	-2.951339	-2.9225612	1.3259171
9671230380085	-3.2689621	-2.6134644	1.7213475
9671240389851	-3.7123559	-1.4101198	1.9888756
9671250399616	-4.132301	-0.55957144	2.021917
9671260378864	-4.1578813	-0.37198183	1.8023521
9671270388630	-3.6494708	-0.7055928	1.3642876
9671280367878	-1.9185303	-2.6582303	0.9123673
9671290377644	-0.18865593	-4.1685395	0.7023949
9671300387409	0.4359323	-3.533293	0.84948236
9671310397175	0.1790627	-1.2896789	1.2150686
9671320406940	-0.5148058	1.6925694	1.5380213
9671330386189	-0.5158716	2.6944685	1.3898681
9671340365437	-0.16840446	2.6795464	0.99337184
9671350405720	0.07780665	2.8756628	0.6086002
9671360384968	0.12683597	3.3190567	0.33467653
9671370394733	-0.02238307	3.5929801	0.16840392
9671380373981	-0.2728579	3.5119753	0.088465154
9671390353229	-0.44339395	3.294542	0.053291984
9671400362995	-0.53612256	3.0131576	0.031975243
9671410372761	-0.58088845	2.7168515	-0.0021321268
9671420352009	-0.635247	2.4610474	-0.07034633
9671430361774	-0.70239544	2.165807	-0.19398493
9671440341022	-0.7865979	1.7693105	-0.33574313
9671450350788	-0.9155655	1.3376414	-0.45405218
9671460330036	-1.0669161	0.9208942	-0.5084105
9671470370319	-1.3429714	0.1801285	-0.44552556
9671490359333	-1.4143833	-0.14602192	-0.35386246
9671500338581	-1.4378319	-0.4146161	-0.24088213
9671510348347	-1.4175807	-0.5659667	-0.11617774
9671520358112	-1.3589592	-0.5766252	0.011724034
9671530337360	-1.2545058	-0.44659135	0.12470385
9671540347126	-1.0978255	-0.22702649	0.16627233
9671550356892	-0.9027754	0.047962997	0.11724327
9671560336140	-0.7055928	0.34426922	0.03410684
9671570345905	-0.5222669	0.6075339	-0.036239497
9671580325153	-0.39010143	0.77380675	-0.067148946
9671590334919	-0.32508463	0.8420212	-0.04476614
9671600344685	-0.328282	0.90170854	0.03304104
9671610323933	-0.370916	0.9677917	0.08526776
9671620333698	-0.45618433	0.9816473	0.09912392
9671630343464	-0.5627688	1.0264132	0.16733813
9671640322712	-0.66189325	1.1393932	0.26006725
9671650332478	-0.7492926	1.2811514	0.30270103
9671660342243	-0.81111205	1.3600245	0.27179158
9671670352009	-0.8249682	1.3419049	0.21103793
9671680331257	-0.7887295	1.2214637	0.10765083
9671690310505	-0.72371215	1.0136231	-0.04263428
9671700320271	-0.68214446	0.84095544	-0.17693137
9671710299519	-0.66935384	0.864404	-0.23768473
9671720309284	-0.24621163	1.0871665	-0.16414127
9671730349567	0.76847726	1.037072	0.06608235
9671740328815	1.4879262	0.44872266	0.13536288
9671750308064	1.8055497	-0.34107238	0.024514131
9671760317829	1.8449861	-1.0583895	-0.17693137
9671770297077	1.7042936	-1.6030387	-0.3986281
9671780306843	1.5230994	-1.9782178	-0.533991
9671790286091	1.4356995	-2.2084415	-0.5457158
9671800295856	1.758652	-2.0528274	-0.4604475
9671810275104	2.7733414	-1.4143833	-0.3506651
9671820284870	3.6484041	-1.2779543	-0.29737255
9671830264118	4.0289125	-1.6328824	-0.20464343
9671840304401	3.8743644	-2.2201657	0.001065797
9671850283649	3.182628	-2.9119024	0.35599354
9671860293415	2.2159016	-3.5386221	0.757819
9671870272663	1.3951974	-3.9873452	0.91556495
9671880282429	0.78339946	-4.3976974	0.7706094
9671890292194	0.30803028	-4.699333	0.567032
9671900271442	-0.07780718	-4.4094214	0.45298585
9671910250690	-0.35173088	-3.2689621	0.48602742
9671920260456	-0.64803714	-1.7394674	0.40928605
9671930270222	-0.51054263	-0.620325	-0.023448868
9671940279987	0.83882356	-0.60540307	-0.95500183
9671950259235	2.2883797	-1.4570173	-1.6083677
9671960238483	3.0653841	-2.0581567	-1.7874309
9671970248249	2.8522143	-0.8921166	-1.848184
9671980288532	2.3235524	0.32828146	-1.6158288
9671990267780	1.8663028	0.5052126	-1.3205884
9672000247028	1.4634116	0.18119429	-1.075443
9672010256794	1.2790198	-0.35599408	-0.8953146
9672020236042	1.3397729	-0.83456093	-0.8025851
9672030245808	1.483663	-0.9891089	-0.8281656
9672040225056	1.631816	-0.91876286	-0.8505487
9672050234821	1.6637915	-0.8356267	-0.75568795
9672060244587	1.5262967	-0.7940585	-0.5851519
9672070223835	1.3280487	-0.7524905	-0.41035238
9672080233601	1.112747	-0.640576	-0.29204303
9672090212849	0.89318186	-0.41781348	-0.25154117
9672100222614	0.7333046	-0.2259607	-0.20464343
9672110232380	0.6778802	-0.1961165	-0.10019025
9672120211628	0.657629	-0.2611336	-0.025580462
9672130251911	0.6054023	-0.3304136	0.01705302
9672140231159	0.52439773	-0.4199451	0.03943609
9672150210407	0.4199443	-0.43699864	0.047962997
9672160250690	0.33574232	-0.2600678	-0.0031979238
9672170229938	0.2366184	-0.037305295	-0.05222672
9672180422810	0.061818894	0.06927974	-0.043700077
9672190218952	-0.12683651	0.2238283	-0.046897735
9672200198200	-0.29950416	0.39329857	-0.050095126
9672210207966	-0.46684283	0.54251736	-0.031975776
9672220217731	-0.6459055	0.6832095	-0.005329518
9672230196980	-0.8079147	0.84095544	-0.0010663297
9672240237263	-0.9283556	0.9667256	0.018119348
9672250216511	-0.99124056	0.985911	0.041567683
9672260195759	-1.0146894	0.864404	0.14069188
9672270205524	-0.98591155	0.6597606	0.23875
9672280215290	-0.926224	0.3677181	0.34426922
9672290225056	-0.86333877	0.07993824	0.4124837
9672300204304	-0.84521943	-0.15348276	0.37411287
9672310183552	-0.926224	-0.28245062	0.2238283
9672320193317	-1.0562578	-0.2792532	0.013855628
9672330172565	-1.1575134	-0.1406924	-0.16307548
9672340212849	-1.1724354	0.1065845	-0.25154117
9672350161579	-1.090365	0.30483288	-0.27712163
9672360171345	-0.96246266	0.20570895	-0.27712163
9672370181110	-0.76847804	-0.26433098	-0.28777987
9672380160358	-0.6000741	-1.0018996	-0.25047535
9672390170124	-0.620325	-1.7735747	-0.043700077
9672400179890	-0.87826073	-2.5825546	0.37411287
9672410189655	-1.3685519	-3.0973601	0.9880426
9672420168903	-1.8236699	-3.2764232	1.7064253
9672430178669	-1.4623466	-3.2476454	2.0123246
9672440188435	-0.21423586	-2.297973	1.319522
9672450198200	0.9869768	0.105518706	0.26646206
9672460177448	1.156447	1.2598342	0.027712055
9672470187214	0.381574	1.3685511	0.34533504
9672480196980	-0.34426975	0.89637953	0.8239019
9672490176228	-0.7311733	0.054358315	1.13513
9672500155476	-1.1564476	-0.61925924	1.240649
9672510165241	-1.7234796	-1.0029653	1.2704929
9672520175007	-2.069881	-1.4527539	1.3994608
9672530154255	-2.3299482	-1.8982791	1.679779
9672540164021	-2.610267	-2.0709467	2.0176537
9672550143269	-2.949207	-1.7693111	2.2169678
9672560153034	-3.157048	-1.2918105	2.214836
9672570162800	-3.055792	-0.8057831	2.1338313
9672580142048	-2.5985425	-0.21636799	1.952637
9672590151813	-1.706426	0.6203245	1.710689
9672600161579	-0.5009499	0.7023949	1.2182662
9672610171345	0.66509014	-0.027712587	0.6906706
9672620150593	1.196949	-0.51693743	0.49455407
9672630160358	0.2259599	0.6267196	0.6192587
9672640170124	-1.0615869	1.907871	0.6032707
9672650149372	-1.6041045	2.0400364	0.3133598
9672660159138	-1.6627265	1.5721282	0.054358315
9672670138386	-1.572129	1.1500517	-0.053292517
9672680117634	-1.4634124	0.9752525	-0.051160924
9672690157917	-1.3642882	0.9677917	-0.025580462
9672700137165	-1.286481	0.9763183	-0.01279063
9672710146931	-1.2086743	0.963528	-0.027712587
9672720126179	-1.1436572	0.9294206	-0.050095126
9672730135944	-1.1010236	0.8654698	-0.081005104
9672740145710	-1.0818381	0.76314825	-0.13749501
9672750124958	-1.08397	0.6384439	-0.19824864
9672760134724	-1.0924966	0.50308096	-0.21103847
9672770113972	-1.0946282	0.360257	-0.16947025
9672780123737	-1.08397	0.26219887	-0.0831367
9672790164021	-1.0541258	0.13216496	0.018119348
9672800112751	-0.9805823	-0.062885754	0.08633356
9672810122517	-0.88891923	-0.17586558	0.17160158
9672820101765	-0.7897953	-0.12044146	0.23235469
9672830111530	-0.6981322	0.07247766	0.24407952
9672840121296	-0.62885195	0.31122765	0.23235469
9672850131062	-0.5883493	0.54464895	0.23128888
9672860110310	-0.57129574	0.7599509	0.24407952
9672870120075	-0.57342786	0.95606685	0.24301371
9672880129841	-0.59474456	1.1234055	0.20890635
9672890109089	-0.6256546	1.2267932	0.13323076
9672900118855	-0.66828805	1.2310563	0.050094593
9672910128620	-0.71092236	1.106352	-0.014922224
9672920077351	-0.7482268	0.8356262	-0.053292517
9672930087116	-0.7738073	0.45085427	-0.057556238
9672940066364	-0.7855316	0.0	-0.03837109
9672950076130	-0.7908611	-0.4636449	-0.025580462
9672960055378	-0.8079147	-0.86547035	-0.021317273
9672970065144	-0.84521943	-1.118077	-0.025580462
9672980074909	-0.88572186	-1.1681719	-0.045831937
9672990084675	-0.8835897	-0.9901748	-0.07141213
9673000063923	-0.74289787	-0.5073447	-0.06501735
9673010134724	0.2472769	1.0093594	0.06927974
9673020113972	1.5902478	2.6081345	0.2376842
9673030123737	2.1135802	2.873531	0.1897212
9673040102985	2.2745235	2.4653106	-0.005329518
9673050082233	2.3118284	1.7352036	-0.23448734
9673060091999	2.2553382	0.8217698	-0.4092866
9673070071247	2.114646	-0.07141213	-0.49988386
9673080050495	1.9366492	-0.904907	-0.5233327
9673090060261	1.808747	-1.6254215	-0.49562067
9673100070026	1.9377149	-2.0368395	-0.4124845
9673110049274	2.8660703	-1.6925702	-0.17266817
9673120089558	3.8637059	-1.3770785	0.014921425
9673130312946	4.137629	-1.9174645	-0.0831367
9673140048054	3.891418	-3.0419362	-0.29417464
9673150057819	3.3755465	-4.2463465	-0.43593284
9673160037067	2.7125878	-5.1555166	-0.50947684
9673170046833	1.9036078	-5.3963985	-0.5457158
9673180026081	0.9667256	-4.7739425	-0.285648
9673190096882	0.11404561	-3.5162394	0.052226186
9673200045612	-0.5148058	-2.3374093	0.25154036
9673210024860	-0.7716757	-1.4762027	0.21530166
9673220034626	-0.5158716	-0.93155324	0.17479898
9673230044392	0.52759564	-0.61179817	0.17479898
9673240023640	1.7831666	-0.5872835	0.16307494
9673250063923	2.3544624	-0.040502686	-0.0842025
9673260043171	2.4056232	0.53185886	-0.96246266
9673270052937	2.617727	-0.069280535	-2.0421689
9673280032185	2.691271	-1.0200189	-2.2510753
9673290011433	2.2265604	-0.847351	-1.7320065
9673300021198	1.73094	-0.61606133	-1.2353206
9673310030964	1.3525634	-0.5883493	-0.9880431
9673320010212	1.0765083	-0.58088845	-0.87612915
9673330019978	0.91449916	-0.56063724	-0.81963897
9673339999226	0.83775777	-0.38264033	-0.7961904
9673350008991	0.84735024	-0.04476614	-0.7748731
9673360018757	0.90490645	0.30376682	-0.77593887
9673370028522	0.95393527	0.69706535	-0.75462216
9673380007771	0.89211607	0.8548113	-0.6469713
9673389987019	0.7002633	0.7812679	-0.49029115
9673399996784	0.38690326	0.62245613	-0.3581262
9673410006550	0.010658237	0.40502286	-0.2845822
9673419985798	-0.3400066	0.21743326	-0.21423586
9673429965046	-0.6533666	0.13642868	-0.11830986
9673440005329	-0.91023594	0.18226008	0.0031973913
9673450015095	-1.1351306	0.3581254	0.09912392
9673459994343	-1.3706834	0.6192587	0.12790178
9673470004108	-1.6296849	0.99337184	0.07993824
9673480013874	-1.9078718	1.4197117	0.00959244
9673489993122	-2.0677493	1.6691208	0.04263348
9673500002888	-2.0208519	1.616894	0.21423534
9673510012653	-1.7863648	1.3227197	0.35173035
9673519991901	-1.4037248	0.66509014	0.28777933
9673530001667	-1.0455989	-0.2621994	0.040501885
9673539980915	-0.6448397	-1.2182671	-0.20144603
9673549960163	-0.23768473	-1.8055502	-0.35386246
9673559969929	0.12577018	-1.7884967	-0.55104476
9673569979694	0.2909767	-1.5060464	-0.7961904
9673579989460	0.0053289854	-1.5913144	-0.9155655
9673589968708	-0.51693743	-2.3970969	-0.56383514
9673599978474	-0.43060386	-3.7613847	0.44232735
9673609988239	0.25686935	-4.4968214	1.6200917
9673619967487	0.73117274	-3.5375562	2.107185
9673630007771	1.6541991	0.62565374	1.1543152
9673639987019	2.68381	4.0395713	0.16946973
9673649996784	1.9888756	3.4927897	0.47856632
9673659976032	0.3133598	1.5561407	0.96885747
9673669955280	-1.2960739	-0.3272162	0.8974453
9673679965046	-2.5814888	-1.7671794	0.7141189
9673689944294	-3.1304018	-2.1114492	1.0050962
9673699954060	-3.2263284	-1.9163988	1.6030382
9673709963825	-3.3254526	-1.2768885	2.0389707
9673719943073	-3.2753575	-0.53612256	2.1743336
9673729952839	-2.773342	-0.004263721	2.109317
9673739962604	-1.7991552	0.35386193	1.929188
9673749941853	-0.61179817	0.7162511	1.7192156
9673759951618	0.4156811	1.3578923	1.426107
9673769961384	1.1596445	1.4516875	1.0072278
9673779940632	1.8108788	0.060753096	0.67468286
9673789950398	1.6755158	-0.9581995	0.38050818
9673799960163	-0.577691	0.7812679	0.20037943
9673809939411	-1.6680555	1.1468544	0.058621503
9673819949177	-1.73627	0.7780702	-0.040502686
9673829928425	-1.6211582	0.48176372	-0.0820709
9673839938190	-1.5849193	0.27072576	-0.024514664
9673849947956	-1.5913144	0.12790178	0.01705302
9673859927204	-1.5913144	0.037304495	0.0053289854
9673869936970	-1.5561415	-0.027712587	-0.036239497
9673879916218	-1.4772685	-0.0820709	-0.07034633
9673889895466	-1.3632224	-0.12150726	-0.05968783
9673899935749	-1.2342548	-0.041568484	0.047962997
9673909914997	-1.1010236	0.14495532	0.16094308
9673919924763	-0.9933727	0.35919118	0.1897212
9673929904011	-0.889985	0.58621716	0.15348223
9673939913776	-0.8079147	0.7812679	0.13642868
9673949923542	-0.7727415	0.927289	0.1790627
9673959933308	-0.76528066	1.0392035	0.2238283
9673969943073	-0.7727415	1.1543152	0.25367194
9673979922321	-0.77593887	1.2683611	0.2685939
9673989932087	-0.76634645	1.3696169	0.26219887
9673999911335	-0.74289787	1.4325022	0.2238283
9674009921101	-0.7077249	1.4420948	0.17266738
9674019930866	-0.66189325	1.3717487	0.12896757
9674029910114	-0.62778616	1.2203978	0.105518706
9674039889362	-0.61179817	1.0008327	0.095925994
9674049899128	-0.6213909	0.74076515	0.07993824
9674059908894	-0.66189325	0.46364436	0.04369928
9674069918659	-0.73223907	0.16094308	-0.015988022
9674079867390	-0.83349514	-0.14921932	-0.0820709
9674089877155	-0.9581995	-0.4060892	-0.11298035
9674099856403	-1.1010236	-0.5382547	-0.074609786
9674109896687	-1.2299911	-0.50627893	0.004263188
9674119875935	-1.2896789	-0.2238291	0.09059701
9674129885700	-1.0392041	0.99017423	0.14921851
9674139925983	0.056489907	2.797856	0.2248941
9674149905231	0.9134331	3.37981	0.30589867
9674159914997	1.2182662	3.2284594	0.33041307
9674169894245	1.234254	2.790395	0.2899109
9674179904011	1.0413351	2.078407	0.19398439
9674189883259	0.79618984	1.0999569	0.10232131
9674199893024	0.7045265	0.17266738	0.023448335
9674209872272	0.7887287	-0.5329252	-0.0842025
9674219851521	1.0114915	-0.9880431	-0.17799717
9674229861286	1.3109951	-1.2918105	-0.2685947
9674239840534	1.6787132	-1.5582731	-0.43380123
9674249880817	2.206309	-1.8460524	-0.6213909
9674259860065	3.0909643	-2.0656178	-0.6533666
9674269869831	4.1600122	-2.0091274	-0.44019657
9674279849079	4.8496175	-2.0986588	-0.2280923
9674289858845	4.9572678	-2.7786713	-0.2280923
9674299838093	4.694003	-3.6015072	-0.46684283
9674309847858	4.0097275	-3.3382423	-0.80151933
9674319827106	2.8159754	-1.9206619	-0.80045354
9674329836872	1.6414087	-0.968858	-0.3272162
9674339877155	0.9571332	-0.7855316	0.123638056
9674349856403	0.75248975	-1.1809623	0.39862755
9674359835651	1.0146888	-1.7799698	0.60007334
9674369845417	1.3237854	-2.2659974	0.7556874
9674379824665	1.3866707	-2.3885703	0.8782602
9674389834431	0.99337184	-1.5710632	0.72051424
9674399844196	0.6181927	-0.5862177	0.20251103
9674409823444	0.64057547	-0.3389405	-0.7183832
9674419802692	0.89211607	-0.9677922	-1.8332623
9674429812458	0.9869768	-1.5614705	-2.3278167
9674439822224	1.0008327	-1.5753267	-1.8886867
9674449831989	1.0264132	-1.0690477	-1.2960739
9674459811237	1.0445325	-0.49242327	-0.93048745
9674469821003	1.0274789	-0.11830986	-0.76847804
9674479800251	0.9731207	-0.028778385	-0.80045354
9674489810017	0.9091696	-0.12044146	-0.99550426
9674499789265	0.7599509	-0.050095126	-1.1585792
9674509829548	0.5553077	0.18226008	-1.1692377
9674519808796	0.32934728	0.44552475	-1.0381383
9674529788044	0.07247766	0.6139292	-0.8953146
9674539797810	-0.19078752	0.68747264	-0.76101744
9674549807575	-0.42420855	0.68534106	-0.5958104
9674559786823	-0.60540307	0.68853897	-0.39756227
9674569796589	-0.7492926	0.70665836	-0.17799717
9674579806355	-0.8835897	0.62565374	0.01705302
9674589785603	-1.0210847	0.49455407	0.1886554
9674599795368	-1.1703035	0.39862755	0.32828146
9674609805134	-1.3131273	0.38050818	0.45405164
9674619784382	-1.451688	0.44126156	0.54358315
9674629794147	-1.6073018	0.54678077	0.58621716
9674639803913	-1.7757063	0.64164126	0.6139292
9674649813679	-1.9046744	0.68853897	0.6618927
9674659792927	-1.8961475	0.6917364	0.7375678
9674669802692	-1.6829774	0.7812679	0.81857234
9674679781940	-1.2768885	1.0274789	0.820704
9674689791706	-0.6981322	1.0274789	0.6160608
9674699770954	-0.099124454	0.32721567	0.13003337
9674709780720	0.13749447	-0.7524905	-0.61925924
9674719790485	0.04369928	-1.401593	-1.1457891
9674729769733	-0.045831937	-1.420778	-1.2182671
9674739779499	-0.13856082	-1.2726253	-1.0967598
9674749758747	-0.42207694	-1.2736912	-0.8942487
9674759768513	-0.6363128	-1.5849193	-0.43166965
9674769778278	-0.31229424	-2.5345917	0.3687839
9674779788044	0.8015188	-3.8445213	1.1457886
9674789767292	1.8503153	-3.6356146	1.0733106
9674799777058	2.6880734	0.53185886	0.26219887
9674809786823	3.039804	4.352931	0.05542411
9674819766071	2.0922632	4.324153	0.54358315
9674829775837	0.33467653	2.37045	0.9208942
9674839755085	-1.089299	0.13856028	0.7802021
9674849764851	-2.0869346	-1.4730048	0.545715
9674859744099	-2.7573543	-1.8609743	0.68747264
9674869753864	-3.0824382	-1.5891825	1.2353197
9674879763630	-3.3094645	-1.3184568	1.8663028
9674889742878	-3.34144	-1.2097402	2.2713263
9674899752644	-2.9321537	-1.0455989	2.272392
9674909731892	-2.0997245	-0.55957144	1.923859
9674919741657	-0.99870163	0.48602742	1.437831
9674929751423	0.11191402	1.6680549	1.0509279
9674939730671	1.3024682	1.6723185	0.7109215
9674949740437	2.2500088	0.87079906	0.4732368
9674959750202	1.7511911	1.503914	0.36984968
9674969729450	-0.19718285	3.3041344	0.42420802
9674979739216	-1.2065427	3.5173044	0.2899109
9674989748981	-1.5636021	2.9044409	0.03943609
9674999728229	-1.7277434	2.142358	-0.068214744
9675009707478	-1.8279331	1.331246	-0.010659036
9675019747761	-1.8449866	0.6693533	0.07354346
9675029727009	-1.8034184	0.25473776	0.12470385
9675039736774	-1.7373358	0.04369928	0.13856028
9675049716022	-1.657397	-0.014922224	0.12257226
9675059756306	-1.5795898	0.019185146	0.09059701
9675069735554	-1.5156391	0.112979814	0.045831405
9675079745319	-1.4271734	0.27285737	0.022382537
9675089724567	-1.2832836	0.46577623	0.027712055
9675099734333	-1.0967598	0.62245613	0.0127898315
9675109713581	-0.8814581	0.70772415	-0.027712587
9675119692829	-0.66189325	0.7343704	-0.037305295
9675129672077	-0.4625791	0.7109215	-0.010659036
9675139712360	-0.31229424	0.66402435	0.03304104
9675149691608	-0.22702649	0.62565374	0.07993824
9675159701374	-0.20038024	0.6011391	0.13003337
9675169680622	-0.2259607	0.61179763	0.18439168
9675179720905	-0.28884566	0.6597606	0.23342101
9675189700153	-0.3741134	0.736502	0.27179158
9675199709919	-0.4636449	0.800453	0.30056942
9675209689167	-0.5435837	0.81857234	0.30909607
9675219698933	-0.6064689	0.78659713	0.29204252
9675229678181	-0.6533666	0.70772415	0.25367194
9675239687946	-0.67894655	0.6032707	0.19718204
9675249667194	-0.67148596	0.4913564	0.13429682
9675259676960	-0.62885195	0.37304708	0.075675055
9675269686726	-0.55957144	0.2248941	0.03304104
9675279696491	-0.47643524	0.010658237	-0.015988022
9675289675739	-0.39543068	-0.25687015	-0.062885754
9675299654987	-0.33574313	-0.49988386	-0.07887298
9675309664753	-0.30803105	-0.6437739	-0.069280535
9675319644001	-0.3154919	-0.6800129	-0.04796353
9675329653767	-0.34853294	-0.62672037	-0.028778385
9675339633015	-0.39543068	-0.51054263	-0.029844182
9675349642780	-0.43593284	-0.33147994	-0.067148946
9675359683064	-0.392233	0.061818894	-0.11830986
9675369662312	0.061818894	0.8750623	-0.0842025
9675379702595	0.7151852	1.3461683	0.035172634
9675389712360	1.0797057	1.1617761	-0.004263721
9675399661091	1.2640979	0.73117274	-0.1513509
9675409670856	1.3323123	0.31229344	-0.28245062
9675419680622	1.4079875	0.11511141	-0.35919198
9675429659870	1.6158283	0.11084822	-0.4146161
9675439669636	2.1412923	0.2685939	-0.4167477
9675449679401	2.8479507	0.45298585	-0.37837714
9675459658649	3.3755465	0.4178127	-0.34746715
9675469668415	3.7091577	0.087399356	-0.285648
9675479647663	3.9681592	-0.4636449	-0.10445344
9675489657429	4.1163125	-1.089299	0.16627233
9675499636677	4.0214515	-1.5977094	0.35279614
9675509646442	3.4874609	-1.4037248	0.20570895
9675519656208	2.6273198	-1.393066	-0.07034633
9675529635456	1.7842325	-2.1444902	-0.11404615
9675539614704	1.2427809	-3.3616912	-0.03090998
9675549654987	1.0125573	-4.4659114	0.008526376
9675559634235	0.84948236	-5.1629777	0.14921851
9675569613483	0.46790782	-5.3484354	0.381574
9675579623249	-0.07993878	-4.783535	0.5617025
9675589633015	-0.51906955	-3.7251458	0.5563735
9675599612263	-0.719449	-2.297973	0.30056942
9675609622028	-0.735437	-0.81111205	-0.18332642
9675619601276	-0.23128968	-0.23555313	-0.9923069
9675629611042	0.5851514	-0.75781953	-1.8449866
9675639590290	1.0786399	-1.2449133	-2.367253
9675649600056	1.298205	-1.2747569	-2.3864386
9675659609821	1.3504317	-0.73650277	-1.8599086
9675669619587	1.1905541	0.13429682	-1.3216542
9675679629353	0.9624621	0.57662445	-0.90917015
9675689608601	0.76314825	0.5808876	-0.640576
9675699618366	0.63631225	0.27605477	-0.55850565
9675709597614	0.5180027	-0.07034633	-0.6896053
9675719607380	0.4124837	-0.067148946	-0.8803923
9675729586628	0.27392316	0.17053579	-0.95500183
9675739596394	0.1502843	0.4338007	-0.87719494
9675749606159	0.06714814	0.66615593	-0.719449
9675759585407	-0.029844182	0.8260335	-0.5958104
9675769595173	-0.15668015	0.858009	-0.5030815
9675779574421	-0.3240188	0.6810779	-0.36665285
9675789584187	-0.5009499	0.4188785	-0.21103847
9675799563435	-0.6597614	0.17266738	-0.0842025
9675809603718	-0.79938775	-0.10978296	0.0
9675819582966	-0.9251582	-0.34959927	0.07247766
9675829562214	-1.0424014	-0.48815957	0.12683597
9675839571980	-1.1457891	-0.47963265	0.16946973
9675849551228	-1.2331885	-0.35386246	0.22702569
9675859560993	-1.2800862	-0.1513509	0.29950362
9675869570759	-1.2715596	0.100189716	0.360257
9675879580524	-1.2076086	0.35599354	0.39436436
9675889559772	-1.126604	0.6086002	0.3581254
9675899569538	-1.1106162	0.7460947	0.24407952
9675909579304	-1.2491765	0.6832095	0.08313616
9675919558552	-1.4548855	0.4902906	-0.073543996
9675929568317	-1.4783343	0.39649594	-0.20890687
9675939547565	-1.1894891	0.5201345	-0.34746715
9675949557331	-0.70239544	0.6181927	-0.53612256
9675959536579	-0.28245062	0.5073442	-0.76741225
9675969515827	-0.19185333	0.12257226	-1.0104262
9675979525593	-0.38583824	-0.34640136	-1.1415256
9675989535358	-0.6757492	-0.7077249	-1.0210847
9675999545124	-0.88785344	-1.0178868	-0.577691
9676009554890	-0.66189325	-1.4580832	0.07993824
9676019564655	0.014921425	-2.3544629	0.91663074
9676029543903	0.6075339	-3.1922212	1.7160182
9676039553669	0.72797537	-3.1282701	2.0208514
9676049563435	0.5659662	-2.3075657	1.589182
9676059573200	1.9387808	1.0445325	0.9294206
9676069552448	2.846885	4.9913754	0.35705933
9676079562214	2.0240488	3.6558652	0.7002633
9676089541462	-0.04476614	0.47856632	1.1159444
9676099520710	-1.6883065	-1.6627265	1.0413351
9676109530476	-2.3043678	-2.1945853	1.0306766
9676119540241	-2.3843067	-1.7522577	1.1884223
9676129519489	-2.4216113	-1.4463586	1.4079875
9676139529255	-2.43227	-1.3355103	1.6211575
9676149508503	-2.3523314	-1.308864	1.7469277
9676159518269	-2.0837371	-1.1202086	1.7469277
9676169497517	-1.530561	-0.7333054	1.6765816
9676179507282	-0.6864077	-0.10765136	1.5572065
9676189547565	0.27072576	0.90384066	1.3568265
9676199526813	0.9667256	1.9686247	1.0711788
9676209536579	1.1990811	2.68381	0.7333046
9676219546345	1.156447	3.0014331	0.530793
9676229525593	1.0093594	3.0483308	0.47430313
9676239504841	0.81750655	2.6294515	0.49775147
9676249514606	-0.12470465	1.6978986	0.52226615
9676259524372	-1.0040312	0.864404	0.34107184
9676269503620	-1.3941318	0.46044698	0.050094593
9676279513386	-1.4474243	0.41674688	-0.1417582
9676289492634	-1.3184568	0.52333194	-0.20570949
9676299502399	-1.1543161	0.6448389	-0.20038024
9676309481647	-0.9891089	0.7141189	-0.17586558
9676319491413	-0.8249682	0.7119873	-0.16200967
9676329470661	-0.6608272	0.6491024	-0.16520707
9676339480427	-0.5052131	0.536122	-0.16840446
9676349490192	-0.36665285	0.40395707	-0.16414127
9676359469440	-0.25047535	0.26219887	-0.15454857
9676369479206	-0.16520707	0.112979814	-0.13856082
9676379488972	-0.12044146	-0.015988022	-0.10765136
9676389468220	-0.12470465	-0.09805839	-0.043700077
9676399477985	-0.1705366	-0.11404615	0.035172634
9676409487751	-0.24514584	-0.06395155	0.0948602
9676419497517	-0.33147994	0.03304104	0.11617721
9676429476765	-0.4146161	0.15774542	0.11617721
9676439486530	-0.48389637	0.28564718	0.11191402
9676449496296	-0.5318594	0.39116642	0.10445291
9676459475544	-0.56383514	0.45618352	0.09059701
9676469485310	-0.5915472	0.47643474	0.08313616
9676479464558	-0.61499554	0.45938116	0.101255514
9676489474323	-0.62245667	0.4220764	0.13109916
9676499484089	-0.60540307	0.34426922	0.12790178
9676509463337	-0.57236207	0.20251103	0.095925994
9676519473103	-0.5382547	0.023448335	0.06714814
9676529482868	-0.5233327	-0.15881175	0.054358315
9676539462116	-0.5457158	-0.27818742	0.07780665
9676549441364	-0.5958104	-0.28671405	0.13216496
9676559451130	-0.66722226	-0.20570949	0.16733813
9676569430378	-0.7524905	-0.05542464	0.16627233
9676579470661	-0.8377583	0.15774542	0.13429682
9676589449909	-0.9134339	0.4231422	0.07993824
9676599459675	-0.9677922	0.74289733	0.0053289854
9676609469440	-0.99443847	1.1393932	-0.09059781
9676619418171	-0.9592653	1.7352036	-0.20357762
9676629458454	-0.2707263	3.5119753	-0.23235548
9676639468220	1.2225294	4.9700584	-0.051160924
9676649477985	1.971822	4.8389583	0.07780665
9676659457233	2.1476874	4.0203857	0.105518706
9676669466999	1.9505053	2.8330293	0.04369928
9676679446247	1.5167041	1.5486798	-0.10765136
9676689456013	1.1980153	0.52226615	-0.17373398
9676699435261	1.1521834	-0.25900173	-0.15668015
9676709445026	1.5945113	-0.88891923	-0.04476614
9676719454792	2.5633688	-1.3184568	0.16094308
9676729434040	3.515173	-1.7479943	0.31229344
9676739443806	4.089666	-2.347002	0.33574232
9676749423054	4.2697945	-3.1357307	0.29204252
9676759432819	4.1514854	-3.9265916	0.24834271
9676769442585	3.8381255	-4.1365643	0.11724327
9676779421833	3.058989	-2.7115228	-0.1705366
9676789401081	2.149819	-1.7735747	-0.38690403
9676799410847	1.4506215	-1.7767721	-0.38796985
9676809390095	1.0050962	-2.405624	-0.17266817
9676819430378	0.7418315	-3.0771093	0.12257226
9676829409626	0.6043365	-3.2327235	0.2824498
9676839388874	0.4284712	-2.5974767	0.28671354
9676849398640	0.25260615	-1.6190264	0.29204252
9676859408405	0.17799637	-0.49135694	0.19611599
9676869418171	0.4806979	0.3837056	-0.22915809
9676879397419	1.2097396	0.3336107	-1.0306774
9676889407185	1.6947012	-0.04263428	-1.7586528
9676899783161	1.6776474	-0.1396266	-2.1093175
9676909396198	1.362156	0.28884512	-1.8226036
9676919405964	1.0381378	0.77274096	-1.4101198
9676929385212	0.82816505	0.91769654	-1.0871674
9676939394978	0.72158	0.80684835	-0.85268027
9676949374226	0.6448389	0.5489124	-0.74609524
9676959383991	0.58621716	0.30803028	-0.7205148
9676969363239	0.56809783	0.20464262	-0.75142473
9676979373005	0.5403857	0.38050818	-0.7929927
9676989382771	0.4689736	0.68427527	-0.76208323
9676999392536	0.39649594	0.8878529	-0.7002638
9677009371784	0.26752785	0.9422112	-0.62458825
9677019381550	0.08633356	0.89957696	-0.5446495
9677029360798	-0.13749501	0.779136	-0.45618433
9677039340046	-0.35492826	0.6086002	-0.35599408
9677049349812	-0.51906955	0.43060333	-0.21210428
9677059359577	-0.6032715	0.27072576	-0.045831937
9677069369343	-0.6416418	0.13642868	0.0948602
9677079379108	-0.68214446	0.024514131	0.18758908
9677089327839	-0.7397002	-0.062885754	0.2494085
9677099337604	-0.81537575	-0.10658503	0.29204252
9677109347370	-0.90917015	-0.069280535	0.33147913
9677119357136	-1.0029653	0.05542411	0.36452016
9677129366901	-1.1042209	0.25580356	0.381574
9677139346149	-1.1649746	0.52333194	0.37517866
9677149355915	-1.1457891	0.800453	0.34000605
9677159335163	-1.032809	1.1148785	0.29737204
9677169344929	-0.8313635	1.3866707	0.2685939
9677179354694	-0.6000741	1.4708726	0.25473776
9677189364460	-0.3613236	1.2704929	0.20464262
9677199343708	-0.11724407	0.8260335	0.081004575
9677209353474	0.14815272	0.27179158	-0.1289681
9677219332722	0.38796905	-0.09699259	-0.32934782
9677229311970	0.53825414	-0.075675584	-0.5084105
9677239352253	0.5371881	0.011724034	-0.656564
9677249331501	0.34320343	-0.20357762	-0.704527
9677259341267	-0.05649044	-0.7279759	-0.6256546
9677269320515	-0.4476574	-1.3951981	-0.42527434
9677279330280	-0.549979	-2.1679392	-0.14389032
9677289340046	-0.27605528	-2.7989223	0.29204252
9677299349812	0.19611599	-2.9087048	0.7567532
9677309329060	0.545715	-2.6539664	0.82923084
9677319308308	0.83775777	-1.9089376	0.4124837
9677329379108	1.1841592	0.35705933	-0.07674138
9677339358356	1.3429706	2.0112586	0.16946973
9677349337604	0.96885747	2.0773413	0.7333046
9677359347370	0.1065845	1.2747562	1.1372616
9677369326618	-0.8569434	-0.023448868	1.2321222
9677379305866	-1.6360803	-1.1681719	1.2108054
9677389315632	-2.2105732	-1.7458627	1.3184562
9677399294880	-2.609201	-1.6712532	1.5476141
9677409304646	-2.7829347	-1.1138136	1.7032279
9677419314411	-2.694469	-0.40182546	1.5923797
9677429324177	-2.1881902	0.45831537	1.2278589
9677439303425	-1.2928762	1.4772677	0.8100457
9677449313190	-0.2280923	2.0848024	0.5297272
9677459322956	0.9880426	1.5849185	0.39649594
9677469302204	1.8567103	0.7887287	0.34746662
9677479311970	1.9355834	0.6672217	0.27179158
9677489321735	0.5499782	2.0005999	0.19505018
9677499300983	-0.84308785	2.5473812	0.045831405
9677509280231	-1.572129	1.7352036	-0.17373398
9677519289997	-1.813011	0.51373947	-0.28671405
9677529269245	-1.7927599	-0.35173088	-0.25900173
9677539279011	-1.6968334	-0.77593887	-0.185458
9677549258259	-1.5998412	-0.91023594	-0.11724407
9677559268024	-1.5007168	-0.8505487	-0.05968783
9677569277790	-1.3760124	-0.6491029	0.029843649
9677579257038	-1.2033448	-0.30483368	0.13962607
9677589297321	-1.011492	0.12577018	0.23342101
9677599246052	-0.8302972	0.58941454	0.2792524
9677609286335	-0.6896053	1.042401	0.26965997
9677619296101	-0.592613	1.4580826	0.23235469
9677629275349	-0.54038626	1.8194056	0.18439168
9677639285114	-0.5233327	2.094395	0.14175767
9677649264362	-0.5233327	2.256404	0.11191402
9677659274128	-0.5233327	2.285182	0.105518706
9677669283894	-0.50947684	2.180729	0.10765083
9677679263142	-0.49029115	1.9696904	0.11084822
9677689272907	-0.47430366	1.679779	0.09059701
9677699282673	-0.4700402	1.3419049	0.060753096
9677709261921	-0.48176426	0.99976695	0.04369928
9677719271687	-0.51374	0.6778802	0.038370293
9677729250935	-0.56383514	0.38477165	0.03304104
9677739260700	-0.635247	0.13429682	0.028777853
9677749239948	-0.7247785	-0.06075363	0.022382537
9677759249714	-0.8239024	-0.19398493	0.0031973913
9677769228962	-0.926224	-0.26433098	-0.025580462
9677779238728	-1.0189531	-0.28884566	-0.06395155
9677789217976	-1.08397	-0.29097724	-0.11830986
9677799227741	-1.1052867	-0.29524097	-0.19078752
9677809206989	-1.0786405	-0.29204303	-0.2664626
9677819216755	-0.99124056	-0.280319	-0.32508463
9677829226521	-0.8409562	-0.2739237	-0.35492826
9677839205769	-0.61819345	-0.2792532	-0.36558676
9677849215534	-0.328282	-0.26752838	-0.3400066
9677859225300	0.023448335	-0.16200967	-0.2707263
9677869235065	0.34959874	0.075675055	-0.18226062
9677879214313	0.50841	0.35919118	-0.11617774
9677889224079	0.5073442	0.57236123	-0.058622036
9677899264362	0.45298585	0.6022049	0.0063947826
9677909243610	0.43060333	0.4252738	0.08313616
9677919253376	0.46577623	0.1502843	0.13962607
9677929232624	0.5254635	-0.08846568	0.15561382
9677939211872	0.58728296	-0.24408005	0.12577018
9677949221638	0.6725512	-0.29417464	0.047962997
9677959200886	0.8121773	-0.15668015	-0.06608315
9677969241169	1.0157547	0.1502843	-0.16520707
9677979220417	1.2577026	0.39223224	-0.21636799
9677989230183	1.5998408	0.5840856	-0.20784108
9677999209431	2.2809186	0.8441528	-0.14389032
9678009219196	3.1506522	1.028545	-0.062885754
9678019228962	3.6675897	0.66615593	-0.01279063
9678029238728	3.7741747	-0.3176235	0.08313616
9678039187458	3.7709768	-1.5433512	0.31868878
9678049197224	3.8701012	-2.6283865	0.52333194
9678059206989	3.9638958	-3.2082088	0.50308096
9678069186237	3.6121655	-2.3501995	0.24834271
9678079196003	2.5942788	-1.1990817	-0.0021321268
9678089205769	1.5262967	-0.92196083	0.03304104
9678099185017	0.91556495	-1.2182671	0.22915728
9678109164265	0.86333823	-1.7533236	0.34426922
9678119174030	0.879326	-2.4354675	0.4700394
9678129183796	0.7013291	-2.965195	0.66615593
9678139193562	0.33254492	-3.142126	0.8324285
9678149172810	-0.1289681	-2.9630632	0.77380675
9678159182575	-0.6437739	-2.5026162	0.5126737
9678169161823	-0.96566063	-2.1732686	0.12257226
9678179171589	-1.0509284	-2.076276	-0.43699864
9678189150837	-0.9677922	-1.9984691	-1.0988914
9678199160603	-0.704527	-1.9046744	-1.6275533
9678209139851	-0.3304136	-1.8236699	-1.6978991
9678219180134	0.046897203	-1.6030387	-1.3813419
9678229159382	0.3336107	-0.89638036	-1.0530599
9678239169147	0.48709324	0.035172634	-0.8164416
9678249148395	0.5403857	0.7247777	-0.6469713
9678259158161	0.5265293	1.1020888	-0.5915472
9678269167927	0.46790782	1.2417148	-0.66722226
9678279177692	0.39010063	1.2758219	-0.7642149
9678289156940	0.26752785	1.2097396	-0.8484168
9678299166706	0.11404561	1.0562571	-0.87612915
9678309145954	-0.045831937	0.89211607	-0.86333877
9678319155720	-0.15454857	0.74076515	-0.7535564
9678329134968	-0.21210428	0.5521098	-0.577691
9678339144733	-0.29204303	0.32721567	-0.4082208
9678349123981	-0.43060386	0.08420196	-0.25260696
9678359103229	-0.6011399	-0.1396266	-0.12150726
9678369112995	-0.76847804	-0.3208209	-0.03837109
9678379122761	-0.8910508	-0.44339395	0.014921425
9678389132526	-0.9443433	-0.42740592	0.070345536
9678399111774	-0.93155324	-0.24727744	0.13642868
9678409121540	-0.86440456	-0.0031979238	0.2280915
9678419131306	-0.7834	0.27392316	0.32721567
9678429141071	-0.72158056	0.5595709	0.40395707
9678439120319	-0.68321025	0.8249677	0.4689736
9678449130085	-0.6544324	1.0583887	0.551044
9678459139851	-0.62885195	1.2694272	0.6181927
9678469119099	-0.61499554	1.4239752	0.62139034
9678479128864	-0.62458825	1.4559507	0.5595709
9678489108112	-0.64803714	1.4143827	0.45511746
9678499117878	-0.6448397	1.3696169	0.34320343
9678509127644	-0.53612256	1.3344439	0.21743326
9678519106892	-0.30163574	1.2672952	0.035172634
9678529086140	-0.0724782	1.0509279	-0.19505072
9678539095905	-0.0021321268	0.6160608	-0.4487232
9678549105671	-0.07993878	-0.010659036	-0.66295904
9678559084919	-0.29630676	-0.7055928	-0.7642149
9678569094685	-0.5680983	-1.3227202	-0.75781953
9678579104450	-0.75142473	-1.8503162	-0.61819345
9678589083698	-0.6022057	-2.232956	-0.34107238
9678599062946	-0.0031979238	-2.469575	-0.017053818
9678609103229	0.8324285	-2.4727721	0.15774542
9678619112995	1.4303705	-1.8876206	-0.043700077
9678629092243	1.1649737	-0.48602796	-0.1310997
9678639132526	0.6832095	0.6341801	0.04369928
9678649111774	0.7993872	1.3365756	0.26326466
9678659121540	0.92515737	1.9366492	0.6139292
9678669100788	0.45724958	1.5614699	1.1617761
9678679110554	-0.49242327	0.35173035	1.5646676
9678689089802	-1.3824078	-1.0978255	1.8460518
9678699069050	-2.1253052	-1.9899422	2.028312
9678709078815	-2.6198597	-1.7927599	1.9878098
9678719088581	-2.616662	-0.699198	1.6680549
9678729098347	-1.9899422	0.83775777	1.1575129
9678739077595	-1.1010236	2.054958	0.8686675
9678749056843	-0.4625791	2.6283858	0.82816505
9678759066608	-0.17160238	2.854346	0.82709926
9678769076374	-0.10765136	2.8884532	0.76314825
9678779086140	-0.0820709	2.4589157	0.5990075
9678789095905	0.20997214	1.3216536	0.37517866
9678799075153	0.5606367	0.21636745	0.2280915
9678809084919	0.45831537	-0.16307548	0.12150646
9678819094685	-0.7002638	0.4902906	-0.02238307
9678829073933	-1.7096237	0.89637953	-0.10125605
9678839053181	-1.9206619	0.5947441	-0.06501735
9678849093464	-1.6819117	0.15241644	0.0127898315
9678859072712	-1.3706834	-0.027712587	0.045831405
9678869051960	-1.1298014	0.03943609	0.06501655
9678879061726	-0.9784507	0.24834271	0.09805759
9678889040974	-0.88891923	0.509476	0.12790178
9678899050739	-0.8239024	0.74289733	0.12577018
9678909060505	-0.7791368	0.9315527	0.08526776
9678919070271	-0.7482268	1.0754426	0.027712055
9678929080036	-0.72264636	1.1852249	-0.019185679
9678939028767	-0.69173694	1.2491757	-0.04796353
9678949038532	-0.6448397	1.2363856	-0.062885754
9678959048298	-0.5787568	1.1479201	-0.07141213
9678969027546	-0.5009499	0.98377943	-0.074609786
9678979037312	-0.41781348	0.7460947	-0.0724782
9678989016560	-0.34107238	0.46151277	-0.057556238
9678999026325	-0.29204303	0.16840392	-0.020251475
9679009036091	-0.27605528	-0.081005104	0.040501885
9679019015339	-0.29737255	-0.25047535	0.10445291
9679029025104	-0.34853294	-0.32295302	0.15348223
9679039004353	-0.42314273	-0.30589947	0.18119429
9679049014118	-0.51054263	-0.22063118	0.19505018
9679059023884	-0.597942	-0.10125605	0.19505018
9679069033649	-0.67361754	0.031975243	0.17799637
9679079012898	-0.7311733	0.16946973	0.15135011
9679089022663	-0.7695441	0.31122765	0.11404561
9679099032429	-0.7844658	0.44659054	0.07460926
9679109011677	-0.76741225	0.5702294	0.03410684
9679119021442	-0.71411973	0.6203245	-0.020251475
9679129000690	-0.6363128	0.536122	-0.0820709
9679139285114	-0.55957144	0.30696446	-0.12470465
9679148989704	-0.50947684	-0.009593239	-0.13536341
9679158968952	-0.50947684	-0.30163574	-0.09166361
9679168978718	-0.5680983	-0.47963265	-0.0010663297
9679178988483	-0.66935384	-0.5148058	0.08953121
9679188998249	-0.7897953	-0.4092866	0.13429682
9679198977497	-0.89957774	-0.18652381	0.123638056
9679209017780	-0.9571337	0.17586477	0.07993824
9679219302204	-0.90917015	0.70878994	0.019185146
9679229006794	-0.66189325	1.4058559	-0.033041574
9679238986042	-0.01279063	2.214836	-0.015988022
9679249026325	0.78553104	2.7104561	-0.01811988
9679259005573	1.3482999	2.7029953	-0.1300339
9679269015339	1.7053595	2.3779113	-0.2845822
9679278994587	1.9398468	1.8726981	-0.39543068
9679289004353	2.1178434	1.2459782	-0.43913075
9679299014118	2.3118284	0.57555866	-0.4188793
9679308993366	2.6699538	0.008526376	-0.3304136
9679318972614	3.2529738	-0.4199451	-0.22063118
9679328982380	3.9106033	-0.81430995	-0.13536341
9679338961628	4.3337455	-1.3280494	-0.0937952
9679348971394	4.3795776	-1.8545793	-0.075675584
9679358950642	3.927657	-1.9227937	-0.13642922
9679368960407	3.0632522	-1.9100034	-0.17799717
9679378970173	2.1338313	-2.4546528	-0.041568484
9679388979938	1.4538192	-3.2668304	0.19398439
9679398959187	1.2182662	-3.8040187	0.33254492
9679408968952	1.2214637	-4.0321107	0.4135495
9679418948200	1.134064	-4.103523	0.52439773
9679428957966	0.9731207	-4.004399	0.5904806
9679438967731	0.6608264	-3.6611948	0.57875603
9679448946980	0.33680812	-2.951339	0.52333194
9679458956745	0.21956486	-2.1242392	0.4146153
9679468966511	0.39329857	-1.4825975	0.15667963
9679478945759	0.86333823	-1.4026587	-0.29630676
9679488925007	1.2545052	-1.5891825	-0.8612072
9679498934772	1.3781438	-1.6158288	-1.2928762
9679508914021	1.3514975	-1.2694277	-1.5188365
9679518923786	1.3056661	-0.73223907	-1.2651643
9679528933552	1.234254	-0.26539677	-0.9240924
9679538943317	1.1671053	-0.08953201	-0.7002638
9679548922565	1.0797057	-0.13536341	-0.6022057
9679558932331	0.9741867	-0.24194846	-0.5766252
9679568911579	0.8835892	-0.33680892	-0.561703
9679578921345	0.80684835	-0.30056995	-0.577691
9679588900593	0.70878994	-0.09805839	-0.561703
9679598940876	0.5712952	0.15454803	-0.49135694
9679608920124	0.37304708	0.3250841	-0.4060892
9679618929890	0.13856028	0.38583744	-0.32615042
9679628909138	-0.11617774	0.3719813	-0.24088213
9679638888386	-0.38050872	0.33680812	-0.16520707
9679648898151	-0.63098353	0.2685939	-0.07034633
9679658938435	-0.8494829	0.15987702	0.041567683
9679668917683	-1.0285459	0.07887244	0.15774542
9679678896931	-1.1639087	0.08526776	0.2792524
9679688906696	-1.2609011	0.20037943	0.38477165
9679698916462	-1.3472346	0.4220764	0.42420802
9679708926228	-1.4410295	0.76421404	0.3719813
9679718905476	-1.5284294	1.2022785	0.24621111
9679728915241	-1.5145732	1.6446064	0.10765083
9679738894489	-1.3291153	2.0112586	0.02131674
9679748904255	-0.93155324	2.227626	0.0127898315
9679758914021	-0.39969388	2.1839263	0.04369928
9679768923786	0.038370293	1.6978986	0.08953121
9679778903034	0.3016352	0.7439631	0.06608235
9679788882282	0.4210106	-0.31016266	-0.11937566
9679798892048	0.39223224	-0.99870163	-0.4583159
9679808871296	0.26752785	-1.2491765	-0.72584426
9679818881062	0.00959244	-1.2587689	-0.763149
9679828890827	-0.4167477	-1.2459791	-0.61392975
9679838870075	-0.94114596	-1.4037248	-0.30696526
9679848910358	-1.2278595	-1.9259912	0.09805759
9679858889606	-1.067982	-2.872466	0.67681444
9679868868855	-0.719449	-3.7720435	1.4548849
9679878878620	-0.2153022	-3.9948058	1.7767715
9679888888386	1.085035	-2.1157124	0.9422112
9679898928669	2.263865	2.6166613	-0.33574313
9679908877399	2.1455557	3.2998712	-0.14389032
9679918887165	1.042401	2.043234	0.509476
9679928896931	-0.06395155	0.8548113	0.84095544
9679938876179	-0.8931824	-0.22276278	0.9027749
9679948855427	-1.5188365	-0.84521943	0.89211607
9679958865192	-1.9654275	-0.7951243	0.95393527
9679968874958	-2.2574706	-0.1406924	1.0903645
9679978884724	-2.413085	0.72051424	1.2214637
9679988863972	-2.34487	1.2896781	1.2076077
9679998873737	-1.9728886	1.822603	1.0434667
9680008852985	-1.2640984	2.3160918	0.83029664
9680018862751	-0.2685947	2.2926428	0.651234
9680028872517	0.7471605	1.5731945	0.536122
9680038851765	1.3099294	0.74289733	0.46577623
9680048861530	1.3333782	0.20464262	0.34426922
9680058840778	0.736502	0.2451453	0.13962607
9680068850544	-0.7876637	1.3291144	0.03304104
9680078860310	-1.7256114	1.5497457	-0.05649044
9680088839558	-1.9782178	0.86120665	-0.20784108
9680098849323	-1.9579669	0.06821394	-0.30696526
9680108828571	-1.8929498	-0.40715498	-0.25367275
9680118807819	-1.8449866	-0.5936788	-0.10338764
9680128848103	-1.8098137	-0.6043373	0.04369928
9680138827351	-1.778904	-0.51054263	0.15135011
9680148837116	-1.7192165	-0.34640136	0.20144524
9680158816364	-1.6211582	-0.13216549	0.19611599
9680168856647	-1.4836636	0.12257226	0.15774542
9680178835895	-1.3152593	0.4220764	0.118309066
9680188815144	-1.1298014	0.76421404	0.100189716
9680198824909	-0.94327754	1.106352	0.10871663
9680208834675	-0.7748731	1.397329	0.12044066
9680218813923	-0.635247	1.6019723	0.11617721
9680228823689	-0.5222669	1.702162	0.093794405
9680238833454	-0.44126236	1.695767	0.063950755
9680248843220	-0.3932991	1.5870504	0.03304104
9680258822468	-0.37731135	1.4037242	0.0063947826
9680268832233	-0.38690403	1.1671053	-0.021317273
9680278811481	-0.42527434	0.8899845	-0.04263428
9680288790729	-0.49135694	0.5947441	-0.051160924
9680298800495	-0.58302027	0.31549138	-0.04476614
9680308810261	-0.69173694	0.07354346	-0.035173167
9680318789509	-0.81111205	-0.10658503	-0.040502686
9680328768757	-0.93048745	-0.22169697	-0.06608315
9680338778522	-1.0296116	-0.2835164	-0.0937952
9680348788288	-1.0946282	-0.30589947	-0.11617774
9680358767536	-1.1148794	-0.30589947	-0.1332313
9680368777302	-1.0775746	-0.28777987	-0.14495613
9680378756550	-0.98591155	-0.25580436	-0.15348276
9680388766315	-0.8388241	-0.20997268	-0.15454857
9680398776081	-0.6459055	-0.14495613	-0.14708772
9680408785847	-0.43060386	-0.07887298	-0.12150726
9680418765095	-0.2280923	-0.017053818	-0.081005104
9680428988483	-0.062885754	0.020250943	-0.043700077
9680438998249	0.05116039	0.014921425	-0.020251475
9680448794392	0.12257226	-0.040502686	-0.011724833
9680458773640	0.16946973	-0.14495613	-0.008526909
9680468813923	0.21530166	-0.29310885	-0.014922224
9680478762653	0.27605477	-0.4636449	-0.023448868
9680488772419	0.35173035	-0.62991774	-0.053292517
9680498751667	0.45724958	-0.7482268	-0.13536341
9680508761433	0.6086002	-0.7865979	-0.2739237
9680518740681	0.8228361	-0.7269101	-0.4188793
9680528780964	1.0935619	-0.5883493	-0.52013534
9680538760212	1.3919997	-0.42207694	-0.6043373
9680548769978	1.6776474	-0.2845822	-0.6960001
9680558779743	1.971822	-0.2153022	-0.7343712
9680568789509	2.582554	0.18439168	-0.5862177
9680578768757	3.7539234	1.1703027	-0.25260696
9680588778522	4.668422	1.3738804	-0.087399885
9680598757771	5.0265484	0.49348828	-0.06395155
9680608737019	4.8965144	-1.011492	-0.033041574
9680618746784	4.339075	-2.3150265	0.112979814
9680628756550	3.2124717	-1.6712532	0.26965997
9680638735798	2.115712	-0.88785344	0.48389584
9680648776081	1.4452922	-0.87719494	0.6043365
9680658755329	1.2896781	-1.2619668	0.65229976
9680668734577	1.3237854	-1.8876206	0.70772415
9680678744343	1.2587684	-2.4450603	0.8025846
9680688723591	1.1010227	-2.7275105	0.8313627
9680698733356	0.9240916	-2.6720862	0.7929919
9680708743122	0.68640685	-2.2851827	0.6917364
9680718752888	0.59367824	-2.069881	0.4284712
9680728732136	0.68853897	-2.1103833	-0.019185679
9680738711384	0.7045265	-2.1594124	-0.5318594
9680748721149	0.53292465	-1.8812256	-0.9166313
9680758730915	0.3677181	-1.5817214	-1.080772
9680768710163	0.34640083	-1.2896789	-1.0018996
9680778719929	0.46151277	-0.94114596	-0.86440456
9680788699177	0.6043365	-0.63098353	-0.7919269
9680798708942	0.6778802	-0.4039576	-0.842022
9680808688190	0.7418315	-0.30163574	-0.8729315
9680818697956	0.8260335	-0.17160238	-0.84415364
9680828738239	0.84841603	0.08953121	-0.80151933
9680838717487	0.75355583	0.31122765	-0.72584426
9680848696735	0.530793	0.4114179	-0.66295904
9680858706501	0.2248941	0.3794424	-0.6437739
9680868685749	-0.08633409	0.26219887	-0.6395102
9680878695515	-0.38903564	0.13429682	-0.59474456
9680888674763	-0.6469713	0.057555705	-0.5084105
9680898684528	-0.8270998	0.014921425	-0.38583824
9680908663776	-0.926224	-0.028778385	-0.24621163
9680918673542	-0.968858	-0.073543996	-0.092729405
9680928713825	-0.96246266	-0.08633409	0.06714814
9680938693073	-0.9592653	0.026645726	0.17586477
9680948702839	-0.99550426	0.21956486	0.2259599
9680958682087	-1.0594553	0.44445896	0.24407952
9680968691853	-1.1447233	0.678946	0.25580356
9680978671101	-1.2310568	0.9326185	0.26752785
9680988680866	-1.2630327	1.2044101	0.2824498
9680998690632	-1.159645	1.4548849	0.32082036
9681008700398	-0.9144997	1.6616596	0.3837056
9681018679646	-0.5851519	1.8471177	0.4327349
9681028689411	-0.21743378	1.896147	0.4231422
9681038729694	0.11404561	1.6030382	0.30696446
9681048678425	0.28138402	0.86014086	0.082070366
9681058688190	0.2494085	-0.1289681	-0.2259607
9681068667438	0.12044066	-0.8270998	-0.46684283
9681078646687	-0.009593239	-1.0296116	-0.5936788
9681088656452	-0.18972173	-0.99870163	-0.6576298
9681098666218	-0.36452097	-0.9560676	-0.6384444
9681108645466	-0.51374	-0.9390144	-0.49775228
9681118655231	-0.7482268	-1.0914308	-0.22169697
9681128695515	-0.97312117	-1.5625362	0.21316953
9681138674763	-1.1287355	-2.3843067	0.91556495
9681148654011	-1.2875473	-3.3638227	1.682977
9681158663776	-0.81430995	-4.0704813	1.8417886
9681168673542	1.8716323	-0.556374	0.7823337
9681178683308	2.7125878	3.4416294	0.040501885
9681188662556	1.8279325	2.784	0.46151277
9681198672321	0.29737204	0.94754046	0.7770041
9681208651569	-0.98377997	-0.6384444	0.7471605
9681218630817	-1.7074921	-1.2886131	0.7045265
9681228640583	-2.0251153	-1.126604	0.7460947
9681238650349	-2.069881	-0.4625791	0.84735024
9681248660114	-1.8673694	0.53185886	0.9443428
9681258639362	-1.3802762	1.6978986	0.9443428
9681268649128	-0.7386344	2.7488267	0.800453
9681278628376	-0.20997268	3.2359204	0.6032707
9681288638142	0.10978243	3.2572372	0.52120036
9681298647907	0.25367194	3.0909643	0.5190687
9681308657673	0.22276224	2.6976657	0.47643474
9681318636921	0.063950755	2.1530166	0.32614988
9681328646687	-0.15028511	1.4964532	0.09912392
9681338625935	-0.20784108	0.76421404	-0.10765136
9681348605183	-0.63098353	0.39116642	-0.16307548
9681358614948	-1.4069225	0.31122765	-0.11511194
9681368624714	-1.834328	0.02131674	-0.11830986
9681378634480	-1.9803495	-0.2717921	-0.18119483
9681388583210	-1.9942056	-0.4529864	-0.2153022
9681398592976	-1.9526374	-0.5318594	-0.1875896
9681408602741	-1.9036087	-0.5222669	-0.12150726
9681418581989	-1.8311304	-0.42101115	-0.03837109
9681428622272	-1.7181506	-0.24301425	0.031975243
9681438601521	-1.5518777	-0.005329518	0.061818894
9681448611286	-1.3419056	0.27605477	0.060753096
9681458621052	-1.1127478	0.5659662	0.047962997
9681468630817	-0.8910508	0.8132431	0.038370293
9681478610065	-0.7098565	0.9741867	0.041567683
9681488619831	-0.57449365	1.0551913	0.053291984
9681498599079	-0.48709375	1.0637182	0.07674085
9681508608845	-0.44339395	1.02215	0.0948602
9681518618610	-0.43913075	0.95073783	0.08526776
9681528597858	-0.4615133	0.864404	0.06608235
9681538607624	-0.5084105	0.76101667	0.060753096
9681548617390	-0.5680983	0.6395097	0.06714814
9681558596638	-0.6363128	0.49668565	0.058621503
9681568606403	-0.7077249	0.34640083	0.04263348
9681578585651	-0.7802026	0.21316953	0.03410684
9681588595417	-0.8569434	0.105518706	0.02131674
9681598574665	-0.9283556	0.03410684	0.0074605793
9681608584431	-0.9901748	0.0127898315	0.0053289854
9681618594196	-1.0200189	0.04369928	0.001065797
9681628573444	-1.0061628	0.10232131	-0.034107372
9681638583210	-0.94008017	0.16946973	-0.09059781
9681648562458	-0.8249682	0.23128888	-0.1417582
9681658572224	-0.66935384	0.26646206	-0.16840446
9681668551472	-0.49562067	0.27072576	-0.15881175
9681678561237	-0.3197551	0.23981579	-0.1332313
9681688540485	-0.15454857	0.1790627	-0.11617774
9681698550251	-0.008526909	0.095925994	-0.11937566
9681708590534	0.10871663	0.019185146	-0.13429762
9681718539265	0.1790627	-0.01279063	-0.15454857
9681728579548	0.18332589	0.095925994	-0.17373398
9681738558796	0.16946973	0.2941741	-0.15454857
9681748568562	0.25793514	0.34640083	-0.057556238
9681758578327	0.46151277	0.17693058	0.08420196
9681768557575	0.68534106	-0.05649044	0.17160158
9681778567341	0.8676017	-0.1875896	0.123638056
9681788577106	1.033874	-0.18119483	-0.024514664
9681798556355	1.2587684	-0.094861	-0.16627286
9681808566120	1.6360794	0.004263188	-0.22169697
9681818575886	2.2745235	0.19931364	-0.17906323
9681828555134	3.039804	0.4359323	-0.1300339
9681838564899	3.7123551	0.51373947	-0.0937952
9681848544147	4.1781316	0.18652327	-0.04796353
9681858584431	4.3486676	-0.7386344	0.052226186
9681868533161	4.2612677	-2.1391613	0.2909767
9681878542927	4.1354976	-3.4171152	0.54358315
9681888522175	4.047032	-3.960699	0.6160608
9681898531940	3.4053905	-2.9033756	0.5158711
9681908541706	2.2745235	-2.1295686	0.49988306
9681918520954	1.3141928	-2.0048642	0.44765687
9681928530720	0.76314825	-2.318224	0.39649594
9681938509968	0.39223224	-2.6134644	0.39969334
9681948550251	0.17053579	-2.6934032	0.3773108
9681958529499	0.07460926	-2.48876	0.28777933
9681968539265	0.08313616	-2.04963	0.14069188
9681978518513	0.17693058	-1.5710632	-0.11617774
9681988528278	0.5563735	-1.5604047	-0.46471068
9681998507526	0.9752525	-1.8162087	-0.77700466
9682008517292	1.1436565	-1.9366497	-1.0178868
9682018496540	1.0050962	-1.5891825	-1.1020893
9682028506306	0.65549743	-0.75568795	-1.1479207
9682038516071	0.4188785	-0.185458	-1.1074183
9682048495319	0.31762296	-0.026646258	-0.93048745
9682058505085	0.20784055	0.15241644	-0.89638036
9682068514851	0.16200915	0.33041307	-0.9784507
9682078494099	0.23342101	0.31229344	-0.9795165
9682088503864	0.31229344	0.14175767	-0.94008017
9682098483112	0.34640083	0.09912392	-0.9454091
9682108492878	0.32721567	0.45298585	-1.0264137
9682118502644	0.2376842	0.89318186	-1.0487968
9682128481892	0.09059701	1.1383275	-0.98591155
9682138491657	-0.07780718	1.2257273	-0.8803923
9682148470905	-0.2792532	1.1852249	-0.75781953
9682158480671	-0.49242327	1.02215	-0.5904814
9682168459919	-0.6469713	0.8239019	-0.40075967
9682178469685	-0.7173174	0.5712952	-0.1705366
9682188479450	-0.7482268	0.28671354	0.053291984
9682198489216	-0.7865979	0.09272861	0.20784055
9682208468464	-0.8516145	0.057555705	0.2803182
9682218478229	-0.95180446	0.15135011	0.30803028
9682228487995	-1.0509284	0.2824498	0.30909607
9682238467243	-1.1074183	0.4359323	0.30270103
9682248477009	-1.1052867	0.651234	0.2845814
9682258975056	-1.0221505	0.8910503	0.27605477
9682268466022	-0.85481185	1.112747	0.26113307
9682278475788	-0.66935384	1.2395833	0.26113307
9682288485554	-0.50947684	1.2630318	0.26539627
9682298464802	-0.3815745	1.1756322	0.20890635
9682308474567	-0.2632652	0.95073783	0.071411334
9682318453815	-0.1396266	0.59367824	-0.11298035
9682328494099	-0.015988022	0.27285737	-0.25793594
9682338473347	0.09699179	0.08953121	-0.38903564
9682348452595	0.10871663	-0.2259607	-0.5158716
9682358462360	0.014921425	-0.9358164	-0.5030815
9682368472126	0.050094593	-1.8695012	-0.32295302
9682378451374	0.6064681	-2.7935932	-0.0852683
9682388430622	1.4303705	-3.1218748	-0.049029328
9682398440388	1.8289983	-2.6806128	-0.39756227
9682408419636	1.1223397	-1.067982	-0.47536945
9682418459919	0.34640083	0.51373947	-0.42207694
9682428439167	0.46790782	2.6081345	-0.28671405
9682438479450	0.9358159	3.3680854	0.11617721
9682448458698	0.3016352	1.9878098	0.71944845
9682458437946	-0.904907	-0.23022388	1.2864804
9682468417194	-1.8385916	-2.054959	1.7778374
9682478426960	-2.3736484	-2.7040617	2.4386644
9682488436726	-2.841556	-2.3075657	3.0984254
9682498446491	-3.1527846	-1.4218444	3.1922204
9682508425739	-2.6987324	-0.10658503	2.3725817
9682518435505	-1.29714	1.5412188	1.0999569
9682528445271	0.06821394	3.0632522	0.54358315
9682538424519	0.69599956	3.8786275	0.5808876
9682548434284	0.67468286	4.0523615	0.67361706
9682558444050	0.51054186	3.5236998	0.6171269
9682568423298	1.2960734	1.3589586	0.40928605
9682578433064	1.3653535	0.07887244	0.16840392
9682588412312	-0.47856686	0.985911	-0.099124454
9682598422077	-1.5795898	1.0914303	-0.2845822
9682608401325	-1.94944	0.70772415	-0.35386246
9682618411091	-2.0219178	0.18332589	-0.28777987
9682628390339	-1.9387813	-0.24301425	-0.16200967
9682638400104	-1.7565212	-0.43806496	-0.07780718
9682648379353	-1.550812	-0.4636449	-0.07034633
9682658389118	-1.3546957	-0.3815745	-0.0842025
9682668398884	-1.1852255	-0.2259607	-0.05649044
9682678378132	-1.0530599	-0.081005104	-0.015988022
9682688418415	-0.9390144	0.060753096	0.046897203
9682698397663	-0.8281656	0.28884512	0.09699179
9682708407429	-0.7301075	0.5904806	0.112979814
9682718386677	-0.656564	0.8974453	0.08313616
9682728396442	-0.61392975	1.1585786	0.057555705
9682738406208	-0.5968762	1.3610902	0.071411334
9682748385456	-0.60540307	1.4911236	0.1065845
9682758395222	-0.62885195	1.5486798	0.13536288
9682768404987	-0.6491029	1.5390872	0.1502843
9682778384235	-0.6640249	1.4655432	0.14921851
9682788394001	-0.6746834	1.3387072	0.14815272
9682798373249	-0.6896053	1.1798956	0.15348223
9682808383015	-0.72158056	1.0093594	0.16520654
9682818392780	-0.7695441	0.85054815	0.17160158
9682828372028	-0.83456093	0.7237116	0.17160158
9682838381794	-0.9123681	0.6192587	0.15881123
9682848391560	-0.99550426	0.5265293	0.123638056
9682858370808	-1.0626527	0.43486652	0.06927974
9682868746784	-1.1052867	0.3378739	0.00959244
9682878359821	-1.1106162	0.2280915	-0.04263428
9682888369587	-1.0786405	0.075675055	-0.10019025
9682898348835	-1.0157552	-0.1289681	-0.15987755
9682908328083	-0.94221175	-0.34959927	-0.185458
9682918337849	-0.88465554	-0.53505677	-0.14815351
9682928317097	-0.8516145	-0.61925924	-0.03837109
9682938357380	-0.8302972	-0.5627688	0.08313616
9682948336628	-0.7908611	-0.36025777	0.1801285
9682958346394	-0.6970659	-0.006395315	0.2344868
9682968356159	-0.48283058	0.54678077	0.2451453
9682978396442	0.013855628	1.3429706	0.25686935
9682988375690	0.5403857	1.9110687	0.27179158
9682998385456	0.8537455	1.980349	0.22063065
9683008364704	1.0690472	1.7042936	0.087399356
9683018374470	1.2417148	1.2001469	-0.08846568
9683028353718	1.3653535	0.53505623	-0.2611336
9683038363483	1.4325022	-0.2238291	-0.4039576
9683048342731	1.4740701	-1.0050969	-0.5084105
9683058352497	1.5273626	-1.6978991	-0.57342786
