accelerometer_timestamp	accelerometer_x_data	accelerometer_y_data	accelerometer_z_data
1443697074232397293	-1.2518463	7.6658173	-0.55862427
1443697074240789627	-0.714386	8.262009	-1.2645874
1443697074249181961	-0.39668274	8.86528	-1.8030396
1443697074257574295	-0.13578796	9.304825	-2.1674042
1443697074265966629	0.23872375	9.887375	-2.3637238
1443697074274358963	0.78941345	10.24733	-2.0746765
1443697074282751297	1.1773682	10.03421	-1.4243927
1443697074291143631	1.177002	9.705399	-1.142807
1443697074299535965	1.1088867	9.381531	-0.9519348
1443697074307928299	1.0852966	8.724243	-0.86901855
1443697074316320633	0.44953918	8.253784	-1.0731659
1443697074324712967	-0.018203735	8.037125	-1.2596741
1443697074333105301	-0.07411194	8.010147	-1.2037659
1443697074341497635	-0.2577362	8.061005	-1.1134949
1443697074349889969	-0.59317017	8.40889	-0.89149475
1443697074358282303	-0.60076904	9.056107	-0.73210144
1443697074366674637	-0.44030762	9.637558	-0.7749481
1443697074375066971	-0.24752808	10.044968	-0.8302002
1443697074383459305	0.15640259	10.608002	-0.92500305
1443697074391851639	0.51831055	11.044846	-1.1364594
1443697074400243973	0.8521881	11.288025	-1.8613129
1443697074408636307	1.0517273	11.347412	-2.1575928
1443697074417028641	1.2284546	11.382126	-2.365158
1443697074425420974	0.9893341	11.313248	-2.3864136
1443697074433813308	0.93385315	11.297531	-2.291916
1443697074442205642	0.96406555	11.124802	-1.9244385
1443697074450597976	1.0508118	10.910812	-1.8473206
1443697074458990310	0.99349976	10.751663	-1.7236023
1443697074467382644	0.53959656	10.844513	-1.2099915
1443697074475774978	0.060302734	11.252197	-0.35813904
1443697074484167312	-0.11123657	11.558884	0.051330566
1443697074492559646	-0.16264343	11.692551	0.17857361
1443697074500951980	-0.040908813	11.651276	0.2205658
1443697074509344314	0.2647705	11.47316	-0.2844696
1443697074517736648	0.79478455	11.637741	-1.1185608
1443697074526128982	1.1575165	11.800598	-1.4471283
1443697074534521316	1.4914398	11.962112	-1.7086945
1443697074542913650	1.6372681	12.303284	-1.844101
1443697074551305984	1.407074	12.498291	-2.190628
1443697074559698318	1.2635651	12.547577	-2.4414368
1443697074568090652	1.2211609	12.602203	-2.5532532
1443697074576482986	1.1561737	12.59523	-2.5497437
1443697074584875320	1.040741	12.328613	-2.2082825
1443697074593267654	0.8695984	11.679428	-1.8497162
1443697074601659988	0.67289734	11.001877	-1.7437897
1443697074610052322	0.4833374	10.425461	-1.7065277
1443697074618444656	-0.11517334	9.556961	-1.4224854
1443697074626836990	-1.059433	8.959656	-0.44102478
1443697074635229324	-2.2942657	9.1826935	0.55381775
1443697074643621658	-2.9570618	9.865845	0.69137573
1443697074652013992	-3.5548859	10.64444	0.7134552
1443697074660406326	-3.75	12.216888	-0.051727295
1443697074668798660	-3.317398	12.861069	-1.1259155
1443697074677190994	-3.2085266	12.552597	-1.7861938
1443697074685583328	-3.0742188	12.177963	-1.9532776
1443697074693975662	-2.7827148	11.635895	-1.9155884
1443697074702367996	-1.9800415	10.991806	-1.3669281
1443697074710760330	-1.039093	10.757156	-0.4631195
1443697074719152664	-0.5877533	10.727112	0.21105957
1443697074727544998	-0.34869385	10.689835	0.69174194
1443697074735937332	0.08958435	10.337524	1.6287689
1443697074744329666	0.1946106	9.9444275	2.0585022
1443697074752722000	0.37446594	9.7052765	1.5037384
1443697074761111431	0.22419739	9.696899	0.9732971
1443697074769503765	-0.031921387	9.699524	0.4139862
1443697074777896099	-0.94299316	9.650742	-0.3551178
1443697074786288433	-1.0305481	9.1306	-0.8256836
1443697074794680767	-0.4582672	8.5542755	-1.0246582
1443697074803073101	-0.09069824	8.268311	-0.9398346
1443697074811465435	0.3469696	8.01886	-0.89881897
1443697074819857769	0.93203735	7.770157	-0.8578949
1443697074828250103	1.3460999	7.3748474	-0.5513458
1443697074836642437	1.3760376	7.11882	-0.161026
1443697074845034771	1.2899323	6.9716644	0.19563293
1443697074853427105	1.1133423	6.743805	0.4355774
1443697074861819439	0.70861816	6.561661	0.7524719
1443697074870211773	-0.34265137	6.50058	1.2639618
1443697074878604107	-0.53479004	6.476166	1.3166504
1443697074886996441	-0.7309418	6.4134216	1.3558807
1443697074895388775	-0.89915466	6.0866547	1.2846069
1443697074903781109	-0.91430664	5.5931396	1.133606
1443697074912173443	-1.0060883	5.1410522	1.1188354
1443697074920565777	-1.072937	4.8782196	1.1901703
1443697074928958111	-1.1025391	4.5273895	1.4466705
1443697074937350445	-1.0482025	4.1658783	1.9578247
1443697074945742779	-0.92103577	3.997879	2.375885
1443697074954135113	-0.90475464	4.026886	2.7001648
1443697074962527446	-0.9458771	4.107849	3.0201874
1443697074970919780	-0.78923035	4.270523	2.958603
1443697074979312114	-0.5322113	4.5771637	2.6850586
1443697074987704448	-0.53038025	5.1940155	2.5080414
1443697074996096782	-0.5599365	5.654129	2.4579163
1443697075004489116	-0.54766846	6.2467194	2.4166718
1443697075012881450	-0.23657227	7.4768066	2.504715
1443697075021273784	0.45204163	9.044815	3.0280457
1443697075029666118	1.2091522	10.738983	3.7636871
1443697075038058452	1.9160156	11.9149475	4.2700653
1443697075046450786	3.0342255	13.683853	5.192505
1443697075054843120	4.389374	15.99971	6.3354797
1443697075063235454	5.277298	17.927383	7.125473
1443697075071627788	5.5951843	18.459076	7.235306
1443697075080020122	5.7757416	18.558685	7.144699
1443697075088412456	5.580017	17.137894	6.0967865
1443697075096804790	5.0406647	14.261337	4.4856415
1443697075105197124	4.7821655	11.180603	4.233734
1443697075113589458	4.861862	9.813141	4.7208405
1443697075121981792	4.893036	8.307999	5.389923
1443697075130374126	4.673218	6.525116	6.4799805
1443697075138766460	4.158432	5.7731934	6.6661835
1443697075147158794	3.4567108	5.9171295	6.2555695
1443697075155551128	2.4467316	7.061508	5.2141113
1443697075163943462	0.5312958	9.802078	3.4699707
1443697075172335796	-2.1071014	13.394241	0.265213
1443697075180728130	-4.032608	15.794128	-2.6924896
1443697075189120464	-5.5896454	17.58699	-5.1960754
1443697075197512798	-7.8230133	18.541016	-5.9118958
1443697075205905132	-7.868347	16.667892	-2.102066
1443697075214297466	-6.058792	12.556274	4.4706116
1443697075222689800	-2.5145416	7.601013	8.348343
1443697075231082134	-1.2858734	5.6847687	7.933853
1443697075239474468	-0.46974182	3.847046	6.443573
1443697075247866802	-1.3504639	2.6955414	2.2078094
1443697075256259136	-2.863922	2.6550903	-0.5074463
1443697075264651470	-3.2980347	2.8249054	-1.67659
1443697075273043804	-3.174652	2.9559937	-2.2581482
1443697075281436138	-2.8908691	3.3901367	-3.2356873
1443697075289828472	-2.5053406	4.679001	-4.803955
1443697075298220806	-1.7978821	6.548706	-6.0860443
1443697075306613140	-1.3057861	7.534149	-6.313431
1443697075315005474	-0.89260864	8.286636	-6.3269196
1443697075323397808	0.17288208	9.768326	-6.609421
1443697075331790142	2.2062073	11.84169	-7.0407257
1443697075340182476	3.3256226	13.073547	-6.3255005
1443697075348574810	4.6189423	14.5091095	-4.998352
1443697075356967144	6.3028717	16.14891	-1.6276398
1443697075365359478	6.8892365	15.71611	0.94885254
1443697075373751812	6.216202	14.013092	1.9571838
1443697075382144146	5.1983185	12.580078	2.1628265
1443697075390536480	3.3624268	10.384476	2.0017395
1443697075398928814	0.9507904	8.07251	1.6705017
1443697075407321148	-0.5701294	6.6321106	1.6204071
1443697075415713482	-0.75164795	6.0328827	1.0353851
1443697075424105816	-0.6481781	5.604904	0.26811218
1443697075432498150	-1.0168762	5.0795746	-1.2733612
1443697075440890484	-1.2107544	4.963501	-1.7176666
1443697075449282818	-1.6332245	5.5390015	-1.9764557
1443697075457675152	-1.9211121	6.1783905	-2.0972595
1443697075466067486	-2.2026978	6.941391	-2.1281586
1443697075474459820	-2.2823486	8.041855	-1.9221191
1443697075482852154	-2.0157623	9.081039	-1.9002686
1443697075491244488	-1.8334808	9.795685	-1.9260712
1443697075499636821	-1.692749	10.181244	-1.7615662
1443697075508029155	-1.4298248	10.495438	-0.9973602
1443697075516421489	-1.1160736	10.448044	0.20384216
1443697075524813823	-0.80326843	10.075943	0.7939911
1443697075533206157	-0.6536255	9.845245	0.67481995
1443697075541598491	-0.5430908	9.6614685	0.44154358
1443697075549990825	-0.3557434	9.532654	-0.16674805
1443697075558383159	0.07902527	9.5438385	-0.5631714
1443697075566775493	0.30975342	9.566803	-1.277832
1443697075575167827	0.43312073	9.602798	-1.7919159
1443697075583560161	0.57618713	9.677017	-2.3775482
1443697075591952495	0.76312256	9.970856	-2.9499207
1443697075600344829	0.9643707	10.6862335	-2.8972778
1443697075608737163	1.0396423	11.424042	-2.4993591
1443697075617129497	0.96380615	11.9272	-2.1517181
1443697075625521831	0.9348755	12.30986	-1.635849
1443697075633914165	0.97969055	12.092514	-1.2677917
1443697075642306499	1.1669617	11.4288025	-1.318222
1443697075650698833	1.3359375	11.067612	-1.3485413
1443697075659091167	1.4953156	10.772659	-1.3588257
1443697075667483501	1.6163483	10.77771	-1.1834412
1443697075675875835	1.6454773	11.096756	-0.8851471
1443697075684268169	1.5373077	11.206543	-0.51312256
1443697075692660503	1.4389954	11.270157	-0.40774536
1443697075701052837	1.3085632	11.402878	-0.5447693
1443697075709445171	1.2134552	11.86145	-1.2819672
1443697075717837505	1.2614746	12.661865	-2.043106
1443697075726229839	1.289566	13.174942	-2.488266
1443697075734622173	1.3075714	13.380569	-2.799286
1443697075743014507	1.2064667	13.238495	-3.0277252
1443697075751406841	0.78108215	12.560242	-2.9598846
1443697075759799175	-0.15745544	11.670898	-2.212906
1443697075768191509	-0.6384125	11.275574	-1.7372437
1443697075776583843	-1.0563202	10.93811	-1.3194275
1443697075784976177	-1.9367981	10.196564	-1.1020966
1443697075793368511	-3.0051727	9.835922	-0.9017029
1443697075801760845	-3.8230286	9.860794	-0.5448303
1443697075810153179	-4.132126	10.12941	-0.24987793
1443697075818545513	-4.3319397	10.721359	0.02784729
1443697075826937847	-4.1662903	12.036331	0.0016479492
1443697075835330181	-3.8483887	13.166214	-0.5054474
1443697075843722515	-3.608078	13.41011	-0.964798
1443697075852114849	-3.3696594	13.287369	-1.2970276
1443697075860507183	-3.2489624	12.847229	-1.6755066
1443697075868899517	-3.1445618	12.223907	-1.6194763
1443697075877291851	-2.2046967	11.808258	-1.3177795
1443697075885684185	-1.4959869	11.753296	-1.0300751
1443697075894076519	-0.8148041	11.7174835	-0.6882324
1443697075902468853	-0.103271484	11.46933	0.5995941
1443697075910861187	0.17408752	10.676071	1.8780823
1443697075919253521	0.18803406	9.760025	2.3279266
1443697075927645855	0.26193237	9.278717	2.1910553
1443697075936038189	0.062194824	8.746841	1.7940216
1443697075944430523	-0.741745	8.38324	0.86195374
1443697075952822857	-1.3271332	8.379837	-0.38790894
1443697075961215191	-1.1324921	8.343857	-1.2418518
1443697075969607525	-0.67881775	8.239105	-1.7630005
1443697075977999859	-0.11634827	8.071304	-2.0391388
1443697075986392193	0.56562805	7.6457825	-1.5349731
1443697075994784527	0.83387756	7.147156	-0.91786194
1443697076003176861	0.75408936	7.015274	-0.7461395
1443697076011569195	0.6104126	6.885483	-0.63446045
1443697076019961529	0.01878357	6.6035767	-0.8618927
1443697076028353863	-0.39030457	6.2985687	-0.8433075
1443697076036746196	-0.7706299	6.166931	-0.7240143
1443697076045138530	-1.0912933	6.194565	-0.5428009
1443697076053530864	-1.4636993	6.2162476	-0.35820007
1443697076061923198	-1.7691345	6.125061	-0.0017700195
1443697076070315532	-1.8082733	5.87059	0.5718994
1443697076078707866	-1.7191467	5.6851044	0.99697876
1443697076087100200	-1.615036	5.561722	1.318924
1443697076095492534	-1.3766632	5.393936	1.645401
1443697076103884868	-1.256485	5.327118	2.3630219
1443697076112277202	-0.7626343	5.1098175	2.8846588
1443697076120669536	-0.71606445	5.0456085	3.1268768
1443697076129061870	-0.6914215	4.977936	3.3569489
1443697076137454204	-0.7292175	4.904419	3.4384308
1443697076145846538	-0.55337524	5.059967	3.1486511
1443697076154238872	-0.46232605	5.5392456	2.7784271
1443697076162631206	-0.39935303	5.9755707	2.5136719
1443697076171023540	-0.17720032	6.693222	2.2323914
1443697076179415874	0.4716034	7.844879	2.0093384
1443697076187808208	1.4414825	9.13765	2.2970276
1443697076196200542	2.083191	10.041199	2.8431244
1443697076204592876	2.540741	10.753845	3.3790436
1443697076212985210	3.0732574	12.233826	4.3490753
1443697076221377544	3.8132477	14.103455	5.0743103
1443697076229769878	4.1796875	15.967697	6.0568237
1443697076238162212	4.416168	16.53447	6.441742
1443697076246554546	4.6965027	16.97786	6.7566833
1443697076254946880	5.1137543	16.410492	6.45047
1443697076263339214	5.0442047	14.225143	5.247238
1443697076271731548	4.5553894	11.802048	4.442734
1443697076280123882	4.216095	10.262375	4.3637085
1443697076288516216	4.0336304	8.101288	4.6810303
1443697076296908550	3.74823	5.5956726	5.2180023
1443697076305300884	2.9328613	3.8089752	5.2907715
1443697076313693218	2.0270996	3.2952423	5.0552673
1443697076322085552	1.1589355	3.1635132	4.773163
1443697076330477886	-0.3086548	3.9356232	3.8298492
1443697076338870220	-1.765686	5.811722	2.289856
1443697076347262554	-2.592514	8.587799	0.58735657
1443697076355654888	-3.20813	10.167328	-0.0012664795
1443697076364047222	-3.9907227	12.151199	-0.7359314
1443697076372439556	-5.210724	15.935776	-2.0143585
1443697076380831890	-5.471512	19.960632	-2.5218353
1443697076389224224	-4.8611603	21.881577	-1.4501495
1443697076397616558	-4.063034	21.738266	-0.04156494
1443697076406008892	-1.6686401	19.138092	2.1581116
1443697076414401226	0.97753906	14.071442	4.8699646
1443697076422793560	2.04747	8.724014	5.171234
1443697076431185894	1.384491	6.1561127	4.1255493
1443697076439578228	0.29849243	4.4840546	2.986847
1443697076447970562	-0.9358063	2.579773	0.6042023
1443697076456362896	-2.0735626	1.0991669	-0.2523346
1443697076464755230	-2.8161774	1.0339813	0.16622925
1443697076473147564	-2.717865	1.6296844	-0.22383118
1443697076481539898	-2.4515991	2.5305939	-0.9555054
1443697076489932232	-1.7301483	4.702286	-2.8924713
1443697076498324566	-0.82722473	7.3855133	-5.2125244
1443697076506716900	0.2975006	9.173187	-6.9289246
1443697076515109234	0.9793091	10.196854	-7.6820526
1443697076523501568	1.9030151	11.785217	-7.394577
1443697076531893902	2.8928528	13.92569	-4.702118
1443697076540286236	3.0645752	15.775452	-1.1004028
1443697076548678570	2.66539	16.107574	0.6407471
1443697076557070904	2.1930695	16.07994	1.8925323
1443697076565463238	1.5754089	12.988907	3.190979
1443697076573855571	0.82388306	9.586227	3.3476868
1443697076582247905	-0.37651062	7.887329	2.797699
1443697076590640239	-1.2722931	7.4799194	2.3845062
1443697076599032573	-1.846283	6.9599304	1.6791687
1443697076607424907	-1.5861053	6.1522064	0.32655334
1443697076615817241	-1.417572	5.5918427	-0.71417236
1443697076624209575	-1.3201447	5.6007843	-1.2687378
1443697076632601909	-1.184555	5.8648987	-1.438385
1443697076640994243	-0.89512634	6.409912	-1.5928497
1443697076649386577	-0.52723694	7.274048	-1.4636993
1443697076657778911	-0.22518921	7.9115143	-1.4369354
1443697076666171245	0.05821228	8.456436	-1.4812775
1443697076674563579	0.7900696	9.438873	-1.4880981
1443697076682955913	1.3016357	10.217133	-1.519043
1443697076691348247	1.6031189	10.401291	-1.3007202
1443697076699740581	1.8613129	10.109055	-1.004715
1443697076708132915	1.9364929	9.7659	-0.9012604
1443697076716525249	2.080597	9.277267	-0.81648254
1443697076724917583	2.006195	8.578796	-0.7978058
1443697076733309917	1.1531067	8.190414	-0.8306732
1443697076741702251	0.5463867	8.061844	-0.8204651
1443697076750094585	0.36901855	8.024567	-0.75813293
1443697076758486919	-0.015579224	8.142944	-0.7402191
1443697076766879253	-0.5302582	8.542175	-0.79489136
1443697076775271587	-0.8967285	9.221115	-1.1127625
1443697076783663921	-0.81941223	9.6315155	-1.3541565
1443697076792056255	-0.6795349	9.993103	-1.5760651
1443697076800448589	-0.61216736	10.644989	-2.3653717
1443697076808840923	-0.727005	11.144882	-2.8159637
1443697076817233257	-0.69680786	11.395493	-2.788971
1443697076825625591	-0.856781	11.747223	-2.695404
1443697076834017925	-1.3003235	12.24234	-2.3153534
1443697076842410259	-1.0688934	12.336136	-1.9030304
1443697076850802593	-0.4452057	11.965668	-1.8795929
1443697076859194927	0.007736206	11.502319	-1.8215637
1443697076867587261	0.33610535	11.139893	-1.6230011
1443697076875979595	0.6988373	10.772095	-1.3168793
1443697076884371929	0.85783386	10.722885	-0.8829651
1443697076892764263	0.7575226	10.851135	-0.52474976
1443697076901156597	0.6187134	10.995071	-0.18673706
1443697076909548931	0.3888855	11.420242	0.3701172
1443697076917941265	0.48739624	11.417801	0.38433838
1443697076926333599	0.6240387	11.443283	-0.24583435
1443697076934725933	0.90486145	11.544815	-0.753479
1443697076943118267	1.2785797	11.8077545	-1.2969208
1443697076951510601	1.8679352	12.424469	-1.6095428
1443697076959902935	2.243805	12.790878	-1.3274994
1443697076968295269	2.1732025	12.723602	-1.2255707
1443697076976687603	1.9553528	12.543655	-1.4003601
1443697076985079937	1.5541992	12.233597	-1.7563171
1443697076993472271	1.2181549	11.815704	-1.8967438
1443697077001864605	0.80381775	11.1193695	-1.7355804
1443697077010256939	0.56414795	10.59906	-1.6787109
1443697077018649273	0.3538971	10.114365	-1.6446075
1443697077027041607	-0.12548828	9.558868	-1.5214386
1443697077035433941	-0.53170776	9.591019	-0.34754944
1443697077043826275	-1.2857513	10.196426	0.85990906
1443697077052218609	-1.8737335	10.88208	0.93573
1443697077060610943	-2.5362854	11.922913	0.6262207
1443697077069003277	-2.9914398	13.357483	-0.5470581
1443697077077395611	-2.9949188	13.928558	-1.6372833
1443697077085787945	-3.124771	13.749298	-1.9605865
1443697077094180279	-3.3374634	13.395859	-1.9239502
1443697077102572613	-3.6197205	12.608139	-1.5414276
1443697077110964946	-3.4656067	11.819046	-0.74012756
1443697077119357280	-2.4541168	11.554062	0.06970215
1443697077127749614	-1.77211	11.3124695	0.70814514
1443697077136141948	-1.135315	11.041275	1.3288422
1443697077144534282	-0.460083	10.256424	1.8901978
1443697077152926616	-0.31532288	9.430405	2.0563507
1443697077161318950	-0.76130676	9.19075	1.5496674
1443697077169711284	-0.6854706	9.1258545	1.1878815
1443697077178103618	-0.5656433	9.063202	0.8988495
1443697077186495952	-0.35316467	9.034103	0.44317627
1443697077194888286	0.32629395	8.762695	-0.22743225
1443697077203280620	0.9702301	8.26442	-0.3223114
1443697077211672954	1.3236542	7.7811737	-0.09869385
1443697077220065288	2.1151276	7.0732574	0.01449585
1443697077228457622	2.824234	6.560959	-0.6135559
1443697077236849956	3.498108	6.365265	-1.4701538
1443697077245242290	3.4461212	6.286392	-1.7637787
1443697077253634624	3.2470398	6.2380524	-1.9743042
1443697077262026958	1.846283	6.4511414	-1.6386414
1443697077270419292	0.42832947	6.305832	-1.4656525
1443697077278811626	-0.24737549	5.6520996	-1.6486053
1443697077287203960	-0.35791016	5.2800293	-1.4532471
1443697077295596294	-0.5121765	4.8333282	-0.89974976
1443697077303988628	-0.8450165	4.383072	-0.012588501
1443697077312380962	-0.92692566	4.107544	0.50032043
1443697077320773296	-0.9875488	4.036316	0.93530273
1443697077329165630	-1.2034607	4.04982	1.4243164
1443697077337557964	-1.5739288	4.1381226	2.0515594
1443697077345950298	-1.8262482	4.3576813	2.4909973
1443697077354342632	-2.8885193	4.7720947	3.3787231
1443697077362734966	-2.8827362	4.8374634	3.2256775
1443697077371127300	-2.8309784	4.9086304	2.9848938
1443697077379519634	-2.5912628	5.1434326	2.3260193
1443697077387911968	-2.1854858	5.7270355	2.0260773
1443697077396304302	-1.75177	6.5371094	2.0454254
1443697077404696636	-1.359787	7.229843	2.2394867
1443697077413088970	-0.59684753	8.2686	2.6893616
1443697077421481304	0.68299866	10.116577	3.5090027
1443697077429873638	2.3969574	12.473663	4.2677917
1443697077438265972	3.6216888	14.197891	4.755493
1443697077446658306	4.4859924	15.55957	5.1500397
1443697077455050640	5.7118683	17.551529	6.713867
1443697077463442974	6.373062	18.253433	8.457748
1443697077471835308	7.104477	17.158356	8.842377
1443697077480227642	7.218216	16.004242	8.152222
1443697077488619976	7.304962	14.543716	7.278534
1443697077497012310	7.1273804	11.461227	5.5124207
1443697077505404644	6.4651337	8.831604	4.4438477
1443697077513796978	5.740509	7.141861	4.247757
1443697077522189312	5.2630615	6.3437347	4.4913025
1443697077530581646	4.509964	5.5750885	4.7678223
1443697077538973980	3.4865112	5.7722015	4.1545715
1443697077547366314	1.9018555	7.9151154	2.4274902
1443697077555758648	0.5114746	10.009781	1.379715
1443697077564150982	-0.66256714	11.790421	0.71333313
1443697077572543316	-3.1187134	15.182816	-1.0454254
1443697077580935650	-5.403122	18.204132	-4.056534
1443697077589327984	-6.5499725	19.351273	-4.3875732
1443697077597720318	-7.3596497	18.6669	-2.3293152
1443697077606112652	-7.5292053	17.30365	0.44111633
1443697077614504986	-4.6566772	12.6710205	6.03804
1443697077622897320	-1.7498016	7.3890686	9.117218
1443697077631289654	-1.2588196	4.342636	7.6310577
1443697077639681988	-1.8834229	3.513031	5.026581
1443697077648074321	-3.3358765	3.0018463	1.5932465
1443697077656466655	-4.2733154	2.4653778	-0.88223267
1443697077664858989	-4.186569	2.1789703	-1.7646179
1443697077673251323	-3.8910065	2.5775452	-2.440918
1443697077681643657	-3.5587769	3.1385345	-3.1284943
1443697077690035991	-3.0382538	4.8921356	-5.0737305
1443697077698428325	-2.145401	7.042267	-7.374161
1443697077706820659	-0.5313721	8.578857	-7.75296
1443697077715212993	0.045684814	9.249725	-7.4830627
1443697077723605327	0.73431396	10.178787	-6.97789
1443697077731997661	2.0809937	12.086395	-5.381256
1443697077740389995	4.174713	13.9904785	-2.9713745
1443697077748782329	5.712799	14.893524	-1.0253143
1443697077757174663	6.3187714	14.995697	0.0028533936
1443697077765566997	6.218521	14.365234	1.0809021
1443697077773959331	4.9804535	12.531036	1.2168427
1443697077782351665	3.3016052	10.288467	0.91563416
1443697077790743999	2.2270813	9.076706	0.6821594
1443697077799136333	1.3364258	8.163574	0.45466614
1443697077807528667	-0.3091278	7.1874237	0.29078674
1443697077815921001	-1.4811249	6.645462	0.14935303
1443697077824313335	-0.9844818	6.2891846	-0.9982605
1443697077832705669	-1.0487518	6.2133636	-1.2161102
1443697077841098003	-1.0437012	6.184311	-1.2604828
1443697077849490337	-1.0405426	6.5746155	-0.933609
1443697077857882671	-1.3042603	7.517441	-0.94003296
1443697077866275005	-1.3152466	8.212112	-1.0951538
1443697077874667339	-1.2644806	8.674789	-1.2570801
1443697077883059673	-1.0244598	9.347412	-1.5914917
1443697077891452007	-0.47164917	9.981079	-1.9687958
1443697077899844341	-0.010757446	10.351044	-1.8686829
1443697077908236675	-0.014328003	10.2642975	-1.4508514
1443697077916629009	-0.109436035	10.087585	-0.9952545
1443697077925021343	-0.12347412	9.565689	-0.123046875
1443697077933413677	0.031097412	9.139648	0.34213257
1443697077941806011	0.073516846	8.964218	0.5111542
1443697077950198345	0.07853699	8.776855	0.6823578
1443697077958590679	-0.012771606	8.629852	0.61535645
1443697077966983013	-0.045944214	8.790283	-0.18746948
1443697077975375347	-0.039749146	9.400192	-1.1570282
1443697077983767681	0.0181427	10.107574	-1.733551
1443697077992160015	0.052200317	10.599167	-2.058075
1443697078000552349	0.37205505	11.244202	-2.4839172
1443697078008944683	0.7301636	11.556488	-2.873352
1443697078017337017	0.9414215	11.41507	-2.774353
1443697078025729351	0.92233276	11.314865	-2.4313354
1443697078034121685	0.86772156	11.235825	-2.067627
1443697078042514019	0.8898468	11.35498	-1.1676788
1443697078050906353	1.2218475	11.413559	-1.0527344
1443697078059298687	1.433258	11.265747	-1.1189117
1443697078067691021	1.5455627	11.156845	-1.1300049
1443697078076083355	1.461029	11.236832	-0.8905945
1443697078084475689	1.5003357	11.433319	-0.4505005
1443697078092868023	1.426239	11.50206	-0.21459961
1443697078101260357	1.2752228	11.502701	-0.2158966
1443697078109652691	1.1591644	11.504532	-0.61131287
1443697078118045025	1.2069244	11.797241	-1.1878662
1443697078126437359	1.3020477	12.589447	-1.4917908
1443697078134829693	1.3838959	12.98851	-1.5434875
1443697078143222027	1.4642181	13.273178	-1.5569763
1443697078151614361	1.1790466	13.297363	-1.7925873
1443697078160006695	0.68573	12.765686	-2.283371
1443697078168399029	0.13209534	11.778229	-2.293579
1443697078176791363	-0.2361145	11.084213	-2.1194305
1443697078185183696	-0.72439575	10.252487	-1.9202576
1443697078193576030	-1.4803619	9.383484	-1.5545349
1443697078201968364	-2.0943756	9.357376	-0.50006104
1443697078210360698	-2.4626465	9.909119	0.64256287
1443697078218753032	-2.7473297	10.569077	1.2511139
1443697078227145366	-3.0956268	11.935715	1.209549
1443697078235537700	-3.1701965	13.386383	0.06703186
1443697078243930034	-3.2871857	14.142456	-1.5275726
1443697078252322368	-3.1833496	14.045074	-1.9068604
1443697078260714702	-3.0342712	13.829147	-2.0720215
1443697078269107036	-2.2000732	13.1493225	-1.7398682
1443697078277499370	-1.4767151	12.378174	-0.7543793
1443697078285891704	-0.7039337	11.841858	0.61550903
1443697078294284038	-0.2740326	11.699829	1.3114624
1443697078302676372	0.15435791	11.481537	2.090622
1443697078311068706	0.6169281	10.986252	2.7563171
1443697078319461040	1.105423	10.446518	2.4173584
1443697078327853374	1.4125824	10.11026	1.7204285
1443697078336245708	1.5944366	9.814011	1.2770233
1443697078344638042	0.9025116	9.362701	0.48042297
1443697078353030376	0.08097839	9.045685	-0.66729736
1443697078361422710	0.5875702	8.079193	-0.5965729
1443697078369815044	0.6887207	7.475891	-0.5253601
1443697078378207378	0.72239685	6.9338226	-0.50491333
1443697078386599712	1.2298126	6.3492126	-1.0104065
1443697078394992046	1.3407135	6.0690155	-1.2075348
1443697078403384380	0.8820343	5.8022156	-1.4180298
1443697078411776714	0.7477417	5.64093	-1.3743286
1443697078420169048	0.5631256	5.4495544	-1.273346
1443697078428561382	0.113204956	5.3270874	-0.8212738
1443697078436953716	-0.68074036	5.292145	-0.34539795
1443697078445346050	-1.17276	5.177765	-0.25901794
1443697078453738384	-1.3681183	5.0485992	-0.25001526
1443697078462130718	-1.5116425	4.711685	0.23646545
1443697078470523052	-1.6238556	4.323395	1.0009003
1443697078478915386	-1.858841	4.0069427	1.860611
1443697078487307720	-1.7409973	3.7993927	2.0014496
1443697078495700054	-1.5916901	3.61438	2.1220093
1443697078504092388	-1.4318085	3.6623077	2.7608337
1443697078512484722	-1.3488922	3.8076477	3.1974182
1443697078520877056	-1.108551	3.8081665	3.084671
1443697078529269390	-0.99160767	3.810089	2.9317322
1443697078537661724	-0.9380188	3.9474792	2.7434082
1443697078546054058	-0.8253937	4.5572815	2.57901
1443697078554446392	-0.49601746	5.683731	2.4545288
1443697078562838726	-0.13354492	6.6464844	2.4994354
1443697078571231060	0.22181702	7.398987	2.6697388
1443697078579623394	1.1103668	8.867416	3.1583862
1443697078588015728	2.4486237	11.223145	3.709259
1443697078596408062	3.9514008	14.477661	4.736786
1443697078604800396	5.180588	16.36905	5.49765
1443697078613192730	6.500763	18.290268	6.3372803
1443697078621585064	8.486633	20.509827	7.7921906
1443697078629977398	9.277908	19.874313	7.9583435
1443697078638369732	9.617508	17.30748	7.085724
1443697078646762066	9.423447	15.231216	6.572281
1443697078655154400	9.021866	12.219986	5.9826813
1443697078663546734	7.825638	8.468124	5.5285645
1443697078671939068	6.074127	5.6171417	5.2609253
1443697078680331402	4.889145	4.578827	5.137085
1443697078688723736	4.022278	4.30571	5.0998077
1443697078697116070	2.578247	5.734543	3.742157
1443697078705508404	0.8902588	9.027237	1.8088684
1443697078713900738	-0.59846497	13.569168	-0.08958435
1443697078722293071	-1.8881836	15.930725	-2.1780396
1443697078730685405	-3.30513	18.436768	-4.5746307
1443697078739077739	-5.542862	21.177612	-7.6182556
1443697078747470073	-7.6319885	20.430573	-4.6917877
1443697078755862407	-8.102615	17.345459	0.9478607
1443697078764254741	-6.7595825	14.49295	6.2956085
1443697078772647075	-4.0994263	9.466476	11.878937
1443697078781039409	-1.4814606	3.3414917	11.533569
1443697078789431743	-2.5801544	0.8046875	4.0085754
1443697078797824077	-4.0853577	0.81726074	0.35011292
1443697078806216411	-5.080124	1.2632141	-0.98587036
1443697078814608745	-4.772766	1.6314087	-0.7826538
1443697078823001079	-4.0065155	1.8819733	-1.6462097
1443697078831393413	-3.722763	3.1356964	-3.5869904
1443697078839785747	-3.40596	4.36499	-4.746887
1443697078848178081	-2.9600525	5.762207	-5.9174347
1443697078856570415	-1.7962036	7.9719543	-6.899475
1443697078864962749	-0.22137451	10.306976	-6.9858704
1443697078873355083	1.3026276	12.339096	-6.5609894
1443697078881747417	2.4683075	13.639084	-5.856064
1443697078890139751	3.9481049	15.392517	-4.122925
1443697078898532085	5.7450867	16.715042	-1.3581696
1443697078906924419	6.286316	16.003632	1.1435394
1443697078915316753	5.5612183	14.350616	2.0687714
1443697078923709087	4.6095276	12.625229	2.4652557
1443697078932101421	2.889801	9.5967865	1.6832733
1443697078940493755	1.0069733	7.201599	1.0543671
1443697078948886089	-0.60935974	6.1981506	1.0946808
1443697078957278423	-1.4004059	5.935959	1.042633
1443697078965670757	-2.1449585	5.72908	0.7920227
1443697078974063091	-2.4464111	5.6571045	-0.1136322
1443697078982455425	-2.3616943	5.637848	-0.7158966
1443697078990847759	-2.6685333	6.073517	-1.1000671
1443697078999240093	-2.7263641	6.5252686	-1.3821716
1443697079007632427	-2.3880615	7.1482697	-1.7983398
1443697079016024761	-2.1277618	7.984192	-2.2410278
1443697079024417095	-1.8382416	9.09169	-2.5427551
1443697079032809429	-1.2431946	9.691483	-2.5263977
1443697079041201763	-0.5896759	10.103394	-2.4242249
1443697079049594097	0.1884613	10.359421	-1.839325
1443697079057986431	0.28160095	10.157028	-1.4808197
1443697079066378765	0.6222534	9.664017	-1.0389252
1443697079074771099	0.66981506	9.290665	-0.9348297
1443697079083163433	0.73547363	8.869492	-0.8018036
1443697079091555767	0.70625305	8.469009	-0.5274811
1443697079099948101	0.3959198	8.571548	-0.21931458
1443697079108340435	0.072525024	8.809952	-0.26441956
1443697079116732769	-0.34902954	8.936539	-0.5780029
1443697079125125103	-0.3028412	9.343857	-1.2542114
1443697079133517437	-0.19725037	9.944885	-2.3003387
1443697079141909771	-0.02355957	10.527588	-3.050293
1443697079150302105	0.1000824	10.953766	-3.1980896
1443697079158694439	0.1926117	11.342529	-3.2282867
1443697079167086773	-0.122558594	11.765808	-2.5299225
1443697079175479107	-0.58483887	12.02449	-2.012146
1443697079183871441	-0.23583984	11.998062	-1.7876434
1443697079192263775	0.19277954	11.823914	-1.9052277
1443697079200656109	0.66677856	11.569397	-1.8735504
1443697079209048443	1.128479	11.189835	-1.4789124
1443697079217440777	1.2325592	11.114105	-1.2277069
1443697079225833111	1.1657257	11.258682	-1.1377411
1443697079234225445	0.9189606	11.448257	-0.8800812
1443697079242617779	0.75801086	11.472641	-0.5189514
1443697079251010113	0.7086029	11.472153	-0.4446106
1443697079259402446	0.84375	11.699844	-0.5935211
1443697079267794780	1.0378113	11.984528	-0.7747345
1443697079276187114	1.578659	12.774811	-1.4004822
1443697079284579448	2.1438293	13.231094	-2.5937653
1443697079292971782	2.170288	13.117767	-3.1270142
1443697079301364116	1.9498749	12.881302	-3.0929565
1443697079309756450	1.6232147	12.620636	-2.961029
1443697079318148784	0.919693	12.290634	-2.5249786
1443697079326541118	0.17245483	11.781754	-2.1465912
1443697079334933452	-0.32814026	11.126617	-1.9438934
1443697079343325786	-0.6912079	10.642105	-1.7948151
1443697079351718120	-1.3045349	10.109283	-1.2119141
1443697079360110454	-1.946106	9.903	0.20425415
1443697079368502788	-2.3836212	10.419174	1.140274
1443697079376895122	-2.4378815	11.22879	1.0233765
1443697079385287456	-2.410263	12.062256	0.7155762
1443697079393679790	-2.1186066	13.134247	0.2601776
1443697079402072124	-1.9123077	13.128403	-0.72021484
1443697079410464458	-2.3256226	12.458618	-1.912323
1443697079418856792	-2.354538	11.927185	-2.3017578
1443697079427249126	-2.1735687	11.284439	-2.543869
1443697079435641460	-1.5506287	10.637573	-2.157135
1443697079444033794	-1.0420685	10.572281	-0.89012146
1443697079452426128	-0.656662	10.650436	0.37765503
1443697079460818462	-0.43559265	10.750687	1.0877228
1443697079469210796	-0.41296387	10.714325	1.7973938
1443697079477603130	-0.4243164	10.340683	2.1757965
1443697079485995464	-0.37145996	10.093246	1.7120972
1443697079494387798	-0.25849915	9.828995	1.0615234
1443697079502780132	-0.13575745	9.548172	0.41506958
1443697079511172466	-0.2314148	8.835297	-0.4582672
1443697079519564800	0.22839355	8.105743	-1.2251129
1443697079527957134	0.7966156	7.3150024	-1.2268219
1443697079536349468	0.6938019	7.1832886	-1.1400757
1443697079544741802	0.6829071	7.0176544	-1.0485382
1443697079553134136	0.80303955	6.9063416	-0.74612427
1443697079561526470	0.8548584	6.8419952	-0.46011353
1443697079569918804	1.1728516	6.5890656	-0.7479706
1443697079578311138	1.6991425	6.320465	-1.2061462
1443697079586703472	1.6987457	6.151596	-1.0886078
1443697079595095806	0.43125916	6.2066345	-0.80493164
1443697079603488140	-0.07998657	6.0559235	-0.5124817
1443697079611880474	-0.13400269	5.8463593	-0.102005005
1443697079620272808	-0.16093445	5.635498	0.32496643
1443697079628665142	-0.17514038	5.2867737	0.8235016
1443697079637057476	-0.109069824	4.933716	0.95047
1443697079645449810	-0.15246582	4.691345	1.1236877
1443697079653842144	-0.2398529	4.5544586	1.2644348
1443697079662234478	-0.34899902	4.3627625	1.4983978
1443697079670626812	-0.4774933	4.2037354	1.8043365
1443697079679019146	-0.6270447	4.26268	2.0130768
1443697079687411480	-0.9290314	4.324875	2.3071594
1443697079695803814	-1.3113861	4.355072	2.645172
1443697079704196148	-1.4783936	4.363983	2.7764587
1443697079712588482	-1.4350739	4.7312927	2.8821564
1443697079720980816	-1.311142	5.663086	3.0239716
1443697079729373150	-1.0620422	6.31604	3.1885529
1443697079737765484	-0.7887268	6.9717712	3.3771362
1443697079746157818	-0.17675781	8.403397	4.006378
1443697079754550152	1.2243042	10.615372	4.8651886
1443697079762942486	2.7716217	13.520142	5.732834
1443697079771334820	3.6282196	15.64267	6.3053894
1443697079779727154	4.7835846	18.543823	7.3234253
1443697079788119488	6.1648407	21.73825	8.6167145
1443697079796511821	6.977936	21.738129	8.078445
1443697079804904155	6.834976	19.725143	6.4971313
1443697079813296489	6.2386475	17.63089	5.0133514
1443697079821688823	5.364868	13.45015	3.8770905
1443697079830081157	5.0490265	9.064316	4.2332916
1443697079838473491	4.2637634	5.816757	5.163788
1443697079846865825	3.7779083	4.8839264	5.173889
1443697079855258159	3.2442474	4.164612	5.005356
1443697079863650493	1.9341278	4.7464294	3.4137878
1443697079872042827	0.22044373	7.1974945	1.6348114
1443697079880435161	-1.4334564	10.277237	0.78266907
1443697079888827495	-2.3266754	12.302078	-0.3219757
1443697079897219829	-3.618103	14.858322	-2.399582
1443697079905612163	-5.336075	17.537186	-4.101639
1443697079914004497	-6.9937744	18.379044	-2.5151672
1443697079922396831	-6.393631	17.221024	0.5573425
1443697079930789165	-4.5088654	15.47377	3.7684479
1443697079939181499	-1.2774506	10.396622	9.49234
1443697079947573833	-0.25924683	5.080261	9.076675
1443697079955966167	-2.6864471	3.1506195	3.0688171
1443697079964358501	-3.7661438	3.194641	0.89349365
1443697079972750835	-4.647537	3.2335968	-1.0086975
1443697079981143169	-4.186081	3.0140839	-1.3879242
1443697079989535503	-3.4248047	2.9328766	-2.0111237
1443697079997927837	-3.1190643	3.8416443	-3.3921967
1443697080006320171	-2.894165	4.833832	-4.210861
1443697080014712505	-2.3358612	6.3903046	-5.2242737
1443697080023104839	-1.3234558	8.346802	-6.10878
1443697080031497173	0.24107361	10.03923	-5.9591217
1443697080039889507	1.694107	11.111313	-5.3723145
1443697080048281841	2.9433289	11.904938	-4.803604
1443697080056674175	4.2532654	13.57634	-4.014557
1443697080065066509	5.3635254	14.667404	-2.655182
1443697080073458843	5.4172363	15.083405	-0.99819946
1443697080081851177	4.9860535	14.62587	-0.3658905
1443697080090243511	4.511383	13.8450775	0.27650452
1443697080098635845	3.7733307	11.312439	0.80722046
1443697080107028179	2.6345673	8.850739	0.62428284
1443697080115420513	1.1206665	7.4320374	0.29556274
1443697080123812847	0.10726929	6.775299	0.36367798
1443697080132205181	-0.7394867	6.202362	0.20896912
1443697080140597515	-1.4342957	5.867218	-0.016052246
1443697080148989849	-1.5425415	5.9775085	-0.5660095
1443697080157382183	-1.397522	6.148697	-0.965271
1443697080165774517	-1.2831268	6.2707977	-1.2068939
1443697080174166851	-1.5121307	6.875168	-0.9946594
1443697080182559185	-1.6369476	7.6680756	-0.9441376
1443697080190951519	-1.6742706	8.557175	-1.3214722
1443697080199343853	-1.266861	8.902893	-1.6228485
1443697080207736187	-0.7539673	9.28595	-2.0381622
1443697080216128521	0.06272888	9.667679	-2.5953827
1443697080224520855	0.37878418	9.495438	-2.0015411
1443697080232913189	0.3557434	9.137726	-1.1618042
1443697080241305523	0.26255798	8.880051	-0.7029877
1443697080249697857	0.14048767	8.661713	-0.31518555
1443697080258090191	-0.07041931	8.535522	-0.12722778
1443697080266482525	-0.1772461	8.591919	-0.09030151
1443697080274874859	-0.28752136	8.74353	-0.09799194
1443697080283267193	-0.42181396	8.90419	-0.1108551
1443697080291659527	-0.7608185	9.360184	-0.33694458
1443697080300051861	-0.7721863	9.718262	-0.82455444
1443697080308444195	-0.6374359	9.909225	-1.6514893
1443697080316836529	-0.47999573	9.996613	-2.1514435
1443697080325228863	-0.21652222	10.1605835	-2.6822052
1443697080333621196	0.29333496	10.591354	-3.0786743
1443697080342013530	0.49873352	11.122513	-2.829483
1443697080350405864	0.46391296	11.6167145	-2.3565063
1443697080358798198	0.26535034	11.918732	-1.8147888
1443697080367190532	-0.21224976	12.042404	-1.3492432
1443697080375582866	-0.15470886	11.811371	-1.3859711
1443697080383975200	0.43797302	11.305115	-1.7480927
1443697080392367534	0.80049133	11.015427	-1.8786774
1443697080400759868	1.0858154	10.801437	-1.937149
1443697080409152202	0.9093628	10.889572	-1.7326813
1443697080417544536	0.38563538	10.9787445	-0.92259216
1443697080425936870	0.10610962	10.917694	-0.4245758
1443697080434329204	-0.1614685	10.859085	-0.040039063
1443697080442721538	-0.37017822	10.979019	-0.4317627
1443697080451113872	-0.48275757	11.74469	-1.5703278
1443697080459506206	-0.42129517	12.669693	-2.1305084
1443697080467898540	-0.29470825	13.292999	-2.215332
1443697080476290874	0.052352905	14.013077	-2.380066
1443697080484683208	0.48046875	14.260101	-2.9257507
1443697080493075542	0.57621765	13.514069	-3.0720215
1443697080501467876	0.5208435	12.887604	-2.5779877
1443697080509860210	0.45658875	12.39859	-1.9642944
1443697080518252544	0.41293335	11.600967	-0.9824829
1443697080526644878	0.31707764	10.507919	-0.79478455
1443697080535037212	0.10475159	9.500687	-0.9100952
1443697080543429546	-0.26345825	9.323334	-0.7860718
1443697080551821880	-0.68984985	9.272659	-0.32835388
1443697080560214214	-1.2248688	9.860886	1.0826416
1443697080568606548	-1.415451	11.349182	1.4111633
1443697080576998882	-1.4003296	12.8324585	0.42408752
1443697080585391216	-1.4710083	13.518112	-0.54045105
1443697080593783550	-1.6635895	13.7951355	-1.9420624
1443697080602175884	-1.8743286	13.214584	-2.9400482
1443697080610568218	-1.8507233	12.441772	-2.8155975
1443697080618960552	-1.3879242	12.043396	-2.3815155
1443697080627352886	-0.82821655	11.733658	-1.94133
1443697080635745220	0.016906738	11.111694	-0.9702301
1443697080644137554	0.6628876	10.738968	-0.06977844
1443697080652529888	1.2060394	10.417145	0.8048401
1443697080660922222	1.0929413	10.207657	1.2456665
1443697080669314556	1.08255	9.864975	1.6104279
1443697080677706890	1.2186127	9.158752	1.6291504
1443697080686099224	0.69322205	8.659866	1.1978302
1443697080694491558	-0.08576965	8.582077	0.54751587
1443697080702883892	-0.49317932	8.613571	-0.069381714
1443697080711276226	-0.43977356	8.554077	-1.0986328
1443697080719668560	-0.1459198	8.1584015	-1.6803284
1443697080728060894	-0.22796631	7.8180847	-1.7364349
1443697080736453228	-0.10580444	7.725998	-1.5558777
1443697080744845562	0.08377075	7.67395	-1.339325
1443697080753237896	0.11289978	7.7270203	-0.99064636
1443697080761630230	0.37374878	7.599106	-1.1174316
1443697080770022564	0.45796204	7.3573303	-0.98558044
1443697080778414898	0.4020691	7.251938	-0.6629944
1443697080786807232	0.18745422	7.1938324	-0.1525116
1443697080795199566	-0.46110535	7.1835327	0.5437012
1443697080803591900	-1.1100311	6.5734406	0.63571167
1443697080811984234	-1.1640625	5.7759857	0.68370056
1443697080820376568	-0.8112793	5.387207	0.9439392
1443697080828768902	-0.61790466	5.2402954	1.4931641
1443697080837161236	-0.9494934	4.915024	2.0749207
1443697080845553570	-1.0948792	4.3333435	2.289917
1443697080853945904	-1.000824	4.0529785	2.3728333
1443697080862338238	-0.8832245	3.8267822	2.4480133
1443697080870730571	-0.69989014	3.6322327	2.721527
1443697080879122905	-1.1154785	3.7700043	3.1166992
1443697080887515239	-1.2834625	3.8563232	2.9916687
1443697080895907573	-1.2288513	3.9237976	2.8554382
1443697080904299907	-1.1979828	4.0936127	2.7804718
1443697080912692241	-1.1854858	4.5958405	2.8423767
1443697080921084575	-0.8854828	5.4864044	2.9106293
1443697080929476909	-0.33540344	6.417877	3.0640717
1443697080937869243	0.20117188	7.215988	3.3063354
1443697080946261577	1.4015045	8.9953	4.0090027
1443697080954653911	3.0980225	11.872879	5.3151855
1443697080963046245	5.1036224	15.360382	7.0250244
1443697080971438579	5.874008	17.279968	8.197693
1443697080979830913	6.551651	18.999298	9.285629
1443697080988223247	8.600281	20.02594	9.6405945
1443697080996615581	9.7821045	17.856201	7.5469666
1443697081005007915	8.408585	14.72551	5.4471436
1443697081013400249	7.507019	12.616486	5.215164
1443697081021792583	6.7749786	9.928909	5.263626
1443697081030184917	6.3394775	6.9704895	5.8275604
1443697081038577251	5.1989746	5.0969086	6.1582184
1443697081046969585	3.8137665	4.5434113	5.5158997
1443697081055361919	2.7290497	4.734253	4.39328
1443697081063754253	0.16471863	6.740753	1.9952545
1443697081072146587	-3.4037933	10.326752	0.4669037
1443697081080538921	-6.43985	14.89888	-3.1037598
1443697081088931255	-7.5928497	17.154007	-4.621704
1443697081097323589	-8.599426	19.296951	-5.6816254
1443697081105715923	-9.355682	21.588608	-2.5560608
1443697081114108257	-8.345001	19.043945	4.4413605
1443697081122500591	-1.962204	13.077667	11.369019
1443697081130892925	-0.21817017	10.207169	10.567688
1443697081139285259	-0.14508057	7.277817	7.194931
1443697081147677593	-2.1500244	4.8809204	1.6554565
1443697081156069927	-2.7577057	3.3664246	-0.7655029
1443697081164462261	-2.683319	2.6329193	-1.1674042
1443697081172854595	-2.7437286	2.254425	-1.1404266
1443697081181246929	-3.2467499	2.244461	-2.0732574
1443697081189639263	-3.3741455	3.1437378	-3.4915771
1443697081198031597	-2.816742	4.6733246	-4.7842865
1443697081206423931	-2.2546387	5.584671	-5.3772736
1443697081214816265	-1.3699799	6.501831	-6.009079
1443697081223208599	1.5916901	7.7596283	-6.7866364
1443697081231600933	1.9190826	9.806442	-5.8984528
1443697081239993267	2.3443298	12.053497	-4.8685913
1443697081248385601	2.9747162	13.468521	-4.23497
1443697081256777935	3.9740295	15.10495	-3.0498962
1443697081265170269	5.006851	16.037964	-0.88272095
1443697081273562603	4.2947235	15.013733	1.0045471
1443697081281954937	3.3717194	13.494965	1.5478821
1443697081290347271	2.822937	12.1011505	1.605072
1443697081298739605	1.7014618	9.4823	1.2741241
1443697081307131939	-0.169693	7.277603	1.2069397
1443697081315524273	-1.8767242	5.858856	1.6087646
1443697081323916607	-2.4351501	5.443741	1.201355
1443697081332308941	-2.8536377	5.04039	0.6649475
1443697081340701275	-2.5002594	4.8275604	-0.41914368
1443697081349093609	-2.38385	5.248459	-0.7588043
1443697081357485943	-2.308899	6.0218506	-1.1422577
1443697081365878277	-2.0634155	6.563568	-1.4911957
1443697081374270611	-1.7125854	7.4519653	-1.9590607
1443697081382662945	-1.3726654	8.833771	-2.6114197
1443697081391055279	-0.94932556	9.948029	-2.874466
1443697081399447613	-0.56333923	10.372345	-2.6184845
1443697081407839946	-0.23883057	10.593399	-2.2496338
1443697081416232280	0.08409119	10.697296	-1.3143158
1443697081424624614	-0.12397766	10.368637	-0.64982605
1443697081433016948	0.041305542	9.816818	-0.0017089844
1443697081441409282	-0.21186829	9.643326	0.25726318
1443697081449801616	-0.48841858	9.468185	0.5011749
1443697081458193950	-0.8227234	9.316956	0.4308777
1443697081466586284	-0.5437927	9.315872	-0.57318115
1443697081474978618	0.40953064	9.432648	-1.7549591
1443697081483370952	0.8477783	9.545105	-2.5543518
1443697081491763286	1.1837158	9.794785	-3.4242249
1443697081500155620	1.4800262	10.316193	-3.7142334
1443697081508547954	1.6388397	10.809952	-3.3598938
1443697081516940288	1.7108154	11.239197	-2.9004211
1443697081525332622	1.1661835	11.712875	-2.2421417
1443697081533724956	0.904953	11.657883	-1.957016
1443697081542117290	1.1710358	11.294388	-2.015442
1443697081550509624	1.5832672	10.950333	-2.0881805
1443697081558901958	1.6668091	10.832092	-2.110672
1443697081567294292	1.7397003	10.775543	-2.0915222
1443697081575686626	1.7629547	10.978439	-1.851532
1443697081584078960	1.6607208	11.177231	-1.2254486
1443697081592471294	1.3976135	11.181732	-0.49365234
1443697081600863628	1.1540527	11.166321	-0.12736511
1443697081609255962	0.81163025	11.103073	-0.016799927
1443697081617648296	0.76672363	11.16629	-0.78726196
1443697081626040630	0.9565277	11.382553	-1.3787689
1443697081634432964	1.1538086	11.623535	-1.7257843
1443697081642825298	1.3624268	12.061508	-1.5286713
1443697081651217632	1.4528503	12.461105	-1.6473846
1443697081659609966	1.0188141	12.453949	-1.9296112
1443697081668002300	0.68466187	12.197556	-1.9540253
1443697081676394634	0.28401184	11.931732	-1.9117126
1443697081684786968	-0.42637634	11.598068	-1.623703
1443697081693179302	-1.0637207	11.039139	-1.5873413
1443697081701571636	-1.3817291	10.420456	-1.6704559
1443697081709963970	-1.6092224	10.186554	-1.5740662
1443697081718356304	-1.8025818	10.143707	-1.0171051
1443697081726748638	-1.8956299	10.697632	-0.012329102
1443697081735140972	-2.0588531	11.912643	0.17094421
1443697081743533306	-2.2092285	12.722961	-0.22776794
1443697081751925640	-2.3345337	13.3237915	-0.684021
1443697081760317974	-2.5122223	13.546738	-1.7788849
1443697081768710308	-2.2970123	12.883209	-2.4641266
1443697081777102642	-2.665207	12.002808	-2.4841156
1443697081785494976	-2.843216	11.699509	-2.0612793
1443697081793887310	-3.0575562	11.402756	-1.3929901
1443697081802279644	-3.2240753	11.163773	0.07395935
1443697081810671978	-2.5745392	10.981323	1.1860809
1443697081819064312	-1.5370941	10.787857	1.5772705
1443697081827456646	-0.9028473	10.646484	1.4885864
1443697081835848980	-0.2390747	10.295868	1.131607
1443697081844241314	0.3834381	9.648239	0.8087921
1443697081852633648	0.57328796	9.214951	0.7738495
1443697081861025982	0.5155792	9.03334	0.6582794
1443697081869418316	0.43395996	8.889404	0.50083923
1443697081877810650	0.33416748	8.590607	-0.12992859
1443697081886202984	0.906662	8.392578	-0.7057648
1443697081894595318	1.554306	8.072617	-0.43447876
1443697081902987652	1.42836	7.951172	-0.40750122
1443697081911379986	1.394989	7.8464813	-0.5281677
1443697081919772320	1.3870087	7.736511	-1.0167389
1443697081928164654	1.039856	7.514206	-1.2646484
1443697081936556988	0.87968445	7.380722	-1.2243652
1443697081944949321	0.66249084	7.3537445	-1.0714264
1443697081953341655	0.6338043	6.713867	-1.5569763
1443697081961733989	0.68481445	6.095215	-1.4666138
1443697081970126323	-0.27905273	5.775131	-0.5813141
1443697081978518657	-0.35212708	5.576874	-0.124572754
1443697081986910991	-0.13685608	5.399521	0.20700073
1443697081995303325	0.8135681	5.984543	1.2441864
1443697082003695659	-1.8103943	4.7568054	1.2007141
1443697082012087993	-1.7506256	4.141739	1.5431976
1443697082020480327	-1.6664429	3.8069305	1.9236145
1443697082028872661	-1.5941772	3.4749756	2.2146912
1443697082037264995	-1.8467865	3.3526459	2.5680237
1443697082045657329	-2.1412811	3.480713	3.1177216
1443697082054049663	-1.8867798	3.5384674	3.3067017
1443697082062441997	-1.707489	3.6624908	3.511032
1443697082070834331	-1.7243805	3.9094849	3.3008423
1443697082079226665	-1.693039	4.5090637	2.66333
1443697082087618999	-1.4336243	5.7309875	2.2962189
1443697082096011333	-1.1985321	6.68338	2.4285278
1443697082104403667	-0.97618103	7.5611725	2.6328888
1443697082112796001	0.16062927	9.773499	3.505539
1443697082121188335	1.6687622	12.898788	5.0306854
1443697082129580669	3.0578003	16.32161	6.621994
1443697082137973003	3.7781525	18.36766	7.4335938
1443697082146365337	4.734329	20.577026	8.402771
1443697082154757671	6.60791	21.569199	9.108093
1443697082163150005	8.317596	18.444931	7.679718
1443697082171542339	8.882904	15.551147	6.9570007
1443697082179934673	9.267181	14.598816	8.063568
1443697082188327007	8.151108	10.982162	7.78627
1443697082196719341	7.7503815	6.9021454	7.1591034
1443697082205111675	7.239212	4.3261414	6.3569794
1443697082213504009	6.155945	3.5387573	5.649185
1443697082221896343	4.9873657	2.9775848	4.9416656
1443697082230288677	2.637085	3.8342285	3.293457
1443697082238681011	0.9107971	6.715866	1.4642029
1443697082247073345	-1.019989	9.996948	-0.104400635
1443697082255465679	-2.1130524	11.893921	-0.8793793
1443697082263858013	-3.32341	14.2317505	-1.9904327
1443697082272250347	-4.233368	17.049255	-2.8431854
1443697082280642681	-5.1250305	18.90895	-2.4546204
1443697082289035015	-5.9427185	18.968994	-0.8951111
1443697082297427349	-6.248596	18.128464	1.4156952
1443697082305819683	-3.393341	13.4673	6.9828796
1443697082314212017	-0.87768555	7.0280304	9.121948
1443697082322604351	-1.9728394	4.011978	5.7900696
1443697082330996685	-3.1493988	3.743332	3.4647675
1443697082339389019	-4.250366	3.6289978	1.2872009
1443697082347781353	-4.608383	3.0122223	-0.79107666
1443697082356173687	-3.9498901	2.6969604	-1.8544922
1443697082364566021	-4.151413	3.4097443	-2.9134064
1443697082372958355	-3.9290771	4.0607147	-3.9826965
1443697082381350689	-3.209259	5.0558624	-5.3565063
1443697082389743023	-1.9968109	6.529785	-6.3891754
1443697082398135357	-0.83122253	7.8834534	-5.889145
1443697082406527691	0.3549652	8.766251	-5.392273
1443697082414920025	1.4338989	9.395996	-5.2476807
1443697082423312359	2.159027	11.098236	-4.6212463
1443697082431704693	2.67836	13.359497	-3.4128113
1443697082440097027	3.607071	15.077896	-2.3241272
1443697082448489361	3.667801	15.288513	-1.6017914
1443697082456881695	3.610672	15.288773	-0.8186188
1443697082465274029	2.7951813	13.694229	0.61376953
1443697082473666363	1.8093109	11.045624	1.4346619
1443697082482058696	0.9177246	8.929306	1.5135345
1443697082490451030	0.2648468	8.032883	1.3586731
1443697082498843364	-0.6939697	7.110718	1.2267151
1443697082507235698	-1.961029	6.450241	0.89619446
1443697082515628032	-2.1147156	6.0625153	0.24209595
1443697082524020366	-1.7736206	5.881302	-0.19841003
1443697082532412700	-1.5744171	5.817047	-0.4811554
1443697082540805034	-1.9707947	6.354416	-1.2030182
1443697082549197368	-2.0027008	7.194519	-1.9954071
1443697082557589702	-1.0723724	7.95253	-2.5407867
1443697082565982036	-0.8928375	8.377106	-2.8469849
1443697082574374370	-0.66212463	8.831009	-3.140976
1443697082582766704	-0.118499756	9.456131	-3.1492004
1443697082591159038	0.009109497	9.845459	-2.227005
1443697082599551372	-0.14376831	9.928513	-1.3393097
1443697082607943706	-0.05508423	9.829559	-0.8849945
1443697082616336040	-0.11027527	9.557938	-0.46588135
1443697082624728374	-0.3053894	9.284424	-0.28034973
1443697082633120708	-0.27760315	9.286743	-0.055023193
1443697082641513042	-0.2653656	9.329147	0.12184143
1443697082649905376	-0.32063293	9.355499	0.21759033
1443697082658297710	-0.28507996	9.332718	-0.16777039
1443697082666690044	0.07019043	9.560364	-1.0639038
1443697082675082378	0.44456482	9.96698	-2.2534485
1443697082683474712	0.6424866	10.261932	-2.6910553
1443697082691867046	0.88749695	10.611816	-3.0963135
1443697082700259380	1.3729401	11.22998	-3.1594696
1443697082708651714	1.4854584	11.701508	-2.5128326
1443697082717044048	0.93255615	11.785156	-1.8071442
1443697082725436382	0.75904846	11.714478	-1.4768372
1443697082733828716	0.85769653	11.413803	-1.059555
1443697082742221050	1.3996735	10.888611	-1.1062317
1443697082750613384	1.5841827	10.842621	-1.3709259
1443697082759005718	1.5187378	11.121201	-1.260086
1443697082767398052	1.4583435	11.425156	-1.0396729
1443697082775790386	1.638382	11.632599	-0.33120728
1443697082784182720	1.5733185	11.603638	0.09919739
1443697082792575054	1.4238281	11.616272	0.051361084
1443697082800967388	1.299942	11.675812	-0.107666016
1443697082809359722	1.3331909	12.125687	-0.95692444
1443697082817752056	1.3740997	12.953949	-1.5066528
1443697082826144390	1.636322	13.637054	-1.4090118
1443697082834536724	1.9502716	13.699951	-1.6542664
1443697082842929058	2.0473022	13.467987	-2.3874817
1443697082851321392	2.0677643	12.803757	-3.2191315
1443697082859713726	2.122284	11.74884	-3.285492
1443697082868106060	2.007019	10.580856	-2.5271606
1443697082876498394	1.7935638	9.835159	-2.0814514
1443697082884890728	1.5821533	9.238831	-1.780716
1443697082893283062	0.6585083	8.591888	-1.246582
1443697082901675396	-0.3982849	8.872437	-0.14111328
1443697082910067730	-0.82496643	9.468765	1.0258636
1443697082918460064	-1.3614807	10.321869	2.064331
1443697082926852398	-2.3684845	12.372803	1.9846954
1443697082935244732	-3.1483612	13.888992	0.09921265
1443697082943637066	-3.7595825	14.233841	-1.7873993
1443697082952029400	-4.2029877	14.061615	-2.796936
1443697082960421734	-4.468521	13.524399	-3.4205627
1443697082968814068	-4.225876	12.783768	-2.9890137
1443697082977206402	-4.120758	12.422974	-1.7019806
1443697082985598736	-3.7885132	12.227203	-0.7072449
1443697082993991070	-3.2930603	12.037628	0.10243225
1443697083002383404	-1.6462555	11.716797	1.0129089
1443697083010775738	-0.21920776	11.147629	1.7923737
1443697083019168071	0.96733093	10.715912	1.9342346
1443697083027560405	1.1884003	10.458862	1.6495514
1443697083035952739	1.3713684	10.142151	1.2003784
1443697083044345073	1.1390533	9.668259	0.26843262
1443697083052737407	0.23770142	9.324432	-0.2048645
1443697083061129741	-0.15962219	8.838913	-0.42755127
1443697083069522075	0.05630493	8.3029785	-0.49822998
1443697083077914409	0.46400452	7.6952972	-0.5220337
1443697083086306743	0.5706024	7.1814117	-0.8707123
1443697083094699077	1.058548	6.80159	-1.4160919
1443697083103091411	1.3377228	6.58403	-1.6694336
1443697083111483745	1.4578857	6.4118195	-1.8339386
1443697083119876079	1.1376495	6.2292175	-1.5240173
1443697083128268413	0.4025421	6.236908	-1.1988068
1443697083136660747	-0.062438965	6.074997	-1.0021667
1443697083145053081	-0.1980133	6.08786	-0.77275085
1443697083153445415	-0.52633667	5.885895	-0.57418823
1443697083161837749	-1.2946167	5.005844	-0.21414185
1443697083170230083	-1.691803	4.209503	0.5885315
1443697083178622417	-1.9815521	3.7434845	0.94281006
1443697083187014751	-2.1858978	3.465866	0.9929352
1443697083195407085	-2.1396332	3.0436554	1.3451385
1443697083203799419	-1.8779907	2.8022614	2.0501556
1443697083212191753	-1.5148621	2.9548645	3.1813812
1443697083220584087	-1.327301	3.0718842	3.6377106
1443697083228976421	-1.1923523	3.156067	3.88768
1443697083237368755	-0.92222595	3.3033295	3.792511
1443697083245761089	-0.7946167	3.848816	3.3896332
1443697083254153423	-0.7184906	5.0720673	3.0778503
1443697083262545757	-0.5861206	5.9903564	3.1658783
1443697083270938091	-0.2907257	7.3442383	3.3832855
1443697083279330425	0.5943451	9.947922	4.1025085
1443697083287722759	1.9284363	12.7417755	5.5681305
1443697083296115093	3.0858154	14.918076	6.966507
1443697083304507427	3.8652954	16.52008	7.663086
1443697083312899761	4.972351	18.950455	8.257584
1443697083321292095	6.2782288	20.003235	8.439255
1443697083329684429	8.260513	17.942307	8.027527
1443697083338076763	8.512527	16.189941	7.4243774
1443697083346469097	8.375015	14.641907	6.8100586
1443697083354861431	7.189163	11.60318	6.314041
1443697083363253765	6.1111298	8.596436	6.2890167
1443697083371646099	5.0484314	6.3200836	6.23674
1443697083380038433	4.2888794	5.500763	6.275299
1443697083388430767	3.2308807	4.8414307	6.1906586
1443697083396823101	1.5175781	5.2164307	5.250778
1443697083405215435	-0.40568542	7.4662476	3.5453033
1443697083413607769	-1.988266	10.207962	2.2277374
1443697083422000103	-3.0498505	12.548965	1.0736084
1443697083430392437	-4.795288	16.237701	-2.261383
1443697083438784771	-5.8803406	19.93689	-4.819809
1443697083447177105	-8.513229	20.81392	-4.821106
1443697083455569439	-9.241287	19.272415	-1.5669708
1443697083463961773	-9.554855	17.420227	2.1304474
1443697083472354107	-2.7485352	9.809082	8.370575
1443697083480746441	-1.6964111	4.6164856	6.84964
1443697083489138775	-3.7195282	3.6037445	2.8811188
1443697083497531109	-4.2753754	3.2779388	1.1859436
1443697083505923443	-4.3758698	2.7959595	-0.32836914
1443697083514315777	-3.680313	2.4025574	-1.4240112
1443697083522708111	-3.4225922	2.9940338	-2.4771118
1443697083531100445	-3.270111	3.7540588	-3.5294952
1443697083539492779	-2.8877563	4.2630157	-4.519104
1443697083547885113	-1.9513092	5.6943817	-6.006729
1443697083556277446	-0.69548035	7.5541077	-6.704788
1443697083564669780	0.31478882	9.228226	-6.1435394
1443697083573062114	1.4043427	10.0828705	-5.601532
1443697083581454448	2.4954376	10.891296	-5.0723877
1443697083589846782	3.2572784	12.47496	-4.2652893
1443697083598239116	3.5457458	13.979584	-2.8264313
1443697083606631450	3.7503662	14.849823	-1.7488556
1443697083615023784	3.6449738	14.918579	-0.8614197
1443697083623416118	3.5535889	14.462524	0.24778748
1443697083631808452	3.4535522	12.689575	1.1381378
1443697083640200786	2.9114075	10.187424	1.1092072
1443697083648593120	1.9210358	8.511719	0.9454498
1443697083656985454	0.8735962	7.484192	0.84135437
1443697083665377788	-0.58451843	6.62706	0.50691223
1443697083673770122	-1.8501892	6.187851	0.33192444
1443697083682162456	-2.918167	5.9938507	0.5157318
1443697083690554790	-2.7366486	6.0414124	0.07444763
1443697083698947124	-2.4469452	6.1221466	-0.40263367
1443697083707339458	-1.8379669	6.497513	-0.8609314
1443697083715731792	-1.5355835	7.361206	-1.7824097
1443697083724124126	-1.3631897	8.38446	-3.1480103
1443697083732516460	-1.2764435	8.923599	-3.7533417
1443697083740908794	-0.9318695	9.480515	-4.0399017
1443697083749301128	-0.52008057	9.844696	-3.3753967
1443697083757693462	-0.23313904	9.615738	-1.9630127
1443697083766085796	0.067596436	9.344269	-1.042572
1443697083774478130	0.30343628	9.215103	-0.50471497
1443697083782870464	0.7567444	8.87738	0.14857483
1443697083791262798	0.54919434	8.442047	0.51768494
1443697083799655132	0.008361816	8.241791	0.1648407
1443697083808047466	-0.3131256	8.325958	-0.20574951
1443697083816439800	-0.60131836	8.477982	-0.6312561
1443697083824832134	-0.60253906	9.121094	-1.4710999
1443697083833224468	-0.42921448	9.875946	-2.2460938
1443697083841616802	-0.34423828	10.556168	-2.7395172
1443697083850009136	0.49305725	10.928238	-2.746582
1443697083858401470	1.6743317	11.435333	-2.6394043
1443697083866793804	2.563858	11.884857	-2.260559
1443697083875186138	2.5445862	11.7157135	-1.8634338
1443697083883578472	2.500229	11.406509	-1.6397552
1443697083891970806	2.5413513	11.169388	-1.4675293
1443697083900363140	2.5627594	10.838379	-1.3253937
1443697083908755474	2.1751251	10.826218	-0.98095703
1443697083917147808	1.2779999	11.34996	-0.6818695
1443697083925540142	1.1481934	11.360245	-0.3580017
1443697083933932476	1.0166168	11.356003	-0.0211792
1443697083942324810	0.82022095	11.271179	0.23614502
1443697083950717144	0.5145569	11.185242	-0.20622253
1443697083959109478	0.45281982	11.126404	-0.9619751
1443697083967501812	0.4618225	11.120621	-1.5441742
1443697083975894146	0.6897888	11.299545	-2.1846313
1443697083984286480	1.0697784	11.828583	-2.3690643
1443697083992678814	1.2797394	12.5841675	-2.3947754
1443697084001071148	1.1256256	12.769699	-2.5048828
1443697084009463482	0.8475952	12.693024	-2.5944214
1443697084017855816	0.5695648	12.616333	-2.6839447
1443697084026248150	-0.06587219	11.722809	-1.5926208
1443697084034640484	-0.54652405	10.545929	-0.68013
1443697084043032818	-0.65382385	9.983643	-0.4359436
1443697084051425152	-0.7498474	9.455505	-0.16307068
1443697084059817486	-0.7459717	9.429504	0.36714172
1443697084068209820	-0.67359924	10.408936	1.0780334
1443697084076602154	-0.76420593	11.354202	1.3665771
1443697084084994488	-1.0680695	12.896179	1.1194
1443697084093386821	-1.5083008	14.847946	-0.3660736
1443697084101779155	-1.9343109	15.354248	-1.6303711
1443697084110171489	-2.4130554	15.068939	-2.3931274
1443697084118563823	-2.7268677	14.507614	-2.367447
1443697084126956157	-2.983261	13.850235	-2.0673676
1443697084135348491	-3.4302368	12.702576	-1.3629456
1443697084143740825	-2.8839264	12.065384	-0.026382446
1443697084152133159	-2.3736877	12.071808	0.55389404
1443697084160525493	-1.6928558	12.045273	1.0671539
1443697084168917827	-0.2922821	11.79805	1.2127075
1443697084177310161	0.22424316	11.278564	1.279068
1443697084185702495	0.23101807	10.629532	1.0410767
1443697084194094829	0.15968323	10.27739	0.51478577
1443697084202487163	-0.059005737	9.822052	-0.113082886
1443697084210879497	-0.49517822	9.214386	-0.091918945
1443697084219271831	-0.63279724	8.357819	0.31108093
1443697084227664165	-0.53274536	7.756897	0.49699402
1443697084236056499	-0.41644287	7.3096466	0.63578796
1443697084244448833	-0.03062439	6.787262	0.11906433
1443697084252841167	0.34605408	6.555176	-0.44517517
1443697084261233501	0.7329712	6.552109	-0.8058777
1443697084269625835	0.9713745	6.5720215	-0.93118286
1443697084278018169	1.1883545	6.5333557	-1.0635529
1443697084286410503	1.2220459	6.1554413	-1.1454163
1443697084294802837	1.1034241	5.7297363	-0.8585663
1443697084303195171	1.0314484	5.7163696	-0.48995972
1443697084311587505	0.69151306	5.663681	-0.4321289
1443697084319979839	0.48680115	5.035507	-0.3521576
1443697084328372173	-0.23719788	3.4202576	-0.03857422
1443697084336764507	-1.0356293	2.1336365	0.6354828
1443697084345156841	-1.3521271	1.7829742	1.0031586
1443697084353549175	-1.5590515	1.6460876	1.2299957
1443697084361941509	-1.7126007	1.6256256	1.6266022
1443697084370333843	-1.5618591	1.6211395	1.9917755
1443697084378726177	-1.6544037	1.9582672	2.2761536
1443697084387118511	-1.4513397	2.1324158	2.8468018
1443697084395510845	-1.1151886	2.3897247	3.532547
1443697084403903179	-0.5366211	3.0177765	4.1745605
1443697084412295513	-0.50901794	4.057358	3.656952
1443697084420687847	-0.45721436	5.3507385	3.1751404
1443697084429080181	-0.22395325	6.531845	3.0620422
1443697084437472515	0.55093384	8.977112	3.751587
1443697084445864849	1.5300293	12.585159	6.0223694
1443697084454257183	2.4431763	16.43959	8.128723
1443697084462649517	3.1495972	18.566284	8.787537
1443697084471041851	3.7934875	20.19722	9.12233
1443697084479434185	5.0947723	21.154175	9.250793
1443697084487826519	5.2620697	19.175613	8.172928
1443697084496218853	5.5754395	16.166473	8.261597
1443697084504611187	5.4379272	14.088303	8.103516
1443697084513003521	5.0397644	11.517822	7.686157
1443697084521395855	3.9018555	7.96904	6.484253
1443697084529788189	2.7453308	5.596924	5.2158356
1443697084538180523	1.9719696	4.3874664	4.6371307
1443697084546572857	1.5960388	3.7943573	4.717453
1443697084554965191	0.7502136	3.4465942	4.974045
1443697084563357525	-0.5574646	4.0145416	4.359726
1443697084571749859	-1.9185333	5.7726593	3.0073853
1443697084580142193	-2.8833008	7.592575	1.937149
1443697084588534527	-3.761734	9.364227	0.95010376
1443697084596926861	-5.4279633	13.286804	-1.4660034
1443697084605319195	-6.153488	18.008804	-0.06072998
1443697084613711529	-7.209015	21.470932	2.298996
1443697084622103863	-5.8293457	22.00879	4.1008453
1443697084630496196	-3.1023102	20.57904	5.7339783
1443697084638888530	0.7618103	14.314041	5.1624756
1443697084647280864	3.6621094E-4	9.312546	1.6715546
1443697084655673198	-1.3618622	7.536331	-0.22496033
1443697084664065532	-1.7474365	6.7292175	-0.7775879
1443697084672457866	-1.5623169	5.5810394	-1.4134216
1443697084680850200	-1.690445	4.768097	-1.9454346
1443697084689242534	-2.060669	4.325012	-2.9140472
1443697084697634868	-1.8293304	4.252243	-3.4919586
1443697084706027202	-1.4958191	4.234894	-3.9803467
1443697084714419536	-0.6418915	5.076172	-4.612091
1443697084722811870	-0.020584106	6.9242554	-5.0821075
1443697084731204204	-0.013504028	8.477692	-4.635483
1443697084739596538	0.42282104	9.263596	-4.5256042
1443697084747988872	1.3087769	10.357437	-4.3490143
1443697084756392204	2.8364868	12.047623	-4.0899963
1443697084764784538	3.0563965	13.590317	-3.6457672
1443697084773176872	2.4917297	14.427444	-2.7305908
1443697084781569206	2.153717	14.803375	-1.6567993
1443697084789961540	1.9844055	14.387222	0.20204163
1443697084798353874	2.0585785	12.418488	1.3609772
1443697084806746208	1.2608032	9.583771	1.7397308
1443697084815138542	0.42422485	8.283722	1.8756104
1443697084823530876	-0.42178345	7.1794586	2.0038757
1443697084831923210	-2.1350708	5.9694824	2.348465
1443697084840315544	-2.6148834	5.327591	1.3477173
1443697084848707878	-2.0516205	5.1539154	0.28912354
1443697084857100212	-1.8318481	5.2413177	0.008300781
1443697084865492546	-1.7767029	5.5621796	-0.29104614
1443697084873884880	-1.7262115	6.4000397	-0.94348145
1443697084882277214	-0.9038696	7.489609	-2.1310577
1443697084890669548	-0.24920654	8.305695	-2.806549
1443697084899061882	-0.010787964	8.862198	-3.0243835
1443697084907454216	0.24565125	9.38353	-2.8688507
1443697084915846550	0.61053467	9.71167	-2.2811127
1443697084924238884	0.78193665	9.536331	-1.4501038
1443697084932631218	0.5337372	9.286316	-1.197586
1443697084941023552	0.26731873	9.008972	-0.98902893
1443697084949415886	0.16963196	8.369354	-0.7121277
1443697084957808220	0.06829834	8.030334	-0.3103943
1443697084966200554	-0.028793335	8.193436	0.01576233
1443697084974592888	-0.07635498	8.486465	-0.0015869141
1443697084982985222	0.07624817	8.961166	-0.20983887
1443697084991377556	0.64533997	9.698151	-0.84910583
1443697084999769890	1.2552643	10.471024	-1.7025452
1443697085008162224	1.5546722	11.006744	-2.1835327
1443697085016554558	1.7127533	11.378815	-2.4123077
1443697085024946892	1.7775269	11.8359375	-2.5613556
1443697085033339226	1.574585	12.330002	-2.568039
1443697085041731560	1.3949738	12.1753845	-2.304016
1443697085050123894	1.4110565	11.928558	-1.9979858
1443697085058516228	1.4459686	11.662903	-1.6817169
1443697085066908562	1.5223846	11.332199	-1.2071838
1443697085075300896	1.294342	11.5559845	-0.46289063
1443697085083693230	1.1210175	11.902954	-0.12924194
1443697085092085564	1.0830994	11.89653	-0.14144897
1443697085100477898	1.0075226	11.7452545	-0.010818481
1443697085108870232	0.68766785	11.444153	0.5120392
1443697085117262566	0.8718109	11.3359375	0.3625641
1443697085125654900	1.3593292	11.500137	-0.35299683
1443697085134047234	1.7493896	11.746262	-1.0405731
1443697085142439568	1.8984985	12.534897	-2.5686798
1443697085150831902	1.8239899	12.923767	-3.1580048
1443697085159224236	1.2655334	12.58931	-3.0243835
1443697085167616569	0.69039917	12.143982	-3.0712738
1443697085176008903	0.017318726	11.576202	-3.059845
1443697085184401237	-1.2642059	10.313187	-2.464798
1443697085192793571	-2.357895	9.751007	-0.98197937
1443697085201185905	-2.7795563	10.508621	0.28466797
1443697085209578239	-2.8142548	11.588837	0.90734863
1443697085217970573	-2.671814	13.331345	1.3196259
1443697085226362907	-2.1896362	15.822144	0.75852966
1443697085234755241	-1.667099	17.255432	-0.67614746
1443697085243147575	-1.653656	17.101791	-1.6623077
1443697085251539909	-1.8457947	16.535019	-2.3749542
1443697085259932243	-2.8120575	15.239395	-2.8931274
1443697085268324577	-3.7601318	14.307236	-2.3727112
1443697085276716911	-3.240799	13.508163	-0.782135
1443697085285109245	-2.633545	13.21257	-0.05407715
1443697085293501579	-1.9117737	12.877029	0.6613159
1443697085301893913	-0.8650818	12.270004	1.373764
1443697085310286247	-0.4513092	11.272903	2.0537415
1443697085318678581	-0.0700531	10.306442	1.927063
1443697085327070915	0.11694336	9.864319	1.2394714
1443697085335463249	0.5074463	9.245773	0.24046326
1443697085343855583	0.34988403	8.818695	-1.2186584
1443697085352247917	-0.23556519	8.557571	-2.151062
1443697085360640251	-0.16627502	8.288376	-2.1127472
1443697085369032585	0.13188171	8.031967	-1.8364258
1443697085377424919	0.04298401	7.465805	-1.6946869
1443697085385817253	-0.11126709	6.944092	-1.9016724
1443697085394209587	-0.036727905	6.7943573	-1.7738037
1443697085402601921	0.07627869	6.610092	-1.6609497
1443697085410994255	0.2593689	6.2233276	-1.7716522
1443697085419386589	0.17294312	6.3125153	-1.9003754
1443697085427778923	0.18247986	7.1040497	-1.3906708
1443697085436171257	-0.84672546	6.846039	-1.7967224
1443697085444563591	-1.3087616	6.318451	-1.9451599
1443697085452955925	-1.902008	5.49736	-1.7392883
1443697085461348259	-2.386856	4.652008	-1.3232574
1443697085469740593	-2.691925	4.2581024	-0.39578247
1443697085478132927	-2.9740295	4.007492	0.77568054
1443697085486525261	-2.6605377	3.4561462	2.1703033
1443697085494917595	-2.1822357	3.0066376	2.8702698
1443697085503309929	-2.2479553	2.7541046	3.1001587
1443697085511702263	-1.9476318	2.604126	3.2001648
1443697085520094597	-1.7137299	2.5938416	3.1198425
1443697085528486931	-1.4963531	2.6652374	3.205246
1443697085536879265	-1.1552582	2.9592285	3.5125885
1443697085545271599	-0.643692	3.236374	3.2912598
1443697085553663933	-0.4598999	3.5763092	3.200653
1443697085562056267	-0.2290039	4.3621063	3.2153625
1443697085570448601	0.09120178	5.935135	3.3677826
1443697085578840935	0.9137268	8.243332	3.9547272
1443697085587233269	1.8319244	10.068939	4.706711
1443697085595625603	2.696869	11.627884	5.4431305
1443697085604017937	3.647812	14.834366	7.15802
1443697085612410271	4.503845	18.517075	8.365402
1443697085620802605	4.837723	20.712738	9.779526
1443697085629194939	5.8524017	20.334259	10.48317
1443697085637587273	6.7695923	19.473358	10.679886
1443697085645979607	6.8812103	16.497543	8.705002
1443697085654371941	5.9936523	12.724045	6.4201355
1443697085662764275	5.423355	9.968842	5.435318
1443697085671156609	4.950409	8.399597	5.0066986
1443697085679548943	4.904236	6.1977386	4.465439
1443697085687941277	4.713974	3.8335266	4.4590607
1443697085696333611	4.2697144	2.108139	5.5353546
1443697085704725944	3.4025116	1.3757935	5.6857147
1443697085713118278	2.4032745	0.8867798	5.461441
1443697085721510612	-0.061645508	1.5259552	2.7393036
1443697085729902946	-3.2891388	3.9525146	1.1750641
1443697085738295280	-5.5737762	7.899475	-0.84336853
1443697085746687614	-6.8634796	10.521942	-2.3509064
1443697085755079948	-8.239761	14.058456	-4.248642
1443697085763472282	-10.592209	20.844498	-4.385132
1443697085771864616	-13.443558	27.359787	3.3456726
1443697085780256950	-10.882996	27.570755	9.679901
1443697085788649284	-3.8278503	22.88359	11.300552
1443697085797041618	2.754776	14.763519	6.7144775
1443697085805433952	2.4715424	8.300232	-0.056671143
1443697085813826286	-0.4606781	5.6496124	-1.756897
1443697085822218620	-1.4102325	4.573944	-1.1134186
1443697085830610954	-1.9320374	3.7231445	-0.25553894
1443697085839003288	-2.4404297	2.6601715	0.7834778
1443697085847395622	-3.3505707	2.9121246	-0.34205627
1443697085855787956	-2.7537384	3.5990295	-2.448227
1443697085864180290	-2.6528473	3.9813843	-3.085678
1443697085872572624	-2.0655212	4.552582	-4.429428
1443697085880964958	-0.79945374	5.791092	-6.775757
1443697085889357292	-0.5292511	7.6045837	-6.6360626
1443697085897749626	-0.10107422	9.167923	-5.3524017
1443697085906141960	0.54667664	10.17746	-4.461746
1443697085914534294	1.6823273	11.674484	-3.4979095
1443697085922926628	2.0251312	13.404877	-2.8614044
1443697085931318962	1.2845764	14.819946	-1.898529
1443697085939711296	1.3068848	14.961121	-0.47079468
1443697085948103630	1.5099487	14.876297	1.0181274
1443697085956495964	1.4764862	13.546738	1.8462677
1443697085964888298	2.0013275	10.879929	1.660614
1443697085973280632	1.6980896	8.29718	1.375
1443697085981672966	0.78559875	7.4553833	0.9695282
1443697085990065300	-0.20217896	6.5399475	0.34921265
1443697085998457634	-1.1524658	5.5473633	-0.8184967
1443697086006849968	-1.5059204	4.8894806	-1.776947
1443697086015242302	-1.3835754	4.6962433	-1.9767609
1443697086023634636	-1.1451721	4.691101	-1.8784485
1443697086032026970	-1.0705719	5.343796	-1.8639679
1443697086040419304	-0.6908722	6.5106354	-2.5303955
1443697086048811638	-0.505188	8.095108	-3.0812378
1443697086057203972	-0.6457367	8.809891	-3.1606293
1443697086065596306	-0.8167572	9.391922	-3.17865
1443697086073988640	-0.6889801	10.039261	-2.7140808
1443697086082380974	-0.47583008	10.025116	-1.6265106
1443697086090773308	0.12046814	9.690018	-0.29423523
1443697086099165642	0.2387085	9.504944	0.31495667
1443697086107557976	0.03538513	9.2638855	0.844574
1443697086115950310	-0.35961914	9.079376	0.79704285
1443697086124342644	-0.38739014	9.183182	0.0059509277
1443697086132734978	-0.39079285	9.310287	-0.6888733
1443697086141127312	-0.26934814	9.393188	-1.1843262
1443697086149519646	0.35031128	9.649719	-2.0165863
1443697086157911980	1.4099274	9.86525	-2.7893982
1443697086166304314	2.2193756	10.142075	-3.000885
1443697086174696648	2.310089	10.434036	-2.744339
1443697086183088982	2.2797089	10.751358	-2.4231873
1443697086191481316	1.2465057	11.493027	-1.6486359
1443697086199873650	0.9270172	11.784393	-1.5728607
1443697086208265984	1.2139282	11.743622	-1.8707733
1443697086216658318	1.5422821	11.545059	-2.1014557
1443697086225050652	1.7965393	11.249954	-2.1683807
1443697086233442986	1.7518768	11.075241	-1.7424164
1443697086241835319	1.5155334	11.296234	-0.96333313
1443697086250227653	1.2843628	11.492767	-0.30448914
1443697086258619987	1.0440369	11.622574	0.23338318
1443697086267012321	0.47000122	11.583633	0.7002106
1443697086275404655	0.08416748	11.442184	-0.12289429
1443697086283796989	0.2748413	11.681854	-1.2251892
1443697086292189323	0.414917	12.018799	-1.5532074
1443697086300581657	0.53826904	12.383774	-1.8516998
1443697086308973991	0.5613251	12.903442	-2.2387543
1443697086317366325	0.4905548	12.668961	-2.360962
1443697086325758659	0.03010559	12.057114	-2.2169952
1443697086334150993	-0.25263977	11.688263	-2.0267944
1443697086342543327	-0.51704407	11.065811	-1.5718536
1443697086350935661	-0.76704407	9.918076	-0.98657227
1443697086359327995	-1.2981415	8.966293	-0.56140137
1443697086367720329	-1.6841125	8.860489	-0.12571716
1443697086376112663	-1.8736877	9.066772	0.29260254
1443697086384504997	-1.6716919	9.944641	1.0954895
1443697086392897331	-1.3929596	11.220825	1.2490082
1443697086401289665	-1.7199554	13.0972595	0.0927124
1443697086409681999	-2.0516357	13.866837	-0.7362366
1443697086418074333	-2.4088593	14.582855	-1.5932465
1443697086426466667	-2.8497162	14.867264	-2.507904
1443697086434859001	-2.879181	14.4375305	-2.4794464
1443697086443251335	-2.877655	14.099503	-1.9560242
1443697086451643669	-2.7041473	13.883591	-1.3487549
1443697086460036003	-2.4040375	13.6857605	-0.4970398
1443697086468428337	-1.8223114	13.327194	0.4736786
1443697086476820671	-0.5833435	12.550858	1.2138519
1443697086485213005	0.22283936	11.987854	1.5516815
1443697086493605339	0.65530396	11.608078	1.726471
1443697086501997673	1.5520782	10.622696	1.254303
1443697086510390007	2.1070862	9.712936	-0.036346436
1443697086518782341	2.2965393	9.219101	-0.23103333
1443697086527174675	2.337677	8.7846985	0.19436646
1443697086535567009	2.234024	8.300751	0.65986633
1443697086543959343	1.4716492	7.5047913	1.007019
1443697086552351677	1.2198792	6.596924	0.23519897
1443697086560744011	1.3145752	6.0749207	-0.3807068
1443697086569136345	1.3177795	5.9644012	-0.6782379
1443697086577528679	1.3076782	5.82724	-1.2229309
1443697086585921013	1.7201996	5.386368	-2.1305695
1443697086594313347	1.8514862	5.0716248	-2.1377258
1443697086602705681	1.3424683	5.1484528	-1.7276459
1443697086611098015	0.7101593	5.3091125	-1.3703613
1443697086619490349	-0.21635437	5.431488	-1.1585236
1443697086627882683	-0.98747253	5.087204	-1.1873627
1443697086636275017	-1.6058197	4.5714264	-0.52368164
1443697086644667351	-1.7696838	4.271332	-0.2531433
1443697086653059685	-1.9788513	3.9029846	-0.014526367
1443697086661452019	-2.2113495	3.2518158	0.13743591
1443697086669844353	-2.1012115	2.6957092	0.73150635
1443697086678236687	-2.0689087	2.4262695	1.5931244
1443697086686629021	-1.8407898	2.2733307	1.9086304
1443697086695021355	-1.8588257	2.3216248	2.6095886
1443697086703413689	-2.1321259	2.4584656	3.2454681
1443697086711806023	-2.2405548	2.5642548	3.256073
1443697086720198357	-2.257248	2.6799316	3.0896454
1443697086728590691	-2.1782684	3.3707733	2.9300385
1443697086736983025	-1.667511	4.8805084	2.831253
1443697086745375359	-0.81858826	7.0453644	2.8902893
1443697086753767693	0.46679688	9.727707	3.4223175
1443697086762160027	1.4461212	11.451187	4.249344
1443697086770552361	2.603119	13.764175	5.43425
1443697086778944694	4.34198	18.056076	7.5829773
1443697086787337028	5.7477264	21.5878	9.15564
1443697086795729362	6.394989	22.149017	10.048981
1443697086804121696	6.776703	20.746857	10.242401
1443697086812514030	7.9631805	17.549408	9.605438
1443697086820906364	7.514801	13.597046	8.133041
1443697086829298698	6.4549713	10.906403	6.8623657
1443697086837691032	5.810608	9.720657	6.1052094
1443697086846083366	5.21492	8.842224	5.4529724
1443697086854475700	3.607254	7.82312	5.854248
1443697086862868034	3.0375519	8.474396	5.90065
1443697086871260368	3.1172333	9.647797	5.1616516
1443697086879652702	2.7969513	11.428574	4.2861633
1443697086888045036	0.7713928	15.652054	2.0509644
1443697086896437370	-1.910141	19.422714	-2.242447
1443697086904829704	-4.8302155	20.645294	-4.8895416
1443697086913222038	-7.045273	19.550934	-5.5739136
1443697086921614372	-8.390717	16.88034	-2.7563171
1443697086930006706	-7.468155	10.844254	4.8996124
1443697086938399040	-5.085602	3.6072388	8.942383
1443697086946791374	-4.7826233	1.1484528	8.200394
1443697086955183708	-5.2375793	0.24624634	6.6189423
1443697086963576042	-4.524643	1.149704	3.1694336
1443697086971968376	-4.222931	1.0960083	0.8801117
1443697086980360710	-3.4254608	1.7126923	-2.1440277
1443697086988753044	-3.0707397	2.5043793	-3.2917175
1443697086997145378	-2.7066193	3.7222595	-4.618042
1443697087005537712	-2.1495361	6.2774353	-6.3592987
1443697087013930046	-1.4375916	8.635132	-6.9732513
1443697087022322380	-1.0599213	10.290436	-6.275894
1443697087030714714	-0.6518707	11.289673	-5.522766
1443697087039107048	0.69573975	12.601868	-4.327713
1443697087047499382	3.6371918	13.642059	-3.4290466
1443697087055891716	4.3600006	14.526794	-2.4516144
1443697087064284050	3.8610687	14.874619	-1.6222687
1443697087072676384	3.3174286	15.067413	-0.87493896
1443697087081068718	3.5734558	14.079163	0.82162476
1443697087089461052	3.863861	11.990509	0.9801483
1443697087097853386	3.516388	9.749115	0.84884644
1443697087106245720	2.959259	8.549362	0.68304443
1443697087114638054	2.002365	7.24675	0.4629364
1443697087123030388	0.026443481	6.044983	0.15327454
1443697087131422722	-1.4739532	5.7974396	0.07537842
1443697087139815056	-2.1238708	5.912491	0.07235718
1443697087148207390	-2.4503174	6.060272	-0.04396057
1443697087156599724	-2.3644104	6.1397552	-0.2655487
1443697087164992058	-2.033554	6.28125	-0.8242035
1443697087173384392	-1.8470917	6.7967987	-1.6165009
1443697087181776726	-1.5975037	7.126343	-2.0930176
1443697087190169060	-1.3250427	7.3943024	-2.495285
1443697087198561394	-0.85575867	8.233215	-3.4230194
1443697087206953728	-0.326828	8.958191	-4.0260773
1443697087215346062	0.29382324	9.537903	-3.9739532
1443697087223738396	0.5585785	9.737747	-3.4258118
1443697087232130730	0.93933105	9.8329315	-2.5028687
1443697087240523064	1.2206726	9.495819	-1.136322
1443697087248915398	0.8708191	8.869446	-0.38684082
1443697087257307732	0.53652954	8.49028	0.11595154
1443697087265700066	0.26470947	8.300079	0.35179138
1443697087274092400	0.07070923	8.312607	0.5552368
1443697087282484734	-0.034805298	8.54744	0.2607727
1443697087290877068	-0.25463867	9.09021	-0.70329285
1443697087299269402	-0.43103027	9.571259	-1.2738647
1443697087307661736	-0.59487915	10.031372	-1.7609711
1443697087316054069	-0.19015503	10.604736	-2.264511
1443697087324446403	0.52667236	11.049683	-2.502655
1443697087332838737	1.7805481	11.481628	-1.9196625
1443697087341231071	2.1526031	11.673126	-1.5598145
1443697087349623405	2.359726	11.742081	-1.1786499
1443697087358015739	2.3869934	11.475494	-0.98565674
1443697087366408073	2.492859	11.126968	-1.237915
1443697087374800407	2.3355255	11.045349	-1.3399506
1443697087383192741	2.0592194	11.124374	-1.2146454
1443697087391585075	1.3637695	11.24295	-0.69729614
1443697087399977409	0.7494354	11.242432	-0.055374146
1443697087408369743	0.37019348	11.145462	-0.49075317
1443697087416762077	0.3266449	11.198532	-1.323288
1443697087425154411	0.3160553	11.286942	-2.1841278
1443697087433546745	0.2252655	11.852676	-3.0944977
1443697087441939079	-0.17913818	12.597153	-2.5089417
1443697087450331413	-0.4265747	13.09198	-1.7338104
1443697087458723747	-0.32505798	13.259689	-1.7402344
1443697087467116081	-0.1513977	13.108215	-2.0572815
1443697087475508415	0.055038452	12.281113	-2.6773224
1443697087483900749	0.056228638	11.4938965	-2.3681946
1443697087492293083	-0.10270691	11.22406	-1.2451935
1443697087500685417	-0.3070526	11.164932	0.0040283203
1443697087509077751	-0.58992004	11.349777	1.6243286
1443697087517470085	-0.885849	11.928024	1.633606
1443697087525862419	-1.3032837	13.116272	0.05859375
1443697087534254753	-1.5901184	13.706329	-0.9911194
1443697087542647087	-1.9158783	14.230545	-1.947403
1443697087551039421	-2.9096222	14.538162	-2.2201843
1443697087559431755	-4.1015625	14.906906	-1.7171631
1443697087567824089	-4.860031	15.056183	-1.0450134
1443697087576216423	-4.7829285	14.901962	-0.46217346
1443697087584608757	-4.2425385	14.41452	0.12631226
1443697087593001091	-3.0487976	13.479126	0.3406372
1443697087601393425	-1.6706696	12.253433	0.51838684
1443697087609785759	-0.85780334	11.171814	1.11409
1443697087618178093	-0.46710205	10.322937	1.7855988
1443697087626570427	-0.10092163	9.142822	2.624466
1443697087634962761	-0.039886475	8.739914	2.5187378
1443697087643355095	-0.3005371	8.855637	1.5753784
1443697087651747429	-0.47927856	8.9817505	0.15647888
1443697087660139763	-0.62168884	9.029739	-1.285202
1443697087668532097	-0.41522217	8.47876	-2.4906464
1443697087676924431	0.016235352	8.057449	-2.0321503
1443697087685316765	-0.008377075	7.6486206	-1.326355
1443697087693709099	-0.09448242	7.4005585	-1.2421722
1443697087702101433	-0.08595276	7.1408386	-1.4235077
1443697087710493767	0.12496948	6.8260345	-1.5613861
1443697087718886101	0.4753723	6.5927277	-1.5656586
1443697087727278435	0.750824	6.3670654	-1.5449829
1443697087735670769	0.9673767	6.103607	-1.44281
1443697087744063103	0.43902588	5.542984	-1.3020782
1443697087752455437	-0.064437866	5.275589	-0.93278503
1443697087760847771	-0.07620239	4.9678802	0.47636414
1443697087769240105	-0.31718445	4.5996704	0.8085785
1443697087777632439	-0.51712036	4.2274323	1.0670471
1443697087786024773	-0.64227295	3.7769928	0.86938477
1443697087794417107	-1.3462372	3.199585	0.7501526
1443697087802809441	-1.7586823	2.9148865	1.0145264
1443697087811201775	-1.7747498	2.8294067	1.2310791
1443697087819594109	-1.7841797	2.7486725	1.6119995
1443697087827986443	-1.6687164	2.7419434	2.0812988
1443697087836378777	-1.3901825	2.7490692	2.216919
1443697087844771111	-1.2298889	2.7682495	2.2763367
1443697087853163444	-1.1386414	2.802948	2.3714447
1443697087861555778	-0.70448303	3.0128632	2.730957
1443697087869948112	-0.1846466	3.7667542	3.1818085
1443697087878340446	0.07850647	4.5914	3.4207153
1443697087886732780	0.37931824	5.5957184	3.7021484
1443697087895125114	1.1773071	8.259018	4.4038696
1443697087903517448	2.607956	12.391266	5.6266785
1443697087911909782	3.6405945	17.948257	8.110931
1443697087920302116	4.290283	22.427155	10.396179
1443697087928694450	5.3486633	23.95784	11.507233
1443697087937086784	7.02742	23.258362	11.29924
1443697087945479118	7.7348633	18.814972	8.604919
1443697087953871452	7.2279663	15.441055	7.091461
1443697087962263786	6.6303406	13.198364	6.6152954
1443697087970656120	5.759018	10.869949	6.692215
1443697087979048454	3.934723	8.323196	5.7949677
1443697087987440788	2.15654	7.4548798	6.2806854
1443697087995833122	1.579483	8.386017	5.8944855
1443697088004225456	0.8558502	9.728653	5.3922577
1443697088012617790	-1.0571442	13.618286	3.980545
1443697088021010124	-3.7922516	17.971954	1.3731995
1443697088029402458	-5.3525696	20.378906	-1.325058
1443697088037794792	-6.7714386	20.378265	-2.801117
1443697088046187126	-7.5559845	18.113312	-3.7480469
1443697088054579460	-6.828018	12.502594	-0.9103546
1443697088062971794	-5.840042	5.8362885	4.575287
1443697088071364128	-5.8200836	2.5800629	6.1760254
1443697088079756462	-6.1105347	0.83602905	6.0924835
1443697088088148796	-6.000473	0.26766968	3.6705933
1443697088096541130	-5.6879272	0.66397095	1.5148315
1443697088104933464	-3.986267	1.2536316	-1.5818024
1443697088113325798	-3.2427826	2.0960999	-3.3348389
1443697088121718132	-2.5642395	3.2847443	-5.04805
1443697088130110466	-1.9298553	5.932785	-6.521347
1443697088138502800	-0.80358887	8.242783	-7.250366
1443697088146895134	-0.36828613	9.978699	-6.567505
1443697088155287468	-0.30915833	11.340378	-5.490494
1443697088163679802	0.42546082	13.249619	-3.7011414
1443697088172072136	2.8565521	14.544601	-2.5925293
1443697088180464470	5.773941	14.046371	-3.024643
1443697088188856804	6.045685	13.578827	-2.6226807
1443697088197249138	5.4223633	13.308304	-1.8078613
1443697088205641472	4.064682	13.362686	-0.31163025
1443697088214033806	3.298706	12.967514	0.08836365
1443697088222426140	3.4847412	11.213409	-0.0079956055
1443697088230818474	3.5547943	9.954559	-0.005432129
1443697088239210808	3.5411682	8.426163	-0.025665283
1443697088247603142	2.5924225	6.402664	0.01914978
1443697088255995476	0.32737732	5.7026367	0.6118927
1443697088264387810	-1.0305176	5.521469	1.2798615
1443697088272780144	-1.7669525	5.497696	1.5883179
1443697088281172478	-2.289032	5.550827	1.3922577
1443697088289564812	-1.8346558	5.7509766	0.48420715
1443697088297957146	-1.0961456	6.1303253	-0.37416077
1443697088306349480	-0.8112488	6.5878296	-1.2471924
1443697088314741814	-0.63645935	7.052429	-2.1532593
1443697088323134148	-0.29159546	8.307083	-4.41304
1443697088331526482	0.27949524	9.427856	-5.035324
1443697088339918816	0.6343994	10.007889	-4.41214
1443697088348311150	0.6890106	10.091431	-3.384613
1443697088356703484	0.78196716	10.059509	-2.1053925
1443697088365095818	0.9072113	9.611664	-0.32218933
1443697088373488152	0.5796051	8.921112	0.7288666
1443697088381880486	0.08198547	8.402756	1.0434265
1443697088390272819	-0.098587036	8.204193	1.0048676
1443697088398665153	0.077316284	8.26358	0.7258148
1443697088407057487	0.23742676	8.733566	-0.07081604
1443697088415449821	0.39611816	9.197922	-1.2617188
1443697088423842155	0.2907257	9.34433	-2.02034
1443697088432234489	0.11399841	9.42659	-2.6603699
1443697088440626823	1.6308289	9.619629	-2.7668
1443697088449019157	2.9318695	10.108429	-2.503296
1443697088457411491	3.1760864	10.927963	-2.433792
1443697088465803825	3.4967499	11.405426	-2.3984528
1443697088474196159	3.746811	11.900467	-2.3920746
1443697088482588493	3.3412628	12.122223	-2.547577
1443697088490980827	2.0949097	11.68515	-2.592514
1443697088499373161	1.0971527	11.428635	-2.1463776
1443697088507765495	0.33244324	11.490326	-1.5673981
1443697088516157829	-0.7752533	11.629318	-0.6408844
1443697088524550163	-1.7960968	11.649612	0.13206482
1443697088532942497	-2.6661682	11.500336	0.3977661
1443697088541334831	-2.789856	11.355438	0.18183899
1443697088549727165	-2.7808685	11.216644	-0.10218811
1443697088558119499	-2.0503387	11.531387	-1.6315765
1443697088566511833	-1.1845093	11.885681	-2.6667328
1443697088574904167	-0.55400085	12.189346	-3.1108093
1443697088583296501	-0.2487793	12.026123	-3.466156
1443697088591688835	-0.060287476	11.5737	-3.7957916
1443697088600081169	-0.13148499	10.626511	-3.9767456
1443697088608473503	-0.12782288	10.037933	-3.9367676
1443697088616865837	-0.024551392	10.019623	-3.5594025
1443697088625258171	0.05706787	10.273453	-2.966278
1443697088633650505	0.32252502	11.217041	-1.245285
1443697088642042839	-0.29838562	13.026245	1.2367096
1443697088650435173	-1.568161	15.293625	2.713913
1443697088658827507	-2.1666412	16.149628	2.1099243
1443697088667219841	-2.679947	16.799637	1.2319489
1443697088675612175	-3.7921143	16.864243	-0.9545288
1443697088684004509	-5.3562164	16.39801	-1.6282959
1443697088692396843	-7.4318237	15.887039	-1.5977631
1443697088700789177	-8.322479	15.356247	-1.2353363
1443697088709181511	-8.820877	14.487488	-0.5722351
1443697088717573845	-7.291382	12.996109	0.37557983
1443697088725966179	-3.5359802	11.630569	0.590683
1443697088734358513	-1.1150665	10.781448	0.37194824
1443697088742750847	-0.029708862	10.185745	0.14447021
1443697088751143181	1.1064758	9.116013	0.6342163
1443697088759535515	1.6271362	8.39682	0.89157104
1443697088767927849	1.952774	8.441162	0.9115143
1443697088776320183	1.7533417	8.568588	0.9029541
1443697088784712517	1.5365143	8.655869	0.84573364
1443697088793104851	1.7476349	8.104919	0.009216309
1443697088801497185	1.7039032	7.4873962	-0.89341736
1443697088809889519	1.3538666	7.2963867	-1.5562439
1443697088818281853	1.0737	7.2738953	-1.4926147
1443697088826674187	0.90919495	7.1017456	-1.1994476
1443697088835066521	1.0565796	6.8184357	-0.76760864
1443697088843458855	0.54574585	6.7302094	-1.0907288
1443697088851851189	-0.2746277	6.493576	-1.7069092
1443697088860243523	-0.8529663	6.1234436	-2.2235565
1443697088868635857	-0.9855652	5.4548492	-1.8024902
1443697088877028191	-1.512497	4.1626434	-1.1262512
1443697088885420525	-0.23649597	3.8692932	0.22338867
1443697088893812859	-0.85847473	3.7545166	0.54422
1443697088902205193	-1.6273956	3.5013123	0.78811646
1443697088910597527	-2.5910797	2.0872345	0.94595337
1443697088918989861	-2.2764435	1.6508026	1.9359589
1443697088927382194	-2.4079285	1.4517822	2.8341675
1443697088935774528	-2.5402985	1.395874	3.526886
1443697088944166862	-2.4295197	1.4476929	3.9521332
1443697088952559196	-2.3979034	1.9585266	2.9920654
1443697088960951530	-1.3841705	3.1223297	3.04039
1443697088969343864	-0.41789246	4.0281982	3.7958374
1443697088977736198	-0.016906738	4.657318	4.135147
1443697088986128532	0.27000427	6.038986	3.1217499
1443697088994520866	1.0375519	7.8645325	2.55159
1443697089002913200	2.1224976	10.101028	3.256958
1443697089011305534	2.8686218	11.471832	3.8164978
1443697089019697868	3.7168427	13.001389	4.5765076
1443697089028090202	5.1028137	15.540695	6.723572
1443697089036482536	5.7167206	17.384613	8.773224
1443697089044874870	6.1743317	17.838211	9.607269
1443697089053267204	7.0797577	17.403809	9.52565
1443697089061659538	8.377304	16.093918	8.481308
1443697089070051872	8.735413	13.511124	5.4568634
1443697089078444206	7.6604004	11.727493	3.1988373
1443697089086836540	6.402817	10.607422	1.9033508
1443697089095228874	4.8274536	8.913223	1.7078094
1443697089103621208	3.4434204	7.167694	3.616333
1443697089112013542	2.6719666	6.2809296	5.4206696
1443697089120405876	2.1730957	6.7929993	4.716278
1443697089128798210	1.4545898	7.5730743	3.9515076
1443697089137190544	-1.4114075	10.467056	3.339569
1443697089145582878	-4.829651	14.264145	0.81710815
1443697089153975212	-7.8152924	17.881042	-2.5892487
1443697089162367546	-7.639221	19.894318	-2.390686
1443697089170759880	-9.671967	21.389023	-0.4915924
1443697089179152214	-9.858093	18.576172	4.6352844
1443697089187544548	-3.758194	11.382874	6.525833
1443697089195936882	-1.7066345	7.438431	4.7168274
1443697089204329216	-2.5580902	5.5851593	2.572464
1443697089212721550	-3.8481598	3.759262	0.61216736
1443697089221113884	-3.951767	2.8208466	0.23304749
1443697089229506218	-2.9711761	2.972931	-0.9773865
1443697089237898552	-2.8309937	3.8701172	-2.236374
1443697089246290886	-2.6388702	4.8997955	-3.6208649
1443697089254683220	-1.9474335	6.717499	-5.721817
1443697089263075554	-0.7617645	8.414551	-7.19223
1443697089271467888	-0.06550598	9.968414	-7.499466
1443697089279860222	0.041168213	10.893768	-6.9654694
1443697089288252556	0.60928345	11.934479	-5.830902
1443697089296644890	2.4888458	12.879272	-4.1939545
1443697089305037224	4.5485992	13.2200165	-2.6548615
1443697089313429558	4.944687	13.031616	-1.6831207
1443697089321821892	4.7204285	12.721237	-0.9762573
1443697089330214226	3.0549622	12.268173	-0.24182129
1443697089338606560	1.8262634	11.523956	0.2627716
1443697089346998894	2.1107635	10.139404	0.95396423
1443697089355391228	2.2013702	9.163284	1.1448212
1443697089363783562	1.8365326	8.14093	1.2782288
1443697089372175896	-0.5020752	6.9963837	1.0851898
1443697089380568230	-1.7675323	6.230362	0.757843
1443697089388960564	-2.1276855	5.7697754	0.48738098
1443697089397352898	-2.200943	5.6084747	0.24769592
1443697089405745232	-2.2463226	5.6081085	-0.14297485
1443697089414137566	-2.232483	5.994751	-0.7006378
1443697089422529900	-2.1834412	6.688324	-1.1906128
1443697089430922234	-1.8510437	7.151016	-1.5632172
1443697089439314568	-1.4127808	7.4973755	-1.9082947
1443697089447706902	-0.61787415	8.122299	-2.8154907
1443697089456099236	0.054763794	8.522705	-3.626175
1443697089464491569	0.41542053	8.804352	-2.9546509
1443697089472883903	0.4578247	8.880829	-2.2227325
1443697089481276237	0.4656067	8.925995	-1.338028
1443697089489668571	0.17045593	8.831558	0.120666504
1443697089498060905	-0.58576965	8.661514	0.9925232
1443697089506453239	-0.9829407	8.532394	0.6754608
1443697089514845573	-0.8338623	8.524033	0.17744446
1443697089523237907	-0.65563965	8.708542	-0.6633301
1443697089531630241	-0.361969	9.2313385	-1.3435211
1443697089540022575	0.12080383	9.945755	-1.8248291
1443697089548414909	0.42288208	10.42868	-2.228897
1443697089556807243	0.64907837	10.827103	-2.5990448
1443697089565199577	0.8244934	11.340942	-2.838745
1443697089573591911	1.0666351	11.9370575	-2.5373383
1443697089581984245	1.4653473	12.343964	-2.0282898
1443697089590376579	1.4087982	12.343323	-1.9653168
1443697089598768913	1.4242554	12.179398	-2.0260315
1443697089607161247	1.6677399	11.473541	-2.328827
1443697089615553581	1.5626984	10.831192	-2.149063
1443697089623945915	1.0228577	10.624985	-1.693985
1443697089632338249	0.65979004	10.673187	-1.2403107
1443697089640730583	0.2819519	10.803528	-0.86535645
1443697089649122917	-0.21868896	11.025009	-0.93785095
1443697089657515251	-0.55155945	11.339752	-0.8926239
1443697089665907585	-0.60617065	11.525284	-0.8470917
1443697089674299919	-0.6112976	11.670517	-0.83232117
1443697089682692253	-0.13381958	11.697861	-0.9231415
1443697089691084587	0.60398865	11.999481	-0.7849426
1443697089699476921	0.7641907	12.28952	-0.105529785
1443697089707869255	0.9916687	12.242615	0.12773132
1443697089716261589	1.2058411	12.112762	0.060684204
1443697089724653923	1.3413544	11.771408	-0.8727722
1443697089733046257	1.3779297	11.4613495	-1.6572876
1443697089741438591	1.4434052	11.253098	-1.9340973
1443697089749830925	1.5629425	11.111084	-2.151947
1443697089758223259	1.7588348	10.792618	-2.6153717
1443697089766615593	1.9093933	10.379211	-2.5197754
1443697089775007927	1.577301	9.949921	-1.0654755
1443697089783400261	1.3083344	10.09375	-0.4008484
1443697089791792595	1.0795746	10.354004	0.039978027
1443697089800184929	-0.15415955	11.669449	0.37696838
1443697089808577263	-1.2921906	13.077087	-0.26264954
1443697089816969597	-2.2012024	14.046875	-1.5236359
1443697089825361931	-2.7088623	14.243515	-1.890564
1443697089833754265	-3.5401611	14.483658	-2.1007538
1443697089842146599	-4.719116	14.765793	-1.5917816
1443697089850538933	-5.1176605	14.862167	-0.34710693
1443697089858931267	-4.8420715	14.673996	0.619751
1443697089867323601	-4.193039	14.339218	1.1929626
1443697089875715935	-2.9613647	13.5421295	1.7304382
1443697089884108269	-1.9645996	12.33786	2.045807
1443697089892500603	-1.2091675	11.281418	2.0003204
1443697089900892937	-0.5996094	10.9774475	1.6415405
1443697089909285271	-0.007965088	10.776642	1.2437744
1443697089917677605	0.8252411	10.273514	0.47065735
1443697089926069939	0.7415314	9.803375	-0.4734192
1443697089934462273	1.0933228	9.278259	-0.5406952
1443697089942854607	1.4673309	8.684494	-0.2566681
1443697089951246941	1.8816681	8.059448	-0.432312
1443697089959639275	2.2090302	7.3450165	-1.0860901
1443697089968031609	2.3087616	6.8876953	-0.84217834
1443697089976423943	2.415329	6.752182	-0.7912903
1443697089984816277	2.5329285	6.624298	-1.2154083
1443697089993208611	2.6231537	5.7341614	-2.151886
1443697090001600944	1.3673553	5.2097015	-2.563385
1443697090009993278	0.77101135	5.8538513	-1.8197327
1443697090018385612	-0.014511108	5.697983	-1.8363953
1443697090026777946	-0.8558197	5.41391	-1.9247589
1443697090035170280	-2.0118103	4.599655	-1.3275299
1443697090043562614	-3.047577	3.9502716	-0.118270874
1443697090051954948	-3.3672028	3.4691315	0.24085999
1443697090060347282	-3.3633575	3.3740082	0.5325928
1443697090068739616	-2.914444	3.394928	1.730957
1443697090077131950	-2.165985	3.4843292	3.7109222
1443697090085524284	-1.7839508	3.3648071	4.5496674
1443697090093916618	-1.3768921	3.2363281	4.716568
1443697090102308952	-1.0170441	3.1470032	4.66066
1443697090110701286	-0.47309875	3.0845947	4.0661774
1443697090119093620	-0.09913635	3.4150696	3.3503876
1443697090127485954	0.15420532	4.0724945	3.2290497
1443697090135878288	0.32336426	4.6701355	3.3654785
1443697090144270622	0.53115845	5.354965	3.52359
1443697090152662956	1.254364	7.1799774	3.8235168
1443697090161055290	2.1121063	9.489288	4.142441
1443697090169447624	2.9190063	11.767319	4.24234
1443697090177839958	3.2981567	13.249802	4.437042
1443697090186232292	3.7505646	15.304504	4.87973
1443697090194624626	3.9529724	17.472229	5.571472
1443697090203016960	4.1305237	17.580597	6.3624115
1443697090211409294	4.6873016	16.482925	6.75972
1443697090219801628	5.3151245	15.307602	6.8445435
1443697090228193962	5.282593	13.1311035	6.125839
1443697090236586296	5.0872955	10.5998535	5.205078
1443697090244978630	4.7067566	8.386032	5.136017
1443697090253370964	4.3963165	7.4615784	5.524185
1443697090261763298	3.9745026	6.5394897	5.9696503
1443697090270155632	2.6051178	5.7277374	6.487915
1443697090278547966	1.0628815	6.376831	5.540085
1443697090286940300	0.13046265	7.379944	4.146286
1443697090295332634	-1.3155212	9.1409	2.5806122
1443697090303724968	-3.7307281	12.355682	1.4958649
1443697090312117302	-5.5462036	16.107788	1.0628815
1443697090320509636	-5.926239	18.778198	0.7847595
1443697090328901970	-5.8227844	20.604462	0.7384949
1443697090337294304	-5.183777	21.550339	1.0062561
1443697090345686638	-2.0370026	17.799408	1.4683838
1443697090354078972	1.0808105	11.384354	1.6732788
1443697090362471306	1.0738525	8.455704	1.6069794
1443697090370863640	0.7033386	5.7357483	1.5020294
1443697090379255974	-1.5984192	3.1581116	1.0804901
1443697090387648308	-3.035843	1.94487	0.5405121
1443697090396040642	-3.6579285	1.7517242	0.23271179
1443697090404432976	-3.584671	2.0338287	-0.38676453
1443697090412825310	-3.205902	2.9007568	-1.652008
1443697090421217644	-2.5378113	4.5490265	-3.5818024
1443697090429609978	-2.4302826	6.3776855	-4.751251
1443697090438002312	-2.39534	7.774292	-5.0150757
1443697090446394646	-2.2089844	8.846802	-5.0073547
1443697090454786980	-1.587616	10.62558	-4.126648
1443697090463179314	0.6739807	11.993011	-2.7641144
1443697090471571648	3.4589386	12.545776	-1.4743347
1443697090479963982	3.6961212	12.746399	-1.1230164
1443697090488356316	3.7108765	12.980469	-0.90267944
1443697090496748650	2.458969	13.459274	-1.4406891
1443697090505140984	1.5607452	13.579834	-1.4729462
1443697090513533318	1.6002655	12.960922	-1.020874
1443697090521925652	1.8663025	11.946899	-0.62760925
1443697090530317986	2.0862732	10.199478	-0.12246704
1443697090538710319	1.7277985	7.995178	0.16488647
1443697090547102653	0.46948242	6.815384	0.12281799
1443697090555494987	-0.51504517	6.480057	0.38664246
1443697090563887321	-1.2251282	6.3354797	0.808197
1443697090572279655	-1.9315643	6.378998	0.6294403
1443697090580671989	-1.167984	6.2944946	0.06640625
1443697090589064323	-0.8283081	6.477356	-0.6349335
1443697090597456657	-0.83473206	6.769104	-1.0192108
1443697090605848991	-0.73384094	7.142624	-1.478653
1443697090614241325	-0.15914917	7.9756927	-2.2952118
1443697090622633659	-0.15553284	8.744293	-2.844452
1443697090631025993	-0.36210632	9.145859	-3.059555
1443697090639418327	-0.057495117	9.438248	-3.1135254
1443697090647810661	0.5547333	9.5065155	-2.8244019
1443697090656202995	1.4672394	9.146118	-1.8886719
1443697090664595329	1.332901	8.744263	-0.7855072
1443697090672987663	0.8041992	8.520615	-0.27523804
1443697090681379997	0.35437012	8.343903	0.006225586
1443697090689772331	0.1920166	8.107834	0.15048218
1443697090698164665	0.27581787	8.110764	-0.31767273
1443697090706556999	0.23591614	8.3151245	-1.3828125
1443697090714949333	-0.12779236	8.501465	-1.9733582
1443697090723341667	-0.39143372	8.8307495	-2.5595703
1443697090731734001	-0.05052185	9.748581	-3.0014496
1443697090740126335	0.77911377	10.595398	-2.9229736
1443697090748518669	1.2698059	11.120789	-2.4736633
1443697090756911003	1.3552704	11.293015	-1.9672852
1443697090765303337	1.0004883	11.295074	-1.7431183
1443697090773695671	0.75494385	11.005966	-1.736145
1443697090782088005	0.97384644	10.729904	-1.5078583
1443697090790480339	1.0511322	10.709534	-1.274353
1443697090798872673	1.0556335	10.759018	-1.0725708
1443697090807265007	0.75180054	11.155441	-0.9059906
1443697090815657341	0.3867035	11.691437	-0.76885986
1443697090824049675	0.30293274	11.865768	-0.33451843
1443697090832442009	0.2296753	11.842621	-0.067840576
1443697090840834343	0.16201782	11.673447	0.04324341
1443697090849226677	0.22047424	11.146225	-0.7628937
1443697090857619011	0.3620453	11.1901245	-2.3244781
1443697090866011345	0.26411438	11.808456	-3.1410675
1443697090874403679	0.23391724	12.596283	-3.3756256
1443697090882796013	0.21220398	13.687592	-3.3676147
1443697090891188347	0.32417297	14.300522	-3.035202
1443697090899580681	0.0010375977	13.665863	-2.411972
1443697090907973015	-0.38171387	12.673691	-1.9670868
1443697090916365349	-0.7242279	11.678299	-1.5956573
1443697090924757683	-1.0826874	10.003616	-0.86006165
1443697090933150017	-1.2775116	9.39502	-0.15948486
1443697090941542351	-1.5122528	10.075653	0.9854584
1443697090949934685	-1.7262421	10.611588	1.7238159
1443697090958327019	-2.0007935	11.430679	2.194519
1443697090966719353	-2.449356	13.145981	1.4512329
1443697090975111687	-2.698059	14.824432	-0.431839
1443697090983504021	-2.7919922	15.530746	-1.9263306
1443697090991896355	-3.063797	15.582809	-2.6608124
1443697091000288689	-3.8338013	15.159454	-3.0800781
1443697091008681023	-4.3425446	14.192978	-2.7444763
1443697091017073357	-3.882965	13.414734	-1.7428284
1443697091025465691	-3.0982208	13.050781	-1.0575867
1443697091033858025	-2.2930298	12.75647	-0.4728241
1443697091042250359	-0.22357178	11.907394	0.34057617
1443697091050642693	0.94451904	11.437042	0.50234985
1443697091059035027	1.372879	10.9478	0.61206055
1443697091067427361	1.4878998	10.487061	0.65190125
1443697091075819694	1.4921875	10.021072	0.5928345
1443697091084212028	0.84176636	9.626389	0.5394745
1443697091092604362	-0.6067047	9.256149	0.7872162
1443697091100996696	-1.4385834	8.769318	0.7070923
1443697091109389030	-1.5259705	8.313705	0.42948914
1443697091117781364	-1.5709381	7.719589	-0.28735352
1443697091126173698	-1.1195679	7.1678467	-0.6948242
1443697091134566032	-0.87654114	6.8374023	-0.60643005
1443697091142958366	-0.91511536	6.641968	-0.63246155
1443697091151350700	-0.9832306	6.4613953	-0.6909485
1443697091159743034	-0.40385437	6.6871796	-0.9516449
1443697091168135368	-0.007904053	6.893753	-1.0965576
1443697091176527702	-0.7686157	6.782074	-0.6513519
1443697091184920036	-1.1586761	5.9871674	-0.95980835
1443697091193312370	-1.0061035	5.193344	-0.9970398
1443697091201704704	0.09013367	5.1763306	0.025131226
1443697091210097038	-0.5145416	5.396576	0.7961273
1443697091218489372	-1.6990356	4.4735565	0.5942383
1443697091226881706	-1.9663544	3.413269	0.51649475
1443697091235274040	-1.6669617	2.604248	0.7519531
1443697091243666374	-1.6499786	2.364273	1.4264679
1443697091252058708	-1.8795166	2.3480225	1.5807648
1443697091260451042	-1.5907135	2.5518188	2.1881409
1443697091268843376	-1.2030029	2.7901611	2.91185
1443697091277235710	0.16125488	3.341385	4.816864
1443697091285628044	0.27252197	3.8873596	3.9906616
1443697091294020378	0.7737732	4.6503754	3.6520386
1443697091302412712	1.1381378	5.229355	4.0588074
1443697091310805046	1.6750641	6.2403717	4.432602
1443697091319197380	2.5349426	8.227692	4.8568115
1443697091327589714	3.5517883	10.741562	5.1345673
1443697091335982048	4.1331024	12.750671	5.046097
1443697091344374382	4.323944	14.255646	4.884796
1443697091352766716	4.4505005	16.34822	5.490158
1443697091361159050	4.983032	17.579102	6.453491
1443697091369551384	5.841446	17.27446	6.2714233
1443697091377943718	5.980301	16.36023	5.321823
1443697091386336052	6.0094147	15.284683	4.267517
1443697091394728386	5.3666687	12.363113	2.5611725
1443697091403120720	5.079132	9.5894165	2.4661407
1443697091411513054	4.9176636	7.5883484	3.5815887
1443697091419905388	4.7403107	6.430374	4.4259796
1443697091428297722	4.7102814	4.870514	5.6321106
1443697091436690056	4.661392	2.9473267	6.428421
1443697091445082390	3.8872223	2.0503845	5.6963654
1443697091453474724	2.7221985	1.806839	4.535187
1443697091461867058	-0.20368958	3.0723877	2.6033325
1443697091470259392	-3.319336	6.456497	0.6376953
1443697091478651726	-6.0799866	11.484711	-1.8316193
1443697091487044060	-7.2005157	15.055222	-2.9401855
1443697091495436394	-8.145889	18.571747	-3.7047577
1443697091503828728	-9.39769	26.010773	0.7456207
1443697091512221062	-8.190445	27.848724	6.5662537
1443697091520613396	-1.2110443	21.454239	7.795212
1443697091529005730	1.769989	16.372528	5.2646484
1443697091537398064	2.4391632	11.152298	2.5722198
1443697091545790398	-0.24909973	6.7671814	0.05456543
1443697091554182732	-1.8301849	4.1043396	-1.0269623
1443697091562575066	-2.3879242	2.755127	-0.9121704
1443697091570967400	-2.591629	2.064972	-0.5413971
1443697091579359734	-3.1036377	1.5087433	-0.73373413
1443697091587752068	-3.2871552	1.6414337	-1.8645172
1443697091596144402	-2.375946	2.9000854	-4.028427
1443697091604536736	-1.7189178	4.1444397	-5.4076233
1443697091612929069	-1.1386108	5.47171	-6.6278687
1443697091621321403	-1.1387482	8.070328	-6.494812
1443697091629713737	-0.83877563	10.594986	-5.443741
1443697091638106071	-0.36247253	12.742538	-4.2140045
1443697091646498405	0.21008301	13.75592	-3.4795074
1443697091654890739	0.8628235	15.051422	-2.6914673
1443697091663283073	0.9183502	16.166016	-1.2286072
1443697091671675407	0.5669708	15.475082	1.1261749
1443697091680067741	0.4210205	13.8871155	2.141037
1443697091688460075	0.22695923	12.337799	2.216858
1443697091696852409	-0.087249756	9.603195	1.3891907
1443697091705244743	-0.9455261	7.549164	0.65127563
1443697091713637077	-2.5199585	6.332489	0.14881897
1443697091722029411	-2.4003296	5.889099	-0.53523254
1443697091730421745	-2.259201	5.4946136	-1.2983246
1443697091738814079	-2.4437103	5.372177	-2.4701996
1443697091747206413	-2.3851013	5.6012726	-2.6103516
1443697091755598747	-1.6929169	6.087738	-2.5701294
1443697091763991081	-1.3324127	6.637802	-2.5714111
1443697091772383415	-0.4263153	7.516464	-2.7772675
1443697091780775749	0.8220825	8.872757	-3.28302
1443697091789168083	1.5937042	10.116653	-3.374588
1443697091797560417	1.6366119	10.640091	-3.1064758
1443697091805952751	1.3660889	10.856003	-2.8185883
1443697091814345085	1.472702	10.509003	-1.9892731
1443697091822737419	1.9794159	9.773331	-1.2973633
1443697091831129753	1.5506134	9.264252	-0.70710754
1443697091839522087	0.9864044	9.204498	-0.4295044
1443697091847914421	0.43733215	9.144821	-0.19017029
1443697091856306755	0.0765686	9.122025	-0.2773285
1443697091864699089	0.056625366	9.219284	-0.59420776
1443697091873091423	-0.09329224	9.227158	-0.64089966
1443697091881483757	-0.38375854	9.144257	-0.78419495
1443697091889876091	-0.57525635	9.002182	-1.0856171
1443697091898268425	-0.8664398	8.842178	-1.4168701
1443697091906660759	-0.98332214	8.865402	-1.4720001
1443697091915053093	-0.9194641	9.104416	-1.4185333
1443697091923445427	-0.86483765	9.399384	-1.3613434
1443697091931837761	-0.9402466	10.301697	-0.9236908
1443697091940230095	-1.1912994	11.367722	-0.29486084
1443697091948622429	-1.0531616	11.705093	-0.06616211
1443697091957014763	-0.6354675	11.434555	-0.2287445
1443697091965407097	-0.103271484	11.032227	-0.46220398
1443697091973799431	0.91825867	10.01474	-0.9647064
1443697091982191765	1.7595367	9.091309	-1.1134644
1443697091990584099	2.2117767	8.602692	-0.9350128
1443697091998976433	2.2580414	8.4066925	-0.8469696
1443697092007368767	2.1192474	8.318039	-0.88243103
1443697092015761101	1.6856232	8.566223	-0.9121399
1443697092024153435	1.4432526	9.236511	-0.9024048
1443697092032545769	1.1546631	9.790009	-0.7881012
1443697092040938103	0.7967224	10.252045	-0.62745667
1443697092049330437	0.4572296	11.02626	-0.81529236
1443697092057722771	0.14479065	11.532654	-1.6966858
1443697092066115105	-0.45843506	12.139908	-2.0253906
1443697092074507439	-0.8806305	12.490784	-1.8062592
1443697092082899773	-1.1885223	12.870865	-1.7852325
1443697092091292107	-1.068161	13.155655	-2.6710663
1443697092099684441	-0.9202118	12.647476	-3.5788422
1443697092108076775	-0.7957306	11.872345	-3.428009
1443697092116469109	-0.7102661	11.440521	-2.9242096
1443697092124861443	-0.4747467	11.3476715	-1.9259644
1443697092133253777	-0.18922424	11.929474	-0.76075745
1443697092141646111	-0.048721313	12.833664	-0.021377563
1443697092150038444	-0.22973633	13.407303	0.2319336
1443697092158430778	-0.49449158	13.86998	0.37652588
1443697092166823112	-1.632019	14.4362335	0.09460449
1443697092175215446	-2.6423187	14.287384	-1.315979
1443697092183607780	-3.561432	13.685379	-2.0608063
1443697092192000114	-4.3100586	13.4534	-1.9611969
1443697092200392448	-5.1649475	13.173859	-1.6995392
1443697092208784782	-5.916336	12.676224	-0.8694153
1443697092217177116	-5.2691193	12.01442	0.27778625
1443697092225569450	-4.2689667	11.550949	1.2514496
1443697092233961784	-3.7882996	11.326675	1.7655334
1443697092242354118	-3.1888428	10.876694	2.1224976
1443697092250746452	-2.546585	10.208939	1.782135
1443697092259138786	-1.4682465	9.299866	0.997406
1443697092267531120	-0.99180603	9.053864	0.36550903
1443697092275923454	-0.7026367	8.988312	-0.2160492
1443697092284315788	-0.4043274	9.309082	-1.0701752
1443697092292708122	0.23158264	9.323013	-1.538559
1443697092301100456	1.4140015	9.091263	-1.5677338
1443697092309492790	1.9364471	8.651718	-1.6679688
1443697092317885124	2.4162445	8.125412	-1.7560425
1443697092326277458	2.4444427	7.6591187	-1.6302185
1443697092334669792	1.8874664	7.722763	-1.2929688
1443697092343062126	1.4230804	7.757004	-1.0288849
1443697092351454460	0.9989624	7.715866	-0.67352295
1443697092359846794	0.4967804	7.528366	-0.37304688
1443697092368239128	-0.32131958	6.916748	-0.70336914
1443697092376631462	-0.83724976	6.219513	-1.351532
1443697092385023796	-0.9534149	6.2445984	-0.79377747
1443697092393416130	-1.0170441	6.4039764	-0.002746582
1443697092401808464	-1.9457397	5.680359	0.16519165
1443697092410200798	-2.1376495	4.3931427	0.17512512
1443697092418593132	-2.2206879	3.7414398	0.93040466
1443697092426985466	-2.2393188	3.461914	1.1983795
1443697092435377800	-2.1533356	3.123932	1.4578094
1443697092443770134	-1.8845825	2.886917	2.1012115
1443697092452162468	-1.3453827	2.9468079	3.0471344
1443697092460554802	-0.7611542	2.994339	3.33844
1443697092468947136	-0.47262573	3.0804443	3.3795776
1443697092477339470	-0.17506409	3.374649	3.2461243
1443697092485731804	-0.09788513	4.095291	2.8394623
1443697092494124138	0.08732605	5.200424	2.500351
1443697092502516472	0.2903595	6.0315094	2.5885162
1443697092510908806	0.49665833	6.831238	2.7395172
1443697092519301140	1.2095947	8.767609	3.3545532
1443697092527693474	2.1519318	10.857071	3.8116608
1443697092536085808	2.746338	12.182114	4.209427
1443697092544478142	3.5428162	14.013397	4.7707825
1443697092552870476	4.6153564	17.173935	5.793747
1443697092561262810	5.1727905	19.435165	7.103409
1443697092569655144	5.682556	19.276215	7.914459
1443697092578047478	6.318741	18.111832	7.9890137
1443697092586439812	6.830597	15.557053	6.9005585
1443697092594832146	6.0637665	12.385513	5.2418213
1443697092603224480	5.1440887	9.6783905	4.3919373
1443697092611616814	5.0482635	8.196732	4.266968
1443697092620009148	5.0861664	6.921158	4.234848
1443697092628401482	4.4980774	4.5328064	5.214279
1443697092636793816	3.7388763	2.978012	5.967041
1443697092645186150	2.5872192	2.9367676	4.535492
1443697092653578484	1.3579254	3.6777039	2.6802979
1443697092661970818	-0.51638794	5.119995	0.86569214
1443697092670363152	-3.4598236	8.207764	-0.9077606
1443697092678755486	-5.746643	11.987503	-3.2702332
1443697092687147819	-6.9524536	15.323105	-4.5128937
1443697092695540153	-7.482605	17.890305	-4.2558594
1443697092703932487	-9.560806	22.611649	0.26364136
1443697092712324821	-9.083862	23.437607	6.1636353
1443697092720717155	-0.98353577	16.888199	9.759918
1443697092729109489	0.6938324	13.519775	7.296692
1443697092737501823	1.2401886	10.7582245	4.021591
1443697092745894157	-0.6982727	7.659683	-1.6555939
1443697092754286491	-0.8732147	5.0332947	-2.98172
1443697092762678825	-1.5914459	3.7783813	-1.4906769
1443697092771071159	-2.052826	3.4840698	-1.0453491
1443697092779463493	-2.281479	3.3093872	-1.451767
1443697092787855827	-1.9821472	3.7066956	-3.7263489
1443697092796248161	-1.3717651	4.932144	-6.109009
1443697092804640495	-0.9710083	6.031967	-7.0410156
1443697092813032829	-0.84184265	6.77417	-7.171463
1443697092821425163	-1.0667267	8.272324	-6.6234283
1443697092829817497	-0.4517517	10.373657	-5.188965
1443697092838209831	0.76200867	12.510605	-3.3187408
1443697092846602165	0.5344391	13.548935	-2.0342255
1443697092854994499	0.23573303	14.448273	-0.75642395
1443697092863386833	0.9831238	14.488113	1.299469
1443697092871779167	1.007431	13.133942	2.3871918
1443697092880171501	0.71014404	11.353241	2.5046997
1443697092888563835	0.35736084	10.20105	2.3556213
1443697092896956169	-0.11392212	8.816757	1.8487244
1443697092905348503	-0.87690735	7.391159	0.8045349
1443697092913740837	-1.4451294	6.6310425	-0.096466064
1443697092922133171	-1.556076	6.364044	-0.5700226
1443697092930525505	-1.5509338	6.2393646	-0.84698486
1443697092938917839	-1.4825592	6.1951904	-1.0956879
1443697092947310173	-1.2962799	6.2622223	-0.8667908
1443697092955702507	-1.4719391	6.8139496	-0.7664337
1443697092964094841	-1.1648865	7.2059784	-1.076004
1443697092972487175	-0.8027954	7.6616516	-1.4714966
1443697092980879509	-0.1509552	8.802246	-2.4469147
1443697092989271843	0.41532898	9.576279	-2.8105164
1443697092997664177	0.56692505	10.030563	-2.6157837
1443697093006056511	0.5913391	10.096115	-2.156311
1443697093014448845	0.6460571	9.985565	-1.4369202
1443697093022841179	0.6222992	9.465668	-0.67604065
1443697093031233513	0.49604797	8.720551	-0.42829895
1443697093039625847	0.2876892	8.282471	-0.42507935
1443697093048018181	0.028717041	8.033783	-0.4649353
1443697093056410515	-0.04084778	7.9423523	-0.3530426
1443697093064802849	-0.28393555	8.205368	-0.23054504
1443697093073195183	-0.44844055	8.712006	-0.2672882
1443697093081587517	-0.16983032	9.007538	-0.50553894
1443697093089979851	0.08534241	9.34996	-0.8265228
1443697093098372185	0.21669006	9.999588	-1.670929
1443697093106764519	0.56622314	10.4934845	-2.2481537
1443697093115156853	0.52993774	10.800446	-2.3831787
1443697093123549187	0.09425354	10.88205	-2.4442291
1443697093131941521	-0.082611084	10.977951	-2.718216
1443697093140333855	0.38224792	10.960236	-3.1106567
1443697093148726189	0.89520264	10.694809	-2.774292
1443697093157118523	0.9222107	10.592209	-2.1597748
1443697093165510857	0.7956238	10.6076355	-1.6026306
1443697093173903191	0.57492065	10.741882	-1.0228882
1443697093182295525	0.7996979	10.608322	-0.87942505
1443697093190687859	0.8909302	10.571808	-0.519577
1443697093199080193	0.7926178	10.558304	-0.25674438
1443697093207472527	0.71902466	10.535461	-0.11958313
1443697093215864861	0.7552643	10.594879	-0.6438141
1443697093224257194	0.67907715	11.227554	-1.2330933
1443697093232649528	0.5019226	12.013367	-1.7715607
1443697093241041862	0.38174438	12.492752	-2.2162323
1443697093249434196	0.010009766	12.888382	-2.7420502
1443697093257826530	-0.657074	12.780441	-3.007248
1443697093266218864	-1.3734741	12.280853	-2.7024689
1443697093274611198	-1.6381836	11.7617035	-2.2816467
1443697093283003532	-1.7217255	11.252762	-1.8845215
1443697093291395866	-1.9381561	10.592255	-1.3742676
1443697093299788200	-2.3849335	10.333298	-0.9516144
1443697093308180534	-2.7831268	10.8359375	-0.5915375
1443697093316572868	-3.0735931	11.232422	-0.1378479
1443697093324965202	-3.3488922	11.660141	0.25361633
1443697093333357536	-3.5147552	12.289566	0.07499695
1443697093341749870	-3.6077118	13.2079315	-1.1588593
1443697093350142204	-3.7067566	13.845001	-2.2890625
1443697093358534538	-3.6450653	13.8437195	-2.74852
1443697093366926872	-3.4480896	13.623016	-2.995926
1443697093375319206	-2.9487915	13.112839	-2.5192719
1443697093383711540	-2.2673492	12.475159	-1.2890015
1443697093392103874	-1.8129883	12.156235	-0.44734192
1443697093400496208	-1.4428558	11.951248	0.20425415
1443697093408888542	-1.0234833	11.784607	0.6360016
1443697093417280876	-0.7533417	11.762756	0.54104614
1443697093425673210	-0.31913757	11.303177	0.32331848
1443697093434065544	0.113342285	10.718399	0.33680725
1443697093442457878	0.45057678	10.035507	0.28544617
1443697093450850212	0.24694824	9.194214	-0.15760803
1443697093459242546	-0.4146881	8.807419	-0.7245636
1443697093467634880	-0.67866516	8.511505	-0.68652344
1443697093476027214	-0.5951233	8.133011	-0.4975891
1443697093484419548	-0.50634766	7.675644	-0.22640991
1443697093492811882	-0.52508545	7.4719086	-0.38381958
1443697093501204216	-0.7247009	7.653946	-0.61032104
1443697093509596550	-0.92836	7.70932	-0.59820557
1443697093517988884	-1.1204987	7.7080383	-0.54229736
1443697093526381218	-0.8961334	7.8306885	0.026657104
1443697093534773552	-1.0868378	7.782089	0.1642456
1443697093543165886	-1.1475372	7.448517	0.11657715
1443697093551558220	-0.8712158	6.9697723	-0.13853455
1443697093559950554	-0.618042	6.5823517	-0.3875122
1443697093568342888	-0.6839752	6.309677	-0.4756012
1443697093576735222	-0.8695984	5.6180725	-0.20405579
1443697093585127556	-0.59729004	4.967087	0.12207031
1443697093593519890	-0.41285706	4.6258698	0.38104248
1443697093601912224	-0.51882935	4.2167053	0.84062195
1443697093610304558	-0.8491821	3.8477478	1.54599
1443697093618696892	-0.8559265	3.5181122	2.0482635
1443697093627089226	-0.7072754	3.4113617	2.1648865
1443697093635481560	-0.54919434	3.351593	2.2175903
1443697093643873894	-0.19584656	3.5191956	2.2906494
1443697093652266228	0.10848999	3.7381287	2.3460846
1443697093660658562	0.30374146	3.981186	2.4028778
1443697093669050896	0.31144714	4.2125244	2.4048004
1443697093677443230	0.33465576	4.601959	2.47406
1443697093685835564	0.41679382	5.439575	2.780838
1443697093694227898	0.67167664	6.5848083	3.2479095
1443697093702620232	1.0587921	7.6195984	3.6423798
1443697093711012566	1.4160919	8.375305	3.9489136
1443697093719404900	2.0391998	9.893997	4.4829865
1443697093727797234	3.0146484	12.154846	4.99765
1443697093736189568	4.0232086	15.141327	5.431534
1443697093744581902	4.5330048	16.963928	5.685425
1443697093752974236	4.9648438	18.574951	5.911621
1443697093761366569	5.971466	19.499985	6.5391846
1443697093769758903	7.671768	17.211426	5.8371887
1443697093778151237	6.8759613	14.087875	4.6191254
1443697093786543571	5.700638	12.451813	4.3460236
1443697093794935905	4.6072235	10.4832	4.383026
1443697093803328239	3.8613586	7.9788055	5.085968
1443697093811720573	3.1403503	5.8021545	5.695633
1443697093820112907	2.3526459	4.7151337	5.8293915
1443697093828505241	1.7241821	4.3417816	5.7542114
1443697093836897575	0.8071289	4.6570435	5.076538
1443697093845289909	-0.58283997	6.2825165	3.865631
1443697093853682243	-1.4569702	8.003372	2.982193
1443697093862074577	-2.2024078	9.678635	2.1834412
1443697093870466911	-3.3762054	13.802673	-0.16934204
1443697093878859245	-4.290497	18.567963	-3.932251
1443697093887251579	-4.178665	21.978882	-5.4719696
1443697093895643913	-4.401001	22.089401	-4.805588
1443697093904036247	-4.627762	21.212814	-3.3568726
1443697093912428581	-3.799881	16.835083	0.9211731
1443697093920820915	-1.2974243	9.526276	5.610153
1443697093929213249	-0.73353577	4.929596	6.93132
1443697093937605583	-1.9043427	3.707367	6.7019043
1443697093945997917	-3.2113647	2.5375977	3.624771
1443697093954390251	-4.015213	2.3652496	-0.31532288
1443697093962782585	-3.1238556	2.726654	-1.7369232
1443697093971174919	-2.8039703	3.2727509	-1.8272552
1443697093979567253	-2.632187	3.8443298	-1.8054352
1443697093987959587	-2.5063782	5.3946686	-2.922226
1443697093996351921	-1.3455658	7.2234955	-4.9924774
1443697094004744255	0.081100464	9.299194	-6.750046
1443697094013136589	0.54634094	10.552902	-7.255127
1443697094021528923	1.1188202	12.289154	-7.2478485
