linearaccelerometer_timestamp	linearaccelerometer_x_data	linearaccelerometer_y_data	linearaccelerometer_z_data
1443697074704748367	-1.6761191	3.196824	-0.89144003
1443697074709783767	-0.6645343	2.6581173	-0.23542881
1443697074715002273	-0.68844575	2.593009	-0.3087392
1443697074719854568	0.025283813	2.5156374	0.5374865
1443697074724920486	-0.013191164	2.4568577	0.45647454
1443697074729955887	0.38381726	2.333109	1.2570907
1443697074735143875	0.3332702	2.2805805	1.1640958
1443697074740453933	0.7367294	1.8200331	2.0570922
1443697074745245193	0.6779355	1.7805872	1.9555292
1443697074755193924	0.586774	1.3917055	2.0642726
1443697074760165386	0.7002938	1.1596794	1.3711098
1443697074765353374	0.6270368	1.1372557	1.2817906
1443697074770205669	0.26348	1.1131201	0.23826554
1443697074775271587	0.1960015	1.0936928	0.17817959
1443697074780306988	-0.8178977	1.112072	-0.62960094
1443697074785342388	-0.8667826	1.0941305	-0.666016
1443697074791384868	-1.2342271	0.6593323	-1.1800516
1443697074795535259	-1.2643669	0.649951	-1.1935695
1443697074805697613	-0.76100457	-0.004998207	-1.5539728
1443697074810519390	-0.13670962	-0.52455044	-1.4089782
1443697074816775493	0.2630995	-0.6983013	-1.4451734
1443697074820712261	0.20763448	-0.6824894	-1.4527818
1443697074826113872	0.7229554	-0.92854595	-1.392003
1443697074830783062	0.6514887	-0.907176	-1.4079521
1443697074836154155	0.80924964	-1.3144884	-1.0120784
1443697074842959575	0.71470374	-1.2827015	-1.0517653
1443697074849246196	0.4743685	-1.5214834	-0.4333955
1443697074855868511	0.21333736	-1.713192	-0.28929704
1443697074860873394	0.15918505	-1.6770458	-0.32769245
1443697074865878277	-0.29057068	-1.7994261	-0.060972035
1443697074870944195	-1.3392208	-1.8117266	0.37922847
1443697074876742534	-1.36747	-1.7729149	0.32429314
1443697074881014995	-1.3797294	-1.7378397	0.28435802
1443697074886050396	-1.7470368	-1.747344	0.33737075
1443697074891879253	-1.7583442	-1.7109795	0.28985882
1443697074896121196	-1.9591025	-1.942893	0.22124207
1443697074899478130	-1.94926	-1.9090204	0.19744682
1443697074906191997	-1.9384819	-2.301506	-0.014612079
1443697074911227398	-2.0330753	-2.7711782	-0.09515011
1443697074916262798	-2.0280857	-2.725451	-0.11344385
1443697074921267681	-2.0213718	-2.6812305	-0.12707388
1443697074930331402	-2.1504884	-3.1185994	-0.01140368
1443697074931307964	-2.1235642	-3.0740733	-0.012222409
1443697074936404400	-2.1022713	-3.4345946	0.39674556
1443697074942263775	-2.0891833	-3.384964	0.39230525
1443697074946505718	-1.9876628	-3.611742	0.90529215
1443697074956729107	-1.8408101	-3.6475134	1.2179848
1443697074961581402	-1.8208219	-3.5996494	1.2139778
1443697074966647320	-1.8751075	-3.4051318	1.8013539
1443697074971804790	-1.8510497	-3.3627973	1.7963225
1443697074977328472	-1.6460733	-3.1585937	1.6713395
1443697074981692486	-1.3800542	-2.8275356	1.4068749
1443697074986727886	-1.3574331	-2.7962022	1.4172225
1443697074993167095	-1.335486	-2.1870532	1.2747244
1443697074996981792	-1.3122067	-2.1641097	1.2850382
1443697075000186138	-1.2898741	-2.1408262	1.2920145
1443697075006900005	-1.3152461	-1.2774873	1.2341001
1443697075017764263	-1.086437	-0.18482447	1.3035401
1443697075018679790	-1.0698832	-0.1839242	1.2947179
1443697075027224712	-0.43678033	1.0495973	1.6744341
1443697075032077007	0.31296974	2.8910594	2.5032408
1443697075037203960	0.33057535	2.8485456	2.5115921
1443697075042636089	1.6509054	4.970015	3.4510753
1443697075047335796	1.6528461	4.9042974	3.4391685
1443697075051058941	3.0184915	6.957872	4.609606
1443697075057406597	3.0117288	6.869054	4.580633
1443697075062258892	4.161636	8.924724	5.4962835
1443697075067324810	4.131797	8.817259	5.4376297
1443697075072360210	4.7414775	10.303002	5.9838247
1443697075078189068	4.6996965	10.183957	5.9024215
1443697075082431011	4.983656	10.252395	5.6520305
1443697075087435894	4.9275856	10.139256	5.560233
1443697075092898540	4.6357107	8.519882	4.367324
1443697075097537212	4.05759	5.7171164	2.7627108
1443697075105410747	3.985478	5.6683607	2.6712332
1443697075112796001	3.6441288	2.6484747	2.2932186
1443697075117648296	3.5791364	2.6302328	2.2320206
1443697075122866802	3.6578257	0.09578133	3.0675907
1443697075128756695	3.4533153	-1.7307377	4.2097683
1443697075132785015	3.3932374	-1.701374	4.1357226
1443697075137789898	2.9513068	-2.8187094	4.5313997
1443697075143649273	2.8907871	-2.7722435	4.44119
1443697075147891216	2.8408935	-2.730977	4.3647156
1443697075159274273	0.25423515	-0.4145651	1.9465756
1443697075162997417	0.23880792	-0.4038973	1.9133172
1443697075168734722	-1.967733	2.540184	0.23732758
1443697075173190288	-1.9603677	2.5149717	0.23911
1443697075178103618	-4.5248284	6.0136585	-3.4565704
1443697075183139019	-4.485051	5.944605	-3.392579
1443697075194338970	-7.2943525	9.160281	-7.8823013
1443697075195315532	-7.2170687	9.063889	-7.792528
1443697075201754741	-9.297237	9.685051	-7.9963775
1443697075208316021	-8.996669	7.597286	-3.9583614
1443697075213351421	-8.874811	7.508919	-3.8792057
1443697075218356304	-7.1476293	3.651431	2.3952317
1443697075223544292	-7.0486608	3.609498	2.3864694
1443697075229067974	-3.4104116	-1.3648176	6.4611607
1443697075233676128	-3.369557	-1.3509083	6.392438
1443697075238558941	-1.0752901	-4.8685102	5.5568104
1443697075243594341	-1.0797431	-4.8181562	5.4943967
1443697075248599224	-1.4531962	-6.251624	1.1597536
1443697075252108745	-1.4564512	-6.190933	1.1520073
1443697075258670025	-3.2237031	-6.3165245	-1.9658957
1443697075263705425	-3.205013	-6.2604456	-1.925811
1443697075268740825	-4.016269	-6.0203056	-3.4242342
1443697075273959331	-3.9648395	-5.9713535	-3.3619123
1443697075279299907	-3.6731632	-5.6827135	-4.371085
1443697075283999614	-3.6050546	-5.638036	-4.300536
1443697075288882427	-3.1680667	-5.0083857	-5.3719444
1443697075293917827	-3.0879924	-4.9715033	-5.285628
1443697075298953228	-2.6530213	-3.448617	-6.793531
1443697075302462749	-2.5902646	-3.4237156	-6.6990876
1443697075309176616	-1.7312186	-1.5965796	-7.6027226
1443697075315127544	-1.6448973	-1.5932875	-7.4610043
1443697075319216900	-0.818537	-0.19779968	-7.3633366
1443697075325381450	0.26732183	1.1911983	-7.4799657
1443697075330142193	0.32576382	1.1746044	-7.3414364
1443697075334811382	2.339064	3.1438208	-7.6995792
1443697075339205913	2.3815706	3.1134844	-7.5643125
1443697075344515972	2.4412668	3.0849466	-7.4182935
1443697075349459820	4.5638943	5.332327	-5.9633656
1443697075364840679	7.587032	7.6477594	0.3398857
1443697075369631939	7.5936775	7.586609	0.37677193
1443697075374453716	7.2152553	5.767354	1.8991343
1443697075379397564	7.2181425	5.722619	1.9224423
1443697075384524517	7.216529	5.6780987	1.9499044
1443697075389743023	5.3296356	2.9886808	2.3615975
1443697075395083599	3.0598853	0.4036913	1.9882942
1443697075399813823	3.0704312	0.4037056	2.0206769
1443697075409854107	0.9032888	-1.4814377	1.8648303
1443697075414767437	-0.15845186	-2.5623827	1.9434222
1443697075419955425	-0.14644784	-2.538042	1.9882891
1443697075424838238	-0.14147669	-2.5141973	2.0309381
1443697075429904155	0.04863131	-3.2809353	0.6609707
1443697075434909038	-0.34117514	-3.7448463	-0.77063173
1443697075440066509	-0.34990722	-3.7107449	-0.69389457
1443697075445620708	-0.5241014	-3.8101883	-1.0069561
1443697075453097515	-0.94594896	-3.2483482	-1.146163
1443697075460269146	-0.95161784	-3.2128315	-1.0316681
1443697075465121441	-1.4803622	-1.9988832	-1.1765172
1443697075470339946	-1.4695785	-1.9742432	-1.094115
1443697075475192241	-1.6981211	-0.9172659	-0.8102864
1443697075480288677	-1.6767614	-0.90032864	-0.7386805
1443697075485232525	-1.3760498	0.09952831	-0.5228386
1443697075491213970	-1.1437274	1.0362577	-0.6249969
1443697075496157818	-1.1145668	1.0393829	-0.5631634
1443697075501193218	-0.8215573	1.7556953	-0.19823635
1443697075503726177	-0.8019226	1.7484236	-0.16860533
1443697075511202984	-0.4368778	2.0010738	0.9836427
1443697075515444927	-0.40686655	1.9968338	1.0197302
1443697075520663433	-0.09096801	1.8099947	2.1907196
1443697075525668316	-0.053043723	1.809	2.2173162
1443697075531375103	0.28513134	1.410594	2.5872145
1443697075540866070	0.5627463	1.0834646	2.203346
1443697075542025738	0.5680181	1.0781574	2.194408
1443697075545840435	0.5952871	1.0792398	2.2021663
1443697075550662212	0.8023485	0.96409416	1.6306952
1443697075554080181	0.824118	0.96528816	1.6400777
1443697075560794048	1.2902344	0.9843693	1.3352954
1443697075565707378	1.5516591	1.0085812	0.6615453
1443697075570834331	1.5808163	1.0142584	0.6884768
1443697075576022320	1.6099086	1.0201149	0.71498775
1443697075581423931	1.8687397	1.0931444	-0.20837283
1443697075586093120	1.8926657	1.097415	-0.17994618
1443697075590975933	2.0947037	1.2557144	-0.85061383
1443697075596041851	2.121869	1.2604237	-0.8162272
1443697075601046734	2.3175397	1.7440863	-1.0135107
1443697075604403667	2.3311024	1.7412329	-0.98824406
1443697075611300640	2.5885024	2.6495647	-0.5303788
1443697075616152935	2.615665	2.6453056	-0.5016129
1443697075621218853	2.5047228	3.5721655	0.17015338
1443697075629092388	2.5570679	3.8618631	0.7717891
1443697075636447124	2.6028843	3.856534	0.8017366
1443697075641513042	2.6849442	3.4414425	1.0685656
1443697075646395855	2.7021394	3.4307232	1.0836163
1443697075651400738	2.922044	2.7459269	0.96735835
1443697075654940777	2.9226398	2.735073	0.9750881
1443697075661654644	3.232294	2.1846495	0.9737103
1443697075666842632	3.2344284	2.1789036	0.9827142
1443697075671694927	3.3485603	2.161827	1.1463013
1443697075676669292	3.3914006	2.4741688	1.4036145
1443697075681643657	3.3882287	2.462286	1.3972082
1443697075686679058	3.2827826	2.5616932	1.7917783
1443697075691683941	3.2798562	2.548149	1.7790287
1443697075697360210	3.0969024	2.6517735	1.957597
1443697075701937847	3.0920315	2.6357555	1.9388969
1443697075706210308	2.9050689	2.8714209	1.3397253
1443697075716006450	2.9664984	3.53658	0.48102403
1443697075717562847	2.951469	3.5135374	0.47527552
1443697075721896343	2.981359	4.296894	-0.09180355
1443697075726931743	2.9751987	4.268778	-0.10156083
1443697075732791118	2.9702725	4.2397556	-0.1165328
1443697075737002544	2.9601307	4.2101088	-0.13070202
1443697075742190532	2.9833398	4.55898	-0.72907805
1443697075747561626	2.8239117	4.237893	-0.9301472
1443697075752291851	2.8069777	4.202923	-0.9571271
1443697075762362652	2.298052	3.4090433	-0.89540887
1443697075767245464	1.3117796	2.5328312	-0.12530398
1443697075772463970	1.2815092	2.4998407	-0.18477416
1443697075777316265	0.49267542	1.8603868	0.53554237
1443697075782382183	0.45688105	1.8288994	0.46087193
1443697075787387066	-0.3765527	1.0818529	0.58967674
1443697075792544536	-0.41349912	1.0543699	0.5062878
1443697075803683452	-2.419598	0.5667038	0.80877435
1443697075805575542	-2.4250083	0.5547352	0.76739
1443697075812716655	-2.4889848	0.5203304	0.62130964
1443697075817568950	-3.101845	0.9938164	1.0624449
1443697075823916607	-3.1702516	2.0253973	1.1480244
1443697075827639751	-3.1975021	1.9989195	1.057955
1443697075833529644	-2.8894782	3.3810616	0.5660228
1443697075837710552	-2.9278665	3.347065	0.46745956
1443697075842898540	-2.7562902	3.9956331	-0.23614556
1443697075848727398	-2.819695	3.956997	-0.36346868
1443697075856387310	-2.4653578	3.6908426	-1.1409829
1443697075862918071	-2.465682	3.133627	-1.6355373
1443697075867922954	-2.5084248	3.1096468	-1.7234248
1443697075872988872	-2.442317	2.4962854	-1.6402017
1443697075878176861	-2.4782536	2.4789095	-1.7252176
1443697075883670025	-1.5101008	2.114316	-1.5127959
1443697075890261821	-1.5601193	2.1014175	-1.6137176
1443697075898318462	-0.3728714	2.040206	-1.203858
1443697075903201275	0.29095587	1.8642988	-0.096164644
1443697075906527691	0.25630376	1.8545475	-0.14223456
1443697075913302593	0.5050404	1.1759634	1.0893888
1443697075918276958	0.44721472	1.1721821	1.0162723
1443697075923312359	0.3790715	0.17607784	1.5549984
1443697075928530864	0.31351623	0.18008041	1.4749246
1443697075933901958	0.38061127	-0.70569515	1.1398451
1443697075938632183	0.31669322	-0.69534206	1.0696609
1443697075943453960	-0.30856764	-1.2457294	0.2772051
1443697075948397808	-1.3238384	-1.3164082	-0.80479825
1443697075953524761	-1.3846861	-1.3003082	-0.8615854
1443697075963717632	-1.704968	-1.2083693	-2.2418866
1443697075968630962	-1.7555135	-1.1927471	-2.2775877
1443697075977908306	-1.0155903	-1.3631754	-3.3134694
1443697075983920269	-0.52448696	-1.5194206	-3.5245028
1443697075989718609	0.06008327	-1.943183	-2.9370313
1443697075999575786	0.1435563	-2.378295	-2.420795
1443697076003878765	0.094543695	-2.3566055	-2.437405
1443697076007388286	0.05506569	-2.3361797	-2.4497714
1443697076014132671	-0.19153947	-2.5210009	-2.2084856
1443697076018984966	-0.82294554	-2.7465343	-2.487503
1443697076024172954	-0.8717685	-2.7185001	-2.51792
1443697076029055767	-1.2943006	-3.0030165	-2.5495377
1443697076034091167	-1.3334407	-2.9738379	-2.5784318
1443697076039157085	-1.7455934	-3.1305237	-2.5213966
1443697076044345073	-1.777527	-3.1004887	-2.5511355
1443697076049685650	-2.4014761	-3.0191603	-2.2465696
1443697076054415874	-2.421276	-2.9910307	-2.2740488
1443697076065707378	-2.8839111	-2.9340277	-2.1793814
1443697076074526958	-3.0785732	-3.076437	-1.7555367
1443697076079409771	-3.0275095	-3.3266153	-1.213088
1443697076084506206	-3.0333366	-3.2979708	-1.2428021
1443697076089511089	-2.8438396	-3.498949	-0.67313814
1443697076094668560	-2.8464098	-3.4708004	-0.70126534
1443697076100375347	-2.5935798	-3.609373	-0.42626238
1443697076104739361	-2.590743	-3.5837135	-0.446146
1443697076114810161	-2.5080786	-3.596305	0.23964047
1443697076119723491	-2.0126262	-3.7871752	0.68527794
1443697076124911480	-2.0062246	-3.7635555	0.66793036
1443697076129794292	-1.9184963	-3.8580217	1.0998721
1443697076134829693	-1.9096516	-3.8363752	1.0878308
1443697076139865093	-1.9899135	-3.907855	1.2300899
1443697076145053081	-1.9776928	-3.8887787	1.2264576
1443697076153872661	-1.6751149	-3.3831692	0.6182761
1443697076156069927	-1.6644524	-3.367797	0.6210277
1443697076158297710	-1.6545453	-3.3527756	0.62521315
1443697076166354351	-1.5206695	-2.5370512	0.16419506
1443697076170077495	-1.5076027	-2.5299377	0.18319416
1443697076175814800	-1.1242996	-1.5759172	-0.05974126
1443697076180148296	-1.1129678	-1.5756941	-0.03101778
1443697076185519390	-0.30476582	-0.41448689	-0.1421001
1443697076190371685	-0.29497635	-0.42150307	-0.10743117
1443697076195223980	0.67876446	0.79051304	0.45351005
1443697076200259380	0.68589604	0.77735424	0.48588955
1443697076205325298	1.541673	2.0849628	1.5091288
1443697076208834820	1.5427434	2.0690289	1.5221263
1443697076215365581	2.0608854	3.5746183	2.5330038
1443697076220400982	2.0649996	3.550908	2.54069
1443697076225436382	2.7768555	5.2858076	3.1762528
1443697076230502300	2.7780337	5.2562532	3.1693935
1443697076241671734	3.1197226	6.991454	4.089223
1443697076250765972	3.5550063	8.013391	4.749859
1443697076255648784	4.0002728	7.823141	4.665495
1443697076265750103	4.109549	6.0948973	3.4581916
1443697076270754986	4.0757265	6.079481	3.3915823
1443697076276004009	3.502997	3.3313227	2.1727293
1443697076280978374	3.4701717	3.3311672	2.1092026
1443697076286563091	2.806139	0.4806261	1.8932707
1443697076290896587	2.7783852	0.4925747	1.8392475
1443697076296115093	2.7194963	-2.042344	2.4208465
1443697076301486187	2.26023	-4.1734266	2.750427
1443697076306002788	2.2392511	-4.1398783	2.6956055
1443697076316256695	1.2823	-5.47843	2.4923382
1443697076322360210	-0.33946133	-5.683565	1.9187708
1443697076328555279	-0.34224927	-5.6470213	1.8807895
1443697076336398296	-1.7940335	-4.762987	0.88546014
1443697076341677837	-3.1271863	-2.9368267	-0.5701835
1443697076346469097	-3.1113887	-2.9303102	-0.5463624
1443697076351290874	-3.8723292	-0.27424145	-2.162115
1443697076356539898	-3.8499112	-0.28842735	-2.1053383
1443697076359713726	-3.829667	-0.29745007	-2.0633655
1443697076366641216	-4.940001	2.6043968	-3.0619652
1443697076371493511	-6.2305155	5.874283	-4.1906223
1443697076376681499	-6.1830163	5.8234577	-4.0942087
1443697076381564312	-6.7313256	9.822821	-5.114546
1443697076386630230	-6.670479	9.753351	-5.0070705
1443697076391635113	-6.159618	12.799771	-4.1257296
1443697076396792583	-6.0886297	12.718985	-4.0251465
1443697076402529888	-4.5298715	12.373904	-1.3147819
1443697076406863384	-4.469292	12.304469	-1.2583699
1443697076416873150	-0.9352793	7.9514484	1.4507279
1443697076421847515	0.94270945	2.9609556	3.881733
1443697076427035503	0.95386934	2.9494715	3.8498917
1443697076431887798	1.5531874	-2.0160627	3.1059315
1443697076436953716	1.5341926	-1.9998484	3.060257
1443697076441989116	-0.5075204	-5.082567	0.90629923
1443697076447177105	-0.5334736	-5.0533266	0.8802322
1443697076452487163	-1.7204554	-6.8170357	-1.4773431
1443697076457247905	-1.7347027	-6.7860737	-1.4669625
1443697076467349224	-2.8096318	-8.162035	-2.2006288
1443697076472171001	-3.5753121	-8.261403	-1.6926647
1443697076477389507	-3.5549622	-8.231605	-1.6563754
1443697076482272320	-3.3435717	-7.098629	-2.342308
1443697076487368755	-3.3052328	-7.076173	-2.298417
1443697076492312603	-2.5201802	-5.323805	-3.9332256
1443697076498995952	-1.9451714	-2.6721258	-5.9073687
1443697076506137066	-0.49410048	-0.44839478	-8.115697
1443697076508059673	-0.47340724	-0.45127106	-8.057628
1443697076510775738	-0.44410855	-0.45619774	-7.988104
1443697076518099956	0.9011729	1.4248304	-9.24613
1443697076522555523	0.9476329	1.407917	-9.138675
1443697076527499370	2.015821	3.2338352	-8.072857
1443697076532778911	2.0694678	3.2097788	-7.9572067
1443697076538424663	2.9946775	5.245797	-4.5298734
1443697076542697124	2.9235036	6.80151	-1.1058667
1443697076547702007	2.9732451	6.7677765	-1.0437198
1443697076553286724	3.0302818	6.7350416	-0.98371035
1443697076557803325	2.1972356	6.653017	1.3811146
1443697076561312847	2.2308102	6.623501	1.4048383
1443697076567874126	1.7116568	3.517273	2.6600842
1443697076572909527	1.754457	3.501192	2.6900616
1443697076577914409	1.1300836	0.22806644	2.9168131
1443697076582980327	0.002676636	-1.5411043	2.4207954
1443697076594058208	0.041505367	-1.5381632	2.526283
1443697076603274517	-1.6210643	-2.290434	1.8610575
1443697076608126812	-1.374261	-3.037981	0.5536317
1443697076618197613	-1.1690497	-3.7640467	-0.35846302
1443697076623263530	-1.1240504	-3.962348	-1.1335177
1443697076628451519	-1.1383328	-3.94596	-1.0541034
1443697076633334331	-1.1512457	-3.9290342	-0.97897875
1443697076638430767	-0.91130877	-3.4218082	-1.2160561
1443697076643557720	-0.92004484	-3.4056845	-1.1384745
1443697076648440532	-0.568388	-2.7255144	-1.2015086
1443697076653506450	-0.23303883	-1.8485241	-0.89662296
1443697076658511333	-0.22778897	-1.8373852	-0.8306823
1443697076661990337	-0.22183488	-1.827178	-0.785184
1443697076668582134	0.31827992	-0.80354786	-0.7865323
1443697076674197368	0.33884424	-0.7948885	-0.7213404
1443697076680850200	1.0996634	0.17226505	-0.65063524
1443697076688845806	1.6189353	0.91400623	-0.6028536
1443697076693667583	1.9266906	1.1383858	-0.3611608
1443697076698916607	1.9595356	1.1413107	-0.3058995
1443697076704684429	2.2744231	0.8845949	0.06610465
1443697076709048443	2.3026893	0.8881216	0.10960078
1443697076712222271	2.3210695	0.8898754	0.1404978
1443697076719088726	2.5103626	0.2617941	0.3984182
1443697076724002056	2.8157172	-0.48005676	0.48434436
1443697076729159527	2.8462925	-0.46876526	0.5311332
1443697076734011821	2.2483873	-0.94057655	0.55389833
1443697076739108257	2.2778792	-0.9273138	0.59812665
1443697076744113140	1.3118856	-1.125123	0.59734523
1443697076749301128	1.3445851	-1.1107254	0.6398536
1443697076754672222	1.049326	-1.1650391	0.79799175
1443697076759371929	1.0787616	-1.1513119	0.8329421
1443697076769168071	0.68646884	-0.9427147	0.9013531
1443697076774325542	0.23369938	-0.48891926	0.86914206
1443697076779513530	0.26710314	-0.4764309	0.90484786
1443697076784365825	-0.005107641	0.21372986	0.585343
1443697076789431743	0.027418494	0.22386932	0.62199104
1443697076794467144	0.31900513	0.9028702	0.25116313
1443697076799655132	0.35009098	0.91131115	0.2909478
1443697076805178814	0.45991802	1.5334167	-0.41736674
1443697076809573345	0.4844942	1.5381212	-0.380898
1443697076819827251	0.41564155	2.0594215	-0.78971004
1443697076824649029	0.49977922	2.5287323	-0.699455
1443697076829623394	0.52926946	2.531928	-0.6595602
1443697076834902935	-0.040700793	3.1033087	-0.3734975
1443697076841067486	-0.05641699	3.364913	0.22212243
1443697076850344829	0.5953541	3.2251368	0.42567706
1443697076857180767	0.6363716	3.2290773	0.46173906
1443697076863436870	1.2365111	2.683714	0.38147044
1443697076870028667	1.8778632	2.0148478	0.7774308
1443697076875033550	1.8970338	2.0165548	0.7935388
1443697076880038433	2.265458	1.6739902	1.1340091
1443697076885256939	2.2826173	1.675292	1.1421866
1443697076890719585	2.3856564	1.7223368	1.5719688
1443697076895327739	2.4000492	1.7207289	1.5692368
1443697076900210552	2.1590328	1.9855127	2.189606
1443697076905245952	2.1772914	1.9816294	2.1772718
1443697076910281353	1.9656358	2.3967304	2.704114
1443697076913638286	1.9738169	2.3894577	2.6895015
1443697076920352154	2.0842242	2.3796282	2.7599366
1443697076925357036	2.191681	2.3808374	2.134488
1443697076930392437	2.1986592	2.373353	2.1206648
1443697076935458355	2.2039871	2.3655567	2.1066394
1443697076944613628	2.7394977	2.5462809	1.1446061
1443697076950564556	3.27742	3.1046	0.55387187
1443697076955630474	3.27907	3.0927515	0.5391264
1443697076960635357	3.849701	3.660122	0.6887989
1443697076970706157	3.9480038	3.6952467	1.0244129
1443697076975741558	3.9467652	3.6778927	0.9930656
1443697076980776958	3.53975	3.3252926	0.6317613
1443697076985964946	3.5361788	3.3059835	0.58919764
1443697076991336040	3.0708556	2.9355907	0.1234777
1443697076995974712	3.0622377	2.9156685	0.076880336
1443697077000918560	2.79257	2.4919128	-0.003213048
1443697077006869488	2.3597343	1.760273	0.117102265
1443697077010958843	2.342512	1.7418852	0.061855912
1443697077021243267	1.9069799	0.8027382	-0.030863881
1443697077032046489	1.3759983	0.20483398	-0.18147421
1443697077032962017	1.3643066	0.2004528	-0.19791198
1443697077041354351	0.97317946	0.10807514	0.670982
1443697077046237163	0.17988515	0.6285925	1.9692419
1443697077051394634	0.12358856	0.6052809	1.8439893
1443697077057162456	-1.0347056	1.8528805	1.8401
1443697077061495952	-1.0841261	1.8308773	1.7283206
1443697077071566753	-1.9492081	3.3638391	0.53091735
1443697077076449566	-1.9897211	4.3428106	-0.88039345
1443697077081637554	-2.0498633	4.317048	-1.0049605
1443697077086489849	-2.1280112	4.3334303	-1.8431083
1443697077091586284	-2.185731	4.311908	-1.9560149
1443697077096591167	-2.2407591	4.2924023	-2.0629895
1443697077101779155	-2.6904135	3.6188536	-2.1023524
1443697077107180767	-3.0334294	2.7001333	-1.7170366
1443697077111849956	-3.074566	2.6910486	-1.8076179
1443697077119509868	-2.8712132	2.004758	-1.1345024
1443697077126773052	-1.8699274	1.8414612	-0.5278444
1443697077131808452	-1.9187737	1.8391762	-0.6137558
1443697077136996441	-0.7979202	1.3762598	0.4556663
1443697077143008404	-0.8692783	1.3781004	0.35669
1443697077146914654	-0.24817921	0.6687937	0.8422859
1443697077151950054	-0.023537591	-0.2017641	1.0647826
1443697077158114605	-0.10987714	-0.19145203	0.9689981
1443697077162203960	-0.16807568	-0.1836214	0.90564096
1443697077172030620	-0.8874348	-0.44032955	0.25025058
1443697077177127056	-0.81938523	-0.5484705	-0.48758006
1443697077183200054	-0.7327298	-0.58821106	-0.72019005
1443697077187380962	-0.79415107	-0.5769882	-0.7630112
1443697077192507915	-0.6485076	-0.5577383	-1.5414948
1443697077197451763	-0.7249534	-0.54488564	-1.5794791
1443697077208499126	0.09164357	-1.0016212	-2.1754208
1443697077209445171	0.0760746	-0.9962177	-2.1739726
1443697077215945415	0.6278623	-1.875123	-1.7880124
1443697077222476177	1.3992128	-2.5857134	-1.7460715
1443697077227511577	1.3105397	-2.5641851	-1.7654138
1443697077232516460	1.8258612	-2.9544334	-2.5269332
1443697077237704448	1.7339045	-2.9294996	-2.5450048
1443697077243197613	2.2677135	-3.0511513	-3.3659923
1443697077247805767	2.18814	-3.0270672	-3.3760543
1443697077252688579	1.9277757	-3.1393738	-3.8657155
1443697077257723980	1.8485606	-3.1133518	-3.8752542
1443697077262728863	0.498981	-2.8594208	-3.5702994
1443697077266268902	0.4514047	-2.8389225	-3.5752473
1443697077272830181	-1.075181	-2.7828465	-3.30578
1443697077277835064	-1.1219926	-2.758335	-3.3248096
1443697077282900982	-1.9997417	-3.4460888	-3.659194
1443697077288088970	-2.0300937	-3.419713	-3.6853342
1443697077297244243	-2.281197	-4.073368	-3.3809774
1443697077298251323	-2.2785778	-4.0576105	-3.3781855
1443697077303012066	-2.4884605	-4.539999	-2.4440882
1443697077308200054	-2.498495	-4.5121965	-2.4782097
1443697077313113384	-2.925978	-4.8113785	-1.8291395
1443697077316470318	-2.923092	-4.788375	-1.8502097
1443697077323336773	-2.7292066	-4.960285	-1.580549
1443697077328219585	-2.7218463	-4.935584	-1.6108327
1443697077333285503	-3.1114674	-4.8872356	-0.73095846
1443697077338351421	-3.0953736	-4.8658714	-0.7570565
1443697077344332866	-3.460393	-4.7431374	-0.16258788
1443697077349429302	-3.6415782	-4.5029316	0.18624401
1443697077353518657	-3.617875	-4.4883566	0.17454791
1443697077359164409	-4.652189	-4.0747538	1.0341768
1443697077363345318	-4.624378	-4.063586	1.0270891
1443697077366976909	-4.598317	-4.052821	1.0227418
1443697077373538189	-4.50394	-3.9394197	0.6951115
1443697077378604107	-4.2833624	-3.768155	0.032515764
1443697077383731060	-4.2561197	-3.7634563	0.04910946
1443697077388613872	-3.8709931	-3.307705	-0.28132677
1443697077394320659	-3.850275	-3.308034	-0.24596763
1443697077398684673	-3.4129524	-2.5028486	-0.27323794
1443697077403903179	-3.3988922	-2.5065327	-0.22977138
1443697077409609966	-2.657579	-1.2260962	0.1814847
1443697077413973980	-2.646371	-1.2325916	0.2211287
1443697077424349956	-1.5169114	0.08495045	1.0104058
1443697077428897075	-0.24663591	2.1220436	1.8672451
1443697077434115581	1.5798331	4.384305	2.5328546
1443697077438967876	1.5896504	4.3603354	2.562842
1443697077444705181	1.6048974	4.3352156	2.5951762
1443697077449038677	3.2208147	6.840914	3.348034
1443697077454257183	3.231662	6.810339	3.3693042
1443697077459933452	4.4612837	8.769897	5.093015
1443697077464175396	4.992067	9.201463	6.6944013
1443697077467501812	4.9890733	9.170711	6.679469
1443697077474429302	4.9957895	9.140483	6.6552176
1443697077479281597	5.689401	8.012001	6.9199095
1443697077484469585	5.6801133	7.9925623	6.87129
1443697077489321880	5.875442	5.833746	5.534277
1443697077494448833	5.851984	5.827015	5.4735184
1443697077499423198	5.7637863	2.889081	3.6547232
1443697077504641704	5.190131	0.28778553	2.363936
1443697077510317974	5.150131	0.30407524	2.3033886
1443697077514529400	5.1143837	0.31613064	2.2586718
1443697077525851421	3.352973	-3.1660461	2.2007346
1443697077529605083	3.3238087	-3.1459255	2.1672695
1443697077535311870	2.3305964	-3.8072271	2.4105995
1443697077539675884	2.3058047	-3.7854328	2.3778327
1443697077544680767	1.3371153	-2.918353	1.1238151
1443697077553103618	1.310515	-2.8969793	1.0914617
1443697077560000591	-0.47978282	-0.24027634	-0.74215436
1443697077564883404	-0.48546278	-0.2391243	-0.7365315
1443697077568392925	-2.6651378	3.0645485	-1.9613433
1443697077574984722	-5.155211	6.471511	-3.7420301
1443697077579989605	-5.133007	6.441162	-3.6950045
1443697077584994488	-7.188613	9.152643	-6.52788
1443697077590182476	-7.1462913	9.108174	-6.4564934
1443697077595584087	-8.157234	10.186418	-6.757721
1443697077600314312	-8.101477	10.138801	-6.6874094
1443697077605166607	-9.544322	8.821636	-2.80001
1443697077610232525	-9.47696	8.780847	-2.7533896
1443697077615237407	-7.021565	4.7767677	2.6842363
1443697077618746929	-6.976738	4.7569675	2.68709
1443697077625308208	-3.46505	-0.5162325	7.2663183
1443697077630343609	-2.3109455	-4.690177	6.5264893
1443697077635379009	-2.3105469	-4.670104	6.4827995
1443697077640414409	-2.3217616	-4.649439	6.443954
1443697077646273784	-3.502388	-6.17025	1.5816414
1443697077650637798	-3.513678	-6.1495867	1.5774739
1443697077655520611	-5.5428786	-6.34828	-2.274298
1443697077660556011	-5.5436625	-6.334463	-2.2394679
1443697077665591411	-5.652017	-7.007882	-3.4639916
1443697077669100933	-5.633903	-6.996664	-3.4171698
1443697077675814800	-5.4244213	-7.059515	-3.9280233
1443697077681704693	-5.383767	-7.057761	-3.847165
1443697077685916118	-4.7268558	-6.0099506	-5.0622325
1443697077691775493	-4.162741	-4.234005	-6.9406004
1443697077701296978	-3.2299013	-2.239133	-8.969965
1443697077705874614	-3.1710367	-2.2503023	-8.874131
1443697077711154155	-1.5113606	-0.7609415	-9.170233
1443697077715945415	-1.4505248	-0.7766838	-9.059274
1443697077726138286	-0.24751133	0.43639755	-8.347904
1443697077731051616	0.8123828	2.1063566	-7.0166006
1443697077736239605	0.88098013	2.0867758	-6.9071565
1443697077741122417	2.8098469	4.0443316	-4.697144
1443697077746188335	4.9654317	5.4284363	-2.1493726
1443697077751193218	5.0276384	5.4047585	-2.0701282
1443697077756228618	5.090004	5.38264	-1.9977067
1443697077765536480	6.334048	5.548044	0.021732837
1443697077776522808	5.8701916	4.4295597	1.1634351
1443697077781375103	4.4429326	2.3715744	0.82085323
1443697077786593609	2.8889391	0.26589966	0.63431334
1443697077791476421	2.9265523	0.2640419	0.6847074
1443697077797274761	2.9644792	0.26247597	0.7490336
1443697077801547222	1.3297192	-1.4339781	0.3758162
1443697077806735210	1.350542	-1.4300308	0.43858394
1443697077812014751	-0.22751196	-2.3372507	0.3560583
1443697077816806011	-1.3920505	-2.8348675	0.345148
1443697077820010357	-1.3831521	-2.8264713	0.3837294
1443697077826907329	-0.83875155	-3.1843338	-0.7189591
1443697077831759624	-0.83683205	-3.1738577	-0.6557406
1443697077836947613	-0.8376715	-3.1627846	-0.58636165
1443697077841830425	-0.95947486	-3.2922182	-0.9245477
1443697077853366070	-0.78096545	-3.178894	-0.34785533
1443697077858035259	-1.1474999	-2.2635546	-0.195719
1443697077862094097	-1.1437209	-2.252904	-0.13535392
1443697077867434673	-1.1982411	-1.4050493	-0.19532967
1443697077870333843	-1.1905956	-1.397479	-0.1533364
1443697077877871685	-1.0739173	-0.524086	-0.34919018
1443697077882083111	-1.056046	-0.51639175	-0.29193437
1443697077887301616	-0.6933671	0.24366856	-0.63767385
1443697077892337017	-0.6650508	0.25130558	-0.572615
1443697077897860698	-0.032751232	0.77090263	-0.82321537
1443697077902377300	-0.0032788515	0.7769928	-0.76735795
1443697077907290630	0.4010941	1.0704136	-0.47526872
1443697077912295513	0.43730268	1.0770149	-0.41949296
1443697077917361431	0.29901227	0.7556448	0.47957778
1443697077920870952	0.3260871	0.76040363	0.5130725
1443697077927462749	0.3653746	0.26847267	1.4093465
1443697077932467632	0.40552467	0.27663994	1.4449633
1443697077940188579	0.6216685	-0.12976837	1.9544144
1443697077947543316	0.75844073	-0.44315052	2.3082762
1443697077952578716	0.7966582	-0.43412304	2.3294687
1443697077957644634	0.72212255	-0.6366615	2.5136065
1443697077963442974	0.7648146	-0.6266928	2.5321903
1443697077967715435	0.7747517	-0.5796976	1.9437443
1443697077971041851	0.7973843	-0.5735626	1.9516083
1443697077977755718	0.7956489	-0.22478199	0.97545755
1443697077982821636	0.8305646	-0.2164793	0.9943758
1443697077988040142	0.94289947	0.6542778	0.24188972
1443697077993045025	0.977235	0.66166115	0.2677133
1443697077997958355	1.0744272	1.582593	-0.30666542
1443697078002963238	1.1092585	1.5893059	-0.27362812
1443697078008120708	1.5896374	2.2749872	-0.68485403
1443697078013491802	1.6273006	2.2824106	-0.64417565
1443697078018222027	1.948426	2.4225464	-0.93406296
1443697078028079204	2.1969225	2.238389	-0.6491089
1443697078033816509	2.1406598	2.1023579	0.069190025
1443697078039248638	2.1848502	2.1125145	0.1050272
1443697078043612652	2.222305	2.233778	1.015935
1443697078048403911	2.2617369	2.241166	1.0393689
1443697078053286724	2.6262472	2.3308058	1.1921992
1443697078058505230	2.6668377	2.337654	1.2103634
1443697078064334087	3.1027465	2.0700722	1.1028421
1443697078068545513	3.1283345	2.0729733	1.110146
1443697078078646831	3.0394328	2.0822763	1.253382
1443697078083499126	3.12436	2.3070984	1.6564345
1443697078088717632	3.14381	2.3061218	1.6519995
1443697078093569927	3.154315	2.424181	2.0608566
1443697078098666363	3.1687398	2.4204369	2.0487425
1443697078103671245	2.9004714	2.4168863	2.0316777
1443697078108828716	2.912091	2.4113674	2.0146062
1443697078114230327	2.8355193	2.40757	1.3950946
1443697078118930034	2.8422267	2.4008274	1.3780293
1443697078129000835	2.964951	2.7897758	0.8359301
1443697078133883648	3.0490084	3.628295	0.60607123
1443697078139071636	3.0498214	3.6152754	0.5807998
1443697078143832378	3.1982226	4.130678	0.5301552
1443697078148989849	3.1964707	4.11436	0.49712658
1443697078154025249	2.916459	4.120286	0.23738933
1443697078159182720	2.909621	4.1001167	0.19077706
1443697078164706402	2.4496074	3.6332197	-0.36550343
1443697078169284038	1.8879809	2.6416426	-0.46073353
1443697078172457866	1.8745949	2.6253777	-0.5004147
1443697078179324321	1.8432949	2.59554	-0.5961335
1443697078184237652	1.1302252	1.2820873	-0.3470508
1443697078189334087	1.0961162	1.2587843	-0.4316541
1443697078196536236	0.329785	0.1578455	-0.32248843
1443697078200900249	-0.39342475	-0.22505283	0.10390353
1443697078204348736	-0.42408228	-0.23960972	0.031344533
1443697078210543804	-0.9074428	0.14181805	1.4674139
1443697078215060405	-0.9538107	0.12191486	1.3552556
1443697078220278911	-1.5405586	1.3253613	2.3490422
1443697078222842388	-1.5676497	1.3118925	2.276166
1443697078229678325	-2.0075712	2.9099817	1.7181195
1443697078234561138	-2.0698454	2.8867884	1.5780585
1443697078239627056	-2.0923982	4.101918	0.098033726
1443697078244815044	-2.16328	4.0797386	-0.045480654
1443697078250338726	-2.3906653	4.6159067	-1.7148149
1443697078254885845	-2.452468	4.598547	-1.8289336
1443697078259738140	-2.5173438	4.582861	-1.9453917
1443697078264804058	-2.3059268	4.168103	-2.368063
1443697078269839458	-1.5808296	3.5295238	-2.2005405
1443697078285250835	-1.1200359	2.7938032	-1.6871011
1443697078289981060	-0.37747106	2.2024965	-0.3491524
1443697078295138530	-0.4403775	2.2036629	-0.44754
1443697078300509624	0.29037493	1.9422731	0.74750006
1443697078305239849	0.2261654	1.9450855	0.66312444
1443697078310122661	0.55149937	1.6073895	1.4556862
1443697078315219097	0.47399768	1.6128502	1.3726876
1443697078320193462	0.87464964	0.9861307	1.5409112
1443697078330386333	1.1285411	0.64890957	0.46999335
1443697078335269146	1.0419352	0.65915966	0.40688074
1443697078340518169	1.2852253	0.12101269	-0.48185074
1443697078345523052	1.1933941	0.13446045	-0.5385215
1443697078350314312	0.08706272	-0.3379593	-1.480709
1443697078355624370	-0.68577415	-0.5532112	-2.6534562
1443697078360446148	-0.7660134	-0.53785515	-2.6910312
1443697078372897320	-0.24841356	-1.5435534	-2.451056
1443697078373843364	-0.26201797	-1.5372887	-2.4514208
1443697078380801372	-0.3253528	-2.5161762	-2.4252968
1443697078385867290	0.09951103	-3.068635	-2.9579995
1443697078390872173	0.025791049	-3.044919	-2.9871702
1443697078395632915	0.18390548	-3.2781305	-3.1800401
1443697078400820904	0.10855508	-3.2523994	-3.2082973
1443697078405795269	-0.48071098	-3.5054836	-3.5022864
1443697078410983257	-0.5492966	-3.4790535	-3.5277908
1443697078416354351	-0.8656676	-3.7515554	-3.4735267
1443697078421084575	-0.919817	-3.7260695	-3.4970236
1443697078431124859	-1.274568	-3.9064827	-3.3752
1443697078435977154	-1.9476544	-3.8552656	-2.6843984
1443697078441226177	-1.9908069	-3.8278065	-2.716329
1443697078446047954	-2.8664007	-3.8894444	-2.5650334
1443697078451174907	-2.8969383	-3.8632593	-2.597378
1443697078459963970	-3.3053052	-4.0666637	-2.6396296
1443697078461245708	-3.3039985	-4.053463	-2.642874
1443697078466220073	-3.4331112	-4.4177904	-2.048613
1443697078471255474	-3.444954	-4.3941517	-2.0781357
1443697078474612407	-3.5499187	-4.7290926	-1.3617458
1443697078481417827	-3.5611656	-4.702816	-1.3990765
1443697078486361675	-3.801612	-4.9660797	-0.61365867
1443697078491549663	-3.8012857	-4.9455233	-0.63794994
1443697078496432476	-3.5243587	-5.2983093	-0.5021
1443697078501467876	-3.519105	-5.280616	-0.5179095
1443697078506533794	-3.344593	-5.239855	0.074258804
1443697078511660747	-3.3354354	-5.2263155	0.06772971
1443697078517184429	-3.295043	-5.0454636	0.59894705
1443697078521792583	-3.0156941	-5.036274	0.51058865
1443697078524935894	-3.0043845	-5.026986	0.513638
1443697078531619243	-2.9869995	-5.021311	0.5245383
1443697078536715679	-2.753099	-5.0124826	0.2532215
1443697078542819195	-2.7673888	-4.7034254	0.0558815
1443697078546969585	-2.7521524	-4.701024	0.07799983
1443697078552310161	-2.4800954	-3.8553486	0.032413483
1443697078556857280	-2.4645123	-3.857463	0.06361818
1443697078562075786	-2.099871	-2.6520452	-0.042484045
1443697078567385845	-2.0827746	-2.6611166	0.0038583279
1443697078571932964	-2.0668058	-2.668826	0.046890497
1443697078575473003	-1.3923514	-1.2762156	0.39877963
1443697078582003765	-0.38427377	0.28330135	1.01561
1443697078587069683	-0.36513734	0.2657318	1.0674112
1443697078592105083	0.95481765	2.565278	1.6217535
1443697078597109966	2.3854058	5.64907	2.675955
1443697078602664165	2.4126644	5.618621	2.7216742
1443697078607211284	2.437457	5.5922127	2.7532642
1443697078612246685	2.468512	5.565651	2.7820349
1443697078618106060	4.7706394	8.950835	4.1970224
1443697078622286968	6.8515015	11.40127	5.725952
1443697078632357769	7.701235	11.404606	6.224598
1443697078637423687	8.248552	8.789543	5.2394114
1443697078642459087	8.247402	8.773129	5.2017784
1443697078647463970	8.234036	8.761678	5.151249
1443697078653018169	7.846215	4.8993273	4.1312113
1443697078657717876	7.809413	4.9041996	4.0692196
1443697078662600689	7.1509204	1.0425234	3.3666131
1443697078672396831	5.4808927	-2.040309	3.0181055
1443697078673312359	5.461545	-2.031517	3.0001996
1443697078675997905	3.768712	-4.3256197	2.6931636
1443697078682894878	3.711841	-4.2844086	2.6058311
1443697078687777691	3.6746411	-4.253766	2.54567
1443697078692996196	2.031948	-4.7314425	2.417918
1443697078697940044	2.011469	-4.704851	2.3694592
1443697078703707866	0.5150237	-2.9395971	0.7425785
1443697078709048443	-1.0705363	0.3449955	-1.1142404
1443697078713046245	-1.0654258	0.34632874	-1.1203098
1443697078718417339	-2.4218917	4.6319704	-2.8730433
1443697078723025493	-2.4042048	4.616061	-2.8561769
1443697078726565532	-2.3892999	4.5997906	-2.8360925
1443697078733248882	-4.758751	8.960352	-6.668787
1443697078738223247	-6.7786603	12.089425	-10.625669
1443697078743350200	-6.7343664	12.043318	-10.552824
1443697078748171978	-8.861799	12.175895	-8.777006
1443697078753268413	-8.803182	12.127891	-8.703115
1443697078758242779	-10.069887	9.102834	-3.25533
1443697078763461284	-10.006449	9.067481	-3.2127428
1443697078769168071	-7.4494014	3.7380552	6.746477
1443697078773532085	-7.410641	3.7280846	6.726157
1443697078783602886	-3.615432	-3.0884857	12.065302
1443697078789096050	-2.2946715	-7.834448	7.021538
1443697078793704204	-4.7868314	-8.690605	-1.2492142
1443697078798556499	-4.822599	-8.660242	-1.2635674
1443697078803652935	-4.85454	-8.637072	-1.2534828
1443697078808627300	-6.7185974	-7.7937107	-3.7042077
1443697078813815288	-6.711188	-7.787794	-3.6523945
1443697078819125347	-6.1474886	-7.459749	-3.1104872
1443697078823886089	-6.103859	-7.4603453	-3.0582807
1443697078833956890	-5.2631316	-7.2601376	-3.9048457
1443697078841983013	-4.901856	-6.080203	-5.673164
1443697078843844585	-4.863758	-6.0758324	-5.6392097
1443697078849063091	-4.1842613	-3.8036814	-7.7152348
1443697078854403667	-4.0873494	-3.8223314	-7.6187334
1443697078858950786	-3.020632	-1.802144	-8.658505
1443697078864016704	-2.9289598	-1.824378	-8.543631
1443697078870028667	-1.4317063	0.25610638	-8.627019
1443697078873995952	-1.3630495	0.23756409	-8.526201
1443697078885440044	2.622451	4.916539	-6.7353354
1443697078889193706	2.682693	4.894598	-6.650028
1443697078894442730	4.4140873	6.888339	-4.051809
1443697078899417095	4.492026	6.863411	-3.9629436
1443697078904238872	6.251129	7.5192013	-1.2625501
1443697078909487896	6.2092714	6.140503	0.97805834
1443697078914248638	6.2656717	6.122982	1.0326908
1443697078920108013	6.329451	6.1056547	1.0962853
1443697078928683452	4.648221	2.8822184	1.9259534
1443697078934512310	2.9897254	-0.12802505	1.0926324
1443697078939669780	3.028564	-0.12992573	1.1540728
1443697078944552593	1.3042293	-2.3069277	0.652047
1443697078949801616	-0.2320683	-3.2902737	0.7699305
1443697078955569439	-0.21058056	-3.2852964	0.855326
1443697078959872417	-0.20077297	-3.2795887	0.92053604
1443697078964694195	-1.665275	-3.7608232	0.8978898
1443697078969821148	-1.6615419	-3.7535162	0.9769638
1443697078974795513	-2.1918588	-3.7457142	0.13075785
1443697078978152446	-2.1921873	-3.7376404	0.18411548
1443697078984835796	-1.83922	-3.9673262	-0.3394826
1443697078989901714	-2.300672	-3.5633144	-0.68053913
1443697078994937114	-2.3112037	-3.5534124	-0.5959343
1443697078999941997	-2.3208299	-3.5427933	-0.5126382
1443697079005984478	-2.4371197	-2.691203	-0.9385316
1443697079016940288	-1.832519	-1.9685116	-1.2532983
1443697079025241070	-1.7987444	-1.1347017	-1.4949857
1443697079035372905	-1.3913529	0.003575325	-1.595123
1443697079041384868	-1.3620949	0.013010025	-1.5164906
1443697079045474224	-0.12186465	0.78484917	-1.2764461
1443697079051699810	0.65660787	1.0153399	-0.61676574
1443697079055239849	0.68301237	1.0189085	-0.58238494
1443697079060702495	0.78347355	0.8368063	-0.21542835
1443697079065554790	0.8261941	0.84277534	-0.1780777
1443697079070529155	1.2216861	0.3774433	0.30642426
1443697079075503521	1.2677183	0.38490105	0.33950043
1443697079078829937	1.2977719	0.38976383	0.3609022
1443697079085574321	1.449072	-0.2928486	0.5979377
1443697079090609722	1.6060095	-0.80959606	0.83505285
1443697079095797710	1.6500313	-0.79827595	0.867254
1443697079103671245	1.3872113	-0.81986237	1.2783366
1443697079110751323	1.2180283	-0.4965315	1.4868853
1443697079115878277	1.2550865	-0.48560715	1.5163231
1443697079121279888	0.5096079	-0.23870754	0.9654293
1443697079126010113	0.54306495	-0.22859383	0.9945569
1443697079136080913	0.9560108	0.3513136	0.20288396
1443697079140933208	0.96241534	0.9208145	-0.79004
1443697079146121196	0.99755025	0.93194866	-0.74696493
1443697079151004009	1.2610275	1.4778948	-1.278874
1443697079156069927	1.2951972	1.4890099	-1.2324688
1443697079161074810	1.5013742	2.2228584	-1.2421182
1443697079166293316	1.5376896	2.233984	-1.1938956
1443697079171816997	1.2609901	2.6427584	-0.44933414
1443697079176364116	1.294658	2.6514082	-0.41117692
1443697079186434917	0.8841084	2.9368696	0.16227484
1443697079191317730	1.234349	2.9437685	0.45521808
1443697079196505718	1.2737702	2.95183	0.48263812
1443697079201388530	2.105126	2.6344166	0.28589463
1443697079206484966	2.684333	2.2154512	0.6846423
1443697079211459331	2.7119837	2.2207642	0.6983886
1443697079217684917	2.9574275	2.0071754	1.0534289
1443697079222018413	2.9762821	2.0093012	1.0573835
1443697079233218364	2.9051056	2.2860203	1.2255893
1443697079241793804	2.57935	2.4967842	1.5789793
1443697079246585064	2.5699093	2.4072037	1.8900192
1443697079251864605	2.5859504	2.404358	1.877579
1443697079257449321	2.546083	2.4378653	1.8237066
1443697079261813335	2.5549068	2.4334364	1.8109477
1443697079266879253	2.9247253	2.9574928	1.459311
1443697079272555523	2.9336696	2.950962	1.4422078
1443697079276919536	3.4748006	3.727172	0.8019023
1443697079280398540	3.4764574	3.7181807	0.78762555
1443697079287020855	4.0328236	4.1450167	-0.3907535
1443697079292056255	4.090291	4.04181	-0.9790466
1443697079297061138	4.0923734	4.028287	-1.0081909
1443697079302066021	4.0919957	4.0132504	-1.0422394
1443697079307986431	3.6795194	3.5554905	-1.0263491
1443697079312319927	3.672197	3.5388556	-1.0663455
1443697079317202739	3.0641904	3.2108335	-0.72104084
1443697079322268657	3.0527315	3.1912308	-0.77629554
1443697079327273540	2.2649198	2.8687258	-0.4099226
1443697079330783062	2.2493825	2.85083	-0.45886552
1443697079337466411	1.6438092	2.0775137	-0.33053255
1443697079342349224	1.6147239	2.0540485	-0.4100107
1443697079347415142	0.9044163	1.1288214	-0.21935606
1443697079352603130	0.8634865	1.1046429	-0.31173885
1443697079357943706	0.08886647	0.55420494	0.40370846
1443697079362643413	0.044426918	0.532856	0.31115496
1443697079367526226	-0.5351943	0.486928	1.7777263
1443697079372561626	-0.5882603	0.46468925	1.6650118
1443697079377627544	-1.0064162	1.1045103	2.1641133
1443697079381167583	-1.0466636	1.0884581	2.0781436
1443697079387698345	-1.0743059	2.6110897	1.3476858
1443697079393313579	-1.1439302	2.5874796	1.208239
1443697079397921734	-0.91505325	3.589735	0.666996
1443697079403445415	-0.73817706	3.6189222	-0.3516986
1443697079408511333	-0.80212724	3.6012602	-0.47411448
1443697079413241558	-1.3065377	2.9415817	-1.8244716
1443697079418032818	-1.3631525	2.9296875	-1.9343987
1443697079422854595	-1.4724549	1.932169	-2.7663617
1443697079428134136	-1.5304232	1.9256258	-2.8784482
1443697079431307964	-1.562498	1.9209108	-2.9397545
1443697079444613628	-0.60845935	0.9206753	-2.2771988
1443697079453158550	-0.20134878	0.9755449	-0.7375945
1443697079459201030	-0.279409	0.97759247	-0.83497274
1443697079468417339	6.791651E-4	1.1699505	0.34284937
1443697079473757915	-0.16728106	1.0659847	0.9221463
1443697079478518657	-0.24284987	1.0698042	0.8524902
1443697079481692486	-0.27261668	0.62314415	1.0274274
1443697079488528423	-0.32874373	0.4677744	0.3105241
1443697079493441753	-0.41251057	0.47520542	0.24958181
1443697079498629741	-0.5034728	0.4838314	0.18895078
1443697079503482036	-0.36193123	-0.02932167	-1.0649545
1443697079508547954	-0.45394823	-0.018439293	-1.1149848
1443697079513583355	-0.664069	-0.6791086	-1.978305
1443697079518771343	-0.36334854	-1.3174973	-2.8226113
1443697079524264507	-0.46356028	-1.3017426	-2.8584056
1443697079531344585	0.0778119	-2.1561308	-2.9168954
1443697079538943462	-0.057504892	-2.132638	-2.9529252
1443697079543795757	-0.33198887	-2.3596945	-2.8139412
1443697079548922710	-0.4187193	-2.3395872	-2.840147
1443697079553866558	-0.33247447	-2.538558	-2.7733011
1443697079559848003	-0.4056915	-2.4363651	-2.2410798
1443697079563937359	-0.4694662	-2.4165869	-2.2672725
1443697079569400005	-0.475008	-2.609621	-2.3941388
1443697079574496441	-0.54802024	-2.5843506	-2.4315827
1443697079579623394	0.35989058	-3.0573874	-3.3224306
1443697079582400493	0.32200003	-3.0395794	-3.340437
1443697079589297466	-0.00955379	-3.1155767	-3.0215812
1443697079594119243	-0.06686747	-3.0891743	-3.05802
1443697079599185161	-1.6299473	-2.953454	-2.8732376
1443697079604342632	-1.674842	-2.926734	-2.9154341
1443697079609866314	-1.9435011	-3.0985203	-2.6797676
1443697079619174175	-2.0520408	-3.444357	-1.9767048
1443697079620364361	-2.054737	-3.4327307	-1.9844203
1443697079624514751	-2.0727675	-3.4101982	-2.0220208
1443697079629794292	-2.1162477	-3.7059727	-1.5753498
1443697079632723980	-2.1249437	-3.6878061	-1.6006801
1443697079639498882	-2.068388	-3.9984722	-1.5533001
1443697079644412212	-2.1073422	-4.2276583	-1.4249582
1443697079649539165	-2.1140378	-4.2042522	-1.4647622
1443697079654544048	-2.116383	-4.183243	-1.4989309
1443697079660464458	-2.2775402	-4.416979	-1.272306
1443697079664797954	-2.2717307	-4.4011736	-1.292681
1443697079669680767	-2.3994887	-4.655506	-0.93937135
1443697079674716167	-2.3860688	-4.642828	-0.9534576
1443697079679751568	-2.465251	-4.619231	-0.7940037
1443697079683261089	-2.4516635	-4.6098194	-0.7977245
1443697079689974956	-2.6097212	-4.506421	-0.58068657
1443697079694827251	-2.5873256	-4.501855	-0.57559013
1443697079699893169	-3.274261	-4.4431086	0.06324744
1443697079705081157	-3.2476811	-4.44246	0.077881575
1443697079710482769	-3.290757	-4.4438686	0.14000893
1443697079715151958	-3.2656388	-4.4445286	0.16050196
1443697079720004253	-3.1668754	-4.005739	0.29904342
1443697079726107769	-3.134537	-4.013115	0.33482766
1443697079733462505	-2.9728913	-3.0827627	0.5255008
1443697079740298443	-2.4510484	-1.9515514	0.89693093
1443697079745425396	-1.9396716	-0.7067518	1.5051594
1443697079750369243	-1.9073206	-0.7241831	1.5537338
1443697079755221538	-0.65419376	1.1041937	2.3755715
1443697079760317974	-0.6155473	1.0819016	2.4239678
1443697079765231304	1.0867428	4.011945	3.3699474
1443697079770358257	1.1304663	3.9843369	3.4115033
1443697079776126079	1.1828985	3.9557533	3.4538248
1443697079780581646	2.8152347	7.8769903	4.5427523
1443697079790042095	4.391121	11.63612	6.1479836
1443697079795565777	5.462528	13.621407	6.907056
1443697079800570659	5.987568	11.83581	5.2790084
1443697079805606060	5.9963503	11.811669	5.253784
1443697079811099224	5.992037	11.793661	5.210216
1443697079815707378	4.865885	7.8881874	2.4037268
1443697079820864849	4.841258	7.8862143	2.347569
1443697079826632671	3.899084	3.330865	1.3388128
1443697079830813579	3.860924	3.339528	1.2919736
1443697079834139995	3.6734946	-0.6157141	1.882611
1443697079841006450	2.7970314	-3.473899	2.7031639
1443697079845889263	2.748568	-3.445198	2.644609
1443697079851107769	2.7000468	-3.4142437	2.580468
1443697079855960064	1.7944995	-4.901184	2.4435158
1443697079861056499	1.759298	-4.868615	2.382442
1443697079866061382	0.5707079	-4.566512	0.93316126
1443697079877383404	-0.9849956	-2.537406	-1.081888
1443697079884493999	-2.8263192	0.7477417	-1.7964454
1443697079891299419	-2.8193016	0.7446451	-1.7886093
1443697079896243267	-4.4625826	4.4965677	-3.8166206
1443697079902499370	-6.121752	7.493002	-6.8824368
1443697079906527691	-6.0980396	7.4657116	-6.836797
1443697079911746196	-7.576331	9.392905	-6.8365555
1443697079916567974	-7.5382986	9.355976	-6.7764473
1443697079921481304	-9.060286	9.215296	-4.0876927
1443697079926486187	-9.012344	9.178117	-4.031561
1443697079931521587	-5.462198	5.8973675	1.9823942
1443697079935000591	-5.432109	5.877445	1.9962249
1443697079941592388	-2.0349393	0.25985527	7.9863777
1443697079946627788	-2.0197282	0.26008224	7.961157
1443697079951632671	-1.5052878	-4.554063	6.388013
1443697079956820659	-1.5136014	-4.534794	6.3454328
1443697079962313823	-4.0361476	-6.031683	0.35602307
1443697079966921978	-4.0428395	-6.014592	0.34708142
1443697079971804790	-6.006177	-5.8758593	-3.5687826
1443697079976870708	-5.99457	-5.871978	-3.531465
1443697079981875591	-5.643146	-6.033126	-3.8605828
1443697079985385113	-5.6210747	-6.0312853	-3.8186843
1443697079991946392	-4.735547	-6.428668	-3.9815772
1443697079996951275	-4.6921315	-6.43365	-3.9196048
1443697080001986675	-4.3237677	-5.6327543	-5.3987684
1443697080007205181	-4.2721453	-5.6402264	-5.3303394
1443697080012911968	-3.7886977	-3.807249	-6.7741957
1443697080017275982	-3.7330978	-3.8171597	-6.704629
1443697080022128277	-2.8017182	-1.7905283	-7.768743
1443697080027865581	-2.7289555	-1.8115263	-7.6645927
1443697080032229595	-1.6709656	-0.19919205	-8.119556
1443697080035586529	-1.6296813	-0.21305084	-8.04356
1443697080042452984	0.19505423	1.2960882	-7.3212843
1443697080047305279	0.24750847	1.2750568	-7.21579
1443697080052371196	2.6228547	2.7292776	-6.0503306
1443697080057528667	2.673159	2.7073994	-5.94437
1443697080063235454	3.959136	4.4242706	-5.0529213
1443697080068606548	5.0143766	5.320158	-3.6265438
1443697080078097515	5.119157	5.668867	-1.9019797
1443697080082553081	5.1559553	5.6499414	-1.8355746
1443697080086062603	5.183124	5.6331377	-1.7842237
1443697080092745952	4.4419003	4.7631073	-0.51916564
1443697080097567730	3.8298616	2.4463654	0.18755388
1443697080102877788	3.8774002	2.4365559	0.25218207
1443697080107730083	3.1217408	-0.096131325	0.28958696
1443697080112796001	1.484332	-1.8279734	-0.16749606
1443697080117800884	1.5202686	-1.8268347	-0.10364881
1443697080128909282	-0.30033496	-3.0474253	0.16914628
1443697080129824810	-0.2958572	-3.0413284	0.18122941
1443697080132907085	-0.2835381	-3.0357332	0.22315928
1443697080143130474	-0.8858478	-3.486599	0.018307313
1443697080148043804	-1.5254494	-3.683281	-0.02018391
1443697080153262310	-1.3066593	-3.4026394	-0.6805736
1443697080158084087	-1.295888	-3.394332	-0.61030924
1443697080163027935	-1.2857506	-3.3854647	-0.53770477
1443697080168185405	-1.0628312	-3.1490765	-0.9101881
1443697080173342876	-1.0520204	-3.1393318	-0.83210397
1443697080178652935	-1.3075597	-2.4888258	-0.48047942
1443697080183413677	-1.2922035	-2.4794035	-0.40924704
1443697080193545513	-1.3539453	-1.7184515	-0.23676753
1443697080198397808	-1.388943	-0.850461	-0.5286028
1443697080203616314	-1.3608903	-0.8416939	-0.45653647
1443697080208438091	-0.5749949	-0.19068813	-0.95200926
1443697080216647320	0.35348123	0.32018375	-1.6666646
1443697080218539409	0.3650477	0.32255745	-1.6405815
1443697080223727398	0.39906287	0.3304596	-1.5768942
1443697080229220562	0.86649513	0.29730988	-1.1969061
1443697080233615093	0.9198456	-0.09091663	-0.12947631
1443697080236972027	0.9440526	-0.0849123	-0.09666252
1443697080245059185	0.8346701	-0.5491686	0.8298687
1443697080248721294	0.86335015	-0.5413723	0.86006975
1443697080254519634	0.77401936	-0.70141983	1.2117583
1443697080258792095	0.80806553	-0.6917887	1.2449375
1443697080264224224	0.61718845	-0.7619982	1.379635
1443697080268893413	0.6179151	-0.63509464	1.4229767
1443697080273898296	0.65629685	-0.6233454	1.4616294
1443697080279513530	0.6983762	-0.61015797	1.5045267
1443697080284365825	0.48393798	-0.30006313	1.5162387
1443697080287326030	0.50503373	-0.29307747	1.536268
1443697080294070415	0.21474952	0.1806755	1.3497583
1443697080303256206	0.2814691	0.53142357	0.96250474
1443697080304995708	0.29315388	0.5342941	0.9737475
1443697080309329204	0.32277596	0.5433235	1.005333
1443697080314212017	0.47923613	0.7414732	0.24182796
1443697080319400005	0.51513684	0.7531862	0.28358626
1443697080324252300	0.8414792	0.92707634	-0.60483694
1443697080329348736	0.87699497	0.939662	-0.5589707
1443697080334353618	1.482016	1.3395452	-1.1002324
1443697080344393902	1.808647	1.7993336	-0.86983347
1443697080349429302	1.8454022	1.8118	-0.8250344
1443697080354464702	1.9705086	2.4234457	-0.3941636
1443697080359652691	2.0108762	2.4346132	-0.35608864
1443697080365054302	1.6854873	3.0070972	0.68551445
1443697080369601421	1.7230046	3.0141497	0.7093613
1443697080374728374	1.1332363	3.0162735	1.1133962
1443697080380526714	1.1830674	3.0255632	1.1352339
1443697080389987163	1.6876838	2.71455	0.9061649
1443697080394747905	2.321384	2.193698	0.55298615
1443697080399966411	2.3563545	2.201151	0.5676062
1443697080404849224	2.9152772	1.8092318	0.47080612
1443697080411288433	2.7483764	1.9215012	0.6915319
1443697080415560894	2.7652173	1.9236021	0.69542146
1443697080420321636	2.2794046	2.0176945	1.4744496
1443697080424990825	2.2966034	2.0182867	1.4720192
1443697080431491070	1.8014058	1.9057732	2.390376
1443697080435031109	1.8125037	1.9038467	2.3811336
1443697080438540630	1.8220261	1.9012613	2.370612
1443697080445315532	1.6354865	1.8535776	2.2898734
1443697080450076275	1.47751	2.3875961	1.100857
1443697080455355816	1.4829953	2.3829222	1.0925798
1443697080460208111	1.5002573	3.4297638	0.26227903
1443697080465274029	1.5002661	3.4220953	0.25711083
1443697080470339946	1.7348591	4.571788	0.09201622
1443697080475497417	1.7341084	4.559922	0.08040428
1443697080480929546	2.2271848	5.2904186	-0.15256453
1443697080485568218	2.2257051	5.274804	-0.1729343
1443697080495639019	2.5637698	5.1576614	-0.918833
1443697080500521831	2.532431	4.168335	-0.82887363
1443697080505740337	2.524043	4.1491613	-0.8678992
1443697080510592632	2.3924916	3.219966	0.22956133
1443697080515658550	2.3755982	3.1980467	0.17389822
1443697080520663433	2.315751	2.3973951	1.0626564
1443697080525851421	2.2883587	2.3708582	0.98151886
1443697080531680279	2.1638222	1.3133469	1.0282946
1443697080535922222	1.9505467	0.26975822	0.8125255
1443697080539126568	1.922573	0.25218296	0.7435118
1443697080545962505	1.8603046	0.21456718	0.58954763
1443697080550875835	1.126014	-0.14177608	0.7037122
1443697080556094341	1.070778	-0.1689558	0.5747371
1443697080560946636	0.44587243	0.139822	1.8768672
1443697080566043071	0.38747525	0.11480713	1.7384003
1443697080570986919	-0.0015356541	1.123579	2.6471355
1443697080576022320	-0.06430125	1.1001339	2.5016067
1443697080581698589	-0.0601238	3.045538	1.4043136
1443697080587222271	-0.26436377	4.295684	-0.5426817
1443697080589480571	-0.29384673	4.280489	-0.60292566
1443697080602847271	-0.72144365	4.2302084	-2.5373936
1443697080603823833	-0.7314644	4.22017	-2.5555406
1443697080606295757	-0.9203415	3.3883352	-3.179197
1443697080611270122	-0.9752841	3.377038	-3.2896702
1443697080616854839	-0.9396141	2.6893234	-3.0266287
1443697080621340923	-0.982456	2.683178	-3.1174898
1443697080626376323	-1.0283973	2.6783028	-3.216086
1443697080632052593	-0.039462864	2.099432	-2.5056486
1443697080636447124	0.7248444	1.4970064	-1.6444521
1443697080639956646	0.68867433	1.4962044	-1.7059028
1443697080646517925	1.2178981	1.1507559	-0.9850983
1443697080651583843	1.758429	0.8378792	-0.1940316
1443697080656588726	1.6959243	0.84141445	-0.2758056
1443697080661654644	1.629779	0.8456936	-0.35592687
1443697080667483501	1.3411012	0.46262264	0.37337458
1443697080671878032	1.2799393	0.46835995	0.30585492
1443697080676760845	1.4560068	-0.17274094	0.38317072
1443697080681857280	1.3833429	-0.16306496	0.30890918
1443697080689944439	1.167015	-0.81737804	-0.0425539
1443697080696902446	0.024498053	-0.9661455	-0.7673403
1443697080701937847	-0.04714428	-0.9522886	-0.82914853
1443697080707125835	-0.8777251	-0.8792753	-2.0351493
1443697080712130718	-0.9458678	-0.8652878	-2.0860794
1443697080717715435	-0.70613205	-0.9575062	-3.3307545
1443697080722048931	-0.5084777	-1.4312067	-3.6071181
1443697080727267437	-0.5772782	-1.4159775	-3.6438375
1443697080732638530	-0.8315251	-1.66148	-3.6703758
1443697080737155132	-0.8921148	-1.6464272	-3.6994817
1443697080747409038	-0.68129796	-1.7102404	-3.377256
1443697080753085308	-0.7459778	-1.6300592	-3.076117
1443697080757479839	-0.80509377	-1.6118717	-3.1099524
1443697080762881450	-0.6188938	-1.693407	-3.294513
1443697080767398052	-0.67762744	-1.67346	-3.329768
1443697080777346782	-0.6986195	-1.8831749	-3.3291142
1443697080784152202	-0.8836963	-2.0486174	-2.7851675
1443697080788241558	-0.928691	-2.0282888	-2.8168352
1443697080790896587	-0.9557266	-2.013564	-2.8355627
1443697080797763042	-1.5542388	-1.9375782	-2.0297194
1443697080802645855	-2.3221083	-2.011814	-1.78196
1443697080807803325	-2.362817	-1.9871244	-1.8261943
1443697080812686138	-2.8504214	-3.1101952	-2.0330138
1443697080817752056	-2.8808315	-3.0848513	-2.0732768
1443697080822787456	-2.2523012	-3.7830305	-1.6267776
1443697080827975445	-2.2789612	-3.7580261	-1.6625922
1443697080833346538	-2.202971	-3.7515068	-1.0444112
1443697080838046245	-2.222818	-3.7302227	-1.0717957
1443697080848117046	-2.724959	-4.1086626	-0.6252904
1443697080852969341	-2.7827353	-4.6653986	-0.52196884
1443697080858218364	-2.7882063	-4.6481686	-0.53776264
1443697080866305523	-2.5758753	-5.0503283	-0.41608858
1443697080868014507	-2.5722213	-5.0386963	-0.4176476
1443697080873141460	-2.3567686	-5.230644	-0.17993116
1443697080878359966	-2.3541303	-5.2195854	-0.17871714
1443697080884158306	-2.7642987	-5.0752783	0.27082658
1443697080888369732	-2.969217	-4.9816313	0.16239595
1443697080891574077	-2.9628172	-4.9730225	0.16740203
1443697080898440532	-2.9526827	-4.9684057	0.18254042
1443697080903353863	-2.8407266	-4.8382874	-0.056053877
1443697080908602886	-2.8292375	-4.83576	-0.03553343
1443697080913394146	-2.8308654	-4.4961357	0.02572155
1443697080920169048	-2.7695665	-3.8521214	0.14884591
1443697080929751568	-2.219192	-2.8486166	0.25312114
1443697080934085064	-2.2023351	-2.8545685	0.2847705
1443697080939273052	-2.1785676	-2.8638	0.3238783
1443697080941958599	-1.1644613	-1.3832579	0.7939596
1443697080949282818	0.27097833	0.657177	1.691711
1443697080953677349	0.30048943	0.6418419	1.7197909
1443697080958743267	1.9742794	3.4912796	3.0796149
1443697080963900738	2.0154166	3.468686	3.102875
1443697080969729595	3.9761057	6.762374	4.7655516
1443697080974002056	4.0088844	6.738266	4.770336
1443697080978854351	4.0477357	6.7139225	4.773667
1443697080983920269	5.2479897	9.9095125	6.826889
1443697080988955669	7.2163544	11.156956	7.3963194
1443697080992465191	7.227444	11.132602	7.3723984
1443697080999026470	8.878082	9.351476	5.4989944
1443697081004031353	7.456914	6.126235	2.9415774
1443697081009066753	7.4413815	6.126258	2.8904004
1443697081014102154	7.4123974	6.129566	2.8350103
1443697081019961529	5.694631	2.219266	2.3399997
1443697081024356060	5.657547	2.2309303	2.292981
1443697081029238872	5.1912317	-1.1223631	2.70984
1443697081034304790	5.150849	-1.1010828	2.6580582
1443697081039309673	4.7332993	-3.0749884	3.2002852
1443697081049380474	2.9898407	-4.5376596	3.148921
1443697081054415874	2.9647164	-4.5121155	3.104182
1443697081059634380	0.92710555	-4.134515	0.9803586
1443697081064639263	0.9125917	-4.1168346	0.9584806
1443697081069400005	-1.997208	-1.607729	-1.7220082
1443697081074557476	-5.4251084	1.9415083	-2.8162527
1443697081079714946	-5.427717	1.9357653	-2.7987022
1443697081084994488	-8.156881	6.281455	-6.4280586
1443697081089663677	-8.145956	6.2574816	-6.3797345
1443697081099887066	-10.03094	10.080606	-8.763839
1443697081105654888	-10.668361	12.714825	-6.243684
1443697081109927349	-10.621594	12.668094	-6.1772466
1443697081115359478	-11.4011965	11.402131	-0.33254027
1443697081120852642	-11.328603	11.358166	-0.28611326
1443697081130068950	-3.6194625	4.6578465	8.960409
1443697081135440044	-0.33605826	-0.6821947	7.427373
1443697081140200786	-0.3188697	-0.67136955	7.3728504
1443697081144625835	-2.4096048	-3.4550285	0.85947967
1443697081150241070	-2.41854	-3.4333973	0.8158219
1443697081155245952	-4.052774	-5.045353	-2.9682868
1443697081160311870	-4.060851	-5.036088	-2.9513998
1443697081165164165	-3.784231	-6.2663336	-3.9516494
1443697081170260601	-3.7792888	-6.267762	-3.8939068
1443697081175265484	-3.8824654	-6.973942	-3.7815125
1443697081180453472	-3.869205	-6.976822	-3.7150264
1443697081185733013	-4.442615	-6.8847103	-4.7868667
1443697081190524273	-4.413341	-6.888465	-4.7187567
1443697081200595073	-4.3558316	-5.9313946	-5.933717
1443697081205447368	-3.723149	-4.4719324	-7.038645
1443697081210635357	-3.6589518	-4.486599	-6.9458675
1443697081215548687	-2.5531168	-2.844801	-7.9139614
1443697081220584087	-2.4872506	-2.8634844	-7.8061814
1443697081225588970	0.86105436	-1.8337784	-8.727767
1443697081230654888	0.921666	-1.8542995	-8.603358
1443697081241519146	1.367496	-0.17507648	-7.626398
1443697081245730571	1.7318351	2.2543488	-6.394098
1443697081250949077	1.8079041	2.2322607	-6.2762265
1443697081255831890	3.0535886	4.8429365	-4.995446
1443697081260806255	4.4675093	6.588359	-3.1848493
1443697081266024761	4.541023	6.564905	-3.0969899
1443697081272250347	5.239511	6.589958	-0.71772313
1443697081281497173	3.8154724	4.9285507	0.79401183
1443697081287661724	3.87926	4.9137297	0.8684379
1443697081294436626	2.9233212	2.3100653	1.0548525
1443697081301181011	1.8044732	-0.41511917	0.7392684
1443697081306185894	1.8373717	-0.41619492	0.8026899
1443697081311221294	0.036804467	-2.3644724	0.8571267
1443697081316256695	-1.525426	-3.644763	1.3304532
1443697081322085552	-1.5134966	-3.6389456	1.411008
1443697081328463726	-1.5092255	-3.632824	1.5004046
1443697081336520366	-2.5536072	-4.397544	0.8589378
1443697081341433696	-2.1852958	-4.698906	-0.2708721
1443697081344973736	-2.190572	-4.688861	-0.21631202
1443697081351473980	-2.049784	-4.46294	-0.40625742
1443697081356509380	-2.08086	-3.6161165	-0.6976361
1443697081361544780	-2.0929227	-3.6060314	-0.6157142
1443697081366610698	-2.1009257	-3.5952044	-0.5355623
1443697081372134380	-1.6478044	-2.5768461	-1.0998051
1443697081376834087	-1.6475973	-2.5671453	-1.0283964
1443697081381716900	-1.2168407	-1.3974619	-1.5052366
1443697081386782818	-1.20803	-1.3887987	-1.4324214
1443697081391787700	-0.96485364	0.0016145706	-2.0143766
1443697081401980571	-0.42621213	0.84648323	-1.8901205
1443697081406893902	-0.3941759	0.8520403	-1.8302065
1443697081415866070	0.2791226	1.2751341	-1.0471749
1443697081421969585	0.63179404	1.357852	-0.014603972
1443697081427066021	0.4324506	1.0187721	0.6121491
1443697081432192974	0.48010272	1.0258026	0.65574396
1443697081438662700	0.72446156	0.502059	1.3289115
1443697081442294292	0.75859576	0.5080385	1.3562573
1443697081445468120	0.7884261	0.5132637	1.3793575
1443697081452212505	0.3826657	0.20337391	1.9104601
1443697081457400493	0.07737702	0.04381752	2.1078956
1443697081462435894	0.12500685	0.053786278	2.138042
1443697081467471294	-0.0079930425	0.009984016	1.4181095
1443697081472384624	0.03646308	0.019925117	1.4469
1443697081477358989	1.2707644	0.14121914	0.15192485
1443697081482577495	1.3122094	0.1519556	0.18600547
1443697081487918071	2.1664698	0.37225056	-1.2626678
1443697081492648296	2.1977386	0.38221645	-1.2252831
1443697081496554546	2.4480927	0.7368736	-2.0590544
1443697081503115825	2.7966495	1.3293924	-1.8663036
1443697081507601909	2.8215294	1.3381386	-1.824836
1443697081512637310	2.8501372	1.348568	-1.778983
1443697081517642193	2.878735	1.3589497	-1.7349634
1443697081523501568	3.0473704	2.1688948	-0.83359706
1443697081527712993	2.4250014	2.625145	-0.14631414
1443697081532748394	2.4565706	2.6319685	-0.11514521
1443697081538516216	2.3106232	2.5158854	0.12389445
1443697081542849712	2.6108434	2.1693974	0.07345915
1443697081546176128	2.6308715	2.1722212	0.087572336
1443697081553042583	2.6766253	2.1818647	0.112380505
1443697081557955913	3.1151774	1.8483562	0.053765774
1443697081563143902	3.1437802	1.8528843	0.06376314
1443697081567996196	3.3241153	1.6367149	0.029718399
1443697081573092632	3.3501139	1.6405611	0.03569746
1443697081578097515	3.4079	1.7960901	0.19322562
1443697081583132915	3.428884	2.0746384	0.57789373
1443697081591250591	3.4744396	2.077527	0.56564903
1443697081593203716	3.479568	2.0747757	0.56123614
1443697081603182964	3.2716513	2.0961027	1.4774406
1443697081608279400	2.8371534	2.0667381	2.149733
1443697081614230327	2.4664428	1.9732552	2.0602489
1443697081618502788	2.4756434	1.9717207	2.054712
1443697081623629741	2.6443443	2.1172428	0.9662833
1443697081628421001	2.6493304	2.115058	0.96476173
1443697081633792095	3.0202432	2.5603113	0.317775
1443697081639071636	3.022787	2.5561333	0.3143823
1443697081643557720	3.2195845	2.9926834	0.5873089
1443697081646914654	3.2183826	2.9861984	0.58013344
1443697081653628521	3.2949681	3.3417683	0.40998387
1443697081658572368	3.2939732	3.3309183	0.38653278
1443697081663699321	2.8712044	3.3154087	0.08330679
1443697081668856792	2.8668113	3.302659	0.054899573
1443697081674288921	2.2380068	2.8113194	-0.026417494
1443697081678958111	2.2281914	2.7969217	-0.062135458
1443697081683840923	1.5724438	2.495348	0.20630074
1443697081688876323	1.5576273	2.4775486	0.15411401
1443697081693911724	0.83121574	2.0758429	0.2324878
1443697081697421245	0.8163916	2.060113	0.18443394
1443697081703952007	0.43539476	1.2266645	-0.10006392
1443697081708987407	0.40745676	1.2050419	-0.1834141
1443697081714053325	-0.04796648	0.74786377	-0.094096184
1443697081719241314	-0.085707426	0.7251301	-0.19158983
1443697081724948101	-0.2845441	0.8170614	0.5914422
1443697081729312114	-0.324414	0.79730415	0.5000318
1443697081734164409	-0.41628647	1.5552759	1.3532027
1443697081739230327	-0.47180557	1.5316534	1.2371502
1443697081744265728	-0.736372	2.8104448	0.89897394
1443697081747775249	-0.77836883	2.7919035	0.81557995
1443697081754489116	-1.0954202	3.8802624	-0.19185823
1443697081759371929	-1.1573591	3.8579388	-0.3080215
1443697081764529400	-1.3945348	3.9944954	-1.5312219
1443697081769381695	-1.4549963	3.9758387	-1.6436476
1443697081775149517	-1.2956145	3.2998867	-2.3948205
1443697081780459575	-1.7175705	2.419464	-2.5690753
1443697081791598491	-2.180921	1.842967	-2.0205834
1443697081794589214	-2.2124825	1.8382406	-2.0781426
1443697081802279644	-2.61757	1.5799465	-0.8069065
1443697081809695415	-2.458138	1.4358854	0.27474284
1443697081814730816	-2.5142655	1.4359694	0.18049413
1443697081819766216	-1.3268937	1.2209234	0.78730935
1443697081825228863	-1.3954779	1.2238169	0.6895701
1443697081829867534	-1.4560368	1.2266579	0.60928833
1443697081835025005	-0.3485746	0.9681778	0.3590833
1443697081840762310	0.2041717	0.50061417	-0.25267708
1443697081845095806	0.137581	0.5065584	-0.31629264
1443697081855136089	0.52660465	-0.15083218	-0.6276896
1443697081860049419	0.4719786	-0.42930126	-0.6652217
1443697081865267925	0.38948464	-0.4166441	-0.731768
1443697081870150738	0.31237498	-0.40395737	-0.79218733
1443697081875186138	0.08176094	-0.6576042	-1.1451421
1443697081880221538	-0.09041712	-0.93403244	-1.8303367
1443697081885409527	-0.16956568	-0.91786003	-1.8839661
1443697081890933208	0.28183568	-1.0751085	-2.5133748
1443697081895510845	0.9117105	-1.3829088	-2.2659557
1443697081898654155	0.8621073	-1.371748	-2.286152
1443697081905551128	0.75402933	-1.3503141	-2.3319283
1443697081910403423	0.44206303	-1.5592127	-2.3115737
1443697081915621929	0.3574403	-1.5398865	-2.3443673
1443697081920474224	0.4943527	-1.5732918	-2.8810437
1443697081931948833	-0.15679753	-1.7340031	-3.302859
1443697081937075786	-0.33891022	-1.9219255	-3.3840342
1443697081940768413	-0.39389002	-1.9045057	-3.4007165
1443697081946627788	-0.88158023	-1.9292688	-3.146416
1443697081949008159	-0.9129894	-1.9164324	-3.1551158
1443697081956912212	-0.9288287	-2.850934	-4.040492
1443697081960787945	-0.9757025	-2.830184	-4.0582085
1443697081966677837	-1.0149115	-3.1850395	-3.557269
1443697081970858745	-1.057327	-3.1625185	-3.5802863
1443697081975863628	-2.3203592	-3.404315	-2.688485
1443697081980929546	-2.359716	-3.378353	-2.7225294
1443697081985964946	-1.9916531	-3.6825876	-2.1423414
1443697081991610698	-2.0207005	-3.6551657	-2.1866136
1443697081996066265	-1.047309	-3.0166264	-1.2016232
1443697081999392681	-1.057192	-2.9998941	-1.227988
1443697082006106548	-3.7488108	-4.1644754	-1.3555322
1443697082011141948	-3.69833	-4.7625732	-1.079813
1443697082018801861	-3.6947677	-4.736389	-1.1306481
1443697082026248150	-3.5241337	-5.3372364	-0.46461487
1443697082031283550	-3.5078921	-5.3208656	-0.4875524
1443697082036349468	-3.4501398	-5.607603	-0.4358418
1443697082042117290	-4.1467066	-5.376355	0.32225132
1443697082046420269	-4.126989	-5.3638754	0.30987382
1443697082049899273	-4.109055	-5.3522606	0.30153155
1443697082056582622	-3.772228	-5.350808	0.4522333
1443697082061495952	-3.747188	-5.342307	0.44862652
1443697082066531353	-3.3893318	-5.1042566	0.8277359
1443697082071566753	-3.3644223	-5.0986366	0.83079934
1443697082077395611	-3.456051	-4.801855	0.42916512
1443697082081637554	-3.4354355	-4.7987185	0.44209886
1443697082086825542	-3.3227782	-4.133979	-0.20155191
1443697082092654400	-3.2976213	-4.139144	-0.16712952
1443697082107119732	-2.5395794	-1.2740431	0.078650236
1443697082111758404	-2.5137296	-1.2876949	0.122834444
1443697082117007427	-1.4342052	0.72593975	0.9608617
1443697082122531109	-0.0062503815	3.5262747	2.3953307
1443697082126956157	0.019909859	3.504035	2.4297135
1443697082132540874	1.4948635	6.964308	4.1199036
1443697082137026958	1.5234343	6.937236	4.1405163
1443697082142398052	2.8988156	10.7115555	5.6651726
1443697082147250347	2.9297314	10.680651	5.6654887
1443697082157290630	4.3276744	13.007526	6.8486347
1443697082162173443	6.7034044	11.745668	6.6627293
1443697082167422466	7.4335337	6.936531	3.9646425
1443697082172244243	7.4268165	6.9323463	3.9131691
1443697082177188091	7.4054866	6.933569	3.8502493
1443697082182376079	8.082049	5.170657	5.8342
1443697082187533550	8.029656	5.183979	5.7563095
1443697082192935161	6.2616925	0.6565628	4.803526
1443697082197604351	6.2032337	0.6797428	4.7368937
1443697082207644634	6.1797485	-2.803481	4.1323147
1443697082212557964	5.525353	-4.9082594	3.2709374
1443697082217745952	5.477028	-4.8759727	3.218715
1443697082222628765	3.3174105	-5.941267	1.8987467
1443697082227664165	3.2882025	-5.9136477	1.8634634
1443697082235720806	1.0113635	-5.2616367	0.3073113
1443697082242922954	-0.51326156	-2.711238	-1.4141839
1443697082247775249	-2.5254526	0.7220278	-3.0869884
1443697082251132183	-2.511341	0.71737385	-3.0766482
1443697082258029155	-2.4849157	0.7066517	-3.0559301
1443697082262911968	-4.489419	4.2192345	-4.471456
1443697082268130474	-4.4520054	4.195466	-4.4342337
1443697082272982769	-5.7231126	7.047077	-5.9623485
1443697082278079204	-5.671946	7.01223	-5.9105415
1443697082283053570	-5.859001	9.25827	-5.6445317
1443697082290164165	-7.1749287	10.395097	-5.0717306
1443697082293612652	-7.123242	10.359836	-5.0356894
1443697082298678570	-7.623661	8.75827	-0.6974206
1443697082301486187	-7.576857	8.73176	-0.6829233
1443697082308993511	-3.6471844	2.9383755	5.723981
1443697082313235454	-3.6034334	2.9292727	5.7070823
1443697082323580913	-1.640239	-3.110942	6.407666
1443697082328341655	-3.1779814	-5.329665	2.5997565
1443697082333560161	-3.1964097	-5.3117237	2.582034
1443697082338442974	-5.3278713	-5.453809	-1.4553955
1443697082343630962	-5.344636	-5.4487762	-1.4211926
1443697082348544292	-5.8565884	-6.028782	-3.438403
1443697082351870708	-5.853674	-6.026373	-3.3939292
1443697082358615093	-5.011239	-6.5679054	-4.294722
1443697082363619976	-5.0002403	-6.573634	-4.2182055
1443697082368655376	-5.309205	-5.897563	-5.120082
1443697082373843364	-5.278184	-5.906661	-5.0386033
1443697082379244976	-4.8233666	-4.707362	-6.941762
1443697082383914165	-4.7784204	-4.7174606	-6.8629837
1443697082388766460	-3.37331	-3.3322334	-8.472535
1443697082394503765	-2.4331903	-2.0130987	-8.50523
1443697082398867779	-2.38126	-2.0292034	-8.414171
1443697082408908062	-1.0046389	-0.8816929	-7.2400627
1443697082413973980	-0.9430223	-0.9017353	-7.1297636
1443697082419161968	1.127521	0.24936867	-6.7496686
1443697082424197368	1.1908237	0.23032284	-6.643923
1443697082429110698	1.8195102	2.128499	-5.8115206
1443697082434115581	2.352405	4.251047	-4.505126
1443697082439273052	2.4246426	4.228731	-4.4124966
1443697082444583111	2.5003548	4.2080765	-4.3223495
1443697082449404888	3.4812348	5.717271	-3.2577286
1443697082452548198	3.5214095	5.7001657	-3.206953
1443697082459475689	3.652179	5.948509	-1.7930225
1443697082464877300	2.9940307	4.640808	-0.31241167
1443697082469546489	3.0503302	4.627033	-0.25246328
1443697082474581890	2.1939259	2.151945	0.7542644
1443697082479525738	2.2467113	2.144617	0.8143719
1443697082484378032	1.3682457	-0.3180294	1.0408671
1443697082491885357	1.4243894	-0.32042408	1.1360127
1443697082499728374	0.24952996	-1.9879732	0.95183516
1443697082504092388	-0.98691815	-2.8721418	0.91519475
1443697082509799175	-0.9702318	-2.8674717	0.99511755
1443697082514681988	-2.0646863	-3.2120972	0.55392563
1443697082519900493	-2.056125	-3.2058125	0.6316777
1443697082524722271	-1.4925983	-3.566805	0.027221754
1443697082529818706	-1.492306	-3.5587778	0.10870419
1443697082534823589	-1.1245608	-3.669548	-0.33482248
1443697082539981060	-1.1294652	-3.6599436	-0.24820685
1443697082545291118	-1.653633	-2.9975672	-0.94061375
1443697082550082378	-1.6556364	-2.9879417	-0.8584017
1443697082560153179	-1.6004044	-2.1697826	-1.4184797
1443697082565035991	-0.6602447	-1.4633293	-1.8252201
1443697082570193462	-0.64765465	-1.453332	-1.741323
1443697082579165630	-0.29170555	-0.6525326	-2.1748393
1443697082585177593	0.30569047	-0.024301529	-2.2996926
1443697082590365581	0.33564538	-0.015615463	-2.2322435
1443697082595828228	0.62901515	0.4283762	-1.3739809
1443697082600405864	0.4059828	0.5990448	-0.29381263
1443697082603640728	0.43192822	0.60346127	-0.2626269
1443697082610507183	0.49165362	0.6143913	-0.20223987
1443697082615389995	0.7005642	0.43811798	0.6818267
1443697082620364361	0.74659586	0.446393	0.7182188
1443697082625430279	0.59596646	0.026360512	1.1066308
1443697082631442241	0.48595947	-0.07082367	1.167118
1443697082635531597	0.5242697	-0.06274605	1.1916716
1443697082641207866	0.7238049	0.02013588	1.5524215
1443697082646426372	0.77066207	0.030425072	1.5814174
1443697082650851421	0.8097427	0.0392704	1.6049055
1443697082653994732	0.73377264	0.09453964	1.7983533
1443697082660617046	0.84098244	0.07687664	1.3795016
1443697082667391948	1.2590024	0.33215523	0.53991294
1443697082670779400	1.2827983	0.3387785	0.56070244
1443697082675784282	1.3183016	0.34917545	0.5928943
1443697082681368999	1.7095435	0.7482195	-0.50599086
1443697082686068706	1.7405635	0.75804996	-0.47052217
1443697082690921001	2.140327	1.316762	-1.2457484
1443697082695986919	2.1735053	1.3273716	-1.2039354
1443697082700991802	2.6520076	1.9172401	-1.3896028
1443697082711032085	3.1928349	2.4995756	-0.82858765
1443697082716067486	3.2253923	2.5080805	-0.7931297
1443697082721102886	2.5336857	2.679843	0.10368705
1443697082726321392	2.5700715	2.6877537	0.13190436
1443697082731692486	2.2855248	2.5641947	0.77089953
1443697082736422710	2.318469	2.5700817	0.78877306
1443697082741244488	2.682774	2.0934095	1.2697871
1443697082746188335	3.3412933	1.6081524	0.87611604
1443697082754367046	3.3917413	1.6210566	0.8967018
1443697082761599712	3.3565817	1.8280916	0.75058055
1443697082766452007	3.3774981	1.8315763	0.75623846
1443697082771639995	3.2873292	2.3994102	1.1685762
1443697082776675396	3.3088243	2.4003935	1.1669459
1443697082783114605	3.5424447	2.5800562	1.8944149
1443697082788302593	3.48243	2.5364504	2.2589097
1443697082797702007	3.2432408	2.5620003	2.1500483
1443697082801882915	3.2540443	2.559247	2.1404483
1443697082805026226	3.2588062	2.5557632	2.1332061
1443697082811953716	3.3132834	2.8886318	1.3227587
1443697082816867046	3.3172672	3.6301365	0.5816715
1443697082821993999	3.3222609	3.62463	0.5780711
1443697082826846294	3.4707718	4.4526787	0.66407037
1443697082831942730	3.4722896	4.4431953	0.653476
1443697082836917095	3.9038348	4.681698	0.7264676
1443697082842135601	3.8996773	4.6689157	0.7077868
1443697082847476177	4.071968	4.223198	-0.6782913
1443697082852175884	4.0612116	4.2086544	-0.7005644
1443697082862277202	3.999024	3.2371855	-1.6060133
1443697082867129497	4.0839243	2.2196035	-1.2146199
1443697082872317486	4.0569115	2.2016926	-1.2576171
1443697082877230816	3.8224	1.0586739	-0.47474802
1443697082882266216	3.7871842	1.0386057	-0.5372499
1443697082887301616	3.3539286	-0.091765404	-0.051377177
1443697082892489605	3.307428	-0.11451721	-0.13757432
1443697082898348980	2.3127913	-0.7483387	0.27712214
1443697082902560405	1.2616813	-0.48318005	1.2382087
1443697082905734234	1.2252839	-0.49762535	1.1711159
1443697082912600689	1.1431386	-0.5300503	1.0209886
1443697082917483501	0.28490663	0.55508995	3.0730653
1443697082925326519	-0.8164915	2.4673185	3.2584078
1443697082927554302	-0.84678495	2.4524155	3.1935027
1443697082932772808	-0.9224303	2.4256678	3.0451021
1443697082937655620	-1.7461107	4.167362	1.3747292
1443697082942813091	-1.8201675	4.142517	1.2289028
1443697082948245220	-2.558815	4.7326355	-1.1719332
1443697082952883892	-2.6199074	4.713606	-1.2941973
1443697082963931255	-3.6806166	3.5538988	-3.6878927
1443697082967837505	-3.7224445	3.5442705	-3.7706203
1443697082973422222	-3.3323722	2.9385042	-3.0288324
1443697082977908306	-3.378447	2.9325495	-3.1177886
1443697082983920269	-3.5301833	2.731285	-1.8608991
1443697082993197613	-2.7123554	2.3795052	-0.53567314
1443697082998721294	-2.773998	2.3798294	-0.63814163
1443697083003085308	-1.1217939	2.062132	0.1455906
1443697083013400249	0.03945315	1.5268421	0.6873609
1443697083018374614	-0.032222554	1.5311413	0.6090809
1443697083023196392	1.0645155	1.1227722	0.6976546
1443697083028262310	0.9842965	1.1295338	0.62412786
1443697083033358745	1.3125095	0.6596155	0.024068356
1443697083038485698	1.2269899	0.66930485	-0.04460907
1443697083043368511	1.1792506	0.17313194	-1.1098762
1443697083048403911	1.0937269	0.1852293	-1.1700425
1443697083053439312	0.1359517	-0.06961155	-1.7360978
1443697083063540630	-0.80378234	-0.46061134	-2.1429162
1443697083068576030	-0.8827519	-0.44622707	-2.1835775
1443697083073641948	-0.5585922	-1.4274569	-2.3524094
1443697083078829937	-0.63660496	-1.410183	-2.3888173
1443697083084170513	-0.19366491	-2.010128	-2.4131355
1443697083088900738	-0.26614493	-1.9911633	-2.4464626
1443697083093753032	-0.50021553	-2.3624535	-3.0102856
1443697083098849468	0.14791882	-2.6752157	-3.542438
1443697083103823833	0.07019484	-2.6517715	-3.574508
1443697083107150249	0.018963575	-2.634019	-3.5930295
1443697083113894634	0.14042127	-2.9232206	-3.9422328
1443697083118838482	0.06779277	-2.8983154	-3.970199
1443697083124118023	-0.35031176	-3.0423603	-3.663753
1443697083128939800	-0.41373956	-3.0167847	-3.693584
1443697083134707622	-1.1872238	-2.9668932	-3.426982
1443697083141940288	-1.7335424	-3.1007738	-3.3019893
1443697083149752788	-2.0594602	-3.0385733	-2.937281
1443697083154147320	-2.0938392	-3.014676	-2.9700017
1443697083157687359	-2.1169605	-2.994811	-2.994835
1443697083164370708	-3.0181513	-3.7711887	-2.9507859
1443697083169406109	-3.4305778	-4.5865555	-2.1269906
1443697083174472027	-3.4465032	-4.5609894	-2.162857
1443697083179354839	-3.7911024	-5.114108	-1.6339011
1443697083184390239	-3.7970197	-5.090332	-1.6660385
1443697083189425640	-4.1789255	-5.5837173	-1.6025383
1443697083194583111	-4.176979	-5.561509	-1.6301711
1443697083199984722	-3.9659338	-6.026618	-1.1326203
1443697083204684429	-3.9566152	-6.007786	-1.1518204
1443697083214755230	-3.6721969	-6.075136	-0.46310377
1443697083219638042	-3.2879853	-5.832698	0.6981945
1443697083224795513	-3.2669456	-5.8202353	0.68619394
1443697083229739361	-2.9933677	-5.6529255	1.1425023
1443697083234744243	-2.9703054	-5.6432123	1.1357367
1443697083239810161	-2.6856422	-5.494754	1.021318
1443697083244967632	-2.6586628	-5.4881744	1.0211256
1443697083250521831	-2.5052323	-5.030429	0.65082526
1443697083254885845	-2.4794111	-5.0274544	0.6607146
1443697083265109234	-2.3634367	-3.8568707	0.35304618
1443697083269961529	-2.0893576	-2.1560478	0.54547024
1443697083275180034	-2.0602827	-2.1670752	0.58094406
1443697083280032329	-1.3692329	0.120669365	1.1276865
1443697083286471538	-1.3356453	0.100328445	1.175834
1443697083295260601	-0.17040741	2.7178593	2.1977043
1443697083300906353	1.2709343	5.2264643	4.1446495
1443697083306521587	2.7517824	8.179784	5.4541264
1443697083308596782	2.7600312	8.158658	5.4496427
1443697083316470318	4.020642	10.848429	5.9456787
1443697083320346050	4.040991	10.822842	5.9286547
1443697083325503521	5.2839193	11.011645	5.9261217
1443697083330569439	5.3045087	10.99078	5.89029
1443697083336154155	7.35476	8.401401	5.3341093
1443697083340640239	7.3550515	8.390904	5.2911644
1443697083345523052	7.095182	5.506942	4.1005716
1443697083352420025	7.0719843	5.5157814	4.028269
1443697083355593853	5.909175	2.6501198	3.5122156
1443697083359103374	5.881447	2.6574526	3.470835
1443697083365664654	4.8380685	-0.16362667	3.3844397
1443697083370730571	3.751401	-2.552431	3.2657287
1443697083375735454	3.7171664	-2.5289469	3.2168903
1443697083380740337	3.6857214	-2.5062466	3.1700952
1443697083386294536	2.2439094	-4.0049543	3.193044
1443697083390994243	2.2227528	-3.9823532	3.1537023
1443697083395877056	0.6223124	-4.252345	2.7913163
1443697083400942974	0.6103833	-4.23238	2.7598085
1443697083405917339	-1.004376	-2.84721	0.9893229
1443697083415988140	-3.0046802	0.1215868	-0.4218769
1443697083421054058	-2.995333	0.119194984	-0.41665912
1443697083426119976	-4.959531	4.462162	-2.5439653
1443697083431277446	-4.9510393	4.444441	-2.5144997
1443697083437045269	-6.8826747	8.487688	-6.6054535
1443697083441348247	-6.8626766	8.456299	-6.5553026
1443697083446231060	-7.5050907	11.626432	-8.2257185
1443697083451266460	-10.36608	11.800486	-7.728016
1443697083456301861	-10.322679	11.756955	-7.6642685
1443697083459780864	-10.282204	11.720697	-7.620425
1443697083466372661	-10.906098	8.317924	-0.740458
1443697083472384624	-4.1292634	1.0866756	5.630131
1443697083480319195	-4.0997877	1.0859013	5.604362
1443697083486666851	-2.5756028	-4.3597374	4.6325464
1443697083492251568	-4.847816	-5.4532423	0.3309822
1443697083496737652	-4.8643675	-5.4336452	0.3160746
1443697083501650982	-5.914257	-6.0239754	-2.8336375
1443697083506808452	-5.922207	-6.0147038	-2.8085256
1443697083510012798	-5.9183702	-6.006442	-2.7854493
1443697083516726665	-5.2278366	-6.7230816	-3.8274996
1443697083521792583	-4.611072	-6.6140327	-4.675517
1443697083526919536	-4.5820103	-6.6194515	-4.610693
1443697083531832866	-4.6807604	-5.621622	-5.5985737
1443697083536868267	-4.6447244	-5.629635	-5.529716
1443697083541903667	-4.601099	-5.639038	-5.457309
1443697083547061138	-3.8408957	-4.7049675	-7.21588
1443697083552462749	-2.6950402	-3.0211525	-8.701702
1443697083557162456	-2.6495082	-3.0390625	-8.603098
1443697083560244732	-1.4297361	-1.3135948	-8.890562
1443697083567538433	-1.369058	-1.351572	-8.714624
1443697083572085552	-0.4414199	0.14598751	-7.8953485
1443697083577304058	-0.39883757	0.117715836	-7.751342
1443697083582156353	1.6933849	1.5292892	-6.647919
1443697083587252788	1.7374823	1.5025082	-6.5097795
1443697083592257671	2.5489597	2.9495935	-5.7118464
1443697083597415142	2.8640113	4.398138	-4.189302
1443697083602938823	2.9224324	4.372038	-4.070863
1443697083607516460	2.9722326	4.3511496	-3.9814086
1443697083617617779	3.3804727	5.3801346	-2.7658806
1443697083622439556	3.238994	5.489375	-1.0504541
1443697083627719097	3.2979794	5.4711084	-0.98474616
1443697083632540874	3.2862651	4.265258	0.4266956
1443697083637576275	3.2148173	2.063097	0.6875232
1443697083642611675	3.265623	2.054675	0.7448846
1443697083648501568	2.4768445	-0.39997578	0.58040196
1443697083655368023	2.5245051	-0.40286922	0.66588604
1443697083661044292	0.602827	-2.313487	0.5451636
1443697083668185405	-0.8635495	-3.0498352	0.24998485
1443697083672793560	-0.8492555	-3.0443459	0.31017172
1443697083677828960	-1.936393	-3.365652	0.2682239
1443697083683047466	-1.9257246	-3.3586988	0.3360221
1443697083688510113	-2.8939385	-3.5100412	0.6182203
1443697083693087749	-2.8857265	-3.5019503	0.67718405
1443697083698031597	-2.3997035	-3.379962	-0.15513213
1443697083703005962	-2.3943307	-3.3711567	-0.08756229
1443697083708071880	-1.7785522	-3.0764503	-0.40169084
1443697083711581402	-1.7752701	-3.068081	-0.35166815
1443697083718142681	-1.4664906	-2.346816	-0.91807294
1443697083723147564	-1.4633166	-2.3377419	-0.8425235
1443697083728182964	-1.2659446	-1.196187	-2.3198214
1443697083733401470	-1.2578827	-1.1879616	-2.2379875
1443697083743014507	-1.0702221	-0.17162132	-3.2199495
1443697083743930034	-1.064805	-0.16999912	-3.2004094
1443697083748324566	-0.40083635	0.37631798	-2.99971
1443697083753512554	-0.37302554	0.3833437	-2.925445
1443697083758303814	-0.22730538	0.52250576	-1.7486926
1443697083761965923	-0.2021698	0.5270901	-1.7032582
1443697083768496685	0.22906792	0.05604267	-0.16471267
1443697083773501568	0.26718524	0.063503265	-0.11747813
1443697083778567486	0.7455883	-0.16901875	0.92554915
1443697083783724956	0.78681517	-0.16085052	0.9654591
1443697083789248638	1.3132516	-0.5230999	1.6462122
1443697083793856792	1.0294957	-0.92499065	1.9664756
1443697083798831157	1.0720866	-0.91416645	2.003347
1443697083803805523	1.1164931	-0.9027605	2.040793
1443697083808779888	0.6426636	-1.0543423	1.6891502
1443697083812319927	0.67762005	-1.0446329	1.7151163
1443697083818850689	0.15853935	-0.8607254	1.078815
1443697083824374370	0.14979494	-0.26654148	0.3320948
1443697083829074077	0.20383054	-0.2539692	0.3704642
1443697083834323101	0.568026	0.43879128	-0.3221147
1443697083839663677	0.62983835	0.45305252	-0.27632117
1443697083844088726	0.42494333	1.2341452	-0.912344
1443697083849185161	0.4830464	1.2472668	-0.866498
1443697083854647808	2.0999093	1.9532337	-0.8311901
1443697083859316997	2.1477418	1.9641218	-0.79056954
1443697083863558941	3.6593597	2.5907965	-0.5317912
1443697083869357280	3.7132869	2.6035814	-0.48708725
1443697083874148540	4.0125055	2.854003	0.013178587
1443697083879275493	3.8531404	2.440631	0.3510015
1443697083884280376	3.8933544	2.4499855	0.38039136
1443697083890200786	3.9410567	2.46146	0.41219568
1443697083894381695	4.0475745	2.0270224	0.75209665
1443697083899569683	4.0847254	2.0359344	0.7733021
1443697083904940777	4.1361194	1.7159767	0.9175091
1443697083912844829	3.7749186	1.7628746	1.2887981
1443697083919711284	3.8139524	1.7725306	1.305357
1443697083924594097	2.9667964	2.2980156	1.5882988
1443697083929812603	2.9910274	2.301794	1.5962722
1443697083934634380	2.7701483	2.3232784	2.2030294
1443697083939730816	2.79027	2.325223	2.2055013
1443697083944735698	2.6763072	2.2474623	2.585942
1443697083949893169	2.3303685	2.1693058	2.3306353
1443697083955416851	2.345862	2.169899	2.3299978
1443697083959994488	2.3560202	2.1693249	2.3288307
1443697083970065288	2.2861185	2.0908585	1.5410964
1443697083974948101	2.3110263	2.079792	0.46170735
1443697083979891948	2.3187253	2.0793638	0.46601176
1443697083984988384	2.742722	2.417614	-0.18050432
1443697083990481548	3.0535033	3.0230684	0.014503956
1443697083999240093	3.0639522	3.0189629	0.009416819
1443697084005160503	3.197375	3.7667828	-0.15112305
1443697084010897808	3.1927254	3.7539864	-0.17213392
1443697084013522320	3.1858916	3.743371	-0.18281722
1443697084020297222	2.401148	3.5132484	-0.4641354
1443697084025210552	2.3900094	3.4975634	-0.4924369
1443697084030337505	1.7520814	2.5765152	0.5898671
1443697084035525493	1.7326374	2.5571747	0.54238343
1443697084040927105	1.245531	1.4060946	1.3591928
1443697084045626812	1.219992	1.3853779	1.295753
1443697084050509624	0.98978376	0.3168869	1.6734203
1443697084055575542	0.95354307	0.29239845	1.5836405
1443697084060549907	0.8686881	-0.087846756	1.8541389
1443697084064028911	0.83611107	-0.10613155	1.7787061
1443697084070590191	0.90973365	0.78356934	2.4809527
1443697084075656109	0.85167146	0.75429916	2.3559937
1443697084080722027	0.62017107	2.4816647	2.7605493
1443697084087435894	0.53089404	2.4420042	2.5795784
1443697084095980816	-0.101748824	4.466549	1.5443535
1443697084100833111	-0.49575663	6.027976	-0.47258484
1443697084105899029	-0.5724875	5.997553	-0.6038777
1443697084110903911	-0.64861083	5.969984	-0.72958946
1443697084114413433	-0.7015754	5.9484015	-0.8158064
1443697084121157818	-1.6936402	5.391526	-2.3979754
1443697084126010113	-1.7641542	5.3724566	-2.5100555
1443697084131198101	-2.3147914	4.1337156	-2.0696645
1443697084136050396	-2.8208516	2.9930182	-1.4716514
1443697084141116314	-2.8882341	2.9846668	-1.5825231
1443697084147128277	-2.4082065	2.4039297	-0.425913
1443697084157778911	-1.6115266	2.415678	0.43264896
1443697084161379986	-1.6640178	2.4135866	0.36148888
1443697084175540142	0.2384928	1.8695736	0.36265373
1443697084177462749	0.20143285	1.8688707	0.329198
1443697084186373882	0.07494828	1.1221838	0.11266458
1443697084192446880	-0.045027077	1.1348438	0.013743758
1443697084201663189	-0.35363814	0.50545025	-1.1133358
1443697084207064800	-0.7901342	0.0043878555	-1.8747243
1443697084211764507	-0.8703913	0.02098465	-1.9438624
1443697084221835308	-1.4908469	-0.5406656	-1.5450337
1443697084226718120	-1.508064	-1.4265823	-1.3310955
1443697084231906109	-1.5817258	-1.4028759	-1.3992704
1443697084236788921	-1.4318362	-2.2106771	-1.2051196
1443697084241854839	-1.5000168	-2.1838875	-1.2729126
1443697084246829204	-1.1639335	-2.6539755	-1.9304812
1443697084252047710	-1.2371004	-2.6225681	-2.0009694
1443697084257846050	-0.97485244	-2.7767563	-2.5967793
1443697084262087993	-0.6678345	-2.7495365	-2.994229
1443697084265322857	-0.7138778	-2.7266102	-3.0298855
1443697084272189312	-0.81050086	-2.6845808	-3.1076393
1443697084277041607	-0.43249333	-2.616434	-3.3902268
1443697084282229595	-0.49939156	-2.5840054	-3.4407423
1443697084287142925	-0.44088268	-2.8171835	-3.6369221
1443697084292147808	-0.4982859	-2.7857008	-3.6824036
1443697084297213726	-0.7661979	-3.3510075	-3.5945468
1443697084304843120	-0.7417476	-3.2931538	-3.1333253
1443697084312411480	-0.80550754	-3.2478085	-3.2094455
1443697084323428325	-1.5902803	-4.328782	-3.121089
1443697084327395611	-1.6071587	-4.302104	-3.1555955
1443697084333285503	-2.6838722	-6.0644197	-2.78921
1443697084337466411	-2.6934881	-6.0349445	-2.8236086
1443697084342593364	-3.2942688	-6.9108686	-2.1392982
1443697084347567730	-3.2965746	-6.8799677	-2.1768436
1443697084352725200	-3.6785834	-7.104766	-1.791614
1443697084358248882	-3.6702523	-7.0759134	-1.8283086
1443697084362673931	-3.7940457	-7.0566797	-1.4644163
1443697084366030864	-3.7795331	-7.0366583	-1.4805489
1443697084372775249	-3.5919027	-7.026862	-1.1707735
1443697084377688579	-3.565062	-7.009804	-1.1873035
1443697084382815532	-3.6458397	-6.6670475	-0.9625797
1443697084391757183	-3.2088485	-6.3342695	0.0804348
1443697084398074321	-3.1584651	-6.3284855	0.07437992
1443697084402957134	-2.3856492	-5.8249006	1.0725403
1443697084408023052	-2.339259	-5.823064	1.0746608
1443697084413027935	-2.2042022	-5.040203	0.73356366
1443697084416537456	-2.1695924	-5.039153	0.74135375
1443697084423068218	-2.189281	-3.7678642	0.054660082
1443697084428134136	-2.1374717	-3.7800379	0.085157394
1443697084433322124	-1.6491697	-1.6016083	-0.08425307
1443697084438327007	-1.595383	-1.6239471	-0.036401033
1443697084443850689	-0.44285154	1.4905586	1.2156656
1443697084448245220	-0.3960179	1.4632587	1.2625751
1443697084453433208	0.46794045	4.9012594	3.9335077
1443697084458834820	0.5249932	4.865714	3.9767344
1443697084463534527	1.4397254	8.463368	5.6929984
1443697084466708355	1.4718459	8.436567	5.6950235
1443697084473605327	2.7401986	11.436219	6.3155804
1443697084478457622	2.784577	11.408069	6.2969193
1443697084483676128	4.0890384	12.219081	6.3682632
1443697084489566021	4.255988	10.397691	5.237771
1443697084494265728	4.2739663	10.38476	5.1914697
1443697084499453716	4.63557	7.4553337	5.249567
1443697084503634624	4.631961	7.453418	5.19674
1443697084509219341	4.3655777	3.5972223	4.8336463
1443697084513888530	4.3536024	3.6077404	4.773711
1443697084523928814	3.2940893	-0.013705254	3.6048062
1443697084528842144	2.1875105	-2.581934	2.3089538
1443697084534030132	2.175638	-2.557868	2.2575557
1443697084538912945	1.1167136	-4.1735992	1.1272497
1443697084543978863	1.1110189	-4.1506586	1.089833
1443697084549014263	0.40853608	-5.232089	1.20755
1443697084554171734	0.40809	-5.211218	1.1802514
1443697084559603863	-0.6528405	-5.3697844	1.498611
1443697084564242534	-0.6448493	-5.3527966	1.4794908
1443697084574282818	-1.9052992	-4.4737253	0.44919276
1443697084579196148	-3.1441944	-2.570714	-0.90083003
1443697084584384136	-3.1242805	-2.5668678	-0.89891243
1443697084589297466	-4.741087	0.7251682	-2.7213595
1443697084594302349	-4.727271	0.7145529	-2.6947622
1443697084602053814	-6.3258743	4.408225	-5.040419
1443697084609378032	-6.9107885	8.828444	-3.7673013
1443697084614443950	-8.319399	12.5394335	-1.4191809
1443697084617800884	-8.299119	12.501298	-1.3857946
1443697084624636821	-8.26823	12.454067	-1.3303664
1443697084629550152	-5.6731706	13.416088	2.0470443
1443697084634768657	-5.644014	13.38101	2.057946
1443697084639590435	-0.19029462	7.7948055	3.2100825
1443697084644717388	-0.18446481	7.7813683	3.1945062
1443697084649691753	0.2791797	1.5044842	-0.21685791
1443697084654666118	0.25830287	1.508646	-0.23139381
1443697084660342388	-1.9828026	-1.072113	-3.295361
1443697084665835552	-2.731195	-2.568636	-4.308433
1443697084668154888	-2.7386775	-2.5643082	-4.293314
1443697084675906353	-2.3012774	-3.8088026	-4.8806415
1443697084679904155	-2.3028417	-3.8108683	-4.841085
1443697084685305767	-2.6447353	-4.382477	-5.225916
1443697084690097027	-2.6299663	-4.389469	-5.1714725
1443697084694949321	-2.9516814	-4.768754	-6.1371183
1443697084700015239	-2.9244313	-4.7790356	-6.069831
1443697084705050640	-2.8963008	-4.7899513	-5.999398
1443697084710910015	-2.2412202	-4.8399954	-6.814725
1443697084715151958	-1.4087186	-4.1268806	-7.32487
1443697084725222759	-0.67534935	-2.440915	-7.7158957
1443697084730258159	-0.6483855	-2.4648724	-7.600787
1443697084735293560	-0.71418786	-0.86827564	-6.984209
1443697084740451030	-0.68312526	-0.89727974	-6.8524175
1443697084745852642	0.16585171	0.53321934	-6.5071406
1443697084750582866	0.204193	0.50586605	-6.3821235
1443697084755404644	1.8898797	2.0560484	-5.972598
1443697084760512077	1.9391724	2.028246	-5.8482428
1443697084765486443	3.0871365	3.5654898	-5.5580077
1443697084775557243	2.41897	4.817254	-4.6898456
1443697084780592644	2.474754	4.7944117	-4.600031
1443697084785658562	1.9075131	5.472027	-2.5223966
1443697084790846550	1.974064	5.4513607	-2.4485893
1443697084796217644	1.9591926	4.704921	-0.31264126
1443697084800947868	2.137792	2.4982605	0.4970529
1443697084805769646	2.19717	2.487688	0.5538723
1443697084814314568	1.3636403	-0.25505638	0.92338043
1443697084815840446	1.375947	-0.2558794	0.9408142
1443697084819349968	1.4050686	-0.25840187	0.9844147
1443697084826094353	-0.0669429	-2.3062973	1.2914506
1443697084831740105	-1.7286423	-3.4794874	1.817066
1443697084836134636	-1.706594	-3.475463	1.8758683
1443697084841749870	-2.345447	-4.1406593	1.0805138
1443697084846052849	-2.3302538	-4.1347313	1.1438867
1443697084851149284	-1.6946629	-4.3654013	0.01568368
1443697084856306755	-1.685751	-4.3587627	0.10176867
1443697084861891472	-1.2715365	-4.189293	-0.3232125
1443697084866347038	-1.2688832	-4.181534	-0.2435424
1443697084869551384	-1.266655	-4.173127	-0.18617547
1443697084876448357	-1.4663494	-3.503603	-0.37286863
1443697084881331169	-1.0963252	-2.568348	-1.2720454
1443697084886519157	-1.0833895	-2.5604925	-1.186315
1443697084891371452	0.07988095	-1.4583521	-2.3277142
1443697084901900017	0.57072985	-0.41181946	-2.5728614
1443697084902846062	0.5746792	-0.4099388	-2.5540466
1443697084906660759	0.5941639	-0.4047022	-2.4943728
1443697084911574089	0.86687636	0.07396507	-2.1417906
1443697084916731560	0.9007343	0.080994606	-2.070209
1443697084926802361	1.3451707	0.35670185	-1.3302833
1443697084931685173	1.512459	0.13138485	-0.47777176
1443697084936903679	1.5595485	0.14045525	-0.42318487
1443697084941664421	1.0868267	-0.31520462	0.0063940287
1443697084946852409	1.137723	-0.3040514	0.05803895
1443697084951826775	1.0967138	-0.9135637	0.34843087
1443697084957014763	1.1497865	-0.89983463	0.39892054
1443697084962538444	1.1164533	-1.3073196	0.81259894
1443697084967085564	1.0563264	-1.1869411	1.2772132
1443697084970289909	1.0894012	-1.1761951	1.3047974
1443697084977186882	1.1638296	-1.155283	1.3656144
1443697084982069694	1.1279978	-0.594779	1.3746351
1443697084989699089	1.6214442	0.11201286	0.9926505
1443697084992079460	1.6455208	0.11920929	1.0124664
1443697084998213493	2.372025	0.8254776	0.3160622
1443697085002180778	2.4123416	0.8372507	0.3537532
1443697085008253777	2.9670305	1.6008043	-0.413764
1443697085012678825	3.01054	1.6137505	-0.36868083
1443697085017744743	3.0601032	1.6295528	-0.3166393
1443697085020643913	3.3791409	2.3285847	-0.71192133
1443697085027418816	3.4776297	2.800228	-0.75864995
1443697085032362663	3.5235367	2.8138084	-0.71083546
1443697085037398064	3.3350177	3.2884178	-0.6487678
1443697085042463982	3.2234263	3.0860834	-0.33488572
1443697085048292839	3.2783422	3.1014633	-0.2923441
1443697085052534782	3.3151035	3.1102734	-0.2644353
1443697085057539665	3.356885	3.1207504	-0.23528004
1443697085063429558	3.4452326	2.6729002	0.36415052
1443697085067610466	3.5996177	2.2824411	0.75502825
1443697085077406609	3.4420147	2.4240131	1.5505583
1443697085082899773	3.2427878	2.896576	2.011613
1443697085088087761	3.256189	2.8966036	2.0129633
1443697085092940056	3.2659743	2.8947058	2.0096726
1443697085097853386	3.204308	2.8802109	1.9818323
1443697085103010857	3.2130988	2.877201	1.9747388
1443697085107893669	3.1062882	2.5660448	2.2495637
1443697085112929069	2.643073	2.3071756	2.9087324
1443697085117964470	2.649341	2.302477	2.890911
1443697085128035271	3.2911851	2.3053513	2.1437259
1443697085133070671	3.295283	2.2998552	2.1244054
1443697085138289177	4.0231404	2.7510986	0.82600474
1443697085143324577	4.0222697	2.7432709	0.80654955
1443697085149000847	4.099126	3.598157	-0.8420193
1443697085153425896	3.9985645	3.866867	-1.2366335
1443697085158278191	3.9875076	3.8521032	-1.2624701
1443697085166304314	3.4161444	3.4745274	-1.1560512
1443697085168318474	3.4034326	3.4623547	-1.1713713
1443697085171858513	3.3840933	3.4453754	-1.2032826
1443697085178541862	2.2752051	2.5877972	-1.3669033
1443697085183729851	1.0406191	1.3227205	-1.0932229
1443697085188673698	0.9963672	1.2960052	-1.1743033
1443697085193464958	-0.23180401	0.3395977	0.076842904
1443697085198622429	-0.2824185	0.31338978	-0.017919421
1443697085203505241	-0.91788673	0.8334656	1.3797994
1443697085208754265	-0.9810724	0.8046999	1.2707149
1443697085214338982	-1.1192926	2.7815142	2.307939
1443697085218825066	-1.1827334	2.7532597	2.2059844
1443697085223067009	-0.9386505	5.002349	2.2810068
1443697085228926384	-1.0336962	4.9645987	2.1418009
1443697085233778679	-0.5541259	7.278138	0.93939096
1443697085238966667	-0.64476657	7.242552	0.8138175
1443697085243879997	-0.2917199	7.9255276	-0.7896097
1443697085253706657	-0.81944275	6.8291254	-2.3446608
1443697085254622185	-0.83341527	6.812869	-2.3610885
1443697085259108269	-0.9070141	6.789893	-2.459415
1443697085264052116	-2.0304608	5.425127	-3.0093224
1443697085269056999	-2.9645789	4.596571	-2.5234387
1443697085272413933	-3.0082712	4.5844193	-2.5904434
1443697085279249870	-3.0992508	4.5720234	-2.7264926
1443697085284193718	-2.6339588	3.8039703	-1.2769395
1443697085289381706	-2.7018552	3.7967844	-1.3721362
1443697085294234001	-1.6387985	3.2414808	-0.106701076
1443697085299330437	-1.7126328	3.2378035	-0.19937164
1443697085304304802	-0.6157618	2.7478876	0.3228287
1443697085309309685	-0.700636	2.7471027	0.23808235
1443697085315046989	-0.4552294	1.9460068	0.97184587
1443697085319594109	-0.53822124	1.9485006	0.9001665
1443697085329481804	-0.25427267	0.763257	0.9588505
1443697085340956413	0.42305613	-0.7596655	-1.6737441
1443697085350172722	-0.36643872	-0.9004488	-3.2570796
1443697085354658806	-0.9488848	-1.1673021	-3.8588479
1443697085359938347	-1.0407873	-1.149087	-3.910816
1443697085365156853	-1.1290064	-1.1309357	-3.9568372
1443697085369765007	-1.2034127	-1.1148329	-3.9916883
1443697085373274528	-0.7022485	-1.5783348	-3.5020022
1443697085379805290	-0.94335806	-2.1254349	-3.4389687
1443697085384901726	-1.0241889	-2.1040945	-3.4752612
1443697085389876091	-1.2440913	-2.561901	-3.7293448
1443697085394942009	-1.320733	-2.5370998	-3.7712243
1443697085400404655	-1.2665135	-2.7870054	-3.583065
1443697085405134880	-1.3389604	-2.7597551	-3.6282873
1443697085410048210	-1.0917854	-3.095708	-3.6579711
1443697085415083611	-1.1658741	-3.063695	-3.712397
1443697085420088493	-1.6310662	-3.3673382	-4.3333273
1443697085427351677	-1.7236447	-3.3200293	-4.4247265
1443697085435377800	-2.4168062	-2.1651478	-4.06065
1443697085440169060	-2.4583173	-2.1329012	-4.125207
1443697085445448601	-2.496476	-2.0981684	-4.198512
1443697085451002800	-3.386407	-3.0427723	-4.5522795
1443697085455519402	-3.4026523	-3.01188	-4.612623
1443697085460371696	-4.0631185	-3.9603605	-4.223083
1443697085465437614	-4.069952	-3.9262447	-4.290043
1443697085470442497	-4.4045343	-4.561537	-4.008902
1443697085480696403	-4.9307094	-4.967349	-1.9735365
1443697085485487663	-4.9225264	-4.9339542	-2.0371037
1443697085490614616	-4.5099664	-5.467778	-0.7662878
1443697085495741569	-4.49726	-5.433625	-0.83146834
1443697085501295769	-4.032897	-5.8010435	-0.3201425
1443697085506697380	-4.108594	-6.0027924	-0.16893578
1443697085510908806	-4.092782	-5.9782076	-0.2048862
1443697085516157829	-3.787024	-6.109701	-0.12656307
1443697085520827019	-3.7678227	-6.090521	-0.14920545
1443697085524336540	-3.7500715	-6.0755816	-0.15997839
1443697085530897819	-3.2871995	-6.082184	-0.31922293
1443697085535933220	-3.1087184	-5.7754135	0.22919321
1443697085541151726	-3.085372	-5.769599	0.23608112
1443697085545973503	-2.3977056	-5.5450144	-0.03240013
1443697085558119499	-2.0127156	-4.9318113	-0.14200783
1443697085566115105	-1.7296987	-3.8421907	0.02161026
1443697085571150505	-1.7116966	-3.85464	0.069729805
1443697085581404411	-1.3470565	-2.187131	0.34723234
1443697085586256706	-0.33974934	0.16388416	1.1395369
1443697085591475212	-0.32036936	0.13971424	1.197382
1443697085596358025	-0.29984987	0.11737442	1.2506325
1443697085601393425	1.3301655	2.9919386	2.6707482
1443697085606428825	2.2470644	6.1754007	4.443529
1443697085611616814	2.2693803	6.145441	4.4744096
1443697085617109978	3.0882692	9.563065	5.573514
1443697085621687614	3.1092384	9.535355	5.573168
1443697085631727898	3.4206297	11.750421	6.908482
1443697085636610710	5.3249445	11.029119	8.168858
1443697085644728386	5.8692336	8.585013	6.535215
1443697085646712028	5.8623767	8.573659	6.4994326
1443697085651716911	4.905542	4.9924927	3.850068
1443697085656752312	4.8913336	5.003357	3.7818353
1443697085661818230	4.870639	5.014119	3.7180812
1443697085667799675	4.248076	1.6639471	2.3599563
1443697085671766960	4.227587	1.6748533	2.32061
1443697085683180534	3.5790894	-3.7139082	0.8465433
1443697085686964714	3.5658731	-3.6944313	0.8164635
1443697085692244255	3.1157594	-5.6836243	1.1101363
1443697085697157585	3.1085863	-5.6576376	1.0720665
1443697085703169548	2.7053833	-7.055133	2.3142314
1443697085707228386	2.7064085	-7.0302677	2.2815247
1443697085712141716	0.8566389	-7.9129972	1.8276846
1443697085717817986	0.8730042	-7.885215	1.7894354
1443697085722212517	-1.5458924	-7.158719	-1.0075271
1443697085725722038	-1.5322928	-7.14067	-1.0168383
1443697085732832634	-4.564847	-4.9031916	-2.4132078
1443697085737318718	-4.5533338	-4.8988867	-2.3949687
1443697085742354118	-6.7885823	-1.0795307	-4.2906327
1443697085747389519	-6.7836804	-1.0983877	-4.227067
1443697085752913200	-9.175194	3.745615	-6.9394417
1443697085757612907	-9.158448	3.7062416	-6.843177
1443697085762495720	-10.6497965	9.481753	-9.578794
1443697085767470085	-10.60454	9.421946	-9.457146
1443697085772566521	-14.143393	16.693645	-3.6868215
1443697085776045525	-14.080081	16.63232	-3.612414
1443697085782637321	-15.125109	20.595774	6.0966287
1443697085787703239	-15.014534	20.524607	6.1485543
1443697085792708122	-1.783818	11.75494	9.179968
1443697085797835075	-1.6832079	11.722832	9.159849
1443697085803541862	4.2336736	2.0009775	0.94140244
1443697085807905876	4.2769284	2.0073853	0.8943751
1443697085812849724	0.9772025	-2.1267204	-4.5108166
1443697085820936882	-1.5343943	-3.9602814	-4.769098
1443697085822920525	-1.5378355	-3.95043	-4.762909
1443697085833143913	-2.535562	-5.527293	-3.1395261
1443697085838942253	-3.0076294	-6.540804	-2.0965507
1443697085843184196	-3.0056176	-6.5374203	-2.0585206
1443697085849318230	-3.9756052	-6.345131	-2.9475377
1443697085853682243	-3.9673157	-6.343609	-2.9026077
1443697085858870232	-3.3232965	-5.657296	-5.0429945
1443697085863203728	-3.3162766	-5.658848	-4.9864674
1443697085868330681	-3.1233566	-4.954508	-6.0969973
1443697085873396599	-3.1206412	-4.964241	-6.010109
1443697085876753532	-3.1185157	-4.967843	-5.943962
1443697085883375847	-1.454055	-4.020278	-8.692881
1443697085888380730	-1.1670995	-2.5516891	-9.495642
1443697085893416130	-1.169539	-2.572219	-9.359991
1443697085898421013	-0.9685412	-0.6379738	-7.663353
1443697085906904900	-0.94145066	-0.680913	-7.4199066
1443697085908613884	-0.9308511	-0.68792915	-7.358035
1443697085913649284	0.30711415	1.1662092	-5.5552387
1443697085919050896	1.6691519	2.7960024	-4.475682
1443697085923811638	1.7116619	2.7742577	-4.3594155
1443697085926924431	1.6348855	4.347554	-3.84234
1443697085933821403	0.85044384	5.5558043	-2.684345
1443697085938734734	0.909166	5.5351515	-2.6023908
1443697085943892204	0.9737678	5.515971	-2.5262675
1443697085948805534	1.413842	5.341071	0.30582607
1443697085953779900	1.4760797	5.325202	0.36215037
1443697085958876335	1.4702115	4.1090508	1.2207308
1443697085964003288	2.0984266	1.6578865	1.1139383
1443697085969801628	2.1531422	1.6510057	1.1840513
1443697085974074089	2.0320675	-1.1222916	1.0002296
1443697085977339470	2.0525854	-1.1215868	1.0451
1443697085984175407	2.0934255	-1.122055	1.1453353
1443697085989088737	0.41699514	-2.6853504	0.46848524
1443697085994276726	0.43268618	-2.6809864	0.5552387
1443697085999159538	-0.6215822	-3.6693258	-0.35360858
1443697086004164421	-1.215366	-4.4733887	-1.4891628
1443697086009230339	-1.2059615	-4.4630346	-1.394064
1443697086015333855	-1.2035978	-4.8285475	-1.7794154
1443697086020003044	-1.1944828	-4.815711	-1.6919962
1443697086025191032	-0.7408316	-4.811305	-1.415138
1443697086027693474	-0.7347229	-4.799119	-1.3700572
1443697086035139763	-0.7219039	-3.873186	-1.2727531
1443697086039412224	-0.7079186	-3.8603048	-1.2049106
1443697086044478142	-0.20772338	-2.6998634	-1.9583216
1443697086049605095	-0.18368846	-2.687296	-1.8821564
1443697086055281364	-0.052644283	-1.1235123	-2.2364047
1443697086059675896	-0.024015725	-1.1139879	-2.173013
1443697086064619743	-0.31343412	-0.024811745	-2.14926
1443697086070479118	-0.26472527	-0.013519287	-2.0699873
1443697086077315056	-0.08394951	0.6526718	-1.5949184
1443697086078200066	-0.075680315	0.6532507	-1.5806893
1443697086084791862	0.097360194	0.7146454	-0.5629034
1443697086089796745	0.82617813	0.3740387	0.92536926
1443697086094832146	0.8736641	0.385396	0.978606
1443697086099867546	0.92086864	0.3966999	1.027937
1443697086105635368	1.194389	0.06575775	2.2118735
1443697086110029900	1.23406	0.07595539	2.2454505
1443697086114973747	0.55893546	-0.2290411	2.641549
1443697086120802605	0.7169019	-0.19321918	2.0987768
1443697086125075066	0.7576976	-0.18232536	2.1270323
1443697086128584587	0.7918346	-0.17299652	2.1493661
1443697086135145866	0.70339644	0.016822815	1.3068804
1443697086140150749	0.75454736	0.030854225	1.3430107
1443697086145247185	1.0317614	0.19968605	0.459944
1443697086150404655	1.0821036	0.21477127	0.5003792
1443697086156233513	1.9059719	0.53787327	-0.35721147
1443697086165053093	3.0313811	0.7338438	-0.94882333
1443697086166182243	3.0351138	0.73586464	-0.9376806
1443697086170515739	3.0665379	0.74793816	-0.9008393
1443697086175673210	3.8014903	1.0362005	-0.96742177
1443697086185621941	3.9299536	1.6080627	-0.34582376
1443697086191176140	2.9368992	2.360261	0.49029016
1443697086195570671	2.9692554	2.3690634	0.51731753
1443697086201124870	2.5873892	2.7116528	0.70396566
1443697086206160271	2.8799102	2.733817	0.42882752
1443697086210890495	2.9151192	2.7412663	0.4483862
1443697086215681755	2.9487848	2.7481232	0.46593308
1443697086220656120	2.9807646	2.75453	0.48227954
1443697086225935661	3.621163	2.3916311	0.0691483
1443697086236006462	3.8040383	1.9947271	0.26297903
1443697086240858757	3.580128	2.120716	0.9255972
1443697086246138298	3.3947072	2.3996134	1.7112632
1443697086254103386	3.4207525	2.401886	1.7076571
1443697086261030876	2.9926329	2.6418543	2.696196
1443697086266157829	3.0028393	2.6377153	2.681575
1443697086271528923	2.3707762	2.5424252	3.076872
1443697086276259148	2.378476	2.5378218	3.061937
1443697086279463493	2.088955	2.3920727	2.0113773
1443697086286329948	2.3403287	2.6599903	0.97477007
1443697086291273796	2.344475	2.6547537	0.96572924
1443697086296400749	2.3478293	2.6491365	0.955796
1443697086301314079	2.5984414	3.2732515	0.41159868
1443697086306318962	2.5997546	3.2646456	0.39719534
1443697086311384880	2.614733	3.8433247	-0.014957666
1443697086316572868	2.6143043	3.8305664	-0.0394516
1443697086322066032	2.6719408	3.7273932	-0.2518227
1443697086326613152	2.1702666	3.0496426	-0.16759491
1443697086329848015	2.1641111	3.0366945	-0.19438648
1443697086336744987	2.1507468	3.013197	-0.2618618
1443697086341566765	1.6106117	2.3074121	0.037091374
1443697086346693718	1.591454	2.2851439	-0.029796004
1443697086351668083	1.3443426	1.3741455	0.64218557
1443697086357557976	1.0691788	0.1021595	0.888479
1443697086361738884	1.0396125	0.08265114	0.8117955
1443697086367171013	0.31203628	-0.55786324	1.1384591
1443697086372603142	0.26216483	-0.5843334	1.0236347
1443697086377669060	-0.14218485	-0.22613621	1.6869346
1443697086380171501	-0.16872227	-0.23848438	1.6264145
1443697086387068474	0.044944644	0.72111416	2.308979
1443697086391829216	-0.01365912	0.6966648	2.1862044
1443697086396956169	0.17136824	1.8915205	2.0641549
1443697086402144157	0.09677255	1.8648138	1.9207798
1443697086407973015	-0.34718335	3.628539	0.5845655
1443697086412245476	-0.41511	3.605771	0.46774232
1443697086417158806	-1.1103822	4.9810305	-1.1909548
1443697086422163689	-1.191501	4.9575768	-1.3150862
1443697086427199089	-1.777064	5.3616533	-2.4570181
1443697086430678093	-1.8293422	5.3445244	-2.5322156
1443697086437269890	-1.9383236	4.9153786	-2.7968533
1443697086442305290	-2.0113506	4.9008865	-2.9004235
1443697086447340691	-2.160733	4.51807	-2.5540192
1443697086452498161	-2.2338328	4.507801	-2.6568778
1443697086458265984	-1.9945338	4.098173	-1.6419857
1443697086462629997	-2.0581641	4.0915613	-1.7267549
1443697086467451775	-1.7184556	3.9216633	-0.7712836
1443697086473219597	-1.8098404	3.918994	-0.8805939
1443697086477553093	-1.2295773	3.4383898	-0.18289375
1443697086481062614	-1.2888432	3.4360237	-0.2456739
1443697086487776482	0.06508759	2.5605354	0.27202702
1443697086492628777	-0.027642518	2.5638313	0.19501472
1443697086497694694	0.6760737	1.8628235	0.44462335
1443697086505781853	1.4421506	0.8334322	-0.24177456
1443697086512922966	1.2932187	0.8499956	-0.3316847
1443697086517988884	1.6485703	0.043556213	-1.6731423
1443697086523939812	1.6907136	-0.38037968	-1.8752239
1443697086527876579	1.6104503	-0.3673687	-1.9123645
1443697086531416618	1.5407748	-0.35557365	-1.9427938
1443697086538099968	1.4943104	-1.1403055	-1.2114955
1443697086543104851	0.6030298	-1.811717	-0.63018167
1443697086548170769	0.51776755	-1.7886438	-0.682883
1443697086552962028	0.04776168	-2.6665297	-1.4420223
1443697086558150017	0.10324848	-3.3450298	-2.2445502
1443697086563154900	0.02555263	-3.3150682	-2.3000228
1443697086568190300	-0.05138409	-3.284258	-2.3550663
1443697086573683464	-0.12769198	-3.4562807	-2.9657178
1443697086578383171	-0.19652927	-3.4263506	-3.0104406
1443697086593519890	0.25881875	-4.0987673	-4.8121257
1443697086598585808	0.008053303	-4.1882906	-4.3468
1443697086603407585	-0.044995904	-4.1572905	-4.383441
1443697086608351433	-0.09359765	-4.126136	-4.422059
1443697086613508903	-1.3117492	-3.7960157	-3.8008263
1443697086618696892	-1.3441449	-3.7655249	-3.8476923
1443697086624006950	-2.2765298	-3.6279287	-3.7251914
1443697086628737175	-2.2879784	-3.60143	-3.7708635
1443697086638807976	-3.0000527	-3.9137974	-3.9191456
1443697086643690788	-3.59476	-4.3825207	-3.3155892
1443697086648878777	-3.584637	-4.357422	-3.3616292
1443697086653792107	-3.875557	-4.89203	-2.8997574
1443697086658858025	-3.8577986	-4.8690147	-2.9399238
1443697086663832390	-4.2048664	-5.4488115	-2.8769915
1443697086669050896	-4.182308	-5.4260645	-2.9140873
1443697086674849236	-3.9537704	-6.019188	-2.6932306
1443697086679121696	-4.0232973	-6.325145	-1.5681062
1443697086682295525	-4.0033236	-6.3088245	-1.581017
1443697086689039909	-3.9683242	-6.2913218	-1.6061785
1443697086694044792	-3.5151484	-6.560875	-1.0331616
1443697086700117790	-3.690918	-6.3446074	-0.09147334
1443697086704298698	-3.6637645	-6.3333235	-0.09670353
1443697086709730827	-3.9119534	-6.246209	0.26236868
1443697086714216911	-3.8818254	-6.2393427	0.26728415
1443697086719526970	-3.8780751	-6.0212803	-0.028856754
1443697086724867546	-3.84261	-6.021305	-0.007422209
1443697086729353630	-3.718573	-5.261058	-0.12943006
1443697086732680046	-3.6952312	-5.260391	-0.107453346
1443697086739424431	-3.132845	-3.7892628	-0.13833165
1443697086744429314	-3.103015	-3.8023138	-0.08742857
1443697086749434196	-2.2866268	-1.7969112	0.02119422
1443697086754652702	-2.260154	-1.8180704	0.0876925
1443697086760390007	-1.0066171	0.7423706	0.6306181
1443697086764692986	-0.9851911	0.7197504	0.68878937
1443697086769606316	0.8595834	3.896676	2.2920024
1443697086774641716	0.8845713	3.8649511	2.3553946
1443697086779646599	2.531609	7.789199	4.6101694
1443697086789778435	4.202981	11.799755	6.2298517
1443697086794752800	4.2319794	11.762446	6.2459474
1443697086799788200	5.056406	13.683719	7.587858
1443697086805006706	5.082442	13.651075	7.5701284
1443697086810713493	5.8144336	11.018708	7.8935204
1443697086814924919	5.8196645	11.000926	7.8498297
1443697086820112907	7.465298	6.8021984	6.6331506
1443697086825850212	7.447587	6.804902	6.5600567
1443697086833510124	5.8719645	3.4265966	4.9786863
1443697086840223991	5.065947	1.2971249	3.8398757
1443697086845167839	5.0291142	1.3114691	3.7879417
1443697086850294792	3.8864965	-0.30699062	2.5272698
1443697086856489861	2.279594	-1.2457991	2.9314718
1443697086860243523	2.2601643	-1.2327242	2.899683
1443697086865858757	1.6757923	-0.630826	2.946878
1443697086870283806	1.6602571	-0.61937904	2.9158154
1443697086876600944	1.7931278	1.5745773	1.5048323
1443697086886702263	-0.006703973	5.4968863	0.14499259
1443697086887678825	-0.00786531	5.4862165	0.14295053
1443697086890425407	-0.012763739	5.476055	0.1411941
1443697086895491325	-2.1686788	9.42176	-3.986506
1443697086900526726	-2.1656103	9.3988905	-3.9680521
1443697086905531609	-5.319045	11.987541	-7.6548085
1443697086911024773	-5.294005	11.953	-7.616502
1443697086915632927	-9.379454	9.885968	-8.8536215
1443697086920820915	-9.332445	9.856228	-8.819031
1443697086926222527	-9.858365	6.128067	-3.4653704
1443697086930891716	-9.813172	6.1141577	-3.464804
1443697086940962517	-8.015574	-0.6847458	4.7125564
1443697086945845329	-5.587607	-7.3525677	6.3415246
1443697086951002800	-5.6099186	-7.3172283	6.2814264
1443697086955946648	-6.483015	-8.958729	3.288159
1443697086960951530	-6.513645	-8.9221115	3.2468033
1443697086966017448	-5.753858	-7.846141	-0.19375825
1443697086973860466	-5.557866	-7.943184	-2.2206695
1443697086981276237	-4.782623	-7.3849115	-5.1677203
1443697086984419548	-4.7683797	-7.378789	-5.1320086
1443697086991286003	-4.7243314	-7.3901434	-5.057042
1443697086996168816	-4.0174227	-5.926779	-7.1255016
1443697087001417839	-3.9588637	-5.942852	-7.0431523
1443697087006270134	-3.5337148	-3.5492868	-8.7231045
1443697087011366569	-3.472547	-3.5753508	-8.614951
1443697087016340935	-2.5530524	-1.3124857	-9.772064
1443697087021467888	-2.4969862	-1.3462696	-9.637346
1443697087027022087	-2.1114898	0.6410084	-8.87751
1443697087032728874	-1.2978957	2.457593	-7.3171577
1443697087034773552	-1.278153	2.439229	-7.249672
1443697087042708122	0.6767726	3.8150053	-5.632849
1443697087046522819	0.7136634	3.7869806	-5.5314484
1443697087052015984	3.9594865	4.472208	-4.8699703
1443697087056624138	4.002248	4.443491	-4.762513
1443697087061720573	3.7444077	5.277006	-3.5944657
1443697087066664421	3.7939234	5.250022	-3.4960685
1443697087071730339	3.8456597	5.2251444	-3.4047694
1443697087077345573	2.895197	5.5594015	-1.9255828
1443697087081770622	3.2395668	4.534935	-0.21645582
1443697087085310661	3.276173	4.5192337	-0.17089403
1443697087091871941	3.6562967	2.5760527	0.07190329
1443697087102949821	3.4670815	0.32274723	0.10647619
1443697087111983025	2.4888196	-1.9179316	-0.0585981
1443697087117201530	2.5098975	-1.9194641	0.031253457
1443697087122084343	0.64435107	-3.3848066	-0.2225213
1443697087127119743	0.6582588	-3.381444	-0.13457543
1443697087132124626	-1.0821865	-3.822527	-0.23787278
1443697087142225944	-1.9405268	-3.738987	0.021971814
1443697087147261345	-1.9277277	-3.731719	0.10147342
1443697087152479851	-2.5220835	-3.4491968	-0.0329972
1443697087157454216	-2.5095367	-3.4412003	0.04488635
1443697087163038933	-2.1799502	-3.3977318	-0.1341901
1443697087167402946	-1.8658891	-3.2132635	-0.69941294
1443697087172560417	-1.853778	-3.2036486	-0.61632836
1443697087177992546	-1.7080399	-2.6163836	-1.2969738
1443697087182509148	-1.6929487	-2.6069384	-1.2210811
1443697087190596306	-1.1524842	-2.094736	-1.8335404
1443697087192549431	-1.1408887	-2.0878735	-1.797662
1443697087197554314	-1.1120384	-2.0765638	-1.7127961
1443697087202650749	-0.63611126	-1.2609177	-2.5186772
1443697087208906853	-0.115413904	-0.56732464	-3.038352
1443697087213545525	-0.077174395	-0.5578842	-2.9663942
1443697087218367302	0.6112019	0.06355858	-2.9421997
1443697087222914421	0.6539258	0.07228184	-2.8783436
1443697087227949821	1.1955321	0.45359802	-1.793481
1443697087233046257	1.2462444	0.4632244	-1.7320625
1443697087236220085	1.2769053	0.46904755	-1.6935441
1443697087243117058	1.9425724	0.3542471	0.017542243
1443697087247938835	1.7046955	-0.2516384	0.73255897
1443697087253096306	1.7574263	-0.2389412	0.7815857
1443697087258009636	1.4352318	-0.76599026	1.5595869
1443697087263869011	1.497761	-0.7490339	1.6138828
1443697087268110954	1.0381142	-1.0890732	2.0907571
1443697087277357780	1.0001659	-0.9487448	2.3498044
1443697087278883659	1.0160277	-0.94216824	2.3592691
1443697087283308708	1.066602	-0.9268122	2.394344
1443697087293379509	1.0976533	-0.63513947	2.031793
1443697087298292839	0.9123763	-0.05030155	1.0549594
1443697087303450310	0.965518	-0.03372097	1.0963485
1443697087308394157	0.711609	0.8376913	0.2318815
1443697087314192497	0.7723664	0.8562994	0.2827456
1443697087318587028	1.181446	1.4126854	-0.1547811
1443697087323561394	1.2333894	1.4285383	-0.10996652
1443697087329542839	1.8474221	1.8544884	-0.4096048
1443697087333662712	3.2663422	2.3260822	0.22172093
1443697087336897575	3.2930923	2.3336124	0.24805307
1443697087343764030	3.3552694	2.3539658	0.29921603
1443697087348646843	4.086711	2.7220411	1.0005198
1443697087353804314	4.126488	2.7341166	1.0317912
1443697087364912712	4.1166883	2.6103745	1.4765494
1443697087375044548	4.378481	1.9879131	1.0339351
1443697087379561150	4.4027634	1.9945803	1.0455179
1443697087384566032	4.427294	2.001073	1.0558386
1443697087387251579	3.9209504	2.148715	1.2917261
