accelerometer_timestamp	accelerometer_x_data	accelerometer_y_data	accelerometer_z_data
1444311491928284909	-1.3309021	9.117981	0.19406128
1444311491936677243	-1.4259949	8.895203	0.28572083
1444311491945069577	-1.3978577	8.720688	0.2811737
1444311491953461911	-1.3487854	8.597015	0.17051697
1444311491961854245	-1.2799072	8.494308	0.0034637451
1444311491970246579	-1.1479492	8.481461	-0.15538025
1444311491978638913	-1.049408	8.573135	-0.18023682
1444311491987031247	-0.8526764	8.743881	0.17553711
1444311491995423581	-0.7181549	8.823563	0.43429565
1444311492003815915	-0.53060913	8.855621	0.782074
1444311492012208249	-0.44154358	8.8858795	1.1434021
1444311492020600583	-0.49687195	8.892181	1.3846283
1444311492028992917	-0.73280334	8.9192505	1.3733215
1444311492037385251	-0.946579	9.072327	1.3067169
1444311492045777585	-1.102066	9.286774	1.157135
1444311492054169919	-1.2417297	9.3124695	1.063736
1444311492062562253	-1.5223846	9.372269	0.6956482
1444311492070954587	-1.2647858	9.366257	0.52207947
1444311492079346921	-1.1138458	9.437561	0.3892517
1444311492087739255	-1.1901703	9.625671	0.36026
1444311492096131589	-0.80674744	9.714951	0.6421509
1444311492104523923	-0.67048645	9.976181	0.84503174
1444311492112916257	-0.5462494	10.252914	0.9229889
1444311492121308591	-0.3813324	10.690903	0.79756165
1444311492129700924	-0.30532837	11.054245	0.7209625
1444311492138093258	-0.31549072	11.305832	0.76083374
1444311492146485592	-0.43455505	11.377975	0.85627747
1444311492154877926	-0.58984375	11.368851	0.87983704
1444311492163270260	-1.0614319	11.38916	1.3286438
1444311492171662594	-1.6235046	11.589661	1.7998962
1444311492180054928	-1.8473663	12.116074	1.7043152
1444311492188447262	-1.7879333	12.591171	1.390686
1444311492196839596	-1.9732208	13.134842	0.98913574
1444311492205231930	-2.2702026	13.558334	0.8413086
1444311492213624264	-2.1352997	13.591278	1.1535339
1444311492222016598	-1.607132	13.205261	1.2827606
1444311492230408932	-1.8727417	13.021042	0.85350037
1444311492238801266	-1.8205261	12.932495	0.28923035
1444311492247193600	-1.4517059	12.693985	0.62054443
1444311492255585934	-1.2247925	12.371475	1.2593842
1444311492263978268	-1.1121368	12.0672455	2.0503387
1444311492272370602	-0.8104706	11.758713	2.7024078
1444311492280762936	-0.36720276	10.510513	1.4491882
1444311492289155270	0.3173828	9.58345	1.3540955
1444311492297547604	1.1203156	8.832779	2.0483856
1444311492305939938	1.8033447	8.280533	2.3154755
1444311492314332272	2.3655548	7.7919006	2.084137
1444311492322724606	2.8106232	7.363266	1.3679657
1444311492331116940	3.2329407	7.5190125	0.32435608
1444311492339509274	3.575821	8.441696	0.2454834
1444311492347901608	3.8405762	9.645523	0.50338745
1444311492356293942	3.9032135	11.71759	1.1034393
1444311492364686276	3.5552673	13.191559	1.2106781
1444311492373078610	3.1664276	14.162277	0.93252563
1444311492381470944	2.8275757	14.655594	0.2922821
1444311492389863278	2.8074188	14.120316	-0.69236755
1444311492398255612	2.5169525	13.541107	-1.1121826
1444311492406647946	1.6703491	12.797806	-1.0428314
1444311492415040280	1.1885986	12.198273	-0.44247437
1444311492423432614	0.4371643	11.771469	0.050613403
1444311492431824948	-0.80126953	11.507584	0.18571472
1444311492440217282	-1.8180237	11.190048	0.24391174
1444311492448609616	-2.363861	10.391739	-0.07133484
1444311492457001950	-2.0675507	9.512924	-0.94714355
1444311492465394284	-1.9141846	8.841202	-0.8049164
1444311492473786618	-1.6176453	8.246231	-0.44204712
1444311492482178952	-1.3937683	7.5337067	-0.18615723
1444311492490571286	-1.2899628	6.8615875	-0.2926178
1444311492498963620	-1.1965027	6.469986	-0.58662415
1444311492507355954	-1.5305328	6.356125	-1.2516174
1444311492515748288	-1.4349823	6.2800903	-1.3380585
1444311492524140622	-1.3604431	6.401764	-1.3354797
1444311492532532956	-0.9368744	6.5014954	-1.2883453
1444311492540925290	-0.60466003	6.4540405	-1.0969086
1444311492549317624	-0.36897278	6.319351	-0.88145447
1444311492557709958	-0.26168823	6.1268463	-0.8089905
1444311492566102292	-0.19139099	5.9472656	-0.8682251
1444311492574494626	-0.11256409	5.7819214	-1.0070343
1444311492582886960	0.0017700195	5.538574	-1.2015839
1444311492591279294	0.095718384	5.2931366	-1.4636688
1444311492599671628	0.029525757	5.061859	-1.891449
1444311492608063962	-0.19654846	4.919037	-2.4305725
1444311492616456296	-0.39743042	4.8492126	-2.9009552
1444311492624848630	-0.60998535	4.806259	-3.3799286
1444311492633240964	-0.753067	4.8105316	-3.6532593
1444311492641633298	-0.91619873	4.70343	-3.8729248
1444311492650025632	-1.0406189	4.5487366	-4.0925903
1444311492658417966	-1.1093445	4.381317	-4.214798
1444311492666810299	-1.208313	4.35083	-4.174423
1444311492675202633	-1.3722382	4.49028	-4.0550537
1444311492683594967	-1.4852142	4.900543	-3.7593231
1444311492691987301	-1.6419983	5.370926	-3.6745148
1444311492700379635	-2.0906067	6.6042023	-3.8731537
1444311492708771969	-1.962616	7.85701	-4.24498
1444311492717164303	-1.8884125	9.721024	-4.7776794
1444311492725556637	-2.199463	11.878387	-5.036072
1444311492733948971	-2.7634888	13.899765	-4.826126
1444311492742341305	-3.5671082	16.49643	-4.0064697
1444311492750733639	-4.0143585	17.858734	-3.3158875
1444311492759125973	-4.0982513	17.556686	-3.3043976
1444311492767518307	-3.8098297	16.706818	-3.8084717
1444311492775910641	-3.0463104	15.437302	-3.978897
1444311492784302975	-1.9304962	13.760086	-3.7440338
1444311492792695309	-0.9906769	11.921707	-3.5658875
1444311492801087643	-0.5275116	9.548477	-3.7748108
1444311492809479977	0.09283447	7.7234497	-4.0018616
1444311492817872311	0.55126953	5.8167877	-4.5624847
1444311492826264645	0.91378784	4.9314117	-4.663086
1444311492834656979	0.89842224	4.370697	-4.7213287
1444311492843049313	0.37200928	4.7272644	-4.9273987
1444311492851441647	-0.29234314	5.8283997	-5.241699
1444311492859833981	-1.0063782	7.878357	-5.5177
1444311492868226315	-1.6138611	9.616806	-5.5862274
1444311492876618649	-2.2317047	12.330002	-5.2639923
1444311492885010983	-2.212204	14.479263	-4.0346527
1444311492893403317	-1.8615875	16.616959	-1.086441
1444311492901795651	-1.1018829	17.236877	1.8414154
1444311492910187985	0.13043213	16.3134	3.4000702
1444311492918580319	2.2347412	13.709808	3.0982056
1444311492926972653	3.0512695	11.985931	2.198578
1444311492935364987	3.8322296	10.43161	1.0820007
1444311492943757321	3.8142242	9.737167	0.062210083
1444311492952149655	3.5127563	8.796127	-0.9323425
1444311492960541989	3.0584717	7.7311554	-1.3725586
1444311492968934323	2.4307556	6.6342316	-1.5345917
1444311492977326657	1.2484741	5.5090637	-1.6745758
1444311492985718991	0.33251953	5.0720825	-1.4089813
1444311492994111325	-1.1447601	5.16362	-0.6144562
1444311493002503659	-1.885788	5.3276825	-0.00819397
1444311493010895993	-2.5505066	5.5763702	0.9717407
1444311493019288327	-2.9362335	5.8945465	1.7838135
1444311493027680661	-3.1080627	6.249542	2.330841
1444311493036072995	-3.056015	6.704788	2.5868988
1444311493044465329	-3.0525818	7.1605988	2.3187256
1444311493052857663	-2.8406677	8.462219	1.7663727
1444311493061249997	-3.1822205	9.815353	1.3126221
1444311493069642331	-3.175354	11.464844	1.4201355
1444311493078034665	-2.8235168	12.580383	1.4510803
1444311493086426999	-2.212204	13.082977	1.2498169
1444311493094819333	-1.2614441	12.773102	0.9263458
1444311493103211667	-0.77905273	12.14592	0.34028625
1444311493111604001	-0.40072632	10.995483	-0.8789215
1444311493119996335	-0.18652344	10.146408	-1.5001068
1444311493128388669	-0.074905396	9.054428	-2.1328125
1444311493136781003	-0.046691895	8.321655	-2.264801
1444311493145173337	-0.097457886	7.853668	-2.0466309
1444311493153565671	-0.2709198	7.6145935	-1.5383148
1444311493161958005	-0.3428955	7.6891327	-1.0122223
1444311493170350339	-0.5608063	8.051346	-0.0597229
1444311493178742673	-0.72618103	8.334961	0.549469
1444311493187135007	-0.8457184	8.65036	1.1651306
1444311493195527341	-0.94721985	8.766174	1.4866943
1444311493203919674	-0.9428406	8.774521	1.5623322
1444311493212312008	-0.7707977	8.77063	1.4369049
1444311493220704342	-0.74508667	8.797195	1.4300537
1444311493229096676	-0.5288696	8.664276	1.4946289
1444311493237489010	-0.7430725	8.673706	1.415802
1444311493245881344	-0.47921753	8.627945	1.599289
1444311493254273678	-0.46736145	8.623627	1.4175262
1444311493262666012	-0.49404907	8.688065	1.1299438
1444311493271058346	-0.26031494	8.84227	1.0704651
1444311493279450680	-0.16607666	9.002487	1.0507507
1444311493287843014	0.06010437	9.234161	1.2442017
1444311493296235348	0.14665222	9.343826	1.2793274
1444311493304627682	0.18157959	9.464325	1.1918793
1444311493313020016	0.21292114	9.574554	1.1560822
1444311493321412350	0.24291992	9.669373	1.1899109
1444311493329804684	0.23651123	9.668259	1.197525
1444311493338197018	0.20669556	9.553452	1.0830688
1444311493346589352	0.4275818	9.30751	0.7753906
1444311493354981686	0.6760559	9.322067	0.5354767
1444311493363374020	0.67118835	9.525253	0.285614
1444311493371766354	0.5745697	9.758301	0.07371521
1444311493380158688	0.45777893	10.087158	0.024642944
1444311493388551022	0.28996277	10.531403	0.2580719
1444311493396943356	0.12071228	10.8485565	0.51441956
1444311493405335690	-0.122421265	11.03273	0.89541626
1444311493413728024	-0.37945557	11.007874	1.0573578
1444311493422120358	-0.5120239	10.8146515	0.96943665
1444311493430512692	-0.68814087	10.635773	0.6039734
1444311493438905026	-0.79071045	10.517227	0.21644592
1444311493447297360	-1.0002594	10.590042	-0.26501465
1444311493455689694	-1.5438385	10.834473	-0.87120056
1444311493464082028	-1.8023682	11.16098	-0.42736816
1444311493472474362	-2.0722656	11.419739	-0.2046051
1444311493480866696	-2.3828735	11.760544	0.3343506
1444311493489259030	-2.603836	11.987213	0.72206116
1444311493497651364	-2.7895508	12.167282	0.9675293
1444311493506043698	-2.8741302	12.2270355	1.185852
1444311493514436032	-2.9328918	12.201416	1.4283295
1444311493522828366	-3.8768463	12.707169	0.8191223
1444311493531220700	-3.2290955	12.845108	1.0281677
1444311493539613034	-2.555725	12.729431	1.0610962
1444311493548005368	-2.1032715	12.328049	1.0872192
1444311493556397702	-1.4513397	11.552338	1.1870117
1444311493564790036	-0.7787628	10.606171	1.1025391
1444311493573182370	-0.39282227	9.957901	0.7861786
1444311493581574704	0.8265686	9.121719	1.147522
1444311493589967038	1.4383087	8.837265	1.5313568
1444311493598359372	2.0666046	8.66687	1.5403137
1444311493606751706	2.4381714	8.769424	0.930954
1444311493615144040	2.8877869	9.120102	0.11820984
1444311493623536374	3.331009	9.974304	-0.41963196
1444311493631928708	3.5859375	11.200943	-0.43429565
1444311493640321042	3.7698822	13.396912	0.52656555
1444311493648713376	3.7364655	14.699249	1.3105316
1444311493657105710	3.1565552	15.478668	1.3081207
1444311493665498044	2.9101715	14.976807	0.9329376
1444311493673890378	2.7830658	13.76918	0.7734833
1444311493682282712	2.6661987	12.481827	0.56295776
1444311493690675046	2.5476074	11.710403	-0.11210632
1444311493699067380	2.3158112	11.210541	-1.4325867
1444311493707459714	0.9354706	11.372482	-1.2397919
1444311493715852048	-0.8982086	11.589432	-1.030716
1444311493724244382	-1.9957275	11.900528	-0.7140045
1444311493732636716	-2.682022	11.613632	-0.3713379
1444311493741029049	-2.9749146	10.626907	-0.06713867
1444311493749421383	-3.0923615	9.530518	0.17105103
1444311493757813717	-2.6046295	7.9223022	0.13674927
1444311493766206051	-2.355301	7.0055237	-0.38761902
1444311493774598385	-1.8027039	6.198517	-1.0464325
1444311493782990719	-1.4918976	5.9773254	-1.260437
1444311493791383053	-0.95809937	5.911865	-1.4573975
1444311493799775387	-0.5044098	5.89682	-1.5915375
1444311493808167721	-0.38664246	5.90329	-1.5958099
1444311493816560055	-0.35510254	6.1286163	-1.3640594
1444311493824952389	0.15126038	6.1920166	-1.0204773
1444311493833344723	0.33903503	6.2795715	-0.76356506
1444311493841737057	0.3106842	6.3043823	-0.6638031
1444311493850129391	0.10038757	6.3090515	-0.575531
1444311493858521725	-0.1315155	6.295471	-0.5089264
1444311493866914059	-0.2782898	6.2815094	-0.5077057
1444311493875306393	-0.5102997	6.271637	-0.73072815
1444311493883698727	-0.6885071	6.215088	-0.9757843
1444311493892091061	-0.9269867	6.0376587	-1.4237213
1444311493900483395	-0.9698181	5.9126434	-1.7029266
1444311493908875729	-0.96061707	5.71756	-2.1039581
1444311493917268063	-0.81199646	5.4658966	-2.4598694
1444311493925660397	-0.6273041	5.230728	-2.6667786
1444311493934052731	-0.5828552	5.0723267	-2.7104645
1444311493942445065	-0.46376038	5.0543213	-2.612793
1444311493950837399	-0.4644165	5.1675873	-2.705307
1444311493959229733	-0.4744873	5.4221497	-2.7589417
1444311493967622067	-0.5901947	5.8126984	-2.8430634
1444311493976014401	-0.676651	6.2894897	-2.864563
1444311493984406735	-0.7311249	6.865341	-2.8102875
1444311493992799069	-1.0113068	7.861557	-2.7564545
1444311494001191403	-1.4302826	8.841736	-2.8549805
1444311494009583737	-2.9633331	10.671768	-3.1197052
1444311494017976071	-2.900711	12.159424	-3.2866974
1444311494026368405	-3.3744354	14.027161	-3.259491
1444311494034760739	-4.1569214	15.320114	-3.366684
1444311494043153073	-4.8171387	15.776459	-3.651947
1444311494051545407	-5.2279205	15.137085	-3.826294
1444311494059937741	-5.1293945	14.296555	-3.6789246
1444311494068330075	-3.7648163	12.655136	-3.5856323
1444311494076722409	-3.1338043	11.648193	-3.7053833
1444311494085114743	-2.640152	10.639725	-3.8254242
1444311494093507077	-2.219513	9.786194	-3.8120422
1444311494101899411	-1.7670898	8.940842	-3.756775
1444311494110291745	-1.3517761	7.9740906	-3.8100433
1444311494118684079	-1.1915588	7.3177795	-3.9034424
1444311494127076413	-0.90914917	6.553467	-4.1178284
1444311494135468747	-1.001709	6.0874023	-4.2016296
1444311494143861081	-0.878891	5.5858765	-4.3135986
1444311494152253415	-0.7075043	5.287018	-4.5199738
1444311494160645749	-0.4381714	5.171692	-4.801697
1444311494169038083	0.026565552	5.3494415	-5.1935577
1444311494177430417	0.053115845	5.74527	-5.5979767
1444311494185822751	-0.58496094	7.25412	-6.047165
1444311494194215085	-1.0287781	8.519623	-5.808975
1444311494202607419	-1.4040375	10.347565	-5.2514954
1444311494210999753	-1.2485504	12.370239	-4.215088
1444311494219392087	-0.8180237	14.812927	-2.7753143
1444311494227784421	-0.30220032	18.068436	-0.9472656
1444311494236176755	0.15791321	20.51294	0.32510376
1444311494244569089	2.6743011	21.980225	2.6681213
1444311494252961423	3.8738556	20.957184	3.0425415
1444311494261353757	4.199112	18.557556	2.6763763
1444311494269746091	3.523758	14.760788	1.4899902
1444311494278138424	1.6508026	9.518387	-0.54740906
1444311494286530758	1.0471802	6.3362885	-1.146637
1444311494294923092	1.0197601	4.7477875	-0.9290161
1444311494303315426	1.1219177	3.6307526	-0.4801941
1444311494311707760	1.0388184	3.0592651	-0.27456665
1444311494320100094	0.19841003	2.3760376	-0.043151855
1444311494328492428	-0.7290497	2.1747894	0.45980835
1444311494336884762	-1.4480743	2.2902222	1.2881775
1444311494345277096	-1.8847961	2.8044891	2.2910004
1444311494353669430	-2.1435547	3.6055908	2.8222198
1444311494362061764	-2.436325	5.5395813	2.8211365
1444311494370454098	-2.2452545	6.829071	2.6249237
1444311494378846432	-2.164795	8.19783	2.6761627
1444311494387238766	-2.3368378	9.932205	2.8678284
1444311494395631100	-2.6757202	12.108414	3.1506958
1444311494404023434	-2.2944489	13.417603	3.526825
1444311494412415768	-1.8328705	14.649857	3.104309
1444311494420808102	-1.8854523	14.608643	2.4409332
1444311494429200436	-1.5967102	13.723541	1.0211945
1444311494437592770	-1.1990204	12.392136	-0.40319824
1444311494445985104	-0.8659668	10.746231	-1.4757233
1444311494454377438	-0.84880066	9.269348	-1.5426178
1444311494462769772	-0.8865051	8.581345	-1.3798218
1444311494471162106	-0.60595703	7.856598	-0.6940918
1444311494479554440	-0.8218689	7.7434998	-1.1164856
1444311494487946774	-1.3150787	7.835327	-0.8886261
1444311494496339108	-1.6743011	8.091187	-0.34132385
1444311494504731442	-1.882309	8.463196	0.3373108
1444311494513123776	-1.9152222	8.937729	1.1742249
1444311494521516110	-1.7541351	9.215347	1.6831818
1444311494529908444	-1.3594666	9.387482	1.9400177
1444311494538300778	-1.1838226	9.458603	1.9245758
1444311494546693112	-1.0597687	9.382187	1.6799469
1444311494555085446	-1.0000916	9.218353	1.4067688
1444311494563477780	-0.9710388	8.98848	1.1424255
1444311494571870114	-1.0111694	8.69075	0.93037415
1444311494580262448	-1.1054077	8.491119	0.88923645
1444311494588654782	-1.0776978	8.460449	0.59555054
1444311494597047116	-1.1059723	8.496429	0.51586914
1444311494605439450	-1.146286	8.711273	0.4817505
1444311494613831784	-1.0926208	8.96463	0.4306488
1444311494622224118	-1.0089417	9.224274	0.3829651
1444311494630616452	-0.9147339	9.450928	0.3447113
1444311494639008786	-0.79315186	9.560654	0.2698822
1444311494647401120	-0.8535919	9.444	0.09529114
1444311494655793454	-0.942688	9.3446045	0.3171997
1444311494664185788	-0.9219818	9.20488	0.66041565
1444311494672578122	-0.81791687	9.107391	0.8138733
1444311494680970456	-0.6903076	9.015381	0.76071167
1444311494689362790	-0.4680786	8.983536	0.54193115
1444311494697755124	-0.1552887	9.072159	0.40272522
1444311494706147458	-0.0121154785	9.362366	0.21678162
1444311494714539792	-0.03439331	9.548294	0.17051697
1444311494722932126	-0.1678772	9.815216	0.2584381
1444311494731324460	-0.31396484	10.017075	0.40968323
1444311494739716794	-0.43707275	10.161148	0.53712463
1444311494748109128	-0.5713806	10.2404785	0.59129333
1444311494756501462	-0.7277832	10.300827	0.6078491
1444311494764893796	-0.57263184	10.409805	0.62739563
1444311494773286130	-0.6463165	10.5923	0.6299591
1444311494781678464	-0.64527893	10.776657	0.69763184
1444311494790070798	-0.52641296	10.832001	0.7371826
1444311494798463132	-0.5969391	10.896881	0.54130554
1444311494806855466	-0.86009216	10.965759	0.38859558
1444311494815247799	-1.004715	10.969315	0.68740845
1444311494823640133	-1.5570984	11.070175	1.1213379
1444311494832032467	-1.9315186	11.262955	1.1915894
1444311494840424801	-2.0577545	11.862839	0.78260803
1444311494848817135	-2.181305	12.399078	0.6925049
1444311494857209469	-2.251236	12.901321	0.94473267
1444311494865601803	-1.9140778	13.2105255	1.39328
1444311494873994137	-1.421936	13.306137	1.6332855
1444311494882386471	-2.4020386	13.455658	1.1794434
1444311494890778805	-1.7705688	13.142914	1.0851898
1444311494899171139	-1.575058	12.67717	0.7744293
1444311494907563473	-1.3819122	12.233398	0.9660797
1444311494915955807	-0.827713	11.477127	1.1109467
1444311494924348141	0.0657959	10.54541	0.94073486
1444311494932740475	0.8817291	9.874771	0.77934265
1444311494941132809	1.7843323	9.384552	1.5175018
1444311494949525143	2.3301086	9.359711	2.1909485
1444311494957917477	2.7712097	9.197174	1.7982788
1444311494966309811	2.9218597	9.1801605	1.1343689
1444311494974702145	2.8854828	9.590118	0.31523132
1444311494983094479	2.8293915	10.52002	-0.06742859
1444311494991486813	2.9058685	11.533173	0.20549011
1444311494999879147	2.8703003	12.735748	0.927063
1444311495008271481	2.5618439	13.3714905	1.4034424
1444311495016663815	2.0026398	13.110001	0.57624817
1444311495025056149	2.0529785	12.538971	0.66033936
1444311495033448483	1.82724	12.294891	0.13191223
1444311495041840817	1.5585327	11.793808	-0.15257263
1444311495050233151	1.3577881	10.979263	0.27545166
1444311495058625485	-0.37849426	11.535004	-0.80107117
1444311495067017819	-1.8599396	11.857162	-1.1737976
1444311495075410153	-2.6999817	11.388245	-1.2868805
1444311495083802487	-3.412918	10.741104	-1.4339752
1444311495092194821	-3.7183533	9.7174225	-1.1349335
1444311495100587155	-3.1786346	8.563507	-0.45840454
1444311495108979489	-2.2550354	7.6212006	-0.01423645
1444311495117371823	-1.2828827	6.7903137	-0.39648438
1444311495125764157	-1.1003876	6.3464813	-0.9319916
1444311495134156491	-1.4294586	5.837738	-1.6765442
1444311495142548825	-1.4826813	5.601837	-1.8990479
1444311495150941159	-1.3417969	5.44014	-1.8858185
1444311495159333493	-1.1000824	5.459198	-1.7421417
1444311495167725827	-0.84635925	5.5969696	-1.5598602
1444311495176118161	-0.4045105	5.776718	-1.1270142
1444311495184510495	-0.065216064	5.8581085	-0.89053345
1444311495192902829	0.21174622	5.958832	-0.6256256
1444311495201295163	0.356781	6.0475616	-0.5480652
1444311495209687497	0.5480499	6.3065643	-0.33535767
1444311495218079831	0.6444397	6.5985413	-0.2300415
1444311495226472165	0.6026459	6.820694	-0.36680603
1444311495234864499	0.40592957	7.0520325	-0.7664795
1444311495243256833	0.20544434	7.141144	-1.0629272
1444311495251649167	-0.20840454	7.119293	-1.6133118
1444311495260041501	-0.33966064	7.010803	-1.9873047
1444311495268433835	-0.5428009	6.8482666	-2.313736
1444311495276826169	-0.8260956	6.679779	-2.5339203
1444311495285218503	-1.0757141	6.4939423	-2.6416473
1444311495293610837	-1.1612396	6.2139435	-2.514328
1444311495302003171	-1.1543884	6.0674286	-2.3738098
1444311495310395505	-1.1969452	6.001877	-2.3340302
1444311495318787839	-1.0286407	6.1313934	-2.1476593
1444311495327180173	-0.7220764	6.3576202	-2.07901
1444311495335572507	-0.4459076	6.7405396	-2.314743
1444311495343964841	-0.2936859	7.3322754	-2.7007446
1444311495352357174	-0.33570862	8.365356	-3.089859
1444311495360749508	-0.4719391	9.219589	-3.267212
1444311495369141842	-1.5053864	10.567627	-3.4550476
1444311495377534176	-2.3281555	11.596054	-3.34964
1444311495385926510	-2.4719696	12.8372345	-3.4037323
1444311495394318844	-2.937317	13.854675	-3.2179565
1444311495402711178	-3.8827362	14.491211	-2.9681396
1444311495411103512	-4.4698944	14.449692	-2.9463654
1444311495419495846	-4.0543365	14.049561	-2.5642242
1444311495427888180	-4.314636	13.223679	-2.45076
1444311495436280514	-3.822754	12.240097	-3.0676117
1444311495444672848	-3.4148712	11.005005	-3.8046265
1444311495453065182	-3.229782	10.077789	-4.247696
1444311495461457516	-2.9527435	9.292984	-4.3249664
1444311495469849850	-2.4765472	8.422195	-4.117935
1444311495478242184	-2.5322266	7.902115	-4.3055725
1444311495486634518	-2.2754364	6.9431915	-3.820053
1444311495495026852	-2.5676117	6.4822235	-3.8269043
1444311495503419186	-2.4661865	5.9356995	-3.7695313
1444311495511811520	-2.2892303	5.608185	-4.0888977
1444311495520203854	-2.1225128	5.59758	-4.713257
1444311495528596188	-1.942215	6.1897125	-5.4719696
1444311495536988522	-2.0467377	7.015671	-5.9714813
1444311495545380856	-2.8347168	8.5060425	-5.959015
1444311495553773190	-3.0454865	9.578751	-5.25473
1444311495562165524	-2.9667664	11.056717	-3.8624725
1444311495570557858	-2.4746857	12.492371	-2.353531
1444311495578950192	-1.8324127	14.203781	-0.85575867
1444311495587342526	-1.2431183	16.495987	0.42903137
1444311495595734860	-0.91667175	18.263596	0.9448395
1444311495604127194	0.47044373	18.846954	1.8832245
1444311495612519528	1.8233643	17.362091	2.261078
1444311495620911862	3.1556244	14.488846	1.4593964
1444311495629304196	3.6304169	11.709045	-0.00944519
1444311495637696530	3.6815186	9.13176	-1.3106537
1444311495646088864	3.4700623	6.9160614	-1.785553
1444311495654481198	3.1581879	5.6582947	-1.5679321
1444311495662873532	2.2865906	4.3994293	-0.9978943
1444311495671265866	1.5086212	4.210083	-0.48980713
1444311495679658200	0.46261597	4.063156	0.038635254
1444311495688050534	-0.44488525	3.9814758	0.49206543
1444311495696442868	-1.3277435	4.206024	0.92440796
1444311495704835202	-1.9257202	5.0125275	1.5023804
1444311495713227536	-1.9223785	5.8616333	2.2537842
1444311495721619870	-2.1828308	7.343933	2.2803192
1444311495730012204	-2.1005707	8.127045	2.0061493
1444311495738404538	-2.056305	9.245529	1.9274597
1444311495746796872	-2.0490723	10.289429	1.8100891
1444311495755189206	-2.1170044	11.411346	1.70401
1444311495763581540	-2.161255	12.386124	1.747406
1444311495771973874	-2.0009155	12.78241	1.8508453
1444311495780366208	-1.4943695	12.398178	1.4285126
1444311495788758542	-0.6461334	11.719589	0.22810364
1444311495797150876	-0.43255615	10.72728	-0.7329254
1444311495805543210	-0.38110352	9.866821	-1.0783691
1444311495813935544	-0.4072876	9.039581	-1.2523346
1444311495822327878	-0.5992279	8.398941	-1.3313446
1444311495830720212	-0.7822418	8.083496	-1.3419952
1444311495839112546	-1.0584106	7.928665	-1.4140625
1444311495847504880	-1.3617096	8.033188	-1.1853027
1444311495855897214	-1.6901398	8.292725	-0.5547638
1444311495864289548	-1.7900848	8.563232	0.16671753
1444311495872681882	-1.7226715	8.863586	0.82315063
1444311495881074216	-1.3717651	9.178329	1.1977692
1444311495889466549	-0.88934326	9.426132	1.3048859
1444311495897858883	-0.6172333	9.530334	1.0111542
1444311495906251217	-0.7963104	9.514908	0.66500854
1444311495914643551	-0.72146606	9.431793	0.4640808
1444311495923035885	-0.7468872	9.271286	0.37173462
1444311495931428219	-0.7965698	9.072983	0.31173706
1444311495939820553	-0.7983246	8.900818	0.27624512
1444311495948212887	-0.79255676	8.7990265	0.25393677
1444311495956605221	-0.90431213	8.750656	0.37934875
1444311495964997555	-0.86317444	8.739532	0.43247986
1444311495973389889	-0.7185211	8.756393	0.6112671
1444311495981782223	-0.61361694	8.804825	0.59747314
1444311495990174557	-0.49362183	8.877228	0.5608063
1444311495998566891	-0.36521912	8.979202	0.6164856
1444311496006959225	-0.26618958	9.085632	0.7376404
1444311496015351559	-0.1401062	9.189545	0.9251404
1444311496023743893	0.059524536	9.274368	1.17276
1444311496032136227	0.1938324	9.533218	1.3346863
1444311496040528561	0.5715637	9.805374	1.2315521
1444311496048920895	0.88082886	10.074646	1.0131836
1444311496057313229	1.0168915	10.127182	0.86813354
1444311496065705563	1.1006165	9.946304	0.8956146
1444311496074097897	0.98558044	9.597305	1.1090546
1444311496082490231	0.70625305	9.412231	1.3875122
1444311496090882565	0.036315918	9.50145	1.5414581
1444311496099274899	-0.11027527	9.529572	1.6446381
1444311496107667233	-0.8082733	9.652435	1.2252045
1444311496116059567	-1.228302	9.912308	0.6939392
1444311496124451901	-0.8594208	10.222092	0.5702057
1444311496132844235	-0.9224243	10.745926	0.5034332
1444311496141236569	-0.8076172	11.070648	0.6773834
1444311496149628903	-0.70884705	11.330826	0.9022522
1444311496158021237	-0.794693	11.371506	1.033493
1444311496166413571	-0.9605255	11.309647	1.1318817
1444311496174805905	-1.2857666	11.249786	1.2267303
1444311496183198239	-1.7294312	11.286591	1.3583221
1444311496191590573	-2.3003998	11.505753	1.5806122
1444311496199982907	-2.621704	11.779068	1.6902924
1444311496208375241	-2.804947	12.168335	1.5791321
1444311496216767575	-2.7522125	12.348694	1.3621979
1444311496225159909	-2.5486298	12.540375	1.172348
1444311496233552243	-2.245224	12.69278	1.1189423
1444311496241944577	-1.9324341	12.71051	1.1274109
1444311496250336911	-1.4999542	12.3467865	1.024643
1444311496258729245	-1.1006775	11.932098	0.789032
1444311496267121579	-0.28657532	11.4711	0.44659424
1444311496275513913	0.22579956	11.108017	0.68019104
1444311496283906247	0.7888336	10.609009	1.1808624
1444311496292298581	1.3155975	9.939133	1.0664215
1444311496300690915	1.8676453	9.209732	0.6567993
1444311496309083249	2.6995697	8.5168915	1.2055664
1444311496317475583	3.148529	8.296692	1.4377594
1444311496325867917	3.4463348	8.270096	1.4536285
1444311496334260251	3.6779633	8.3554535	0.92448425
1444311496342652585	3.771637	8.814178	0.23760986
1444311496351044919	3.530182	9.673782	-0.38449097
1444311496359437253	3.1037445	10.73056	-0.8414917
1444311496367829587	2.5673676	12.141464	-1.0716858
1444311496376221921	2.1629639	13.152496	-1.2567444
1444311496384614255	2.1401825	13.805847	-1.5569916
1444311496393006589	2.2371826	13.666031	-1.8444061
1444311496401398923	2.0603333	13.139679	-1.9645691
1444311496409791257	2.0228577	12.357712	-2.190918
1444311496418183591	2.0099945	11.453903	-2.6836853
1444311496426575924	1.6570435	10.419144	-3.2516174
1444311496434968258	1.9355164	10.106415	-3.0254211
1444311496443360592	-0.24801636	10.438751	-3.0040436
1444311496451752926	-1.236969	10.271072	-2.2124634
1444311496460145260	-1.6879425	9.595154	-1.1356659
1444311496468537594	-2.300064	8.742294	-0.91625977
1444311496476929928	-2.972702	7.7569885	-1.2161713
1444311496485322262	-2.9663086	6.375183	-1.4175873
1444311496493714596	-2.9517365	5.623749	-1.7465973
1444311496502106930	-2.5280304	5.1022186	-1.8916321
1444311496510499264	-2.1181183	5.0186157	-2.0414124
1444311496518891598	-1.6807251	5.16391	-2.1824188
1444311496527283932	-1.3097076	5.323532	-2.1517334
1444311496535676266	-0.9827118	5.4228363	-1.9245758
1444311496544068600	-0.7017212	5.5296936	-1.4893036
1444311496552460934	-0.5046692	5.601654	-1.2485504
1444311496560853268	-0.4131012	5.8347626	-1.1797485
1444311496569245602	-0.30856323	5.9804077	-1.3116913
1444311496577637936	-0.3338318	6.2892914	-1.5860748
1444311496586030270	-0.36698914	6.6572113	-1.8522644
1444311496594422604	-0.3796692	7.056885	-2.1338654
1444311496602814938	-0.42562866	7.470459	-2.4459991
1444311496611207272	-0.47103882	7.676941	-2.5419617
1444311496619599606	-0.59573364	7.7395935	-2.7190704
1444311496627991940	-0.50149536	7.593933	-2.7122192
1444311496636384274	-0.46931458	7.3192596	-2.7430573
1444311496644776608	-0.5528412	7.0075684	-2.6553497
1444311496653168942	-0.6257324	6.669174	-2.4681854
1444311496661561276	-0.5573578	6.3523865	-2.3292236
1444311496669953610	-0.42196655	6.2341614	-2.421753
1444311496678345944	-0.49925232	6.273773	-2.0289307
1444311496686738278	-0.6526184	6.2806244	-1.724762
1444311496695130612	-0.7055969	6.346039	-1.4362183
1444311496703522946	-0.7818451	6.5876617	-1.2031555
1444311496711915280	-1.0058136	7.220688	-1.1399231
1444311496720307614	-1.0666351	7.785309	-1.1433563
1444311496728699948	-1.0305481	9.08844	-1.4320068
1444311496737092282	-0.87501526	10.095612	-1.6866913
1444311496745484616	-0.9714966	11.35701	-1.959671
1444311496753876950	-1.2990112	12.749176	-2.0644073
1444311496762269284	-1.7369537	13.736588	-2.1563568
1444311496770661618	-2.3067322	14.389709	-2.3099976
1444311496779053952	-3.0761566	14.662186	-2.5301971
1444311496787446286	-3.9696655	14.306427	-2.4690094
1444311496795838620	-4.9370117	13.830887	-2.782608
1444311496804230954	-5.29126	13.013733	-2.980194
1444311496812623288	-5.241806	12.348892	-2.9418488
1444311496821015622	-5.1582947	11.796524	-2.9629822
1444311496829407956	-4.836273	11.207291	-3.3595428
1444311496837800290	-4.1885376	10.781464	-3.841919
1444311496846192624	-2.9010773	10.168121	-4.0075073
1444311496854584958	-2.4109955	9.740585	-3.8884125
1444311496862977292	-1.9596252	8.956177	-3.5359497
1444311496871369626	-2.1734772	8.310867	-3.472641
1444311496879761960	-2.6489716	7.7105255	-3.6429443
1444311496888154294	-2.9460907	6.94339	-4.023102
1444311496896546628	-2.9752197	6.263092	-4.538025
1444311496904938962	-2.6099243	5.414856	-5.408325
1444311496913331296	-2.2629242	5.211792	-5.7981567
1444311496921723630	-2.070694	5.478134	-5.4844666
1444311496930115964	-1.8553925	6.057312	-4.5399933
1444311496938508298	-1.4947662	6.8813477	-3.2844086
1444311496946900632	-0.94607544	8.091141	-1.8450623
1444311496955292966	-0.44055176	9.199875	-0.7894745
1444311496963685299	0.38397217	11.460968	-0.17077637
1444311496972077633	0.9931793	13.226013	-0.047409058
1444311496980469967	2.2724304	15.34523	0.17626953
1444311496988862301	3.760376	16.16185	0.8536072
1444311496997254635	4.9668884	15.9133	1.3931885
1444311497005646969	4.963394	14.480759	1.2745819
1444311497014039303	3.8759766	12.828308	0.9883728
1444311497022431637	1.8498993	9.973801	1.5583344
1444311497030823971	0.731781	8.395569	1.9062042
1444311497039216305	-0.45651245	7.0215607	1.9702148
1444311497047608639	-1.3098755	6.5170746	1.8600311
1444311497056000973	-2.0265656	6.3108063	1.8636017
1444311497064393307	-2.5408936	6.2285004	2.0152588
1444311497072785641	-2.8539886	6.200577	2.052475
1444311497081177975	-3.525238	6.5295258	1.7552795
1444311497089570309	-3.6871643	7.108719	1.6190643
1444311497097962643	-3.4308014	8.194946	1.5138092
1444311497106354977	-3.2925262	9.232758	1.5272827
1444311497114747311	-3.0829163	10.186905	1.651947
1444311497123139645	-2.5118713	10.777863	1.9187164
1444311497131531979	-1.7805023	10.925781	2.167984
1444311497139924313	-0.739975	10.701141	1.8569641
1444311497148316647	-0.41352844	10.505783	1.3728638
1444311497156708981	0.05871582	10.134705	0.7192688
1444311497165101315	0.030914307	9.776199	0.32077026
1444311497173493649	-0.31248474	9.267258	0.12902832
1444311497181885983	-0.48687744	8.632996	-0.033798218
1444311497190278317	-0.23376465	8.159012	-0.39944458
1444311497198670651	-0.6983795	7.8939056	-0.99768066
1444311497207062985	-0.97254944	7.914459	-1.2341614
1444311497215455319	-1.0538483	8.14389	-1.1813049
1444311497223847653	-0.9855194	8.47673	-0.93263245
1444311497232239987	-0.86964417	8.867584	-0.44082642
1444311497240632321	-0.7619324	9.192657	0.1932373
1444311497249024655	-0.7047119	9.363174	0.644928
1444311497257416989	-0.6607666	9.41008	0.9571228
1444311497265809323	-0.67619324	9.392944	0.97854614
1444311497274201657	-0.5924835	9.3810425	1.030716
1444311497282593991	-0.8066559	9.368622	0.8098755
1444311497290986325	-1.0128021	9.413544	0.54011536
1444311497299378659	-1.1973877	9.499496	0.33377075
1444311497307770993	-1.4566803	9.546967	0.18978882
1444311497316163327	-1.7086334	9.535355	0.1328125
1444311497324555661	-1.8423004	9.464233	0.09169006
1444311497332947995	-1.8835144	9.264847	0.09376526
1444311497341340329	-1.885086	9.140106	0.193573
1444311497349732663	-1.7981567	9.013687	0.38938904
1444311497358124997	-1.5765533	8.923492	0.61016846
1444311497366517331	-1.2942505	8.894226	0.75239563
1444311497374909665	-0.8464966	8.909637	0.78819275
1444311497383301999	-0.622879	8.967041	0.74964905
1444311497391694333	-0.33857727	9.046387	0.60621643
1444311497400086667	-0.31575012	9.18483	0.559433
1444311497408479001	-0.21572876	9.383591	0.6952057
1444311497416871335	-0.16067505	9.589569	0.9280548
1444311497425263669	-0.23242188	9.707367	1.0767365
1444311497433656003	-0.22817993	9.560303	1.0723267
1444311497442048337	-0.44836426	9.411224	0.75531006
1444311497450440671	-0.29597473	9.184326	0.48526
1444311497458833005	-0.26185608	9.219894	0.4597931
1444311497467225339	-0.13194275	9.470612	0.5408325
1444311497475617673	0.010818481	9.913818	0.70700073
1444311497484010007	0.05722046	10.410156	0.8769531
1444311497492402341	0.040008545	11.083603	1.0549927
1444311497500794674	-0.059387207	11.528305	1.2691956
1444311497509187008	-0.30029297	11.783798	1.3794861
1444311497517579342	-0.56463623	11.638428	1.3135223
1444311497525971676	-1.0533905	11.3272705	1.282959
1444311497534364010	-1.4867554	10.993439	1.3975983
1444311497542756344	-1.8468475	10.847153	1.3323975
1444311497551148678	-2.4990692	11.185486	0.40133667
1444311497559541012	-2.3397064	11.436523	0.23597717
1444311497567933346	-2.5131073	11.780563	0.3898468
1444311497576325680	-2.6074524	11.969482	0.6930084
1444311497584718014	-2.5322113	12.125305	0.9721832
1444311497593110348	-2.45578	12.22731	1.0748749
1444311497601502682	-2.3443909	12.335007	1.0370941
1444311497609895016	-1.8213654	12.475021	1.0007629
1444311497618287350	-1.5951691	12.370499	1.4068909
1444311497626679684	-0.8900299	11.904053	1.5292511
1444311497635072018	-0.48101807	11.497818	1.3491669
1444311497643464352	0.081604004	10.993149	1.2824249
1444311497651856686	0.65097046	10.483078	1.2419281
1444311497660249020	1.139328	9.9973755	1.1882019
1444311497668641354	1.6158142	9.474701	1.2719269
1444311497677033688	2.002243	9.102844	1.3593292
1444311497685426022	2.328354	8.71077	1.289856
1444311497693818356	2.3838654	8.759964	0.9046478
1444311497702210690	2.4945984	9.114746	0.237854
1444311497710603024	2.5204468	9.729477	-0.26519775
1444311497718995358	2.404541	10.475037	-0.5478821
1444311497727387692	2.1360626	11.417679	-0.69125366
1444311497735780026	1.981842	12.008011	-0.549881
1444311497744172360	1.831131	12.555893	-0.4342041
1444311497752564694	1.8772888	12.490662	-0.47029114
1444311497760957028	2.4278412	12.186264	0.09197998
1444311497769349362	2.623352	11.669266	0.12471008
1444311497777741696	2.1828308	11.28952	-0.6398773
1444311497786134030	1.3446045	11.364014	-1.5856323
1444311497794526364	1.2229462	11.382004	-1.1880798
1444311497802918698	0.1081543	11.615707	-0.58950806
1444311497811311032	-0.19070435	11.467224	-0.7016754
1444311497819703366	-0.7878113	11.078751	-0.4584198
1444311497828095700	-1.3098907	10.520935	-0.26397705
1444311497836488034	-1.7823792	9.702835	-0.13552856
1444311497844880368	-2.2040558	8.365082	0.011260986
1444311497853272702	-2.0815277	7.336899	-0.19779968
1444311497861665036	-1.8585968	6.3669434	-0.892395
1444311497870057370	-1.5492706	5.9676666	-0.9772186
1444311497878449704	-1.2254028	5.6436005	-1.0660095
1444311497886842038	-1.1048279	5.5379486	-1.030365
1444311497895234372	-0.9319	5.5633698	-0.81159973
1444311497903626706	-0.5660858	5.7509003	-0.54048157
1444311497912019040	-0.50268555	5.9976654	-0.7195587
1444311497920411374	-0.30697632	6.2849274	-0.75016785
1444311497928803708	0.08200073	6.4528503	-0.7552948
1444311497937196042	0.4270935	6.667679	-0.9649048
1444311497945588376	0.6132355	6.867584	-1.1045685
1444311497953980710	0.70996094	7.0925903	-1.16745
1444311497962373044	0.69114685	7.3852234	-1.238678
1444311497970765378	0.605484	7.632843	-1.3191986
1444311497979157712	0.81411743	7.932663	-1.6898804
1444311497987550046	0.5485077	8.022629	-1.9623413
1444311497995942380	0.39198303	8.010803	-2.2045288
1444311498004334714	0.43778992	7.9443207	-2.5447998
1444311498012727048	0.36027527	7.7588806	-2.9321594
1444311498021119382	0.114608765	7.357132	-3.1951141
1444311498029511716	0.17201233	6.997284	-3.2576752
1444311498037904049	0.028076172	6.6004486	-3.1701202
1444311498046296383	-0.04647827	6.4153748	-3.0458832
1444311498054688717	-0.18412781	6.2493286	-2.7354736
1444311498063081051	-0.34835815	6.1497345	-2.52771
1444311498071473385	-0.4225006	6.054062	-2.3202972
1444311498079865719	-0.54019165	6.037857	-2.1381683
1444311498088258053	-0.94407654	6.1855164	-2.1670685
1444311498096650387	-0.7022705	6.8350067	-2.0081635
1444311498105042721	-0.7810974	7.7312164	-1.9481964
1444311498113435055	-0.7477417	9.098663	-1.9136658
1444311498121827389	-0.6638794	10.345444	-1.7752838
1444311498130219723	-0.70111084	11.64241	-1.767807
1444311498138612057	-0.9578552	13.121002	-1.9559784
1444311498147004391	-1.2450104	14.486145	-2.0367432
1444311498155396725	-1.9654694	15.797195	-2.6689758
1444311498163789059	-1.7109985	15.822891	-3.496643
1444311498172181393	-1.8602448	15.396591	-4.069153
1444311498180573727	-2.1641083	14.304108	-4.357605
1444311498188966061	-2.2921295	12.757416	-4.464096
1444311498197358395	-2.100296	11.025055	-4.3235474
1444311498205750729	-1.8066254	9.654007	-4.155716
1444311498214143063	-0.6800842	7.742569	-4.2800903
1444311498222535397	-0.14970398	6.6484222	-4.566269
1444311498230927731	0.7202759	5.6592712	-4.5816956
1444311498239320065	0.9015198	5.791336	-4.567566
1444311498247712399	0.7997284	6.8380127	-4.618454
1444311498256104733	0.49073792	8.637268	-4.605835
1444311498264497067	0.030914307	10.240555	-4.4080048
1444311498272889401	-0.9320679	12.181808	-3.7435913
1444311498281281735	-1.6560516	13.442154	-2.8927917
1444311498289674069	-1.6046753	14.9509735	-1.2075043
1444311498298066403	-0.49221802	15.4552	0.14750671
1444311498306458737	1.3795166	14.945877	1.5810242
1444311498314851071	3.2190704	13.427658	2.6527252
1444311498323243405	4.0953064	11.928711	2.928772
1444311498331635739	4.062256	10.188034	2.2194061
1444311498340028073	3.6329956	9.267838	1.3214874
1444311498348420407	2.7424622	8.108139	0.7490387
1444311498356812741	2.1422577	7.213974	0.47465515
1444311498365205075	1.3061829	6.4382935	0.16792297
1444311498373597409	0.20359802	5.975067	-0.026290894
1444311498381989743	-0.79473877	5.7960815	0.0015563965
1444311498390382077	-1.9744568	5.9645386	0.20922852
1444311498398774411	-2.3711548	6.1513367	0.45599365
1444311498407166745	-2.9169006	6.6030426	1.0102234
1444311498415559079	-3.019043	7.0940704	1.2463531
1444311498423951413	-2.9647217	7.7914734	1.4744263
1444311498432343747	-2.8867645	8.642639	1.844574
1444311498440736081	-2.7831726	9.45433	2.3005219
1444311498449128415	-2.1342468	10.541138	2.795456
1444311498457520749	-1.5593262	11.278839	2.7491913
1444311498465913083	-1.2500153	11.727646	2.5857086
1444311498474305417	-0.7736664	11.676407	1.9573212
1444311498482697751	-0.37820435	11.466568	1.1211395
1444311498491090085	-0.13607788	11.090652	0.5047455
1444311498499482419	0.076934814	10.595184	0.23010254
1444311498507874753	0.23161316	9.759689	0.06097412
1444311498516267087	0.3644104	9.140213	-0.19093323
1444311498524659421	0.42326355	8.493408	-0.5847931
1444311498533051755	0.24862671	8.146133	-0.7612152
1444311498541444089	-0.085861206	7.8477783	-0.76742554
1444311498549836423	-0.43780518	7.759491	-0.57592773
1444311498558228757	-0.6829529	7.848358	-0.23728943
1444311498566621091	-0.84632874	8.036148	0.5463257
1444311498575013424	-0.9551544	8.20752	1.032135
1444311498583405758	-0.9439392	8.400009	1.5996246
1444311498591798092	-1.1446838	8.5264435	1.5810852
1444311498600190426	-1.3789673	8.899612	1.5293579
1444311498608582760	-1.630539	9.393707	1.3145142
1444311498616975094	-1.9139862	9.798676	0.9754486
1444311498625367428	-2.2348022	10.099426	0.74134827
1444311498633759762	-2.3238983	10.070297	0.61026
1444311498642152096	-2.4324188	9.979309	0.46269226
1444311498650544430	-2.4646912	9.731766	0.35783386
1444311498658936764	-2.4653168	9.444366	0.24700928
1444311498667329098	-2.4304504	9.190063	0.1839447
1444311498675721432	-2.3463898	8.972778	0.20288086
1444311498684113766	-2.1137085	8.796143	0.3802185
1444311498692506100	-1.915802	8.754166	0.5121765
1444311498700898434	-1.6606598	8.899124	0.65122986
1444311498709290768	-1.3766327	8.976929	0.74653625
1444311498717683102	-1.1186523	9.095856	0.8040161
1444311498726075436	-0.8415985	9.201019	0.7643738
1444311498734467770	-0.5102539	9.309723	0.6829529
1444311498742860104	-0.119277954	9.544769	0.62683105
1444311498751252438	0.1703186	9.766678	0.62597656
1444311498759644772	0.5740509	10.03363	0.8480072
1444311498768037106	0.6902771	10.180252	0.9706726
1444311498776429440	0.59739685	10.195099	0.9513855
1444311498784821774	0.34347534	10.096649	0.85324097
1444311498793214108	0.044692993	9.961044	0.8807068
1444311498801606442	-0.2246399	9.982269	0.84669495
1444311498809998776	-0.42256165	10.072235	0.7353058
1444311498818391110	-0.82377625	10.340973	0.4985199
1444311498826783444	-0.8304596	10.457855	0.46206665
1444311498835175778	-0.87350464	10.560486	0.2783203
1444311498843568112	-0.91111755	10.614319	0.16654968
1444311498851960446	-0.9568329	10.618317	0.19515991
1444311498860352780	-1.0862122	10.541214	0.35025024
1444311498868745114	-1.3891144	10.501602	0.5101166
1444311498877137448	-1.7552643	10.638611	0.6886444
1444311498885529782	-1.9410095	10.988312	0.6730652
1444311498893922116	-2.071579	11.451843	0.5930481
1444311498902314450	-2.1997528	12.030991	0.5904846
1444311498910706784	-2.3593597	12.674179	1.0527954
1444311498919099118	-2.2262878	12.908966	1.3192596
1444311498927491452	-2.0497742	12.836151	1.2301483
1444311498935883786	-1.909729	12.399597	1.3362732
1444311498944276120	-1.7670746	12.009811	0.888855
1444311498952668454	-1.1494293	11.461945	0.73876953
1444311498961060788	-0.5673065	11.013779	0.7628784
1444311498969453122	-0.079940796	10.596283	0.6912384
1444311498977845456	0.53868103	9.996521	0.7143707
1444311498986237790	1.0913849	9.833237	1.1214905
1444311498994630124	1.6272278	9.385803	1.5375519
1444311499003022458	2.0375824	9.12764	1.5033875
1444311499011414792	2.3685303	9.183029	0.9417267
1444311499019807126	2.7596893	9.457855	0.23118591
1444311499028199460	3.227829	10.208649	-0.36245728
1444311499036591794	3.5071564	11.115173	-0.38987732
1444311499044984128	3.5256653	12.6289215	0.20716858
1444311499053376462	3.3968506	13.324585	0.65065
1444311499061768796	3.291336	13.631073	1.1451111
1444311499070161130	3.1730957	13.365875	1.3596497
1444311499078553464	2.9054108	12.827393	1.0449066
1444311499086945798	2.4850311	12.088638	-0.19917297
1444311499095338132	2.5372925	11.593399	-1.221344
1444311499103730466	1.781189	11.036362	-0.7655487
1444311499112122799	0.6442108	11.251419	-0.9557495
1444311499120515133	-0.730423	11.525177	-1.2258759
1444311499128907467	-1.8388977	11.585876	-1.059967
1444311499137299801	-2.6643066	11.294022	-0.42056274
1444311499145692135	-3.0013123	10.335602	0.31513977
1444311499154084469	-2.7982483	9.256027	0.06323242
1444311499162476803	-2.0859375	7.7069397	-0.5919647
1444311499170869137	-1.7740631	6.927246	-1.1128998
1444311499179261471	-1.3811951	6.163254	-1.718277
1444311499187653805	-1.3309631	5.811676	-1.9348907
1444311499196046139	-1.3855286	5.679428	-1.9188843
1444311499204438473	-1.3208313	5.6639404	-1.7819977
1444311499212830807	-1.3431244	5.6887817	-1.5832214
1444311499221223141	-1.1354523	5.7481995	-1.4266663
1444311499229615475	-0.96495056	5.8133087	-1.3804016
1444311499238007809	-0.66174316	5.9667053	-1.2683411
1444311499246400143	-0.4570465	6.1023407	-1.1526642
1444311499254792477	-0.29203796	6.1885986	-1.0854034
1444311499263184811	-0.2128601	6.290619	-1.0831146
1444311499271577145	-0.3842163	6.495392	-1.0625458
1444311499279969479	-0.7292328	6.912094	-1.4624939
1444311499288361813	-0.80119324	7.1271515	-1.5618744
1444311499296754147	-0.8486328	7.273407	-1.7481232
1444311499305146481	-0.8792877	7.283615	-1.9944153
1444311499313538815	-0.85583496	7.1819153	-2.2199402
1444311499321931149	-0.77108765	6.92659	-2.3524017
1444311499330323483	-0.75309753	6.665497	-2.4248352
1444311499338715817	-0.5310211	6.2472534	-2.3845062
1444311499347108151	-0.70581055	6.0021973	-2.2722626
1444311499355500485	-0.7971649	5.66037	-2.1985626
1444311499363892819	-0.81791687	5.5539093	-2.168518
1444311499372285153	-0.78826904	5.610489	-2.0993958
1444311499380677487	-0.6950836	5.8531494	-2.0253296
1444311499389069821	-0.614975	6.196289	-2.0708313
1444311499397462155	-0.4636383	7.1979523	-2.2284698
1444311499405854489	-0.55960083	8.063339	-2.3175964
1444311499414246823	-1.077179	9.392593	-2.5581512
1444311499422639157	-1.7019958	10.873169	-2.640564
1444311499431041576	-2.2651672	12.624756	-2.66568
1444311499439433910	-2.7735596	14.36882	-2.6405487
1444311499447826244	-3.305069	15.436142	-2.5294952
1444311499456218578	-4.023819	15.735855	-2.6171722
1444311499464610912	-4.199478	15.1875	-3.0849915
1444311499473003246	-4.014511	14.149704	-3.5766296
1444311499481395580	-3.7649384	13.170853	-4.0577545
1444311499489787914	-3.5040283	12.1262665	-4.605118
1444311499498180248	-3.2874908	11.044205	-4.9513397
1444311499506572582	-3.1724854	10.155579	-4.8947296
1444311499514964916	-2.8307495	8.944672	-4.448395
1444311499523357250	-2.7630463	8.199265	-3.9994354
1444311499531749584	-2.6884766	7.246231	-3.2520447
1444311499540141918	-2.7916412	6.8388214	-2.8825073
1444311499548534252	-2.8250427	6.592621	-2.7363892
1444311499556926586	-2.6596527	6.411377	-2.8955688
1444311499565318920	-2.4240417	6.28067	-3.2688751
1444311499573711254	-1.7382202	6.028549	-4.1157684
1444311499582103588	-1.0853271	5.948868	-4.8414764
1444311499590495922	-0.7357025	6.3919525	-5.675354
1444311499598888256	-0.81048584	7.188553	-5.6351624
1444311499607280590	-1.1055298	8.335602	-5.1441956
1444311499615672924	-1.3964081	9.765274	-4.3107758
1444311499624065258	-1.4569092	11.119629	-3.3777008
1444311499632457592	-1.3966675	13.106079	-1.5844421
1444311499640849926	-1.4489288	14.728867	-0.1767273
1444311499649242259	-1.0341034	17.150742	1.496933
1444311499657634593	0.18487549	18.17862	2.2046509
1444311499666026927	1.9845734	18.05243	2.5400238
1444311499674419261	3.5760345	16.519012	2.156372
1444311499682811595	4.2311096	14.502457	1.1331635
1444311499691203929	3.432785	11.480484	-0.8005066
1444311499699596263	2.5408478	9.231384	-1.4533844
1444311499707988597	1.6226501	6.8106384	-1.1371765
1444311499716380931	1.3145294	5.557007	-0.66682434
1444311499724773265	1.0602417	4.487976	0.006515503
1444311499733165599	0.50209045	3.6956787	0.6656647
1444311499741557933	-0.38050842	3.246292	1.047821
1444311499749950267	-1.7892609	3.3424377	1.2085571
1444311499758342601	-2.479004	3.7202759	1.256546
1444311499766734935	-2.6671143	4.552582	1.6057739
1444311499775127269	-2.5513153	5.54303	1.9556885
1444311499783519603	-2.1701202	6.807907	2.3482513
1444311499791911937	-1.8251038	8.181091	2.489273
1444311499800304271	-1.7401886	9.502167	2.3192596
1444311499808696605	-1.8363953	11.221909	1.8470001
1444311499817088939	-2.355606	12.269775	1.3680573
1444311499825481273	-2.6203003	13.232803	2.253357
1444311499833873607	-3.022522	13.348068	2.1417694
1444311499842265941	-3.1646729	12.791229	1.4867096
1444311499850658275	-2.6674805	11.536087	0.2453003
1444311499859050609	-1.8417969	10.139938	-1.0421143
1444311499867442943	-0.93440247	8.72374	-1.648941
1444311499875835277	-0.695343	8.075989	-1.716629
1444311499884227611	-0.32243347	7.5729065	-1.5061493
1444311499892619945	-0.23480225	7.543701	-1.1106567
1444311499901012279	-0.22175598	7.70607	-0.7718048
1444311499909404613	-0.34573364	8.088089	-0.33035278
1444311499917796947	-0.5733185	8.562195	0.3529358
1444311499926189281	-0.91186523	9.126038	1.4042511
1444311499934581615	-1.1277771	9.508179	1.9851685
1444311499942973949	-0.6378174	9.94841	2.0896149
1444311499951366283	-0.6707611	9.946152	1.7681274
1444311499959758617	-0.8960266	9.756531	1.3152313
1444311499968150951	-0.9304657	9.423416	0.9255676
1444311499976543285	-0.81111145	9.095627	0.7023773
1444311499984935619	-0.8994293	8.8953705	0.697464
1444311499993327953	-0.9457092	8.915085	0.6177826
1444311500001720287	-0.8421631	8.883713	0.4524994
1444311500010112621	-0.9771271	8.881622	0.36668396
1444311500018504955	-1.1407166	8.959961	0.35577393
1444311500026897289	-1.1698456	9.114532	0.42004395
1444311500035289623	-1.123352	9.272476	0.47358704
1444311500043681957	-1.1250916	9.381271	0.45419312
1444311500052074291	-1.1216736	9.404404	0.44392395
1444311500060466625	-1.1178741	9.420639	0.4842224
1444311500068858959	-1.1614838	9.412933	0.56681824
1444311500077251293	-1.1067657	9.380081	0.5929413
1444311500085643627	-0.9784088	9.333038	0.4920807
1444311500094035961	-0.82310486	9.283752	0.35073853
1444311500102428295	-0.6029358	9.202805	0.24961853
1444311500110820629	-0.43927002	9.084564	0.18963623
1444311500119212963	-0.25022888	8.768082	0.1468811
1444311500127605297	-0.29553223	8.653458	0.21340942
1444311500135997631	-0.31762695	8.725769	0.09585571
1444311500144389965	-0.3499298	8.956985	-0.03401184
1444311500152782299	-0.42036438	9.238922	0.013626099
1444311500161174633	-0.5902252	9.658936	0.34266663
1444311500169566967	-0.8318329	10.155014	0.5740051
1444311500177959301	-0.93107605	10.724106	0.84721375
1444311500186351634	-0.7734375	10.900604	0.97917175
1444311500194743968	-1.3470917	11.014008	0.9368286
1444311500203136302	-1.6672058	10.937271	0.90740967
1444311500211528636	-1.7126617	10.796356	0.8322296
1444311500219920970	-1.9562378	10.740021	0.5640259
1444311500228313304	-2.1670074	10.803421	0.4646454
1444311500236705638	-2.195984	10.975555	0.26789856
1444311500245097972	-2.212265	11.053528	0.056274414
1444311500253490306	-2.315918	11.067032	0.07054138
1444311500261882640	-2.5100098	11.079224	0.33465576
1444311500270274974	-2.710556	11.228104	0.536438
1444311500278667308	-2.8126373	11.6577	0.51582336
1444311500287059642	-2.7852173	12.076691	0.57836914
1444311500295451976	-2.8627625	12.402832	0.6485443
1444311500303844310	-2.8156433	12.4405365	0.7453613
1444311500312236644	-2.3890686	12.161285	1.0458984
1444311500320628978	-2.3067627	11.988083	0.92303467
1444311500329021312	-2.16951	11.8246155	0.74357605
1444311500337413646	-1.5015869	11.355881	0.97598267
1444311500345805980	-0.9840698	10.773254	1.2912903
1444311500354198314	-0.8530121	9.763107	1.5515594
1444311500362590648	-0.6499481	9.494919	1.1942749
1444311500370982982	0.06828308	9.178253	1.2387848
1444311500379375316	0.8630371	8.89621	1.540268
1444311500387767650	1.4357758	8.762894	1.5554962
1444311500396159984	1.8851624	8.878647	0.992157
1444311500404552318	2.6058502	8.986603	0.4831848
1444311500412944652	3.3340454	9.579407	-0.2199707
1444311500421336986	3.760727	10.356522	-0.31851196
1444311500429729320	4.2039337	11.658112	-0.095687866
1444311500438121654	4.353897	12.835068	0.25883484
1444311500446513988	4.31279	13.948425	0.515213
1444311500454906322	4.1211395	14.763367	0.36865234
1444311500463298656	3.93367	14.9767	-0.106292725
1444311500471690990	3.110733	14.33551	-0.6730194
1444311500480083324	2.772293	13.605499	-0.8923645
1444311500488475658	2.014618	12.723755	0.0019989014
1444311500496867992	1.5852051	12.085403	0.87745667
1444311500505260326	1.1118011	11.569946	1.1226501
1444311500513652660	0.18307495	11.227417	0.51423645
1444311500522044994	-0.875885	11.036072	-0.124298096
1444311500530437328	-1.6677246	10.551941	-0.2824707
1444311500538829662	-1.6317444	10.081558	-0.5043793
1444311500547221996	-1.4867554	9.198044	-0.5800476
1444311500555614330	-1.3216095	8.384842	-0.73172
1444311500564006664	-1.2024078	7.580887	-0.74505615
1444311500572398998	-1.1474152	6.9418793	-0.70166016
1444311500580791332	-1.0957489	6.611801	-0.9245148
1444311500589183666	-1.047409	6.347809	-1.1026611
1444311500597576000	-0.8614807	6.274124	-1.2508698
1444311500605968334	-0.72595215	6.1904297	-1.6016998
1444311500614360668	-0.825943	6.2983856	-1.8046722
1444311500622753002	-0.7093811	6.4759216	-1.8827057
1444311500631145336	-0.41427612	6.547226	-1.839859
1444311500639537670	-0.37016296	6.4443817	-1.7548981
1444311500647930004	-0.3830719	6.119217	-1.4468842
1444311500656322338	-0.4567566	6.01297	-1.3603363
1444311500664714672	-0.50315857	5.919876	-0.9496765
1444311500673107006	-0.5569153	5.9002533	-0.9302826
1444311500681499340	-0.77659607	5.870117	-1.1643524
1444311500689891674	-1.0428925	5.813202	-1.3955078
1444311500698284008	-1.157074	5.753952	-1.4633789
1444311500706676342	-1.4742584	5.5717316	-1.9326019
1444311500715068676	-1.3500214	5.3121185	-2.389267
1444311500723461009	-0.9493561	4.8809357	-2.5744476
1444311500731853343	-1.0248413	4.5825806	-2.848526
1444311500740245677	-0.7484741	4.288162	-2.9478302
1444311500748638011	-0.33103943	4.209427	-2.9009094
1444311500757030345	-0.28811646	4.405838	-2.942276
1444311500765422679	0.11898804	4.80954	-2.795868
1444311500773815013	0.1892395	5.167679	-2.7367554
1444311500782207347	0.122543335	6.3993683	-2.2132874
1444311500790599681	-0.6357422	7.8806	-2.1684723
1444311500798992015	-0.9579773	9.78244	-2.2971954
1444311500807384349	-1.0951996	12.028198	-2.4593506
1444311500815776683	-1.7991791	14.332703	-2.4706726
1444311500824169017	-3.3876953	17.52684	-1.8063202
1444311500832561351	-4.472412	19.123947	-1.2553711
1444311500840953685	-6.205765	19.52948	-0.9767761
1444311500849346019	-6.0629425	18.224243	-1.9151459
1444311500857738353	-4.9664764	15.896912	-3.1702576
1444311500866130687	-3.6963348	13.311539	-4.1465454
1444311500874523021	-3.0192108	11.1953125	-4.7151794
1444311500882915355	-3.080124	8.998123	-4.9949036
1444311500891307689	-3.0047302	7.788315	-5.0334473
1444311500899700023	-2.6290283	6.313751	-4.759369
1444311500908092357	-2.3488922	5.490921	-4.5480347
1444311500916484691	-1.9756927	4.866577	-4.3647614
1444311500924877025	-1.7543793	4.745346	-4.4601593
1444311500933269359	-1.7452698	4.9856873	-4.6792755
1444311500941661693	-1.7861328	5.563507	-4.4963837
1444311500950054027	-1.90094	6.260086	-4.3413086
1444311500958446361	-2.336029	7.33992	-3.878189
1444311500966838695	-2.595337	7.8108063	-3.2068481
1444311500975231029	-2.6851044	8.246902	-2.1989746
1444311500983623363	-2.3875122	8.904648	-1.3974609
1444311500992015697	-1.8312073	9.977295	-0.9649353
1444311501000408031	-0.9746704	12.203308	-0.5205078
1444311501008800365	-0.26693726	14.226242	-0.027832031
1444311501017192699	0.7466583	16.069	0.3618927
1444311501025585033	2.3621979	17.589005	0.76545715
1444311501033977367	4.1574554	17.920319	0.9347992
1444311501042369701	5.177597	17.193298	0.9288635
1444311501050762035	3.7790375	14.481659	1.2617798
1444311501059154369	2.1331177	11.800751	1.3234558
1444311501067546703	0.19216919	8.488953	1.4577789
1444311501075939037	-1.3810425	5.929901	1.9225464
1444311501084331371	-1.8247681	4.955612	2.2840576
1444311501092723705	-2.0248413	4.317566	2.5575562
1444311501101116039	-2.093399	3.919815	2.7043152
1444311501109508373	-2.329605	3.8145294	2.5490265
1444311501117900707	-2.8129425	4.1818542	2.589203
1444311501126293041	-3.3184357	4.7773438	2.7742615
1444311501134685375	-3.614334	6.113983	3.0041656
1444311501143077709	-2.8150787	7.473572	3.050705
1444311501151470043	-1.804306	9.140625	2.7885284
1444311501159862377	-1.1984711	10.447784	2.395813
1444311501168254711	-0.8833771	11.298706	2.092636
1444311501176647045	-0.52008057	11.783661	1.8929901
1444311501185039379	0.2501526	11.882248	2.1252441
1444311501193431713	0.7005005	11.4435425	1.6821136
1444311501201824047	0.01651001	11.134445	1.1881866
1444311501210216381	-0.26341248	10.517807	0.54945374
1444311501218608715	-0.16320801	9.791336	-0.06956482
1444311501227001049	-0.09353638	9.138519	-0.6208191
1444311501235393383	-0.23233032	8.530197	-1.1631622
1444311501243785717	-0.65579224	7.9288635	-1.4973145
1444311501252178051	-1.1691589	7.7976837	-1.4810028
1444311501260570384	-1.7012329	8.114685	-0.77671814
1444311501268962718	-2.0160828	8.452393	-0.12931824
1444311501277355052	-2.1472778	8.853149	0.5437012
1444311501285747386	-2.1418304	9.409668	1.3768616
1444311501294139720	-2.1007385	9.7634735	1.8150787
1444311501302532054	-1.8916779	9.898865	1.9050446
1444311501310924388	-1.707016	9.887039	1.7282867
1444311501319316722	-1.3898621	9.750366	1.5199432
1444311501327709056	-1.0739441	9.554199	1.255249
1444311501336101390	-0.8475189	9.334778	0.94566345
1444311501344493724	-0.71421814	9.020111	0.6375122
1444311501352886058	-0.61569214	8.844482	0.49014282
1444311501361278392	-0.61143494	8.793106	0.29389954
1444311501369670726	-0.53208923	8.76123	0.14309692
1444311501378063060	-0.600235	8.666916	0.18478394
1444311501386455394	-0.69400024	8.574341	0.41810608
1444311501394847728	-0.73176575	8.551712	0.6815033
1444311501403240062	-0.73950195	8.65625	0.90037537
1444311501411632396	-0.7274933	8.750504	1.0014648
1444311501420024730	-0.6899719	9.045761	1.0641022
1444311501428417064	-0.5576935	9.322189	0.95773315
1444311501436809398	-0.46037292	9.783829	0.8706207
1444311501445201732	-0.24911499	10.120117	0.8240204
1444311501453594066	0.023498535	10.294876	0.8178711
1444311501461986400	0.17524719	10.332687	0.8793335
1444311501470378734	0.14524841	10.259872	0.9221802
1444311501478771068	0.096206665	10.223892	0.99490356
1444311501487163402	-0.35362244	10.194748	1.140564
1444311501495555736	-0.7113495	10.005371	1.2422485
1444311501503948070	-0.99909973	9.81781	1.2705994
1444311501512340404	-1.1969147	9.643539	1.2348785
1444311501520732738	-1.2364655	9.491196	1.0102234
1444311501529125072	-1.3881226	9.558014	0.6375122
1444311501537517406	-1.2553406	10.036911	0.27920532
1444311501545909740	-1.2570496	10.509857	0.45655823
1444311501554302074	-1.3292542	11.15242	0.6885834
1444311501562694408	-1.4748688	11.660599	1.0164185
1444311501571086742	-1.7147064	12.05864	1.4230957
1444311501579479076	-2.054596	12.349731	1.8656769
1444311501587871410	-2.2405243	12.482544	2.1629791
1444311501596263744	-2.4228363	12.367615	2.043518
1444311501604656078	-2.388565	12.299057	1.9509888
1444311501613048412	-2.1745148	12.347427	1.8865662
1444311501621440746	-1.855423	12.415344	1.8554382
1444311501629833080	-1.4674377	12.41069	1.7166595
1444311501638225414	-0.99909973	12.277206	1.3930511
1444311501646617748	-0.6324005	12.125549	1.1702881
1444311501655010082	0.048721313	11.885803	0.9187927
1444311501663402416	0.41801453	11.659622	1.0182037
1444311501671794750	0.9639282	11.111053	1.1998138
1444311501680187084	1.2985687	10.460693	1.1503906
1444311501688579418	1.6507568	9.756119	1.0067596
1444311501696971752	2.2159424	9.069489	0.9942932
1444311501705364086	2.7174683	8.638535	1.1579285
1444311501713756420	3.1292267	8.458237	1.3904114
1444311501722148754	3.3914032	8.444534	1.0459747
1444311501730541088	3.6876678	8.703201	0.5337372
1444311501738933422	3.799408	9.067261	0.047164917
1444311501747325756	3.7149048	9.615753	-0.32624817
1444311501755718090	3.4120483	10.410233	-0.47914124
1444311501764110424	3.1381683	11.06752	-0.51776123
1444311501772502758	3.0607758	11.982849	-0.2293396
1444311501780895092	3.4977417	12.186768	0.07652283
1444311501789287426	3.7103882	12.083206	-0.5319519
1444311501797679759	3.390213	11.950607	-1.2434692
1444311501806072093	2.8429565	11.823608	-1.5466766
1444311501814464427	2.133484	11.744095	-1.2284546
1444311501822856761	1.3975067	11.779892	-0.8105316
1444311501831249095	0.18110657	11.762329	-0.5129852
1444311501839641429	-0.53434753	11.50528	-0.97909546
1444311501848033763	-1.6395264	10.960983	-1.1490631
1444311501856426097	-2.2650757	10.335266	-0.68995667
1444311501864818431	-2.3254242	9.54335	-0.039031982
1444311501873210765	-1.3858948	8.443253	0.68411255
1444311501881603099	-0.16035461	7.3371887	1.2492218
1444311501889995433	-1.3027191	6.7777557	-0.25512695
1444311501898387767	-1.189621	6.4718933	-0.6972351
1444311501906780101	-1.1095581	6.3236694	-0.9656372
1444311501915172435	-1.249054	6.3890533	-0.99087524
1444311501923564769	-1.383255	6.6049194	-0.85617065
1444311501931957103	-1.4757385	6.9895782	-0.6965332
1444311501940349437	-1.5602417	7.3754425	-0.7010193
1444311501948741771	-1.0493164	7.667877	-0.77716064
1444311501957134105	-0.5343933	7.7441254	-0.85513306
1444311501965526439	-0.10522461	7.69429	-1.0466156
1444311501973918773	0.02960205	7.584381	-1.1148376
1444311501982311107	0.08483887	7.4768066	-1.1597443
1444311501990703441	0.013931274	7.4115295	-1.2072144
1444311501999095775	-0.15319824	7.3824463	-1.2389984
1444311502007488109	-0.27734375	7.3363495	-1.2669983
1444311502015880443	-0.3030548	7.1247253	-1.3895264
1444311502024272777	-0.6586914	6.6908264	-1.676178
1444311502032665111	-0.8349304	6.1919556	-2.011261
1444311502041057445	-1.067215	5.5558777	-2.4125977
1444311502049449779	-1.0668182	4.8882904	-2.9702606
1444311502057842113	-0.80529785	4.347229	-3.5664978
1444311502066234447	-1.235672	3.8296967	-3.8816376
1444311502074626781	-1.7103271	3.6583405	-3.9947357
1444311502083019115	-2.0294952	3.7215881	-3.8390808
1444311502091411449	-2.3651886	4.041641	-3.805359
1444311502099803783	-2.581894	4.5605774	-3.7884064
1444311502108196117	-2.5800323	5.251343	-3.7111816
1444311502116588451	-2.583313	6.0548553	-3.599701
1444311502124980785	-3.0028381	7.6684723	-3.5789948
1444311502133373119	-3.394394	9.113892	-3.8291779
1444311502141765453	-3.605774	11.570221	-3.861847
1444311502150157787	-4.1093903	13.590179	-4.044922
1444311502158550121	-4.1534424	15.619888	-3.9193268
1444311502166942455	-3.96286	16.899353	-3.3568726
1444311502175334789	-3.979187	17.336975	-2.7655792
1444311502183727123	-3.5763245	16.891235	-2.386078
1444311502192119457	-2.702362	15.918762	-2.1675873
1444311502200511791	-1.8666229	14.168304	-2.4540863
1444311502208904125	-1.9019623	12.89563	-2.8358612
1444311502217296459	-2.0245514	11.429337	-3.2201233
1444311502225688793	-2.0416107	10.027115	-3.7054749
1444311502234081127	-1.9840088	8.800751	-4.234787
1444311502242473461	-1.9227753	7.3298492	-4.503662
1444311502250865795	-1.9322052	6.3128357	-4.4111176
1444311502259258129	-2.2058105	5.2484436	-4.1429443
1444311502267650463	-2.013443	4.8130493	-4.190979
1444311502276042797	-1.6729431	4.793228	-4.4659424
1444311502284435131	-1.4507599	5.391205	-4.8015594
1444311502292827465	-1.3029938	6.324951	-4.9672546
1444311502301219799	-0.82847595	7.7739105	-4.610794
1444311502309612133	-0.33839417	9.058258	-3.7951202
1444311502318004467	-0.08013916	11.551773	-2.5803223
1444311502326396801	-0.29458618	13.999435	-1.4822083
1444311502334789134	0.028167725	17.01767	0.07998657
1444311502343181468	1.5344391	18.781631	2.1321106
1444311502351573802	3.6794434	18.7072	4.112976
1444311502359966136	5.726944	16.198517	4.9467926
1444311502368358470	5.644684	14.110443	3.9794464
1444311502376750804	3.973404	11.282379	1.907898
1444311502385143138	3.0519104	9.52478	0.56036377
1444311502393535472	1.8204498	7.708313	-0.4575348
1444311502401927806	0.54818726	6.355957	-0.5524597
1444311502410320140	-0.5914612	5.306671	-0.03729248
1444311502418712474	-1.6312714	4.3888702	0.92626953
1444311502427104808	-2.2618866	4.107849	1.4180908
1444311502435497142	-2.754364	4.1623383	1.7232666
1444311502443889476	-3.0500946	4.572281	1.815445
1444311502452281810	-3.5412292	5.284027	1.798645
1444311502460674144	-3.7319794	6.111969	1.7007141
1444311502469066478	-3.5440674	7.065628	1.7285309
1444311502477458812	-3.0825043	8.476456	2.0819855
1444311502485851146	-2.8691711	9.640839	2.2773438
1444311502494243480	-2.6134186	11.138565	2.835434
1444311502502635814	-2.3377686	11.693558	3.2231293
1444311502511028148	-1.8549347	11.995972	3.2570496
1444311502519420482	-1.3794556	11.990082	2.523529
1444311502527812816	-1.0755157	11.807098	1.468338
1444311502536205150	-0.77041626	11.264694	0.3590088
1444311502544597484	0.065826416	10.584381	-0.57406616
1444311502552989818	0.8805847	9.428909	-1.1297302
1444311502561382152	0.9619751	8.583221	-0.9300995
1444311502569774486	1.005661	7.7414703	-1.0187073
1444311502578166820	1.0171051	7.300644	-1.1813202
1444311502586559154	0.96040344	7.142456	-1.113205
1444311502594951488	0.6544647	7.294586	-0.6010437
1444311502603343822	0.19264221	7.5841827	-0.10922241
1444311502611736156	-0.29151917	8.056061	0.73117065
1444311502620128490	-0.26068115	8.328522	1.6085358
1444311502628520824	-0.47982788	8.760941	2.0022736
1444311502636913158	-0.8680115	9.103806	1.9049225
1444311502645305492	-1.2955017	9.343536	1.715805
1444311502653697826	-1.7002716	9.476608	1.5253143
1444311502662090160	-1.9410248	9.513443	1.3453827
1444311502670482494	-1.667511	9.247711	1.3551025
1444311502678874828	-1.7728882	9.127762	1.220581
1444311502687267162	-1.5291901	8.957626	1.197464
1444311502695659496	-1.0427704	8.823822	1.2103577
1444311502704051830	-0.64616394	8.787018	1.1121063
1444311502712444164	-0.44122314	8.887299	0.9098816
1444311502720836498	-0.16362	8.960983	0.88931274
1444311502729228832	0.08746338	9.242035	0.78749084
1444311502737621166	0.21769714	9.473373	0.8508911
1444311502746013500	0.30256653	9.827194	0.92251587
1444311502754405834	0.39619446	10.048218	1.1113892
1444311502762798168	0.5265198	10.203323	1.2845459
1444311502771190502	0.65734863	10.331314	1.2361145
1444311502779582836	0.71450806	10.402191	1.0262451
1444311502787975170	0.619339	10.547211	0.48860168
1444311502796367504	0.5079498	10.565186	0.13217163
1444311502804759838	0.18916321	10.51326	-0.029083252
1444311502813152172	-0.104660034	10.40213	-0.008636475
1444311502821544506	-0.48405457	10.241074	0.08392334
1444311502829936840	-0.8233032	9.993393	0.28718567
1444311502838329174	-0.8000488	9.735382	0.5318146
1444311502846721508	-1.164917	9.679031	0.5899048
1444311502855113842	-1.2086182	9.710724	0.5890503
1444311502863506176	-1.0109406	9.744522	0.68211365
1444311502871898509	-0.98864746	9.865021	0.8854523
1444311502880290843	-1.0675659	10.120697	1.1387024
1444311502888683177	-1.1593323	10.597519	1.397934
1444311502897075511	-1.2415924	11.133209	1.6077881
1444311502905467845	-1.5046539	11.91394	1.9076538
1444311502913860179	-1.5620575	12.375763	2.0387573
1444311502922252513	-1.7302551	12.953262	2.0648804
1444311502930644847	-1.8726654	13.225647	2.013794
1444311502939037181	-1.8675232	13.282471	1.963623
1444311502947429515	-1.8833923	13.25148	1.7594452
1444311502955821849	-2.102066	13.304718	1.3545074
1444311502964214183	-1.4555206	12.865814	0.97276306
1444311502972606517	-1.175354	12.601929	0.62490845
1444311502980998851	-0.886673	12.38176	0.8204956
1444311502989391185	-0.6448517	12.167435	1.1777039
1444311502997783519	-0.20986938	11.75473	1.5969238
1444311503006175853	0.4511261	11.036667	1.6342468
1444311503014568187	1.0059357	10.2703705	1.1578522
1444311503022960521	1.2848053	9.304886	0.9914856
1444311503031352855	1.7029114	8.909912	1.3573456
1444311503039745189	2.1855316	8.649704	1.7138519
1444311503048137523	2.472458	8.499268	1.498703
1444311503056529857	2.8000336	8.536377	1.0215607
1444311503064922191	3.1415405	8.98233	0.56282043
1444311503073314525	3.3561707	9.689865	0.3514862
1444311503081706859	3.3263397	11.0898285	0.46159363
1444311503090099193	3.0007477	12.146271	0.47358704
1444311503098491527	2.6824188	13.169037	0.3098755
1444311503106883861	2.7448273	13.261993	0.111953735
1444311503115276195	2.979889	12.892929	-0.239151
1444311503123668529	3.0917206	12.305893	-0.7844391
1444311503132060863	2.9270477	11.860992	-1.2490387
1444311503140453197	2.372345	11.500824	-1.1011658
1444311503148845531	1.4247131	11.263489	-0.8852539
1444311503157237865	-0.46166992	11.056229	-0.5476532
1444311503165630199	-1.3177185	10.925034	-0.7348633
1444311503174022533	-2.0277252	10.594574	-0.8436279
1444311503182414867	-2.4753876	9.942841	-0.6768036
1444311503190807201	-2.5811768	9.137573	-0.3968506
1444311503199199535	-2.3549652	7.886383	0.10069275
1444311503207591869	-1.8974304	7.0647125	0.31230164
1444311503215984203	-1.4741364	6.355423	0.18501282
1444311503224376537	-1.0946808	6.036789	-0.029937744
1444311503232768871	-0.9098511	5.9033203	-0.5900879
1444311503241161205	-0.9859314	5.9772186	-1.1354828
1444311503249553539	-1.1844025	6.1256104	-1.305481
1444311503257945873	-1.6778717	6.352844	-1.2385864
1444311503266338207	-1.7112885	6.4033966	-1.4510956
1444311503274730541	-1.1569824	6.5331726	-0.99487305
1444311503283122875	-0.5849304	6.6927032	-0.69577026
1444311503291515209	-0.2087555	6.950897	-0.6990814
1444311503299907543	0.06365967	7.2502747	-0.8417816
1444311503308299877	0.39561462	7.5219727	-0.89712524
1444311503316692211	0.66078186	7.8025665	-1.004715
1444311503325084545	0.74816895	7.8728333	-1.0989685
1444311503333476879	0.5905304	8.019348	-1.4324646
1444311503341869213	0.45863342	8.028671	-1.6789398
1444311503350261547	0.3603058	7.886154	-1.9300995
1444311503358653881	0.05303955	7.573593	-2.1552887
1444311503367046215	-0.38807678	7.159073	-2.3341064
1444311503375438549	-0.6768646	6.4834747	-2.4387512
1444311503383830883	-0.92019653	5.953125	-2.5338593
1444311503392223217	-1.2207489	5.2064056	-2.517105
1444311503400615551	-1.345047	4.9187164	-2.5003357
1444311503409007884	-1.338089	4.7647552	-2.5522308
1444311503417400218	-1.3992615	4.7651825	-2.5965729
1444311503425792552	-1.5194092	4.8716583	-2.5668793
1444311503434184886	-1.4243774	5.20932	-2.427948
1444311503442577220	-1.2958527	5.549469	-2.3088531
1444311503450969554	-1.5597839	6.4498444	-2.6508179
1444311503459361888	-1.6767731	7.4257813	-2.7893372
1444311503467754222	-1.9267578	8.881653	-3.0082855
1444311503476146556	-2.2634735	10.329803	-3.1936035
1444311503484538890	-2.643631	11.675751	-3.2915497
1444311503492931224	-3.083664	13.263718	-3.4010925
1444311503501323558	-3.161621	14.290161	-3.7052612
1444311503509715892	-3.2873077	15.284683	-3.299881
1444311503518108226	-3.149887	15.280655	-3.1389618
1444311503526500560	-2.661438	14.817627	-3.0364685
1444311503534892894	-2.0542145	14.085678	-3.1286469
1444311503543285228	-1.6014252	13.262405	-3.3308563
1444311503551677562	-1.4190826	12.175415	-3.4994965
1444311503560069896	-1.3076935	11.326324	-3.4540863
1444311503568462230	-1.464447	10.062271	-3.54451
1444311503576854564	-1.5042267	9.343384	-3.6397247
1444311503585246898	-1.5969391	8.619965	-3.6303558
1444311503593639232	-1.7534027	7.988907	-3.6997986
1444311503602031566	-1.9469452	7.4617004	-3.8600311
1444311503610423900	-2.1280365	7.1983643	-4.190033
1444311503618816234	-2.1477356	7.1769257	-4.7949524
1444311503627208568	-2.096054	7.549011	-5.8788605
1444311503635600902	-2.3351135	7.9345856	-6.50177
1444311503643993236	-2.6287842	8.473907	-6.6488495
1444311503652385570	-2.6164703	9.137863	-6.0051727
1444311503660777904	-2.3527832	9.856583	-5.063919
1444311503669170238	-1.8626862	10.685089	-3.9518127
1444311503677562572	-1.0913391	11.952377	-2.2812958
1444311503685954906	-0.34918213	13.272385	-0.5282135
1444311503694347240	-0.16410828	14.091476	0.42367554
1444311503702739574	0.46359253	14.443817	1.521347
1444311503711131908	1.591156	14.247925	2.622116
1444311503719524242	3.2733765	12.961548	2.8064117
1444311503727916576	4.003723	11.397934	1.5072632
1444311503736308910	4.048294	10.111877	0.21949768
1444311503744701244	3.597046	8.824951	-0.682312
1444311503753093578	2.620453	7.382477	-1.3874359
1444311503761485912	1.4246674	6.083725	-1.5162506
1444311503769878246	0.4633789	5.469681	-1.041275
1444311503778270580	-0.37297058	5.139694	-0.4109192
1444311503786662914	-1.0669861	4.952057	0.24111938
1444311503795055248	-2.0164032	4.952423	1.0547485
1444311503803447582	-2.7528076	5.396118	1.7684021
1444311503811839916	-3.0544128	5.8836517	1.9937439
1444311503820232250	-3.320572	6.7714996	1.9202576
1444311503828624584	-3.5037994	7.7831573	1.6157684
1444311503837016918	-3.6278992	8.764465	1.381073
1444311503845409252	-3.6818848	9.744644	1.3425293
1444311503853801586	-3.6896667	10.940933	1.6683197
1444311503862193920	-2.823532	11.599243	1.878952
1444311503870586254	-2.0052948	11.779175	2.025467
1444311503878978588	-1.1421814	11.787231	1.8253174
1444311503887370922	-0.39756775	11.572845	1.3401489
1444311503895763256	0.07102966	11.056992	0.5757446
1444311503904155590	0.68022156	10.644012	-0.13626099
1444311503912547924	1.7225189	9.828323	-0.119781494
1444311503920940258	1.7207947	9.183136	-0.4607849
1444311503929332592	1.5713959	8.503189	-0.73280334
1444311503937724926	1.49823	8.093185	-0.62677
1444311503946117259	1.4944916	7.836014	-0.22668457
1444311503954509593	1.3445892	7.742523	0.3327942
1444311503962901927	0.95132446	7.819641	0.5812683
1444311503971294261	0.23822021	8.290405	1.0250702
1444311503979686595	0.028305054	8.642548	1.4543304
1444311503988078929	-0.10147095	9.085373	1.8211975
1444311503996471263	-0.21304321	9.3606415	1.9149933
1444311504004863597	-0.3282776	9.530121	1.7774658
1444311504013255931	-0.4599762	9.655518	1.3826599
1444311504021648265	-0.63905334	9.77803	1.0399475
1444311504030040599	-0.75401306	9.659668	0.7201538
1444311504038432933	-0.94766235	9.627106	0.50338745
1444311504046825267	-1.1073761	9.470825	0.25553894
1444311504055217601	-1.1981049	9.275635	0.04966736
1444311504063609935	-1.2961578	9.0716095	-0.06542969
1444311504072002269	-1.4449005	8.879028	-0.021072388
1444311504080394603	-1.593338	8.752213	0.0572052
1444311504088786937	-1.7563934	8.638077	0.23614502
1444311504097179271	-1.8583527	8.689484	0.3595276
1444311504105571605	-1.7579346	8.8129425	0.5057678
1444311504113963939	-1.6467438	9.035507	0.5587158
1444311504122356273	-1.5217133	9.320923	0.6340637
1444311504130748607	-1.3613129	9.636688	0.7753296
1444311504139140941	-1.2490692	9.892563	0.8636627
1444311504147533275	-1.0084991	10.117294	0.79393005
1444311504155925609	-0.9073944	10.151566	0.5557251
1444311504164317943	-0.7112732	9.975067	0.13293457
1444311504172710277	-0.47149658	9.762207	-0.042663574
1444311504181102611	-0.2713318	9.612961	-0.02986145
1444311504189494945	-0.25431824	9.5568695	0.15853882
1444311504197887279	-0.38731384	9.512207	0.36767578
1444311504206279613	-0.5963898	9.374634	0.43624878
1444311504214671947	-0.5681	9.334366	0.605896
1444311504223064281	-0.8692627	9.598846	0.91342163
1444311504231456615	-1.0206451	10.04335	0.7928467
1444311504239848949	-0.99427795	10.61705	0.660614
1444311504248241283	-0.8180237	11.177872	0.73002625
1444311504256633617	-0.65663147	11.515091	0.818161
1444311504265025951	-0.56440735	11.731628	0.83457947
1444311504273418285	-0.63124084	11.679352	0.87397766
1444311504281810619	-0.9390259	11.503433	1.1736603
1444311504290202953	-1.3260803	11.474915	1.453949
1444311504298595287	-1.6429901	11.627594	1.5093536
1444311504306987621	-1.8647614	11.920319	1.3788757
1444311504315379955	-2.1026459	12.137466	1.39151
1444311504323772289	-2.3639526	12.13031	1.7391205
1444311504332164623	-1.9929504	11.898117	1.7194214
1444311504340556957	-2.0182495	11.773499	1.3238373
1444311504348949291	-1.8497467	11.743652	0.9960327
1444311504357341625	-1.2862396	11.461441	1.1537323
1444311504365733959	-0.74713135	10.956726	1.5401917
1444311504374126293	-0.6672516	10.574234	1.447052
1444311504382518627	-0.43632507	10.082748	0.5464325
1444311504390910961	0.37249756	9.445297	0.5575714
1444311504399303295	0.95303345	9.077591	1.4012451
1444311504407695629	1.318222	8.860336	1.462616
1444311504416087963	1.7088776	8.926407	1.1076202
1444311504424480297	2.0556335	9.270569	0.3572693
1444311504432872631	2.3457794	9.678665	-0.47566223
1444311504441264965	2.8561401	10.933701	-0.9763336
1444311504449657299	2.86557	12.175232	-0.8572235
1444311504458049633	2.6291199	13.623566	-0.3007202
1444311504466441967	2.82164	14.291946	0.19515991
1444311504474834301	3.1941376	14.58551	0.40693665
1444311504483226634	3.5547333	14.332687	0.026535034
1444311504491618968	3.7342682	13.742569	-0.671051
1444311504500011302	3.4915771	12.624252	-1.396286
1444311504508403636	3.2987976	11.9328	-0.8547821
1444311504516795970	2.2826843	11.18718	1.070404
1444311504525188304	0.3824463	11.007202	0.76335144
1444311504533580638	-1.2504578	10.983582	-0.22714233
1444311504541972972	-2.0353699	10.761887	-1.1607056
1444311504550365306	-2.6176605	10.291077	-1.6352997
1444311504558757640	-3.7891235	9.689896	-1.2853088
1444311504567149974	-3.8148346	9.045593	-0.3908081
1444311504575542308	-2.9827728	8.262024	0.3545227
1444311504583934642	-2.646103	7.515976	0.42112732
1444311504592326976	-2.275772	6.839737	0.044937134
1444311504600719310	-1.8734283	6.354065	-0.53941345
1444311504609111644	-1.5987549	5.9845123	-1.0262146
1444311504617503978	-1.5718842	5.7618103	-1.505661
1444311504625896312	-1.2899933	5.709549	-1.6461792
1444311504634288646	-0.8919525	5.816986	-1.4313354
1444311504642680980	-0.6252899	5.866852	-1.2180176
1444311504651073314	-0.3562622	5.895691	-1.1392059
1444311504659465648	-0.25216675	5.9757385	-1.1303406
1444311504667857982	-0.3004303	6.138962	-1.0397797
1444311504676250316	-0.3963623	6.4315186	-0.82110596
1444311504684642650	-0.3098297	6.628586	-0.8048248
1444311504693034984	-0.3293152	6.839737	-0.8348999
1444311504701427318	-0.338089	6.9401855	-0.987854
1444311504709819652	-0.48236084	6.9670105	-1.3001862
1444311504718211986	-0.65815735	6.871628	-1.6387634
1444311504726604320	-0.7872467	6.6733246	-1.9279022
1444311504734996654	-0.8894043	6.2844696	-2.2449493
1444311504743388988	-0.83457947	5.986313	-2.465149
1444311504751781322	-0.92245483	5.492798	-2.7099457
1444311504760173656	-0.95851135	5.184189	-2.7641144
1444311504768565990	-1.0337372	4.9675293	-2.7645721
1444311504776958324	-1.0960846	5.014694	-2.6744232
1444311504785350658	-1.1333923	5.297989	-2.525711
1444311504793742992	-1.1317749	5.8944397	-2.3339539
1444311504802135326	-1.014389	6.3005676	-2.2414246
1444311504810527660	-1.0631409	7.1019287	-2.633377
1444311504818919994	-1.4901733	8.07399	-2.9590912
1444311504827312328	-2.1911163	9.580566	-3.3767548
1444311504835704662	-2.8197174	11.106201	-3.6665955
1444311504844096996	-3.3127747	12.508087	-3.772171
1444311504852489330	-3.7252502	13.965286	-3.5507813
1444311504860881664	-3.8820496	14.994308	-3.1121063
1444311504869273998	-4.40419	15.546051	-2.2398834
1444311504877666332	-3.939911	15.058395	-2.2426605
1444311504886058666	-3.2541199	14.182648	-2.7994232
1444311504894451000	-2.5843658	13.270386	-3.5115967
1444311504902843334	-2.0117188	12.340607	-4.1025543
1444311504911235668	-1.6994934	11.184143	-4.4897614
1444311504919628002	-1.8220062	10.299057	-4.524887
1444311504928020336	-2.296646	9.043396	-3.9632874
1444311504936412670	-2.1938171	8.257721	-3.433792
1444311504944805004	-2.0957184	7.356079	-3.4138489
1444311504953197338	-2.0646973	6.6460114	-3.5847168
1444311504961589672	-2.1358948	6.1593475	-3.795105
1444311504969982006	-2.1791992	6.0078583	-4.2549896
1444311504978374340	-1.837326	6.0147247	-4.6979675
1444311504986766674	-1.240799	6.0059204	-5.5504456
1444311504995159008	-1.2819366	6.4009094	-5.9917145
1444311505003551342	-1.6796112	7.2184906	-6.088272
1444311505011943676	-2.0533142	8.145828	-5.4333496
1444311505020336009	-2.1958313	9.272156	-4.230316
1444311505028728343	-1.9104767	10.924301	-2.498001
1444311505037120677	-1.409256	12.451126	-1.088562
1444311505045513011	-0.63772583	15.02803	0.6308594
1444311505053905345	0.27218628	16.82045	1.4302521
1444311505062297679	1.926651	18.26712	2.512497
1444311505070690013	3.783966	17.852478	2.9564667
1444311505079082347	5.2534943	16.238358	2.36026
1444311505087474681	5.364029	13.700241	0.31526184
1444311505095867015	4.3667145	11.503418	-1.5808411
1444311505104259349	2.6627045	8.529434	-2.7500305
1444311505112651683	1.8847351	6.7995605	-1.9506378
1444311505121044017	1.043747	5.349304	-0.83477783
1444311505129436351	0.49427795	4.664963	-0.15965271
1444311505137828685	-0.14154053	4.220764	0.2780304
1444311505146221019	-1.0537567	3.905548	0.6816101
1444311505154613353	-1.791565	3.745819	1.095398
1444311505163005687	-2.6323395	4.3190765	1.5641937
1444311505171398021	-2.781433	4.7749023	1.8375244
1444311505179790355	-3.0675812	5.6553802	1.9441986
1444311505188182689	-3.2520447	6.6072693	1.7702789
1444311505196575023	-3.3569336	7.707367	1.6853943
1444311505204967357	-3.4280853	9.063324	1.8880463
1444311505213359691	-3.5093842	10.321243	2.094635
1444311505221752025	-3.3880157	12.084869	2.1466522
1444311505230144359	-3.2731934	12.94252	2.062683
1444311505238536693	-2.9151459	13.299286	1.6552124
1444311505246929027	-2.3001862	12.840179	0.8348541
1444311505255321361	-1.3964996	11.992783	-0.2093811
1444311505263713695	-0.39305115	10.922272	-1.1807404
1444311505272106029	0.2054596	9.992096	-1.736496
1444311505280498363	0.40072632	8.770554	-1.6910706
1444311505288890697	0.74172974	8.042282	-1.1932831
1444311505297283031	0.7752228	7.492264	-1.1094055
1444311505305675365	0.56640625	7.3936005	-0.77679443
1444311505314067699	0.2682495	7.4830017	-0.12168884
1444311505322460033	-0.057174683	7.736389	0.5857849
1444311505330852367	-0.3271637	8.045059	0.96987915
1444311505339244701	-0.73812866	8.594147	1.3251038
1444311505347637035	-0.70899963	8.938599	1.5513
1444311505356029369	-0.6871338	9.232742	1.6570129
1444311505364421703	-0.66682434	9.350327	1.4651031
1444311505372814037	-0.7497711	9.391983	1.1519775
1444311505381206371	-0.859787	9.32608	0.84336853
1444311505389598705	-0.84155273	9.201202	0.6139221
1444311505397991039	-0.87324524	9.0699005	0.23510742
1444311505406383373	-0.98805237	8.994507	0.21453857
1444311505414775707	-1.2386322	8.934341	0.104537964
1444311505423168041	-1.2666626	8.914078	0.21328735
1444311505431560375	-1.3652344	8.934311	0.30470276
1444311505439952709	-1.5143127	8.993027	0.34545898
1444311505448345043	-1.5353699	9.0564575	0.42625427
1444311505456737377	-1.4752655	9.213165	0.49638367
1444311505465129711	-1.4041443	9.381943	0.61376953
1444311505473522045	-1.2676544	9.59819	0.76963806
1444311505481914379	-1.1414337	9.77655	0.80155945
1444311505490306713	-0.9050751	9.908371	0.7812042
1444311505498699047	-0.564209	9.9062195	0.69802856
1444311505507091381	-0.23857117	9.826324	0.5851898
1444311505515483715	0.1769104	9.811462	0.471344
1444311505523876049	0.32943726	9.920273	0.42591858
1444311505532268383	0.45272827	10.054901	0.394104
1444311505540660717	0.33062744	10.06337	0.28164673
1444311505549053051	0.017074585	10.079834	0.38241577
1444311505557445384	-0.35740662	10.132019	0.7474518
1444311505565837718	-0.6411133	10.179596	1.098175
1444311505574230052	-0.8914795	10.174881	1.2609863
1444311505582622386	-0.7869415	10.122604	1.1273346
1444311505591014720	-0.80677795	10.105423	0.9790802
1444311505599407054	-0.7410126	10.249115	0.7942505
1444311505607799388	-0.6536102	10.495056	0.60136414
1444311505616191722	-0.7129822	10.788376	0.46606445
1444311505624584056	-0.91911316	11.037582	0.38734436
1444311505632976390	-1.261261	11.167755	0.37249756
1444311505641368724	-1.648529	11.11377	0.44789124
1444311505649761058	-2.5160217	11.163162	1.1331329
1444311505658153392	-2.8014374	11.366592	1.2272644
1444311505666545726	-2.794876	11.783081	0.78479004
1444311505674938060	-2.7387238	12.242767	0.32073975
1444311505683330394	-2.6951904	12.49614	0.29560852
1444311505691722728	-2.3426208	12.394745	0.64608765
1444311505700115062	-2.6510773	12.529266	0.46873474
1444311505708507396	-1.7497253	12.383209	0.7563324
1444311505716899730	-1.2698059	11.960846	1.4563446
1444311505725292064	-0.9986267	11.528351	1.7345581
1444311505733684398	-0.66360474	10.9614105	1.3504639
1444311505742076732	-0.05934143	10.197205	0.9485779
1444311505750469066	0.84117126	9.267685	1.174881
1444311505758861400	1.0665131	9.014923	1.3616638
1444311505767253734	1.9277039	8.962006	1.2455444
1444311505775646068	2.322052	9.287277	0.6022949
1444311505784038402	2.5778656	9.833984	-0.1778717
1444311505792430736	2.514923	10.547501	-0.7667389
1444311505800823070	2.3757172	11.368744	-1.0522461
1444311505809215404	2.566742	12.443573	-0.7617645
1444311505817607738	2.8854675	13.119598	-0.16716003
1444311505826000072	3.3915863	13.5026245	0.32791138
1444311505834392406	3.678711	13.319733	0.55641174
1444311505842784740	4.467148	12.774368	0.13380432
1444311505851177074	4.9318542	12.173309	-0.5345764
1444311505859569408	4.6631317	11.751221	-0.86613464
1444311505867961742	3.563568	11.581223	-0.6306
1444311505876354076	2.8404236	11.594925	-0.4789276
1444311505884746410	0.9903259	11.582367	-0.45594788
1444311505893138744	-0.3140564	11.444656	-0.35585022
1444311505901531078	-1.328659	10.815201	-0.0056610107
1444311505909923412	-1.8699341	10.017593	0.19654846
1444311505918315746	-2.360733	9.19014	0.15988159
1444311505926708080	-2.954071	8.241241	-0.025970459
1444311505935100414	-3.1048584	7.9302216	-0.16905212
1444311505943492748	-4.3655243	6.958252	-1.1287842
1444311505951885082	-3.5235596	6.4097443	-0.9306946
1444311505960277416	-2.2947235	6.1062317	-0.64263916
1444311505968669750	-1.4767761	6.0252686	-0.60061646
1444311505977062084	-0.99064636	6.0280914	-0.79403687
1444311505985454418	-0.6745758	6.1751556	-1.1914978
1444311505993846752	-0.7268524	6.3105316	-1.5384979
1444311506002239086	-0.7714691	6.4493103	-1.4250641
1444311506010631420	-0.8691559	6.447586	-1.3025513
1444311506019023754	-1.0147247	6.43985	-1.1135559
1444311506027416088	-1.0192108	6.530533	-0.94047546
1444311506035808422	-0.8942261	6.6923065	-0.82847595
1444311506044200756	-0.68774414	6.8644714	-0.86450195
1444311506052593090	-0.5575104	6.9493103	-1.016159
1444311506060985424	-0.3067627	6.9140015	-1.1375885
1444311506069377758	-0.36160278	6.8385925	-0.9953766
1444311506077770092	-0.4417572	6.684494	-1.1900177
1444311506086162426	-0.37893677	6.500763	-1.4606628
1444311506094554759	-0.28198242	6.2371063	-1.6948395
1444311506102947093	-0.28527832	5.800476	-1.931076
1444311506111339427	-0.32469177	5.4123383	-2.1058655
1444311506119731761	-0.5311432	5.009918	-2.382019
1444311506128124095	-0.5782623	4.8154297	-2.4394226
1444311506136516429	-0.59487915	4.830002	-2.5195618
1444311506144908763	-0.5580597	5.102768	-2.5052948
1444311506153301097	-0.56752014	5.54834	-2.4475098
1444311506161693431	-0.7449951	6.2311096	-2.3359375
1444311506170085765	-0.9831848	6.9002686	-2.1440125
1444311506178478099	-2.2062683	8.518936	-2.4700775
1444311506186870433	-2.2610931	9.638763	-2.81279
1444311506195262767	-2.6540375	11.484451	-2.816269
1444311506203655101	-3.0187073	13.061844	-2.9040833
1444311506212047435	-3.7724457	14.567673	-2.8632202
1444311506220439769	-4.848175	15.941925	-2.3944702
1444311506228832103	-5.0812225	16.666977	-1.9432831
1444311506237224437	-5.311203	16.386139	-2.5213776
1444311506245616771	-4.6240387	15.077789	-2.9489288
1444311506254009105	-3.9989777	13.160568	-3.7220612
1444311506262401439	-3.5109863	11.646179	-4.321686
1444311506270793773	-3.318283	10.115021	-4.7067566
1444311506279186107	-3.4562683	8.609772	-4.7402496
1444311506287578441	-3.3821259	7.7276	-4.5533752
1444311506295970775	-2.4957123	6.865219	-4.328491
1444311506304363109	-1.9079437	6.6047516	-4.3045044
1444311506312755443	-1.3655701	6.717392	-4.564331
1444311506321147777	-1.1783752	7.408325	-4.9434357
1444311506329540111	-1.2950745	8.542847	-5.3925934
1444311506337932445	-1.721817	9.930176	-5.5338287
1444311506346324779	-2.1030273	10.985474	-5.0733337
1444311506354717113	-2.2809296	12.354492	-3.3181
1444311506363109447	-1.9750671	13.266983	-2.1511383
1444311506371501781	-1.2953339	14.066605	-0.45669556
1444311506379894115	-0.65211487	14.40921	0.9844208
1444311506388286449	0.21928406	14.382645	2.1284332
1444311506396678783	1.6125946	13.5286255	2.4503784
1444311506405071117	3.146881	12.097153	2.0975342
1444311506413463451	4.8985443	9.681122	1.2251129
1444311506421855785	5.1617584	8.224731	-0.09248352
1444311506430248119	5.4249725	6.768326	-1.41008
1444311506438640453	4.8186035	5.995819	-1.7014008
1444311506447032787	3.6013489	5.352829	-1.1746826
1444311506455425121	2.0220337	4.9422913	-0.19355774
1444311506463817455	0.66371155	4.863739	0.3859558
1444311506472209789	-0.719162	5.147339	0.90049744
1444311506480602123	-1.4388733	5.7565155	1.296341
1444311506488994457	-2.5250702	7.1171417	2.2511292
1444311506497386791	-3.3463287	8.288712	2.546814
1444311506505779125	-4.231659	9.464188	2.3065948
1444311506514171459	-4.747574	10.424408	1.9620819
1444311506522563793	-4.584793	11.052063	2.0362396
1444311506530956127	-3.4916382	11.687607	2.3953247
1444311506539348461	-2.6879578	11.86496	2.2830963
1444311506547740795	-1.8736572	11.751663	2.3075562
1444311506556133129	-1.4371948	11.404831	2.4484406
1444311506564525463	-1.0188293	10.810425	2.5169067
1444311506572917797	-0.56391907	9.9782715	1.9731293
1444311506581310131	-0.1159668	9.141556	0.91326904
1444311506589702465	0.47132874	8.153992	-0.22935486
1444311506598094799	1.0419617	7.6656036	-0.3801422
1444311506606487133	1.6808624	7.340225	-0.16178894
1444311506614879467	2.0389252	7.3912506	0.12097168
1444311506623271801	2.0533752	7.4973755	0.36027527
1444311506631664134	1.667511	7.6818085	0.49334717
1444311506640056468	1.1791687	7.9832306	0.62538147
1444311506648448802	0.49639893	8.581345	1.0910339
1444311506656841136	0.25479126	9.112564	1.5631256
1444311506665233470	-0.18380737	9.735168	1.911911
1444311506673625804	-0.5246887	10.166046	2.1448364
1444311506682018138	-0.7167053	10.379135	2.407547
1444311506690410472	-0.9127655	10.245087	2.4596863
1444311506698802806	-1.2714081	9.959213	2.222458
1444311506707195140	-1.7569275	9.5408325	1.5856476
1444311506715587474	-1.7954865	9.296646	1.1143951
1444311506723979808	-1.9022217	8.961868	0.58631897
1444311506732372142	-2.0615082	8.805832	0.29512024
1444311506740764476	-2.2075348	8.766983	0.1698761
1444311506749156810	-2.3424225	8.863083	0.22814941
1444311506757549144	-2.4743042	8.994003	0.34988403
1444311506765941478	-2.5470734	9.113159	0.53956604
1444311506774333812	-2.5504913	9.135437	0.52415466
1444311506782726146	-2.5531921	9.318512	0.7221527
1444311506791118480	-2.4906006	9.38414	0.8283081
1444311506799510814	-2.3405304	9.409683	0.9051819
1444311506807903148	-2.086319	9.421722	0.95832825
1444311506816295482	-1.6081848	9.533783	0.9302826
1444311506824687816	-1.1147308	9.732422	0.752182
1444311506833080150	-0.8062744	9.929489	0.4668579
1444311506841472484	-0.4044037	10.149536	0.15707397
1444311506849864818	-0.14733887	10.25145	0.17417908
1444311506858257152	0.013946533	10.2191925	0.4258728
1444311506866649486	-0.003250122	10.097061	0.70939636
1444311506875041820	-0.15083313	9.972153	0.86898804
1444311506883434154	-0.5252838	9.856476	0.8839874
1444311506891826488	-0.8876953	9.902756	0.78889465
1444311506900218822	-1.1422577	10.131866	0.6006775
1444311506908611156	-1.3291168	10.325867	0.33406067
1444311506917003490	-1.573883	10.598694	0.054153442
1444311506925395824	-1.7334595	10.874802	-0.09118652
1444311506933788158	-1.8049011	11.061157	-0.05204773
1444311506942180492	-1.851654	11.020462	0.23226929
1444311506950572826	-1.9056396	10.862808	0.3085327
1444311506958965160	-1.9557648	10.631744	0.2093811
1444311506967357494	-2.1667786	10.381012	0.29837036
1444311506975749828	-2.4689178	10.234009	0.5928192
1444311506984142162	-2.694046	10.219955	0.79637146
1444311506992534496	-2.7330322	10.469452	0.541275
1444311507000926830	-2.5933838	10.852432	0.19425964
1444311507009319164	-2.3571167	11.425705	0.5963745
1444311507017711498	-2.7459564	11.972412	0.80062866
1444311507026103832	-2.5324707	12.239792	1.0269775
1444311507034496166	-2.0726776	12.134888	1.183136
1444311507042888500	-1.7940674	11.897919	1.20607
1444311507051280834	-1.3128204	11.513184	1.0161743
1444311507059673168	-0.96151733	11.258713	0.8413849
1444311507068065502	-0.054351807	10.499359	1.0396729
1444311507076457836	0.734375	9.857697	1.4701691
1444311507084850170	1.4872742	9.426804	1.5411224
1444311507093242504	2.4103394	9.184525	1.3534546
1444311507101634838	3.2190094	9.126175	1.0210724
1444311507110027172	3.1632233	9.6831665	0.03855896
1444311507118419506	3.0963898	10.218658	-0.92277527
1444311507126811840	2.890442	11.39769	-1.3413239
1444311507135204174	3.106842	12.322098	-0.6903839
1444311507143596508	3.6592865	13.37561	0.41571045
1444311507151988842	4.2521667	14.078491	1.4891815
1444311507160381176	4.934326	14.333969	2.0822144
1444311507168773509	6.050598	13.986908	1.5675049
1444311507177165843	6.556122	13.571365	0.5607605
1444311507185558177	5.1248474	13.17366	-0.2640686
1444311507193950511	3.932663	13.036667	-0.52589417
1444311507202342845	2.7517242	13.000305	-0.35168457
1444311507210735179	1.616394	13.030487	-0.19223022
1444311507219127513	0.2918396	12.887527	-0.2892456
1444311507227519847	-1.539505	12.158829	-0.4414978
1444311507235912181	-3.0894928	11.277161	-0.19902039
1444311507244304515	-3.6957397	9.463669	0.37504578
1444311507252696849	-3.8492737	8.548309	-0.2202301
1444311507261089183	-4.052704	7.6835175	-0.651062
1444311507269481517	-3.7176056	6.772873	-0.9013672
1444311507277873851	-3.2613525	5.883194	-1.0447998
1444311507286266185	-3.1179352	5.4328003	-1.2334442
1444311507294658519	-2.6963959	5.5296173	-1.9094696
1444311507303050853	-2.8758698	5.548752	-1.4041748
1444311507311443187	-1.8357239	5.0303802	-1.4907074
1444311507319835521	-0.84477234	5.0880585	-1.5951538
1444311507328227855	-0.60313416	5.2838593	-1.5761108
1444311507336620189	-0.7682953	5.358307	-1.3371735
1444311507345012523	-1.0296326	5.356262	-0.89520264
1444311507353404857	-1.1315918	5.2971497	-0.7923889
1444311507361797191	-0.7701874	5.393936	-0.7811737
1444311507370189525	-0.6271057	5.5944214	-0.57810974
1444311507378581859	-0.44769287	5.9445343	-0.7442322
1444311507386974193	-0.2850952	6.234787	-0.97914124
1444311507395366527	-0.19432068	6.446869	-1.1825714
1444311507403758861	-0.2418518	6.5518646	-1.4957886
1444311507412151195	-0.3086853	6.538147	-1.8770599
1444311507420543529	-0.2989807	6.25943	-2.3596802
1444311507428935863	-0.18930054	5.8618774	-2.4719238
1444311507437328197	-0.26228333	5.293106	-2.3964996
1444311507445720531	-0.5803528	5.101349	-2.2842865
1444311507454112865	-0.813797	5.313339	-2.1744232
1444311507462505199	-0.6577759	5.970413	-2.0849152
1444311507470897533	-0.3578949	6.6001587	-2.0994873
1444311507479289867	-0.18534851	7.8242188	-2.0757294
1444311507487682201	-0.4903717	9.143692	-2.2967834
1444311507496074535	-0.5147705	10.895142	-2.467102
1444311507504466869	-0.9610748	12.541763	-2.6006317
1444311507512859203	-1.864563	14.146042	-2.768814
1444311507521251537	-2.8665466	15.327469	-2.8140259
1444311507529643871	-3.3111115	15.691162	-2.5865784
1444311507538036205	-4.59906	14.889267	-3.0588837
1444311507546428539	-4.395996	13.736008	-3.228531
1444311507554820873	-3.6629486	12.062775	-3.6711273
1444311507563213207	-3.2836761	10.829544	-4.1973877
1444311507571605541	-3.1150055	9.685593	-4.649399
1444311507579997875	-3.118103	8.614838	-4.7717743
1444311507588390209	-3.3016815	7.943924	-4.5986176
1444311507596782543	-3.3716583	7.2728424	-4.365799
1444311507605174877	-3.276535	7.0534973	-4.074478
1444311507613567211	-3.2322083	6.9036713	-3.6686249
1444311507621959545	-3.1619568	6.901642	-3.495987
1444311507630351879	-3.0800934	6.972931	-3.5027008
1444311507638744213	-2.9447937	7.0103455	-3.651001
1444311507647136547	-2.7364807	6.911438	-3.7762146
1444311507655528881	-2.4828339	6.5199127	-3.9159393
1444311507663921215	-2.2634888	6.14122	-4.1472626
1444311507672313549	-1.9257202	5.7761536	-4.3562927
1444311507680705883	-1.4523926	5.6567383	-4.597534
1444311507689098217	-0.85287476	5.7071533	-4.9936066
1444311507697490551	-0.35879517	6.0620728	-5.348587
1444311507705882884	-0.16494751	6.661316	-5.393341
1444311507714275218	-0.015258789	8.372223	-5.209656
1444311507722667552	-0.15834045	10.149216	-4.521652
1444311507731059886	-0.42982483	13.213654	-2.8862762
1444311507739452220	-0.34994507	16.14975	-1.4669647
1444311507747844554	0.31774902	19.46408	0.08279419
1444311507756236888	1.628418	22.19812	1.6842194
1444311507764629222	2.9300385	23.218323	2.908493
1444311507773021556	4.531967	20.637314	3.4310455
1444311507781413890	4.84729	16.771362	2.640213
1444311507789806224	3.7049408	12.206085	0.32302856
1444311507798198558	2.846405	9.639175	-0.27330017
1444311507806590892	2.169983	7.4120026	-0.10482788
1444311507814983226	1.5611115	5.62236	0.37635803
1444311507823375560	0.94595337	4.4417114	0.7976074
1444311507831767894	0.080337524	3.554306	1.4398956
1444311507840160228	-0.5271301	3.1927338	1.7646179
1444311507848552562	-1.5890045	2.9085083	1.7256317
1444311507856944896	-2.1172333	2.9817047	1.7089386
1444311507865337230	-2.670227	3.556366	1.8860779
1444311507873729564	-2.932251	4.6535797	1.9717865
1444311507882121898	-2.7058258	5.8373413	1.9055634
1444311507890514232	-2.0947113	7.5638733	2.6453857
1444311507898906566	-1.5832062	8.598022	3.0549316
1444311507907298900	-1.5660248	10.366394	3.6439514
1444311507915691234	-1.5310516	11.798935	3.3215332
1444311507924083568	-1.3818054	13.0546875	3.0972748
1444311507932475902	-0.9905243	13.527542	2.5902252
1444311507940868236	-0.5413513	13.315521	1.5001678
1444311507949260570	-0.4325409	12.423767	0.08604431
1444311507957652904	-0.22433472	11.383606	-0.26696777
1444311507966045238	0.13357544	9.716705	-0.5376282
1444311507974437572	-9.918213E-4	8.589294	-0.90460205
1444311507982829906	-0.23580933	7.7316437	-1.1193237
1444311507991222240	-0.37347412	7.3293304	-0.7074127
1444311507999614574	-0.44874573	7.174286	-0.039505005
1444311508008006908	-0.7812042	7.2787323	0.17791748
1444311508016399242	-1.2550049	7.6351624	0.70314026
1444311508024791576	-1.4969482	8.187088	1.6461029
1444311508033183910	-1.3160095	8.5997925	2.0629578
1444311508041576244	-1.2783661	9.122986	2.0452728
1444311508049968578	-1.3282318	9.606415	1.6900635
1444311508058360912	-1.3205261	9.96994	1.337265
1444311508066753246	-1.4411316	10.294006	0.95388794
1444311508075145580	-1.7958374	10.446518	0.67884827
1444311508083537914	-2.0751038	10.50972	0.22227478
1444311508091930248	-2.2075348	10.322769	0.08230591
1444311508100322582	-2.392273	9.917114	-0.058761597
1444311508108714916	-2.5653534	9.485443	-0.24720764
1444311508117107250	-2.688095	9.140503	-0.41305542
1444311508125499584	-2.7652435	8.77211	-0.3876648
1444311508133891918	-2.742981	8.557907	-0.2351532
1444311508142284252	-2.6250153	8.352264	-0.06997681
1444311508150676586	-2.4504242	8.391098	0.038406372
1444311508159068920	-2.2138824	8.430145	0.1796112
1444311508167461254	-1.9882507	8.457947	0.3696289
1444311508175853588	-1.7897034	8.461243	0.6179352
1444311508184245922	-1.552475	8.403656	0.9748993
1444311508192638256	-1.3262787	8.431076	1.1719666
1444311508201030590	-0.9187622	8.575562	1.5761871
1444311508209422924	-0.7401886	8.742294	1.5810547
1444311508217815258	-0.42988586	9.00798	1.3486481
1444311508226207592	-0.060150146	9.277023	1.1811829
1444311508234599926	0.17919922	9.501358	1.0996552
1444311508242992259	0.07809448	9.66449	1.0001068
1444311508251384593	-0.054718018	9.693619	1.2648621
1444311508259776927	-0.32328796	9.856964	1.4225464
1444311508268169261	-0.23194885	9.867325	1.4621887
1444311508276561595	-0.17222595	9.963486	1.3090515
1444311508284953929	-0.15292358	10.233566	1.0225677
1444311508293346263	-0.10652161	10.609329	0.7823944
1444311508301738597	0.0045166016	11.076309	0.6570587
1444311508310130931	0.045639038	11.440445	0.5002594
1444311508318523265	0.035720825	11.791138	0.2734375
1444311508326915599	-0.15916443	11.854065	0.30577087
1444311508335307933	-0.47673035	11.847977	0.49742126
1444311508343700267	-0.93544006	11.894638	0.89193726
1444311508352092601	-1.4563293	12.027023	1.3471222
1444311508360484935	-1.9771423	12.224167	1.7477112
1444311508368877269	-2.324997	12.354401	1.976471
1444311508377269603	-2.652542	12.560318	2.1350555
1444311508385661937	-2.636261	12.644272	1.8523102
1444311508394054271	-2.2879944	12.3962555	1.7133179
1444311508402446605	-2.3638153	12.332748	1.3188934
1444311508410838939	-2.3591003	12.238327	0.99098206
1444311508419231273	-1.5934906	11.701782	1.1488647
1444311508427623607	-1.1256714	11.319656	1.1694336
1444311508436015941	-1.1126251	10.946457	0.71461487
1444311508444408275	0.008926392	10.200195	0.43359375
1444311508452800609	0.798172	9.366623	0.5361023
1444311508461192943	1.246582	8.81012	1.1700287
1444311508469585277	1.7192993	8.42923	1.713623
1444311508477977611	2.203415	8.292465	1.5107117
1444311508486369945	2.3756256	8.425293	0.902359
1444311508494762279	2.85997	8.967575	-0.14775085
1444311508503154613	2.9028168	9.824402	-0.5436096
1444311508511546947	3.0097961	11.2938385	-0.7654419
1444311508519939281	3.233841	12.556061	-0.53060913
1444311508528331615	3.502365	13.607849	-0.13104248
1444311508536723949	3.6306152	14.289703	-0.041046143
1444311508545116283	3.5020905	14.406235	-0.5054321
1444311508553508617	3.649765	13.93042	-1.6340637
1444311508561900951	3.0979767	13.3263855	-1.4866943
1444311508570293285	2.9575195	12.800568	-0.6794739
1444311508578685619	2.1195374	12.729965	0.17198181
1444311508587077953	0.4658661	12.695053	0.50401306
1444311508595470287	-1.3886261	12.34111	-0.08416748
1444311508603862621	-2.1689758	11.829529	-0.8216858
1444311508612254955	-3.3638458	10.689758	-0.7371979
1444311508620647289	-3.5266266	9.707016	-0.6986389
1444311508629039623	-3.1394348	8.418335	-0.50639343
1444311508637431957	-2.7411041	7.5306396	-0.27920532
1444311508645824291	-2.2671204	6.738861	-0.23910522
1444311508654216625	-1.8860321	6.1480713	-0.59355164
1444311508662608959	-1.9934235	6.010788	-1.0365295
1444311508671001293	-2.1400146	5.883194	-0.9004669
1444311508679393627	-1.66362	5.446213	-1.015274
1444311508687785961	-1.5922089	5.620331	-1.5722351
1444311508696178295	-1.355423	5.896286	-1.4759521
1444311508704570629	-0.9430084	6.046463	-1.1657715
1444311508712962963	-0.63053894	6.023514	-0.97442627
1444311508721355297	-0.6057434	5.959976	-0.8585205
1444311508729747631	-0.65283203	6.0668945	-0.57536316
1444311508738139965	-0.51745605	6.2699738	-0.5059662
1444311508746532299	-0.40748596	6.6060333	-0.79740906
1444311508754924633	-0.42474365	6.817978	-0.9631195
1444311508763316967	-0.43078613	6.951935	-1.0103607
1444311508771709301	-0.4030609	6.9458313	-1.1152954
1444311508780101634	-0.43502808	6.820114	-1.3939972
1444311508788493968	-0.76834106	6.488693	-1.9180756
1444311508796886302	-0.8720093	6.1502533	-2.2239532
1444311508805278636	-0.93977356	5.5918884	-2.6642609
1444311508813670970	-0.9460602	5.1598816	-2.9474335
1444311508822063304	-1.0037842	4.8025208	-3.0640717
1444311508830455638	-1.1627197	4.6039734	-2.9579773
1444311508838847972	-1.3191223	4.5628357	-2.7756348
1444311508847240306	-1.3130188	4.8556976	-2.4300232
1444311508855632640	-1.3224335	5.3072357	-2.2098236
1444311508864024974	-1.108841	5.950882	-2.191162
1444311508872417308	-1.274826	6.656601	-2.402008
1444311508880809642	-1.5194855	7.743927	-2.72789
1444311508889201976	-1.7125854	9.244522	-3.1111298
1444311508897594310	-1.8956146	10.736008	-3.414734
1444311508905986644	-2.223053	12.744385	-3.3463593
1444311508914378978	-2.318161	14.112686	-2.778305
1444311508922771312	-3.1303558	15.667374	-2.2702484
1444311508931163646	-3.3487701	16.418182	-1.7364655
1444311508939555980	-3.2732239	16.518463	-1.7306213
1444311508947948314	-3.02359	15.714813	-2.3403168
1444311508956340648	-2.75177	14.557907	-2.9332428
1444311508964732982	-2.3255768	12.99295	-3.5305786
1444311508973125316	-2.1490784	11.989639	-3.6368256
1444311508981517650	-1.8378143	10.535614	-3.5684052
1444311508989909984	-1.7549591	9.524399	-3.7949219
1444311508998302318	-1.879776	8.424652	-3.9444275
1444311509006694652	-1.991394	7.435547	-3.9064178
1444311509015086986	-1.8746643	6.691742	-3.976059
1444311509023479320	-1.5372467	5.947525	-4.8704987
1444311509031871654	-1.6203461	5.650223	-5.625351
1444311509040263988	-1.2693634	5.2213593	-6.637375
1444311509048656322	-0.78622437	4.771988	-7.4289703
1444311509057048656	-0.5462799	4.6048584	-7.9725647
1444311509065440990	-0.74227905	5.024643	-7.9072723
1444311509073833324	-1.0620422	5.766464	-7.4055176
1444311509082225658	-1.258255	6.927292	-6.201004
1444311509090617992	-1.3233795	7.9117584	-4.8960876
1444311509099010326	-1.4926758	9.783447	-2.0065155
1444311509107402660	-1.656601	11.870804	0.16130066
1444311509115794994	-1.888916	15.113831	2.0693512
1444311509124187328	-1.7225494	18.532455	3.07312
1444311509132579662	-0.71751404	20.74852	3.6970215
1444311509140971996	2.2079163	20.049759	4.8683624
1444311509149364330	4.0740204	17.474228	5.1296997
1444311509157756664	4.842209	13.018753	2.3810883
1444311509166148998	4.19223	10.064697	-0.13696289
1444311509174541332	3.1884613	7.181366	-1.7775574
1444311509182933666	2.2777252	5.4670105	-1.9037933
1444311509191326000	1.5429382	4.6193695	-1.363205
1444311509199718334	0.6674042	3.904892	-0.4249115
1444311509208110668	-0.11659241	3.4644928	0.10118103
1444311509216503002	-1.0848541	3.305191	0.7966614
1444311509224895336	-1.6046295	3.7641907	1.3139038
1444311509233287670	-2.2768402	4.858841	1.8288422
1444311509241680004	-2.6355133	6.1571655	1.8282013
1444311509250072338	-2.483261	7.251251	1.6996307
1444311509258464672	-1.6195526	8.228729	2.3102875
1444311509266857006	-0.9212799	9.02298	2.8791962
1444311509275249340	-0.07624817	10.503738	3.0425415
1444311509283641674	0.039276123	11.618546	3.2809448
1444311509292034008	0.041030884	12.633499	3.5563202
1444311509300426342	-0.0683136	13.464874	3.8820038
1444311509308818676	-0.39089966	13.430176	4.1273804
1444311509317211009	-0.59910583	12.586227	3.6732635
1444311509325603343	-0.8653412	10.710007	1.9350281
1444311509333995677	-0.9183655	8.783112	0.66934204
1444311509342388011	-0.3254547	7.81514	0.16059875
1444311509350780345	-0.1541748	7.2562103	-0.16589355
1444311509359172679	-0.30651855	7.0141144	-0.22242737
1444311509367565013	-0.3581543	7.048584	0.26385498
1444311509375957347	-0.24232483	7.509796	0.5044403
1444311509384349681	-0.5276489	8.161835	1.0596619
1444311509392742015	-0.7856598	8.793289	2.4149475
1444311509401134349	-0.9967499	9.119385	2.8896942
1444311509409526683	-1.3079376	9.430237	3.0808258
1444311509417919017	-1.546524	9.544952	3.150528
1444311509426326936	-1.8784943	9.547882	3.1855621
1444311509434719270	-2.4733582	9.489426	3.089798
1444311509443111604	-2.7106934	9.404602	3.0983734
1444311509451503938	-2.2503052	9.109436	2.7925873
1444311509459896272	-1.9915466	8.934631	2.134552
1444311509468288606	-1.8333588	8.719559	1.4678345
1444311509476680940	-1.8887787	8.692734	1.0630798
1444311509485073274	-1.9949188	8.792755	0.8115692
1444311509493465608	-2.0540466	8.962418	0.6333618
1444311509501857942	-2.4589539	9.245407	0.55895996
1444311509510250276	-2.7646332	9.431198	0.6885834
1444311509518642610	-2.786911	9.44577	0.70484924
1444311509527034944	-2.6850433	9.45546	0.73576355
1444311509535427278	-2.4380035	9.467667	0.76342773
1444311509543819612	-2.0055237	9.532166	0.73194885
1444311509552211946	-1.6885071	9.676117	0.65226746
1444311509560604280	-1.212204	9.927551	0.6940918
1444311509568996614	-0.92237854	9.949188	0.51675415
1444311509577388948	-0.60639954	9.985916	0.4015503
1444311509585781282	-0.40698242	10.037872	0.46913147
1444311509594173616	-0.38079834	10.115433	0.63571167
1444311509602565950	-0.6199951	10.282623	0.864975
1444311509610958284	-0.8085022	10.482254	1.060318
1444311509619350618	-1.1046448	10.674347	1.1949158
1444311509627742952	-1.2235718	10.850052	1.2670898
1444311509636135286	-1.5392151	11.099976	1.0668488
1444311509644527620	-1.7691956	11.211685	0.8333435
1444311509652919954	-1.9340057	11.2260895	0.641098
1444311509661312288	-2.1495209	11.226318	0.46365356
1444311509669704622	-2.2454834	11.222031	0.4790802
1444311509678096956	-2.1629333	11.36586	0.16625977
1444311509686489290	-2.13208	11.482391	0.23480225
1444311509694881624	-2.0480042	11.724716	0.3833313
1444311509703273958	-1.7747192	12.002045	0.36219788
1444311509711666292	-1.3712006	12.20285	0.28063965
1444311509720058626	-1.0525818	12.353073	0.30203247
1444311509728450960	-1.1408386	12.66066	0.3363037
1444311509736843294	-0.2572937	12.592209	0.8134308
1444311509745235628	-0.39694214	12.64447	1.2435455
1444311509753627962	0.2188263	12.269257	1.6943817
1444311509762020296	0.85372925	11.574844	1.5568542
1444311509770412630	1.3831482	10.722275	1.527832
1444311509778804964	1.9833221	9.840515	2.2334747
1444311509787197298	2.4545746	9.376984	2.82724
1444311509795589632	3.145874	9.265747	2.0645447
1444311509803981966	3.9838257	9.102966	1.4176483
1444311509812374300	4.460907	9.490051	0.1947937
1444311509820766634	4.2139893	10.520447	-0.5415039
1444311509829158968	3.8901825	11.95546	-0.6301575
1444311509837551302	3.9767914	13.577835	0.044158936
1444311509845943636	4.29126	14.641144	0.79815674
1444311509854335969	4.71463	15.169464	0.31297302
1444311509862728303	4.6777954	14.937286	-1.4109344
1444311509871120637	4.5481415	14.380569	-3.2901611
1444311509879512971	4.4013214	13.817276	-2.9851074
1444311509887905305	3.888031	13.245483	-0.9195862
1444311509896297639	2.6711884	12.683456	1.6542053
1444311509904689973	1.4493561	12.297714	2.3007813
1444311509913082307	-0.6654053	11.849701	0.94711304
1444311509921474641	-1.9394684	11.339905	0.6249542
1444311509929866975	-3.0480957	10.239304	0.8228607
1444311509938259309	-3.2905273	9.146606	0.97372437
1444311509946651643	-3.1356049	7.8890533	0.75367737
1444311509955043977	-2.785904	6.522934	0.070251465
1444311509963436311	-2.5556793	5.601776	-0.598526
1444311509971828645	-3.2929993	5.032181	-1.8373413
1444311509980220979	-3.8961792	4.7657166	-2.0284119
1444311509988613313	-4.5874786	4.5177765	-2.2653503
1444311509997005647	-4.1254272	4.294449	-2.3094025
1444311510005397981	-3.0069733	4.0808716	-2.467163
1444311510013790315	-1.8190613	4.006592	-2.8058777
1444311510022182649	-1.1643372	4.1035004	-2.9980316
1444311510030574983	-0.41880798	4.381531	-2.7689972
1444311510038967317	0.008743286	4.562317	-2.4742432
1444311510047359651	0.44781494	4.8116455	-1.7021942
1444311510055751985	0.24334717	4.9092712	-1.9315643
1444311510064144319	0.013549805	5.082016	-2.198883
1444311510072536653	0.010955811	5.3637085	-2.121811
1444311510080928987	0.030639648	5.5647583	-2.1582642
1444311510089321321	0.055755615	5.749756	-2.8768005
1444311510097713655	-0.14816284	5.7942963	-3.4559937
1444311510106105989	-0.5057068	5.62265	-3.825714
1444311510114498323	-0.90345764	5.38591	-3.8370361
1444311510122890657	-1.313324	5.130005	-3.7631683
1444311510131282991	-1.7190247	4.959076	-3.7332306
1444311510139675325	-2.0858154	4.922592	-3.7796478
1444311510148067659	-2.2849731	5.002762	-3.782608
1444311510156459993	-2.2746887	4.9573517	-3.5041504
1444311510164852327	-2.5097656	4.9495697	-2.9780273
1444311510173244661	-2.6224365	5.399704	-2.648178
1444311510181636995	-2.8306122	6.548538	-2.5969086
1444311510190029329	-2.7363586	8.286118	-2.7755585
1444311510198421663	-2.2342682	9.940826	-3.0203094
1444311510206813997	-2.2132263	12.364014	-4.1862335
1444311510215206331	-2.1840973	14.161606	-4.932541
1444311510223598665	-3.0659943	16.574448	-5.886139
1444311510231990999	-3.8572693	17.700516	-6.8286896
1444311510240383333	-4.625122	17.59642	-6.9839783
1444311510248775667	-5.1206207	16.080276	-6.055786
1444311510257168001	-5.316452	14.238739	-4.9485626
1444311510265560335	-5.277191	11.947968	-3.7984314
1444311510273952669	-4.5986023	10.759598	-3.585083
1444311510282345003	-2.7201538	9.22641	-4.0359344
1444311510290737337	-1.4662018	8.124588	-4.84494
1444311510299129671	-0.31524658	6.868408	-5.644623
1444311510307522005	0.6595764	5.8180847	-6.333603
1444311510315914339	1.3733063	5.197418	-6.9771576
1444311510324306673	1.431366	5.042206	-7.5102997
1444311510332699007	0.76564026	5.8056183	-7.3792267
1444311510341091341	-0.101989746	7.810898	-5.8758698
1444311510349483675	-0.4268341	9.570236	-4.2846527
1444311510357876009	-0.72013855	11.695892	-2.6065521
1444311510366268343	-0.9082184	13.9729	-0.8463135
1444311510374660677	-0.7669678	16.154999	1.3155212
1444311510383053011	0.313385	18.342041	4.9433136
1444311510391445344	0.92601013	18.210098	6.154846
1444311510399837678	1.3981628	15.084198	4.958954
1444311510408230012	1.9188843	12.218124	3.4592285
1444311510416622346	2.6108704	9.037537	1.6179657
1444311510425014680	2.940979	6.7216187	-0.50901794
1444311510433407014	2.6771698	5.4688873	-2.4606628
1444311510441799348	1.547409	4.9923553	-3.148056
1444311510450191682	0.7205963	4.8312683	-1.8243103
1444311510458584016	-0.32551575	4.5684204	-0.21278381
1444311510466976350	-0.9463806	4.6182404	0.47351074
1444311510475368684	-1.5897827	4.9637146	1.0567017
1444311510483761018	-2.179062	5.618744	1.4576416
1444311510492153352	-2.7163696	6.4803467	1.7184448
1444311510500545686	-3.198471	7.8463593	1.7784119
1444311510508938020	-3.2970123	8.845383	1.624176
1444311510517330354	-3.1312103	10.162598	1.555191
1444311510525722688	-3.0144196	10.888306	1.4607239
1444311510534115022	-2.9133148	11.497498	1.8906097
1444311510542507356	-2.4843292	11.628571	2.6272278
1444311510550899690	-1.7792206	11.396286	3.1913452
1444311510559292024	-0.9773865	10.842697	3.1712494
1444311510567684358	-0.5138397	10.414291	2.4986572
1444311510576076692	0.3130188	9.846573	1.054718
1444311510584469026	0.60780334	9.466217	-0.19784546
1444311510592861360	0.38258362	8.815704	-1.0086975
1444311510601253694	0.17349243	8.114288	-1.0558014
1444311510609646028	0.24917603	7.6064453	-0.7628174
1444311510618038362	0.31576538	7.5032806	-0.23324585
1444311510626430696	-0.024383545	7.600952	0.17373657
1444311510634823030	-0.58573914	7.7640533	0.7610321
1444311510643215364	-0.53645325	7.922806	0.9502411
1444311510651607698	-0.5106964	8.251556	1.107727
1444311510660000032	-0.45983887	8.609802	1.2368317
1444311510668392366	-0.44163513	8.972565	1.3572998
1444311510676784700	-0.61209106	9.412567	1.4554596
1444311510685177034	-0.8057251	9.681595	1.5197144
1444311510693569368	-1.3286896	9.994324	1.6912384
1444311510701961702	-1.766922	10.0603485	1.720047
1444311510710354036	-2.0908813	10.009293	1.5501404
1444311510718746370	-2.2755585	9.798798	1.2432556
1444311510727138704	-2.4684296	9.529297	0.9306793
1444311510735531038	-2.5788727	9.257126	0.7391205
1444311510743923372	-2.327835	9.074631	0.79737854
1444311510752315706	-1.8686066	9.03508	1.1199036
1444311510760708040	-1.7546539	9.056503	1.031662
1444311510769100374	-1.468811	9.264893	0.9296417
1444311510777492708	-1.1330719	9.534576	0.89094543
1444311510785885042	-0.7209625	9.791718	0.9218445
1444311510794277376	-0.19917297	10.038681	0.9087982
1444311510802669710	0.0758667	10.215179	0.65774536
1444311510811062044	0.44703674	10.289734	0.7373047
1444311510819454378	0.5155792	10.251175	0.88809204
1444311510827846712	0.42681885	10.181549	1.0009918
1444311510836239046	0.20979309	10.1298065	1.0726013
1444311510844631380	-0.10774231	10.056671	1.0425262
1444311510853023714	-0.5557709	9.913788	0.8076935
1444311510861416048	-0.90792847	9.789566	0.57977295
1444311510869808382	-1.2831879	9.661926	0.4764862
1444311510878200716	-1.4314117	9.690186	0.40878296
1444311510886593050	-1.3707428	9.765579	0.54270935
1444311510894985384	-1.2255402	9.914795	0.6252594
1444311510903377718	-1.0617065	10.131256	0.65159607
1444311510911770052	-0.9176483	10.435867	0.7598114
1444311510920162386	-0.89279175	10.7229	0.980011
1444311510928554719	-1.2013397	11.105835	1.6091919
1444311510936947053	-1.4421234	11.401428	1.8842316
1444311510945339387	-1.45607	11.973694	1.5972748
1444311510953731721	-1.543045	12.581406	1.4608612
1444311510962124055	-1.7021332	13.1128845	1.6817169
1444311510970516389	-1.749054	13.252365	1.9715271
1444311510978908723	-1.6241302	12.945679	1.7931824
1444311510987301057	-1.8963623	12.367889	1.4629211
1444311510995693391	-1.3865662	11.338867	2.033554
1444311511004085725	-1.5966034	10.4534	2.901657
1444311511012478059	-1.3570404	9.942429	2.8905792
1444311511020870393	-0.6223602	9.461365	2.0076141
1444311511029262727	0.31428528	9.079376	0.80758667
1444311511037655061	0.9653473	8.999802	0.48805237
1444311511046047395	2.2837524	9.391113	0.8312683
1444311511054439729	3.3170624	10.092834	0.23750305
1444311511062832063	3.9384613	10.919418	-0.58410645
1444311511071224397	4.131485	11.487503	-1.0317688
1444311511079616731	4.303253	12.261093	-0.9714813
1444311511088009065	4.464096	13.375076	-0.20924377
1444311511096401399	4.535904	14.3224945	0.64108276
1444311511104793733	5.0064697	15.128708	0.87161255
1444311511113186067	4.8496704	15.172394	0.13990784
1444311511121578401	4.14888	14.406647	-0.8083496
1444311511129970735	3.1499329	13.37146	-0.56559753
1444311511138363069	2.1742096	12.311935	0.08831787
1444311511146755403	1.5885315	11.64592	0.589859
1444311511155147737	1.2884064	11.496933	0.758667
1444311511163540071	0.028015137	11.52124	0.69317627
1444311511171932405	-1.2066345	11.396988	0.3324585
1444311511180324739	-2.0641327	10.970642	-0.03529358
1444311511188717073	-2.437271	10.263184	-0.11160278
1444311511197109407	-2.5244904	9.322784	-0.10902405
1444311511205501741	-2.4438782	8.38356	-0.0423584
1444311511213894075	-2.448822	7.7065125	0.050842285
1444311511222286409	-2.029251	6.8742523	-0.11413574
1444311511230678743	-1.3703766	6.3147736	-0.409729
1444311511239071077	-0.9702606	5.959732	-1.325592
1444311511247463411	-0.8339691	5.8895264	-1.7099609
1444311511255855745	-0.81607056	5.9429016	-1.7588959
1444311511264248079	-0.75579834	6.046646	-1.6248474
1444311511272640413	-0.4881134	6.0796814	-1.5961304
1444311511281032747	0.1482544	5.9655304	-1.8837433
1444311511289425081	0.1157074	5.92955	-1.9685822
1444311511297817415	-0.21092224	5.8332825	-1.5741119
1444311511306209749	-0.36590576	5.8565063	-1.0943756
1444311511314602083	-0.38238525	5.904419	-0.9232025
1444311511322994417	-0.42170715	5.911087	-1.00737
1444311511331386751	-0.556427	5.869507	-0.998291
1444311511339779085	-0.5079193	5.7628784	-1.0233002
1444311511348171419	-0.4976349	5.6669006	-1.1295471
1444311511356563753	-0.4770813	5.4513397	-1.4736328
1444311511364956087	-0.5708618	5.2189026	-1.9129181
1444311511373348421	-0.90419006	4.8580017	-2.4687958
1444311511381740755	-1.4117584	4.433792	-2.9826965
1444311511390133089	-1.7956848	4.0500946	-3.3468018
1444311511398525423	-1.7703857	3.6177673	-3.6140747
1444311511406917757	-1.5724487	3.6306152	-3.730606
1444311511415310091	-2.3019714	3.8947906	-3.6529388
1444311511423702425	-2.5077972	4.2425537	-3.2364197
1444311511432094759	-2.634781	4.865555	-2.8140564
1444311511440487093	-2.7631989	5.885971	-2.739151
1444311511448879427	-2.9058228	7.132141	-2.931137
1444311511457271761	-3.129486	8.981491	-3.304718
1444311511465664094	-3.2091675	10.5469055	-3.9439087
1444311511474056428	-4.2863617	12.857193	-4.4967346
1444311511482448762	-4.4586334	14.384979	-4.995819
1444311511490841096	-5.11232	15.933395	-4.858124
1444311511499233430	-5.658325	16.64824	-4.34346
1444311511507625764	-5.432831	16.399384	-4.001831
1444311511516018098	-4.112442	14.974152	-3.7278595
1444311511524410432	-3.1973877	13.702667	-3.6181946
1444311511532802766	-2.0428925	12.152557	-3.7439117
1444311511541195100	-1.4767914	11.439423	-4.1617584
1444311511549587434	-1.1727753	10.740433	-4.4362335
1444311511557979768	-1.090332	10.033813	-4.3286743
1444311511566372102	-0.98246765	9.307404	-4.092621
1444311511574764436	-0.731308	8.444275	-3.980194
1444311511583156770	-0.61135864	7.757126	-3.8730927
1444311511591549104	-0.2091217	6.9877014	-4.0422974
1444311511599941438	-0.02192688	6.9704742	-4.5660706
1444311511608333772	-0.08073425	7.405426	-5.191559
1444311511616726106	-0.32582092	8.153336	-5.5438385
1444311511625118440	-0.49118042	8.939468	-5.533905
1444311511633510774	-0.3694458	9.808105	-4.9434357
1444311511641903108	-0.21348572	10.405304	-4.2271423
1444311511650295442	0.23747253	11.549042	-2.573471
1444311511658687776	0.5917206	12.754776	-1.1965637
1444311511667080110	1.6769104	14.343506	0.48085022
1444311511675472444	3.3485107	15.086914	1.7432251
