accelerometer_timestamp	accelerometer_x_data	accelerometer_y_data	accelerometer_z_data
837894804610275	0.34153748	2.5495605	9.883118
837894813002609	0.28874207	2.6023254	9.753235
837894821394943	0.35090637	2.6377106	9.538406
837894829787277	0.38978577	2.6606293	9.311081
837894838179611	0.21792603	2.6666412	9.153687
837894846571945	0.085617065	2.6340942	9.0746
837894854964279	0.008056641	2.613449	8.9804535
837894863356613	-0.013031006	2.594925	8.921936
837894871748947	0.02331543	2.5484314	9.005768
837894880141281	0.12121582	2.5415802	9.165375
837894888533615	0.2511902	2.6321716	9.338394
837894896925949	0.29551697	2.686798	9.581955
837894905318283	0.23716736	2.7120209	9.734558
837894913710617	0.10340881	2.7118835	9.744232
837894922102951	-0.028717041	2.6899567	9.708588
837894930495285	-0.0101623535	2.6850739	9.8394165
837894938887619	0.1468811	2.6506348	9.86322
837894947279953	0.21003723	2.7032013	9.795197
837894955672287	0.21194458	2.7620087	9.715897
837894964064621	0.20606995	2.7748108	9.677292
837894972456955	0.22528076	2.7454834	9.68486
837894980849289	0.2642212	2.7016754	9.71405
837894989241623	0.2959137	2.643097	9.636276
837894997633956	0.17114258	2.6510773	9.495621
837895006026290	-0.035079956	2.6601105	9.305634
837895014418624	-0.21531677	2.6483307	9.143112
837895022810958	-0.2889099	2.6371765	9.100937
837895031203292	-0.24581909	2.586258	9.140091
837895039595626	-0.26202393	2.4611359	9.5780945
837895047987960	-0.3433075	2.547821	9.484024
837895056380294	-0.35139465	2.6978455	9.146225
837895064772628	-0.33721924	2.741806	8.891083
837895073164962	-0.40834045	2.6259155	8.854218
837895081557296	-0.05091858	2.5495453	9.015778
837895089949630	0.22390747	2.5784302	9.08432
837895098341964	0.28767395	2.6898499	9.066803
837895106734298	0.23486328	2.8086243	8.988434
837895115126632	0.2124176	2.8743591	8.895538
837895123518966	0.33137512	2.87471	8.85025
837895131911300	0.5037079	2.8629608	8.918793
837895140303634	0.57766724	2.9378815	9.161285
837895148695968	0.6367645	3.055481	9.544159
837895157088302	0.6640167	3.1325836	9.906662
837895165480636	0.60494995	3.1336212	10.099594
837895173872970	0.43151855	3.090393	10.063614
837895182265304	0.29345703	3.0277252	9.830566
837895190657638	0.21728516	2.9562378	9.430542
837895199049972	0.14581299	2.9739838	9.010574
837895207442306	0.12132263	3.0628357	8.7213745
837895215834640	0.15422058	3.1626434	8.625946
837895224226974	0.21072388	3.204361	8.652191
837895232619308	0.3405609	3.1516418	8.621933
837895241011642	0.46670532	3.1400452	8.62706
837895249403976	0.5217743	3.1131287	8.691757
837895257796310	0.5226135	3.0847015	8.888138
837895266188644	0.5039673	3.0508728	9.2165985
837895274580978	0.48207092	2.9821014	9.576233
837895282973312	0.34596252	2.913559	9.87587
837895291365646	0.35813904	2.778183	10.065811
837895299757980	0.33815002	2.6617432	10.05835
837895308150314	0.2535553	2.5801697	9.895325
837895316542648	0.12846375	2.538971	9.683792
837895324934982	0.010650635	2.5486755	9.522949
837895333327316	-0.014724731	2.6101685	9.353073
837895341719650	0.022644043	2.7565918	9.198242
837895350111984	0.10910034	2.8926697	9.133911
837895358504318	0.26133728	2.9603424	9.19165
837895366896652	0.43658447	2.954132	9.30098
837895375288986	0.5288696	2.9149017	9.3094635
837895383681320	0.46705627	2.8540802	9.18483
837895392073654	0.39440918	2.8543243	9.080826
837895400465988	0.34173584	2.920807	9.005859
837895408858322	0.34786987	3.0141754	9.02977
837895417250656	0.43553162	3.1127472	9.178131
837895425642990	0.6132202	3.2358246	9.41304
837895434035324	0.7737732	3.2811432	9.530258
837895442427658	0.89881897	3.275528	9.459381
837895450819992	1.055069	3.2385712	9.43071
837895459212326	1.1509094	3.2648926	9.490448
837895467604660	1.1306458	3.391571	9.5130005
837895475996994	1.0806885	3.5258331	9.269226
837895484389328	0.99295044	3.6006012	8.869431
837895492781662	0.86405945	3.6404266	8.534363
837895501173996	0.762558	3.6250305	8.387344
837895509566330	0.66490173	3.5808105	8.46286
837895517958664	0.5738373	3.519867	8.722687
837895526350998	0.5635834	3.4100647	9.105835
837895534743331	0.5347595	3.282837	9.505417
837895543135665	0.5304413	3.1911469	9.980164
837895551527999	0.51078796	3.1046143	10.198166
837895559920333	0.46707153	3.0659485	10.036987
837895568312667	0.42196655	3.1052551	9.612183
837895576705001	0.4232025	3.2026672	9.167343
837895585097335	0.50868225	3.2802124	8.912872
837895593489669	0.6283264	3.3304443	8.829178
837895601882003	0.7312622	3.3747559	8.916855
837895610274337	0.79493713	3.4041595	9.112854
837895618666671	0.8159332	3.3995361	9.319656
837895627059005	0.8048401	3.349701	9.425262
837895635451339	0.6448059	3.321869	9.340775
837895643843673	0.5188446	3.2811432	9.211197
837895652236007	0.52604675	3.2075348	9.174622
837895660628341	0.6338196	3.141632	9.361603
837895669020675	0.74850464	3.119812	9.729324
837895677413009	0.7865753	3.107132	9.897232
837895685805343	0.77201843	3.1515656	9.879654
837895694197677	0.8674011	3.1782074	9.731522
837895702590011	0.88305664	3.2471924	9.251144
837895710982345	0.91545105	3.268509	8.0972595
837895719374679	0.97613525	3.2482758	6.8320465
837895727767013	0.6539612	3.4981995	7.609192
837895736159347	0.6874695	3.611557	8.732254
837895744551681	0.71151733	3.6623383	9.650314
837895752944015	0.638916	3.6132965	10.15152
837895761336349	0.57328796	3.4653473	10.295685
837895769728683	0.64694214	3.2676544	10.316071
837895778121017	0.86224365	3.1082306	10.4440155
837895786513351	1.2800751	2.9334717	10.051559
837895794905685	1.3242493	2.9086914	9.297119
837895803298019	1.0768127	3.1717987	8.654953
837895811690353	0.75787354	3.5465698	8.3350525
837895820082687	0.57936096	3.7552032	8.413727
837895828475021	0.5207825	3.7786407	9.034653
837895836867355	0.3819275	3.64151	10.061783
837895845259689	0.5077057	3.346054	10.672867
837895853652023	0.5138397	3.0635986	10.791275
837895862044357	0.2021637	2.9478455	10.334488
837895870436691	-0.26350403	3.0243988	9.3862
837895878829025	-0.33399963	3.1272125	8.223877
837895887221359	0.65289307	2.9346008	5.9948425
837895895613693	1.0181732	3.2785034	4.8528748
837895904006027	1.0517578	3.8087006	6.045746
837895912398361	1.0788422	4.13678	8.620926
837895920790695	1.1802826	4.0819397	10.724701
837895929183029	1.0045471	3.8661804	10.957062
837895937575363	1.0855255	3.487442	10.128372
837895945967697	1.0031891	3.2660828	9.890228
837895954360031	0.8981781	3.2286835	10.066589
837895962752365	0.8586273	3.3480377	10.1644745
837895971144699	0.908905	3.536255	9.707397
837895979537033	1.1176453	3.6306915	8.4579315
837895987929367	1.4720459	3.5982513	7.681198
837895996321701	1.5013733	3.6893158	7.6799927
837896004714035	1.3665924	3.8270721	8.220795
837896013106369	1.251236	3.9251862	9.011063
837896021498703	1.2154541	3.93396	9.724487
837896029891037	0.97039795	3.8978271	9.915848
837896038283371	0.6841583	3.7622223	9.74202
837896046675705	0.5738373	3.5878754	9.588379
837896055068039	0.5922699	3.4125214	9.64592
837896063460373	0.56451416	3.2692719	9.883133
837896071852706	0.38876343	3.1781158	10.1297455
837896080245040	0.38293457	3.1344604	10.179245
837896088637374	0.5614929	3.077423	10.218262
837896097029708	0.5726471	3.153366	9.904083
837896105422042	0.6414337	3.270935	9.368179
837896113814376	0.7742157	3.2678528	8.796112
837896122206710	0.6954651	3.035141	8.335709
837896130599044	-0.22576904	2.6851807	8.064529
837896138991378	-0.727829	3.020401	8.233612
837896147383712	-0.877594	3.1998749	8.658493
837896155776046	-0.6966858	3.1625977	9.206451
837896164168380	-0.3585205	3.0025635	9.7430725
837896172560714	-0.12582397	2.8543854	10.159149
837896180953048	-0.13478088	2.7995453	10.423355
837896189345382	-0.3002777	2.8420868	10.527405
837896197737716	-0.39108276	2.879654	10.670502
837896206130050	-0.41134644	2.9160156	10.70343
837896214522384	-0.39151	2.9678802	10.532379
837896222914718	-0.31837463	3.0415955	10.149185
837896231307052	0.012588501	3.0915375	9.505844
837896239699386	0.21218872	3.2870636	8.89241
837896248091720	0.13786316	3.5054626	8.458588
837896256484054	-0.08746338	3.667801	8.180374
837896264876388	-0.31640625	3.7318115	8.005386
837896273268722	-0.45939636	3.7090607	7.8820496
837896281661056	-0.5485077	3.6493225	7.795883
837896290053390	-0.59614563	3.5861206	7.822357
837896298445724	-0.569397	3.5416565	7.8394775
837896306838058	-0.49275208	3.508484	7.9334717
837896315230392	-0.39421082	3.480896	8.145966
837896323622726	-0.2946167	3.4573517	8.420364
837896332015060	-0.24659729	3.4072876	8.679901
837896340407394	-0.19241333	3.3333893	8.976639
837896348799728	-0.1634674	3.2771912	9.34845
837896357192062	-0.18933105	3.2404938	9.6642
837896365584396	-0.27101135	3.2152405	9.810074
837896373976730	-0.37582397	3.1948242	9.751938
837896382369064	-0.4418335	3.2188263	9.535919
837896390761398	-0.4885254	3.2897491	9.226517
837896399153732	-0.5632324	3.3856354	8.971893
837896407546066	-0.7012787	3.4619598	8.82254
837896415938400	-0.87550354	3.4817963	8.779083
837896424330734	-1.0059052	3.4396057	8.799316
837896432723068	-1.1217957	3.3708649	8.844482
837896441115402	-1.1646118	3.3134918	8.867676
837896449507736	-1.1428375	3.291565	8.860443
837896457900070	-1.0652008	3.2968292	8.856216
837896466292404	-0.94429016	3.3114166	8.90596
837896474684738	-0.7969971	3.3194427	9.047562
837896483077072	-0.61798096	3.3314514	9.240585
837896491469406	-0.5301361	3.3203125	9.52977
837896499861740	-0.40582275	3.2766113	9.829666
837896508254074	-0.2731018	3.2246857	9.990875
837896516646408	-0.14329529	3.1980438	9.979767
837896525038742	0.03276062	3.2263641	9.937088
837896533431076	0.025802612	3.337677	9.802902
837896541823410	-0.092666626	3.3927002	9.595718
837896550215744	-0.22930908	3.3878784	9.426361
837896558608078	-0.40963745	3.3400116	9.286301
837896567000412	-0.62887573	3.2823334	9.146576
837896575392746	-0.76356506	3.2519073	9.014267
837896583785080	-0.15722656	3.1445465	9.150452
837896592177414	0.621048	3.157608	9.854324
837896600569748	0.71432495	3.267044	10.131561
837896608962081	0.36773682	3.407074	9.840652
837896617354415	0.039108276	3.5028076	9.194489
837896625746749	-0.05102539	3.4950867	8.534561
837896634139083	-0.036346436	3.4588623	8.139954
837896642531417	-0.16299438	3.3650665	8.618576
837896650923751	-0.9941101	3.4109344	9.797028
837896659316085	-2.1794128	3.5626373	10.348572
837896667708419	-2.6812592	3.5896454	9.664719
837896676100753	-1.3003845	3.1857452	8.725479
837896684493087	-1.1867218	3.1757813	9.129257
837896692885421	-1.1529236	3.3996735	9.391739
837896701277755	-1.4434967	3.498703	9.382996
837896709670089	-1.5150146	3.4036865	9.015503
837896718062423	-0.89390564	3.3422852	8.201309
837896726454757	0.20648193	3.8300476	6.8454895
837896734847091	0.858551	4.114319	6.46579
837896743239425	0.6440735	4.8069916	6.54805
837896751631759	-0.102264404	5.222824	6.597687
837896760024093	-0.80158997	5.2602844	6.9766846
837896768416427	-1.0796661	5.052231	7.991211
837896776808761	-1.2275696	4.778656	9.10376
837896785201095	-3.6432495	6.7615356	8.559311
837896793593429	-3.099411	7.4325867	9.051392
837896801985763	-1.1516418	6.540344	9.042328
837896810378097	0.04071045	5.12204	8.032806
837896818770431	-0.44482422	4.206436	6.565735
837896827162765	-1.0894928	3.714569	6.0224
837896835555099	-2.1878815	4.6399994	6.7698975
837896843947433	-0.8769684	4.427887	6.1154175
837896852339767	1.8123322	2.9195862	3.8103027
837896860732101	1.1441803	2.5077057	2.3857727
837896869124435	-4.3322754	4.899399	3.9615479
837896877516769	-5.23085	7.7372894	6.958481
837896885909103	-3.9450073	6.6302795	8.273758
837896894301437	-2.416504	5.8449707	7.9091797
837896902693771	-1.6228485	5.44075	7.0427094
837896911086105	-1.637207	5.3875885	6.0280914
837896919478439	-2.0239716	5.5453033	4.981964
837896927870773	-2.227829	5.616852	4.2777863
837896936263107	-2.811432	5.8802643	3.9683533
837896944655441	-3.1252594	6.254013	4.008087
837896953047775	-3.3365784	6.61203	4.1051483
837896961440109	-3.4368286	7.0093536	4.1533203
837896969832443	-3.4223785	7.5538177	4.2440796
837896978224777	-3.5746918	8.22403	4.688858
837896986617111	-3.901123	8.587357	5.2984467
837896995009445	-4.327011	8.938538	5.376175
837897003401779	-4.8520355	9.43013	5.1354675
837897011794113	-5.353363	9.999619	4.728775
837897020186447	-5.7159576	10.492081	4.204361
837897028578781	-6.0469666	10.869965	3.4635773
837897036971115	-4.9795227	10.717987	3.169403
837897045363449	-3.194519	10.067093	2.6677094
837897053755783	-2.2538147	9.197128	2.364746
837897062148117	-2.3998108	8.3706665	2.710266
837897070540451	-3.0860138	7.863205	3.903885
837897078932785	-4.258667	8.043915	5.463501
837897087325119	-5.433075	8.886108	6.082672
837897095717453	-5.331192	9.4655	5.1868134
837897104109787	-4.061966	9.824081	3.9888306
837897112502121	-2.562088	10.006958	3.793579
837897120894455	-1.9373474	10.055023	4.742996
837897129286789	-2.45224	10.107712	3.712204
837897137679123	-1.7362976	10.184341	2.6910095
837897146071456	-0.9486542	10.131714	2.529358
837897154463790	-0.42884827	9.903442	2.4173737
837897162856124	0.27145386	9.497894	1.7622681
837897171248458	1.4642792	9.100632	0.6694336
837897179640792	1.5041504	9.434631	0.7541809
837897188033126	0.08805847	9.761963	1.7666779
837897196425460	-0.19721985	9.564209	1.9086456
837897204817794	-0.13858032	9.2391815	1.9257813
837897213210128	-0.17462158	8.816406	1.9763031
837897221602462	-0.2635193	8.080048	1.833435
837897229994796	-0.00630188	6.95343	1.6888733
837897238387130	-0.7960205	6.6479645	2.487152
837897246779464	-2.0472107	7.48761	3.214508
837897255171798	-2.5213776	9.635986	2.9636383
837897263564132	-1.7714844	10.987457	2.658615
837897271956466	-0.4122162	9.511032	3.616333
837897280348800	-0.52389526	9.103256	3.7529297
837897288741134	0.14552307	8.667603	3.7346497
837897297133468	0.9343567	8.481186	2.6994019
837897305525802	2.92276	9.346115	0.8712616
837897313918136	4.464554	10.411819	0.21736145
837897322310470	3.5039825	10.445526	2.1966553
837897330702804	5.332489	12.042725	1.1418457
837897339095138	2.6125793	11.689514	0.82650757
837897347487472	0.31474304	10.803223	0.6235199
837897355879806	-0.44714355	9.515091	0.6886749
837897364272140	-0.33340454	8.059677	1.0286713
837897372664474	-0.6484833	6.8606567	1.5720215
837897381056808	-0.33641052	6.5854797	2.783371
837897389449142	-0.9278412	6.793686	3.6728058
837897397841476	-1.4890137	6.778595	4.161621
837897406233810	-1.3981323	6.5968018	4.228607
837897414626144	-0.06758118	6.759201	4.1703186
837897423018478	2.309204	7.8708344	4.423126
837897431410812	1.5494843	9.587677	4.842865
837897439803146	0.13365173	16.218536	6.4683685
837897448195480	-1.0533752	18.052948	9.185135
837897456587814	-0.39834595	14.20163	8.349304
837897464980148	1.046524	8.104767	4.210907
837897473372482	0.56707764	5.064087	1.4848785
837897481764816	0.32081604	5.379135	1.2087097
837897490157150	0.2813263	6.789551	2.1627197
837897498549484	0.62164307	7.438736	2.5785522
837897506941818	1.3322906	7.153076	2.9032745
837897515334152	2.0810852	6.402069	3.2298584
837897523726486	2.3181915	5.910202	3.2026062
837897532118820	1.6472015	5.8125	3.938385
837897540511154	0.5723572	6.030884	4.483444
837897548903488	0.14945984	6.4053497	4.5546722
837897557295822	-0.097229004	7.080414	4.109268
837897565688156	-0.0054016113	7.9218445	3.3383179
837897574080490	1.2207336	8.53624	2.6275177
837897582472824	2.6113586	8.982544	2.4525757
837897590865158	3.264389	9.197403	2.2294006
837897599257492	3.3812408	9.118088	2.0108032
837897607649826	3.229126	8.796494	2.0349731
837897616042160	3.0912476	8.358475	2.3083954
837897624434494	3.2192383	7.9031982	2.5593414
837897632826828	3.893219	6.853348	2.6899567
837897641219162	4.1495667	6.175522	2.54245
837897649611496	4.069412	6.0748596	2.3019562
837897658003830	4.0934296	6.1723175	2.1976166
837897666396164	3.5210419	5.6167297	2.6053314
837897674788498	0.8693695	3.7249298	3.786911
837897683180831	0.16362	4.625519	3.7521362
837897691573165	0.8441162	7.056305	5.1287384
837897699965499	2.3249512	6.9953003	5.1253967
837897708357833	3.5656586	5.6728973	5.237564
837897716750167	4.111252	4.557251	5.699402
837897725142501	4.4093475	3.7897491	4.3577576
837897733534835	4.6067657	3.5454712	3.2042084
837897741927169	3.25177	4.2868347	2.8545837
837897750319503	2.0131226	4.9140167	2.4935608
837897758711837	1.5820923	5.2222137	2.1365204
837897767104171	2.0205383	5.218445	1.9092712
837897775496505	2.8365173	4.924835	1.8079681
837897783888839	3.313095	4.480179	1.7401733
837897792281173	3.520584	4.1458435	1.8892212
837897800673507	3.4142456	3.8447266	2.285553
837897809065841	3.106964	3.478714	2.8224945
837897817458175	2.9062042	3.0998535	3.441803
837897825850509	3.2702942	2.9621735	4.202774
837897834242843	4.2513733	3.1013336	4.9870453
837897842635177	5.211319	3.2712555	5.3095703
837897851027511	6.013855	3.3170166	5.272003
837897859419845	6.6131897	3.025879	4.917679
837897867812179	7.192795	2.490265	4.553192
837897876204513	8.17482	2.2155914	4.8361664
837897884596847	9.439194	2.020752	6.3112793
837897892989181	9.262955	1.6838989	8.1636505
837897901381515	8.143967	1.6088715	9.7209015
837897909773849	6.7335815	2.1719818	10.690689
837897918166183	5.6488037	3.3381348	10.74527
837897926558517	5.3071747	4.4041595	9.419739
837897934950851	6.137924	3.784729	7.7370453
837897943343185	6.772995	3.349884	6.789276
837897951735519	6.6256104	3.1660156	6.1573944
837897960127853	6.101944	2.7311249	5.9737854
837897968520187	5.8426514	1.7445374	6.380768
837897976912521	6.2612457	0.5729675	7.1128845
837897985304855	6.951172	0.10038757	8.32225
837897993697189	7.3357697	-0.049591064	9.390884
837898002089523	8.213303	0.012710571	10.384888
837898010481857	9.4709015	0.22492981	11.550339
837898018874191	10.706253	0.4322815	12.954132
837898027266525	11.638748	0.31887817	14.235443
837898035658859	12.255646	0.093673706	14.498856
837898044051193	12.363129	-0.087142944	13.845367
837898052443527	11.781921	-0.42619324	12.428024
837898060835861	10.842331	-0.8130493	10.2604065
837898069228195	9.945053	-1.0671539	7.4619904
837898077620529	9.041473	-1.1972198	4.316437
837898086012863	8.942032	-1.1980743	2.4044342
837898094405197	9.551926	-0.7966461	1.8383789
837898102797531	10.539719	-0.5601196	2.55307
837898111189865	11.61557	-0.5643463	4.1851807
837898119582199	12.583603	-0.7512207	6.264618
837898127974533	13.313293	-1.3244629	8.2821045
837898136366867	13.82077	-1.9246674	10.219284
837898144759201	13.864044	-2.528061	11.853378
837898153151535	13.838501	-2.9027405	12.463013
837898161543869	13.739349	-2.9215546	11.851318
837898169936203	13.423492	-2.6224213	10.192871
837898178328537	12.875793	-2.2864532	7.920578
837898186720871	11.842468	-2.0345764	5.5325775
837898195113205	10.33667	-1.7682648	3.7799377
837898203505539	9.116028	-1.5904541	2.9044952
837898211897873	8.774002	-1.4397125	2.906311
837898220290206	9.415344	-1.1441193	3.5548248
837898228682540	10.421295	-0.5129242	4.6671143
837898237074874	11.259018	-0.30400085	6.0737915
837898245467208	11.791962	-0.52433777	6.8618927
837898253859542	12.032547	-0.6938629	6.9750824
837898262251876	11.784225	-0.5610657	7.0002594
837898270644210	10.705002	-0.19195557	7.1138763
837898279036544	8.407761	-0.010375977	5.7421722
837898287428878	7.2848816	-0.5870819	5.1947784
837898295821212	6.541031	-1.1836853	4.783142
837898304213546	6.0360565	-0.4258728	4.8667755
837898312605880	6.1546173	0.76750183	5.170273
837898320998214	7.111252	1.0769958	5.622696
837898329390548	7.938843	1.7207794	8.127838
837898337782882	7.090515	0.21664429	11.560165
837898346175216	7.613983	-0.6090851	12.062836
837898354567550	7.747757	-0.62065125	11.049667
837898362959884	7.673691	-0.15605164	8.943146
837898371352218	8.746048	0.37760925	5.5369873
837898379744552	11.367386	1.4743195	0.54599
837898388136886	14.094742	4.208084	-7.2742004
837898396529220	12.217392	6.248764	-7.061493
837898404921554	10.468643	5.349518	-4.197754
837898413313888	9.111694	2.690689	-1.7123718
837898421706222	6.3723145	0.95602417	0.13827515
837898430098556	4.9348297	0.54966736	2.285675
837898438490890	3.1361237	-0.52627563	3.4939575
837898446883224	2.5427704	-1.8628387	4.927994
837898455275558	3.8879242	-2.2091064	6.1230774
837898463667892	6.4033813	-1.4699554	6.6209717
837898472060226	8.554672	-0.50346375	6.276581
837898480452560	8.7829895	-0.72380066	5.4899445
837898488844894	8.828476	-0.23010254	4.057251
837898497237228	8.567841	0.68844604	2.4783478
837898505629562	8.487656	1.2721252	0.90966797
837898514021896	8.549866	1.2017365	-0.454422
837898522414230	8.182831	0.5959015	-1.3010864
837898530806564	5.9804535	-0.16381836	-0.724823
837898539198898	4.458542	-2.2533875	2.3707733
837898547591232	8.823166	-5.204544	6.3802032
837898555983566	12.743668	-6.233536	9.812256
837898564375900	13.054398	-5.1706696	10.774567
837898572768234	10.92012	-4.2324066	7.8989563
837898581160568	8.23024	-4.2647095	1.8092804
837898589552902	5.4677887	-4.566757	-2.2438812
837898597945236	3.1184845	-4.7547913	-4.6268005
837898606337570	2.1539612	-4.724533	-5.396698
837898614729904	2.8114471	-5.0753937	-4.5453796
837898623122238	4.4313507	-6.556061	-2.392105
837898631514572	6.4171906	-8.072845	-0.36810303
837898639906906	7.5345764	-4.4515533	3.670807
837898648299240	8.57695	-3.1585846	4.077545
837898656691574	10.21106	-6.240341	1.7546082
837898665083908	11.481567	-10.509857	-1.0207062
837898673476242	10.722992	-10.66011	-1.8733215
837898681868576	9.488434	-8.0896	2.9366913
837898690260910	7.2276306	-5.884201	7.470566
837898698653244	7.1124725	-4.8200226	3.0299683
837898707045578	7.645096	-5.943268	-0.28826904
837898715437912	7.6436462	-7.684555	1.3564453
837898723830246	6.6989594	-6.538986	3.6138458
837898732222580	3.282547	-1.1912231	3.527359
837898740614914	5.981888	-3.263794	1.4736023
837898749007248	9.32695	-5.9537354	0.6013489
837898757399581	11.188782	-6.6397247	0.9809723
837898765791915	11.665405	-5.6578674	1.1173859
837898774184249	12.067764	-5.366455	-0.7435608
837898782576583	10.43367	-6.5818024	-2.1413574
837898790968917	8.983368	-7.8325043	-0.25361633
837898799361251	7.6660614	-9.366287	1.9806976
837898807753585	6.979477	-10.855682	3.4345093
837898816145919	6.957184	-11.578323	3.5991821
837898824538253	7.164337	-11.034424	2.42276
837898832930587	7.6895905	-11.602646	-0.1390686
837898841322921	8.402588	-11.489044	-1.9667816
837898849715255	8.914154	-10.7278595	-2.3246613
837898858107589	9.502869	-9.748245	-2.2807007
837898866499923	10.222183	-9.008621	-2.4021301
837898874892257	10.723938	-8.874603	-2.31958
837898883284591	9.862564	-10.051712	-0.7889252
837898891676925	8.336899	-9.767578	0.4992218
837898900069259	6.643326	-9.142426	0.9402771
837898908461593	5.296341	-9.054596	0.7846985
837898916853927	4.4532623	-9.627548	0.348114
837898925246261	3.9362946	-10.114441	-0.21113586
837898933638595	4.435791	-9.216141	-0.8233032
837898942030929	5.6736755	-7.9390106	-0.8519592
837898950423263	6.4857025	-7.484787	-0.4954071
837898958815597	6.7036133	-7.675247	0.022338867
837898967207931	6.612259	-7.9813232	0.5950775
837898975600265	6.647629	-8.013901	1.1889648
837898983992599	6.8552094	-7.688797	0.30570984
837898992384933	4.8840637	-6.3924103	-1.1010437
837899000777267	3.3878632	-5.937744	-1.9852753
837899009169601	3.009613	-6.30159	-2.352768
837899017561935	3.3311157	-6.8849792	-2.4020844
837899025954269	3.5667725	-7.181427	-2.1320038
837899034346603	4.623596	-6.699875	-1.184845
837899042738937	6.7411957	-6.5724792	-0.65327454
837899051131271	7.2467194	-6.810257	-0.5332031
837899059523605	7.1051636	-6.9644165	-0.60523987
837899067915939	7.160904	-6.7682953	-0.675354
837899076308273	6.884857	-6.372116	-0.6718445
837899084700607	7.2108917	-6.239914	-0.7046356
837899093092941	7.4660645	-5.9235992	-0.70674133
837899101485275	7.8095856	-5.4777374	-0.9162903
837899109877609	8.145782	-5.144806	-1.1060486
837899118269943	8.2013855	-5.13443	-1.1583405
837899126662277	7.608017	-5.4764404	-1.3404846
837899135054611	7.338379	-5.712982	-1.3375702
837899143446945	7.42395	-5.8742676	-1.5523987
837899151839279	7.577362	-6.0422516	-1.7564392
837899160231613	7.5560455	-6.2274017	-1.7320099
837899168623947	7.443695	-6.461853	-1.3992615
837899177016281	7.792343	-6.821762	-0.93414307
837899185408615	8.373489	-6.726364	-0.4328308
837899193800949	8.671707	-6.1540833	-0.90467834
837899202193283	8.660645	-5.705017	-1.7223663
837899210585617	8.362808	-5.6298065	-2.3952026
837899218977951	7.801941	-5.928711	-2.8151703
837899227370285	7.014282	-6.42424	-3.3199005
837899235762619	6.7127686	-6.9376373	-3.4319458
837899244154953	6.594284	-7.386612	-3.0039063
837899252547287	6.3817444	-7.58197	-1.9484406
837899260939621	6.0803986	-7.582489	-1.1762848
837899269331955	6.067169	-7.5449677	-1.2515564
837899277724289	7.240341	-7.642868	-1.4959259
837899286116623	7.2422943	-7.7590485	0.32585144
837899294508956	7.2168274	-7.9201813	2.6894379
837899302901290	7.31485	-8.05188	3.657486
837899311293624	7.6001587	-8.090912	3.5195313
837899319685958	7.886444	-8.095505	2.9381561
837899328078292	7.588135	-8.347366	1.6405945
837899336470626	7.55777	-8.344437	-0.13568115
837899344862960	8.048645	-7.920273	-1.3550568
837899353255294	8.294998	-7.524231	-1.3217773
837899361647628	7.967407	-7.2840576	-0.31365967
837899370039962	7.3704834	-7.193924	0.7605896
837899378432296	7.385742	-7.364868	1.0408936
837899386824630	7.336914	-7.668503	0.8817444
837899395216964	6.6333313	-7.8947754	0.3626709
837899403623364	5.780945	-7.821411	-0.13453674
837899412015698	5.3533936	-7.5913696	-0.3778534
837899420408032	5.50029	-7.493408	-0.37687683
837899428800366	5.551056	-7.776535	-0.43840027
837899437192700	5.3580933	-7.970932	-0.6845093
837899445585034	5.015381	-7.9733124	-0.77401733
837899453977368	4.5238495	-7.864151	-0.626297
837899462369702	4.2028656	-7.766327	-0.40293884
837899470762036	4.4338684	-7.8244934	-0.33683777
837899479154370	5.3611603	-8.228424	-0.60409546
837899487546704	5.827133	-8.509216	-0.8878021
837899495939038	6.332535	-8.473785	-1.2312622
837899504331372	7.024338	-8.335709	-1.4846497
837899512723706	7.5468903	-8.134094	-1.412262
837899521116040	7.4956665	-7.9151	-1.0091858
837899529508374	6.973221	-7.9888763	-0.8127594
837899537900708	6.2925415	-8.0959015	-0.9757385
837899546293042	5.8358307	-8.106064	-1.2641754
837899554685376	5.486145	-8.100204	-1.712265
837899563077710	5.2618713	-8.126938	-1.7420349
837899571470044	5.156555	-8.211533	-0.8247528
837899579862378	4.88237	-8.398544	0.61761475
837899588254712	5.302719	-8.8965	1.1066284
837899596647046	6.004074	-8.78746	1.2030792
837899605039380	5.9761353	-8.333588	0.8240051
837899613431714	5.107483	-7.829376	0.2603302
837899621824048	4.053467	-7.5333557	-0.19848633
837899630216382	4.270157	-7.9001465	-0.8594971
837899638608716	4.9100494	-8.316116	-2.8758545
837899647001050	5.115921	-8.509842	-3.713211
837899655393384	4.835129	-8.460297	-2.8658447
837899663785718	4.400299	-8.369797	-1.0106354
837899672178052	4.1342316	-8.410614	0.7307434
837899680570386	3.8469543	-8.3450165	1.4484253
837899688962720	3.9657898	-8.648346	0.71022034
837899697355054	4.3395996	-8.898376	-0.247406
837899705747388	4.406494	-8.754929	-0.24282837
837899714139722	4.4123993	-8.347519	0.39656067
837899722532056	5.0593567	-8.110855	0.31304932
837899730924390	6.536911	-8.281342	-1.3689117
837899739316724	7.239151	-8.255081	-3.1017456
837899747709058	7.5976257	-7.987686	-2.7510834
837899756101392	7.9538727	-7.443161	-0.5057831
837899764493726	8.145279	-6.988434	1.9844208
837899772886060	7.7229156	-6.9762573	2.7691956
837899781278394	6.449936	-6.9116364	0.9243469
837899789670728	6.188797	-7.1894226	-0.39154053
837899798063062	6.6778107	-7.7557983	-1.554184
837899806455396	6.688431	-8.137924	-2.3821564
837899814847730	6.223297	-8.120926	-2.666504
837899823240064	5.9726715	-7.7211456	-2.251068
837899831632397	5.757324	-6.983368	-0.9938507
837899840024731	6.08461	-6.426483	-0.08843994
837899848417065	6.9509735	-6.0796204	0.013046265
837899856809399	7.194687	-6.1487274	-0.30918884
837899865201733	6.653717	-6.399521	-0.7693634
837899873594067	5.970764	-6.441635	-1.1713104
837899881986401	5.485214	-6.670944	-1.0476685
837899890378735	5.317566	-7.0519714	-0.6957092
837899898771069	5.285095	-7.4845276	-0.6185913
837899907163403	5.4535675	-7.938858	-0.73721313
837899915555737	5.787094	-8.401276	-0.88986206
837899923948071	6.1708374	-8.817856	-0.9230652
837899932340405	6.7235107	-8.858612	-0.66163635
837899940732739	7.358719	-8.439728	-0.2823639
837899949125073	7.6233673	-7.850296	-0.30371094
837899957517407	7.391464	-7.4447784	-0.5414734
837899965909741	6.905319	-7.400711	-0.64575195
837899974302075	6.5607452	-7.6548615	-0.41809082
837899982694409	6.390869	-7.9536133	-0.41711426
837899991086743	6.1299133	-7.901123	-0.49349976
837899999479077	5.5751038	-7.48999	-0.5342865
837900007871411	5.2420654	-7.0602417	-0.5109253
837900016263745	5.362488	-6.831558	-0.44352722
837900024656079	5.7480774	-6.8440247	-0.40844727
837900033048413	6.2331543	-7.4275055	-0.7016754
837900041440747	7.1481476	-8.374039	-0.98864746
837900049833081	7.5051117	-8.70369	-1.1247559
837900058225415	7.191681	-8.420197	-1.0128326
837900066617749	6.6323395	-7.9138336	-0.60775757
837900075010083	6.5059204	-7.668976	0.008865356
837900083402417	6.596634	-7.5921936	0.47644043
837900091794751	6.455139	-7.6657104	0.51882935
837900100187085	6.129486	-7.7282257	0.37234497
837900108579419	5.9535522	-7.6067657	0.063323975
837900116971753	6.7228546	-6.811081	-0.5695801
837900125364087	8.805084	-5.0048676	-1.6171265
837900133756421	7.3503876	-4.7881165	-1.4677429
837900142148755	6.257477	-5.531555	-1.3795166
837900150541089	5.224045	-6.0294495	-1.0318604
837900158933423	4.8589935	-6.54216	-0.69869995
837900167325757	5.4506073	-7.3030853	-0.5203247
837900175718091	6.6347656	-8.126572	-0.35734558
837900184110425	7.4255676	-8.536621	-0.12010193
837900192502759	7.86409	-8.6284485	-0.20161438
837900200895093	7.6950073	-8.358887	-0.4650879
837900209287427	7.2839966	-7.971054	-0.79107666
837900217679761	7.008713	-7.668686	-0.9974518
837900226072095	6.9348907	-7.4662933	-0.88194275
837900234464429	6.964798	-7.5101624	-0.44226074
837900242856763	7.263092	-7.5319366	-0.24046326
837900251249097	7.26445	-7.2207794	-0.14901733
837900259641431	6.9183197	-6.702774	-0.2192688
837900268033765	6.547653	-6.474762	-0.30665588
837900276426099	6.6330566	-7.0888367	-0.05155945
837900284818433	6.13855	-7.0509644	-0.44937134
837900293210767	5.8361664	-6.8284454	-0.72413635
837900301603101	6.1112366	-6.9666595	-0.7480011
837900309995435	6.6533966	-7.2620697	-0.5734558
837900318387769	6.9931335	-7.3887024	-0.40748596
837900326780103	6.9263763	-7.2915955	-0.5105591
837900335172437	6.8231964	-7.279907	-0.39764404
837900343564771	6.604889	-7.1835938	-0.39390564
837900351957105	6.375229	-7.090988	-0.53530884
837900360349439	6.21579	-7.037628	-0.70196533
837900368741772	5.9578094	-6.846451	-0.6869812
837900377134106	5.180359	-6.163162	-0.3224945
837900385526440	5.0677032	-6.352585	-0.5617676
837900393918774	5.5190125	-6.5832214	-0.63520813
837900402311108	5.949585	-6.838028	-0.5747528
837900410703442	6.423874	-7.250839	-0.48861694
837900419095776	7.03508	-7.8312683	-0.47099304
837900427488110	7.4959106	-8.260284	-0.48591614
837900435880444	7.592621	-8.412811	-0.32540894
837900444272778	7.352661	-8.31189	-0.35610962
837900452665112	7.086136	-7.911499	-0.20050049
837900461057446	6.8278503	-7.451477	-0.10673523
837900469449780	6.569626	-7.1894226	-0.32289124
837900477842114	6.408737	-7.080124	-0.5252075
837900486234448	6.186493	-7.121872	-0.7688141
837900494626782	5.870514	-7.574936	-1.2297363
837900503019116	5.839508	-7.9020386	-0.8454132
837900511411450	5.996002	-7.997299	-0.33554077
837900519803784	6.1174774	-8.019592	-0.6542816
837900528196118	6.2578735	-8.1831665	-1.2565002
837900536588452	6.577118	-8.6254425	-0.70880127
837900544980786	6.8471985	-8.698929	-0.48698425
837900553373120	7.092987	-8.685989	-0.54415894
837900561765454	7.249054	-8.550491	-0.3560791
837900570157788	7.1320343	-8.315811	0.091033936
837900578550122	6.4227448	-8.410278	-0.54174805
837900586942456	6.2000732	-8.334732	-0.5844879
837900595334790	5.8014526	-8.073578	-0.7604828
837900603727124	5.613861	-7.9431	-0.5246124
837900612119458	5.631653	-8.054657	-0.40434265
837900620511792	5.7031097	-8.281403	-0.8275757
837900628904126	5.8417053	-8.220581	-0.60723877
837900637296460	6.2025146	-7.943268	-0.73147583
837900645688794	6.473282	-7.776062	-0.65618896
837900654081128	6.644562	-7.70372	-0.6161957
837900662473462	6.6518097	-7.8255005	-0.7115326
837900670865796	6.411621	-8.1875	-0.8892212
837900679258130	5.8862	-8.5434265	-0.91215515
837900687650464	5.9831696	-8.445221	-0.55081177
837900696042798	5.5661774	-7.9434814	-0.388031
837900704435132	4.921829	-7.112213	-0.21208191
837900712827466	4.4141693	-6.589554	-0.23791504
837900721219800	4.367462	-7.1172943	-0.73017883
837900729612134	4.9940033	-8.865952	-1.2968292
837900738004468	5.6514587	-10.02739	-1.3975067
837900746396802	5.91774	-10.411133	-1.1066589
837900754789136	5.7503204	-10.508575	-0.9600525
837900763181470	5.2819824	-10.532959	-0.7939606
837900771573804	4.7323914	-10.488983	-0.122421265
837900779966138	4.2443237	-10.420395	1.1678009
837900788358472	4.2243195	-10.570374	1.0978851
837900796750806	4.0194397	-10.503723	0.2660675
837900805143140	3.7595825	-9.962753	-0.30665588
837900813535474	3.6965637	-9.183334	-0.3878479
837900821927808	4.038376	-8.629959	-0.34326172
837900830320142	4.812149	-8.538574	-0.72610474
837900838712476	5.724594	-8.604965	-0.77919006
837900847104810	6.255081	-8.917435	-0.6669159
837900855497144	6.424576	-9.223511	-0.2702179
837900863889478	6.0964966	-9.263412	0.60227966
837900872281812	5.307434	-9.031097	1.8839569
837900880674146	5.165268	-9.382446	2.4252014
837900889066480	4.546829	-9.374359	1.8153381
837900897458814	4.1463623	-9.030777	1.0349884
837900905851147	4.091736	-8.873627	-0.010665894
837900914243481	4.3056793	-8.976791	-1.1744995
837900922635815	4.611313	-9.112305	-2.1081696
837900931028149	4.823181	-9.187698	-2.5145874
837900939420483	4.945053	-9.051651	-2.565384
837900947812817	5.115326	-8.736618	-1.9216003
837900956205151	5.196579	-8.383789	-0.28453064
837900964597485	5.175888	-8.1423645	1.9223175
837900972989819	5.119751	-8.132507	3.613083
837900981382153	4.973633	-8.198105	3.1637878
837900989774487	5.0034485	-8.7595215	2.1210938
837900998166821	4.88089	-9.408005	1.4839783
837901006559155	4.3462677	-10.229935	1.0979156
837901014951489	3.2231445	-11.130463	0.85853577
837901023343823	1.4527435	-11.806473	0.7444916
837901031736157	-0.35020447	-11.691376	0.28408813
837901040128491	0.58413696	-11.609268	-0.1383667
837901048520825	2.3388824	-10.994247	0.4469757
837901056913159	3.4036407	-9.796555	2.149994
837901065305493	3.8200226	-8.476288	3.5434113
837901073697827	4.5543976	-7.7332764	2.956726
837901082090161	4.4362183	-8.058212	3.33667
837901090482495	4.7414856	-8.171936	2.6561584
837901098874829	5.094696	-8.491119	2.4406586
837901107267163	4.8930054	-8.722885	2.5856476
837901115659497	4.474991	-8.623474	2.2444153
837901124051831	4.659439	-8.1692505	0.7115326
837901132444165	4.021332	-7.7754364	0.6487274
837901140836499	2.7993622	-7.3315125	1.7916718
837901149228833	1.6940613	-6.968155	2.6582336
837901157621167	1.017868	-6.657593	3.310196
837901166013501	0.90519714	-6.6764374	3.9060822
837901174405835	1.2914276	-7.4512634	4.450653
837901182798169	1.6902161	-8.401413	4.749756
837901191190503	2.6378937	-9.189178	4.6677246
837901199582837	4.2274323	-9.067566	5.004776
837901207975171	5.260025	-8.761826	5.1176605
837901216367505	5.3182983	-8.550308	4.884201
837901224759839	5.1388245	-8.024002	4.67778
837901233152173	6.6973267	-7.088913	1.5302429
837901241544507	8.627182	-6.280594	-6.838745
837901249936841	4.951065	-4.895767	-4.4027863
837901258329175	2.7192078	-5.158615	2.308838
837901266721509	4.3494873	-7.5049133	6.296341
837901275113843	4.7275696	-9.821854	6.224304
837901283506177	1.3661194	-8.952972	7.5189514
837901291898511	-0.5365143	-8.462952	9.436859
837901300290845	-1.2814484	-8.02977	10.664352
837901308683179	-1.7319489	-7.18396	11.77713
837901317075513	-2.609192	-6.099365	12.711441
837901325467847	-4.133667	-5.623871	12.106232
837901333860181	-5.544449	-5.5181885	7.520935
837901342252515	-5.655472	-5.4769745	4.890091
837901350644849	-4.901703	-5.640564	3.892334
837901359037183	-3.790802	-5.9875946	3.314682
837901367429517	-2.8096008	-6.3854523	2.9905853
837901375821851	-2.1741333	-6.6694336	4.1352234
837901384214185	0.5219574	-7.3721313	5.1496887
837901392606519	2.2469635	-7.189987	6.6122284
837901400998853	2.9467468	-6.9613495	8.761261
837901409391187	2.9220886	-7.128357	10.0278015
837901417783521	2.0951996	-7.5848083	9.642593
837901426175855	-0.120025635	-7.7028656	8.578995
837901434568189	-3.3746338	-8.078598	7.5604706
837901442960522	-4.92749	-8.375214	5.362442
837901451352856	-5.6150208	-8.542648	6.0255737
837901459745190	-5.9039307	-8.542618	9.168823
837901468137524	-6.5323486	-8.247543	11.912994
837901476529858	-8.425461	-7.454117	10.291107
837901484922192	-5.2626495	-6.424301	6.8797455
837901493314526	-2.2893524	-5.206848	6.2327576
837901501706860	-0.87823486	-4.5206604	5.976227
837901510099194	-1.6309662	-4.483429	4.7687225
837901518491528	-0.7922058	-6.5685577	0.058013916
837901526883862	9.449951	-13.34816	-11.422653
837901535276196	-3.1208496	-3.9463043	-4.5970917
837901543668530	-4.6852875	-4.484955	-0.53926086
837901552060864	-4.622116	-6.996475	2.2329712
837901560453198	-5.1162567	-8.210846	5.111023
837901568845532	-5.1746674	-8.0160675	7.618622
837901577237866	-4.861923	-7.117035	6.756592
837901585630200	-5.005554	-6.327606	5.7369385
837901594022534	-5.6967926	-6.084717	5.828842
837901602414868	-6.8897095	-6.25856	6.0201874
837901610807202	-8.858292	-6.6943817	5.14032
837901619199536	-10.506424	-7.049057	2.680008
837901627591870	-8.458359	-6.740494	-0.6179352
837901635984204	-7.8375854	-5.92218	1.1046295
837901644376538	-6.1954956	-6.1277466	2.86734
837901652768872	-5.877716	-6.348694	4.718689
837901661161206	-6.5657196	-6.380661	5.71933
837901669553540	-7.119217	-6.319504	5.061447
837901677945874	-7.0724335	-6.0909576	3.785202
837901686338208	-6.750244	-5.8690186	3.0531921
837901694730542	-6.4157104	-5.699768	2.7671967
837901703122876	-5.807953	-5.4188385	2.8478088
837901711515210	-4.854065	-5.0855865	3.449051
837901719907544	-3.592392	-5.2455444	4.685486
837901728299878	-2.0076294	-7.072159	6.412613
837901736692212	-2.2438812	-7.436325	5.5603027
837901745084546	-3.6159668	-7.654602	3.441513
837901753476880	-6.4747314	-8.099213	0.94667053
837901761869214	-9.742035	-8.284164	-1.5813293
837901770261548	-11.837753	-7.801483	-3.624649
837901778653882	-11.423798	-7.318207	-3.5397034
837901787046216	-9.02417	-7.9063416	-1.0956116
837901795438550	-7.893799	-8.07962	1.8366699
837901803830884	-7.142746	-7.994858	3.7607117
837901812223218	-6.260742	-8.048981	4.5113525
837901820615552	-5.2701416	-8.437149	4.515915
837901829007886	-4.7337494	-8.568756	4.172943
837901837400220	-4.4401093	-8.134537	2.6893616
837901845792554	-4.481079	-7.535965	1.7044373
837901854184888	-5.228256	-7.384903	1.3040314
837901862577222	-6.9733887	-7.559433	0.69647217
837901870969556	-9.260254	-7.522629	-0.8561096
837901879361890	-10.198486	-6.9895782	-2.5753784
837901887754224	-8.430298	-7.2617188	-2.5326233
837901896146558	-8.12619	-8.90242	-0.08241272
837901904538892	-9.099213	-9.952209	2.4623566
837901912931226	-9.522812	-9.676193	3.5379333
837901921323560	-7.9808807	-8.702225	2.9840393
837901929715894	-6.436386	-8.251175	2.0019073
837901938108228	-6.0438843	-8.131653	2.210495
837901946500562	-6.1111145	-7.9136505	2.028244
837901954892896	-6.303589	-7.720291	1.615921
837901963285230	-6.6179047	-7.6389923	1.2272644
837901971677564	-7.1687317	-7.6778717	0.9591217
837901980069897	-7.7576447	-7.7829895	0.6096649
837901988462231	-7.667679	-8.129715	0.9085388
837901996854565	-7.3687744	-8.108215	1.1664276
837902005246899	-7.086975	-7.811157	1.2828674
837902013639233	-6.912735	-7.5115204	1.4685822
837902022031567	-6.8272095	-7.47641	1.8798676
837902030423901	-6.611862	-7.589081	1.6146545
837902038816235	-6.243042	-7.359665	0.7355957
837902047208569	-6.0195313	-7.09375	0.6571045
837902055600903	-5.8716125	-7.0851593	1.0153656
837902063993237	-5.863907	-7.3529663	1.4454803
837902072385571	-6.135376	-7.620407	1.6189117
837902080777905	-6.4877625	-7.442276	0.75257874
837902089170239	-7.051697	-7.364334	0.802536
837902097562573	-6.9603424	-7.7420044	1.0892029
837902105954907	-6.7770844	-8.047424	1.2597961
837902114347241	-6.8474274	-7.9602203	1.1113129
837902122739575	-7.109848	-7.6183777	0.6336365
837902131131909	-7.308426	-7.89093	0.14596558
837902139524243	-7.121811	-8.051773	0.23861694
837902147916577	-6.5636444	-8.028595	0.5509186
837902156308911	-6.0090485	-7.885269	0.93663025
837902164701245	-5.636322	-7.6712646	1.2806091
837902173093579	-5.4689636	-7.432312	1.4787903
837902181485913	-5.774124	-7.313034	1.4082184
837902189878247	-6.554947	-6.953293	0.4302063
837902198270581	-7.2959137	-6.9898987	-0.09075928
837902206662915	-7.756851	-7.201599	-0.31452942
837902215055249	-7.9069366	-7.6057587	0.4833374
837902223447583	-7.762741	-8.318588	2.9656677
837902231839917	-7.0152435	-7.9587708	1.2142334
837902240232251	-7.16539	-7.4746246	1.0157013
837902248624585	-6.9128876	-7.7429047	1.2047119
837902257016919	-6.6369934	-8.2200165	1.9075928
837902265409253	-6.6800995	-8.521774	3.497589
837902273801587	-6.88356	-8.627808	5.641205
837902282193921	-6.150757	-7.9518433	3.8276367
837902290586255	-6.3894653	-7.213867	1.6242676
837902298978589	-7.65361	-6.7689056	2.8989105
837902307370923	-8.5104065	-6.399521	4.1917877
837902315763257	-8.35936	-6.07193	4.3115234
837902324155591	-7.742035	-5.9660797	4.9694977
837902332547925	-6.885605	-5.765686	2.011383
837902340940259	-5.942749	-5.6792603	0.159729
837902349332593	-5.0956573	-5.8151855	1.1994019
837902357724927	-4.683197	-5.8197937	2.0305939
837902366117261	-4.951721	-5.7753906	2.3029633
837902374509595	-5.9402313	-6.203644	4.606262
837902382901929	-6.2483063	-6.765976	4.089798
837902391294263	-5.8581085	-7.361496	6.2743225
837902399686597	-5.1211853	-7.964981	4.62175
837902408078931	-4.5447235	-8.271317	2.5647736
837902416471265	-4.1957245	-8.156204	2.006256
837902424863599	-3.7000122	-7.8157806	0.7516632
837902433255933	-4.397522	-7.6710052	4.194626
837902441648267	-4.598648	-7.5825806	6.1796722
837902450040601	-4.4650574	-7.337784	5.431015
837902458432935	-4.306961	-7.0258484	3.988266
837902466825269	-3.8782196	-6.8184204	2.7774048
837902475217603	-2.597412	-6.839447	0.83547974
837902483609937	-3.6947937	-6.986557	4.762802
837902492002271	-4.8352356	-7.5670013	8.822662
837902500394605	-5.164871	-8.536133	8.510178
837902508786939	-4.4297333	-9.399612	4.121002
837902517179272	-3.4771118	-9.614899	0.70188904
837902525571606	-3.798294	-8.912857	4.8626556
837902533963940	-4.137268	-8.245865	6.670227
837902542356274	-4.0310364	-8.147278	7.805435
837902550748608	-3.9906921	-8.627777	12.306717
837902559140942	-2.8161163	-8.322067	4.6347504
837902567533276	-1.2632294	-7.1555176	-9.409363
837902575925610	-2.8301544	-7.1289825	5.727005
837902584317944	-3.395691	-9.288956	2.946991
837902592710278	-5.035385	-10.475555	5.9282227
837902601102612	-5.0607605	-9.9557495	5.1772156
837902609494946	-3.6590729	-8.523132	1.8700714
837902617887280	-2.3486328	-6.9688416	0.381073
837902626279614	-2.9423065	-5.250412	3.7931824
837902634671948	-1.1845856	-7.688095	3.8490143
837902643064282	-2.5622864	-8.77681	3.0894775
837902651456616	-2.5767212	-9.351791	3.0837708
837902659848950	-2.1421967	-9.215027	3.6859741
837902668241284	-2.7353668	-8.460144	4.085312
837902676633618	-3.3779755	-7.9889374	3.7386627
837902685025952	-2.9243317	-7.619049	3.174347
837902693418286	-2.6831665	-7.6639557	2.8233185
837902701810620	-2.531662	-8.196976	2.426239
837902710202954	-2.223755	-9.116318	2.0366821
837902718595288	-1.7922058	-10.019821	1.8819275
837902726987622	-1.6965942	-10.21402	2.2310944
837902735379956	-1.6696777	-10.453308	2.819336
837902743772290	-1.5057983	-11.273148	3.3182678
837902752164624	-1.4672394	-11.130569	3.0687103
837902760556958	-1.3076324	-10.251816	2.6054077
837902768949292	-0.9798126	-9.49382	2.3594666
837902777341626	-1.1375122	-9.343185	1.6498413
837902785733960	-1.6166229	-9.440598	1.826767
837902794126294	-1.8831177	-9.893967	1.8374481
837902802518628	-1.9648895	-10.153854	1.9610596
837902810910962	-2.0533447	-10.27861	2.0740356
837902819303296	-2.2099	-10.277893	2.1185913
837902827695630	-2.1008606	-9.552689	2.5303497
837902836087964	-1.8783722	-9.367279	2.4838715
837902844480298	-1.7635345	-9.277649	2.3348541
837902852872632	-1.7801971	-8.968674	2.4573822
837902861264966	-1.872467	-8.564362	2.08815
837902869657300	-1.9743805	-8.375275	0.95098877
837902878049634	-2.0931396	-8.59819	0.63560486
837902886441968	-1.8965912	-9.110275	0.4751892
837902894834302	-1.7274017	-9.5664215	0.8262634
837902903226636	-1.5550079	-10.021591	1.1373444
837902911618970	-1.4797516	-10.35228	1.2508087
837902920011304	-1.5217896	-10.452042	1.2995911
837902928403638	-1.398529	-10.392395	1.586853
837902936795972	-1.3574982	-10.228622	1.776825
837902945188306	-1.5989532	-9.686035	1.8722076
837902953580640	-1.8582306	-9.138718	1.829361
837902961972974	-2.0681152	-8.911224	1.8218079
837902970365308	-2.1648102	-9.089874	1.8566132
837902978757642	-1.7244568	-9.254883	1.1170807
837902987149976	-1.6552429	-9.766968	2.4898682
837902995542310	-1.6646881	-9.536758	1.2644196
837903003934644	-1.5847473	-9.260498	1.1763611
837903012326978	-1.4659424	-9.25499	1.9100952
837903020719312	-1.5074463	-9.455673	1.5034485
837903029111646	-1.892273	-9.580307	1.543335
837903037503980	-1.7539978	-10.01474	1.3261719
837903045896314	-1.4665527	-9.968613	0.6939392
837903054288647	-1.187912	-9.946823	0.61309814
837903062680981	-1.0177917	-9.916885	0.7973938
837903071073315	-0.99365234	-9.650421	0.65875244
837903079465649	-1.1562042	-9.429459	1.1230621
837903087857983	-1.5600281	-9.409683	1.4097748
837903096250317	-2.1783447	-9.399994	1.5224915
837903104642651	-2.3250885	-9.321014	1.0292206
837903113034985	-1.8179321	-9.131592	0.43260193
837903121427319	-1.0486603	-8.936539	0.42451477
837903129819653	-0.77871704	-9.235992	0.3287506
837903138211987	-0.7973175	-9.238113	1.2549896
837903146604321	-1.3020782	-9.311554	-0.23147583
837903154996655	-1.2755737	-9.5069275	0.047698975
837903163388989	-0.93499756	-9.754196	1.835022
837903171781323	-1.2694397	-9.778687	1.5708618
837903180173657	-2.2545319	-8.947403	-1.927536
837903188565991	-1.7106018	-9.866638	1.2694244
837903196958325	-1.8802032	-10.730972	1.764389
837903205350659	-1.749527	-10.621368	0.5194092
837903213742993	-1.362854	-10.000504	-0.47969055
837903222135327	-1.4538727	-9.945419	0.04537964
837903230527661	-1.5202637	-10.129944	1.3799896
837903238919995	-1.5877686	-9.754654	0.76786804
837903247312329	-1.2834015	-9.30603	0.082595825
837903255704663	-1.0070801	-9.0342865	0.2503357
837903264096997	-0.9611664	-8.9995575	0.73243713
837903272489331	-1.0724335	-9.06871	0.48594666
837903280881665	-1.2173615	-9.027573	0.5799408
837903289273999	-1.4636383	-9.308395	0.4998932
837903297666333	-1.7570801	-9.592133	0.4844513
837903306058667	-1.9017487	-9.788483	0.78952026
837903314451001	-1.8600464	-9.9678955	1.2998047
837903322843335	-1.742157	-10.268402	1.6690521
837903331235669	-1.5966034	-10.686157	1.8395233
837903339628003	-1.414093	-10.663712	1.3664856
837903348020337	-2.4550018	-10.215805	2.2554321
837903356412671	-1.9856262	-10.502884	2.6338196
837903364805005	-0.5605774	-10.985428	1.924118
837903373197339	-1.1569061	-10.051254	1.3278046
837903381589673	-1.0807495	-9.366867	2.3548737
837903389982007	-1.1954193	-9.380692	1.396698
837903398374341	-1.5030518	-9.394989	1.1399078
837903406766675	-1.9444427	-9.489624	1.6958771
837903415159009	-2.2080078	-9.6936035	2.547943
837903423551343	-2.0787659	-9.928131	2.9803162
837903431943677	-2.7786713	-10.369095	2.328125
837903440336011	-2.4237976	-10.500946	2.2988586
837903448728345	-1.9890747	-10.798264	2.6289063
837903457120679	-2.1379395	-11.467804	2.9431458
837903465513013	-2.6563568	-11.961456	2.650772
837903473905347	-2.7139587	-11.506912	1.3690491
837903482297681	-1.7967072	-11.53183	0.80474854
837903490690015	-1.5380859	-11.191574	0.35482788
837903499082349	-1.644455	-10.812393	1.076004
837903507474683	-1.8387909	-10.6801605	1.9408875
837903515867017	-1.992218	-10.699509	2.1749573
837903524259351	-2.0361938	-10.459961	1.9982605
837903532651685	-0.6038208	-10.581238	3.279541
837903541044019	13.869125	-13.359253	17.96907
837903549436353	8.312042	-11.611877	6.6163635
837903557828687	-3.7197266	-9.119568	-7.3566437
837903566221021	-8.0403595	-9.44548	-3.4776917
837903574613355	-4.5955505	-12.254257	13.717941
837903583005689	-7.827896	-12.390854	4.6031647
837903591398022	-1.9078369	-10.667969	4.126648
837903599790356	0.09111023	-8.766968	4.807556
837903608182690	-0.7593384	-7.843445	5.088516
837903616575024	-1.4720764	-8.078308	4.830536
837903624967358	-1.2312622	-8.44223	4.148361
837903633359692	-0.9306488	-7.991791	4.459732
837903641752026	-1.2434387	-6.7787933	5.669449
837903650144360	-0.6324005	-6.202942	6.297119
837903658536694	1.1590424	-5.9900055	6.393402
837903666929028	3.3115387	-5.5710297	6.391388
837903675321362	4.507324	-4.761627	6.55278
837903683713696	4.288315	-4.0098877	7.527603
837903692106030	3.6683044	-3.3544006	7.5610504
837903700498364	2.9633636	-3.5256195	7.297943
837903708890698	2.067749	-4.136902	6.842743
837903717283032	0.9483948	-4.674988	6.0916443
837903725675366	-0.1525116	-5.077591	4.8638763
837903734067700	-1.2664795	-5.55011	4.389389
837903742460034	-3.1951752	-6.224289	6.5821075
837903750852368	-3.1339722	-6.5577545	8.382553
837903759244702	-2.1497192	-6.247452	9.100616
837903767637036	-1.3465424	-5.3489075	9.293076
837903776029370	0.54203796	-4.3696594	10.135681
837903784421704	4.7111816	-3.858612	11.152893
837903792814038	5.492462	-2.7260284	9.3654785
837903801206372	6.002121	-1.9228668	7.5127716
837903809598706	7.0258026	-1.5319061	6.513962
837903817991040	7.976181	-1.3725128	5.919281
837903826383374	7.5165253	-1.4172516	4.207062
837903834775708	6.354019	-1.4621124	3.8740692
837903843168042	5.6307526	-1.776474	5.884186
837903851560376	4.5660095	-2.8667297	10.462555
837903859952710	3.2577972	-4.87117	13.886047
837903868345044	2.1401367	-6.7102356	13.462173
837903876737378	1.4751587	-5.830139	11.939987
837903885129712	1.5738525	-3.845108	10.74559
837903893522046	2.2246094	-2.3447876	8.262772
837903901914380	3.033722	-1.1820068	6.6026306
837903910306714	4.4767	-0.8499603	6.3219757
837903918699048	6.5463257	-1.3446808	7.0517426
837903927091382	7.441925	-1.0857086	8.077988
837903935483716	7.1958923	-0.7801361	8.813156
837903943876050	6.218857	-0.72106934	8.958115
837903952268384	5.7713776	-0.7681885	8.823898
837903960660718	5.966629	-0.63879395	8.502472
837903969053052	6.1425476	-0.17353821	8.089813
837903977445386	5.4258575	0.3453827	7.8989105
837903985837720	5.256485	0.4592743	7.6828156
837903994230054	5.078003	0.45428467	7.216049
837904002622388	5.8429413	0.7501373	6.8144073
837904011014722	8.41452	1.2043152	8.615692
837904019407056	11.1419525	0.5261688	12.188339
837904027799390	7.670746	-3.9281921	9.805405
837904036191724	3.6979828	-2.3970184	7.6339874
837904044584058	2.3892975	-0.12315369	9.714661
837904052976392	6.615387	0.016937256	9.345276
837904061368726	9.672714	-0.59780884	7.8014526
837904069761060	5.996231	0.33065796	8.546356
837904078153394	6.7308044	1.320694	8.620911
837904086545728	8.30484	1.4356537	7.356949
837904094938062	7.161667	2.4053802	6.3746643
837904103330396	5.584137	3.3053894	5.524948
837904111722730	4.754013	3.8148346	4.976654
837904120115064	4.808716	4.0479736	4.9930573
837904128507397	5.361496	4.080673	5.4896393
837904136899731	5.4618683	4.0905457	5.9962006
837904145292065	5.2101135	4.094391	6.0791473
837904153684399	4.724121	4.10083	5.9788513
837904162076733	3.976822	4.147644	5.5590363
837904170469067	2.94104	4.2869873	4.8686676
837904178861401	1.9380493	4.5402374	5.216629
837904187253735	2.4083405	4.5189056	6.505127
837904195646069	3.500122	4.4620514	7.3147736
837904204038403	4.6989594	4.731018	7.768982
837904212430737	5.6681213	5.2208557	7.6581116
837904220823071	6.177719	5.5732727	6.8904266
837904229215405	5.9417267	5.649658	6.492874
837904237607739	5.435608	5.7082977	6.0064087
837904246000073	4.8728485	6.1633606	5.483734
837904254392407	5.0002594	7.224243	4.6391296
837904262784741	5.0530853	8.290695	4.291458
837904271177075	4.204056	8.569626	5.099411
837904279569409	4.5131226	8.253571	4.990753
837904287961743	4.809967	8.129501	3.828888
837904296354077	4.49382	7.898758	2.563614
837904304746411	3.8267212	7.6315613	2.1279144
837904313138745	3.3637238	7.180176	2.502945
837904321531079	3.4480743	6.452194	3.0269775
837904329923413	3.308487	6.018509	3.0838165
837904338315747	3.9107513	6.574646	3.195816
837904346708081	4.626831	6.893631	3.4272766
837904355100415	4.350647	7.849579	3.448532
837904363492749	3.3020477	9.140549	2.871994
837904371885083	2.4195404	9.8289795	1.5243835
837904380277417	2.041977	9.648621	-0.085006714
837904388669751	0.907135	9.234436	-0.9371948
837904397062085	-0.047286987	8.907059	-0.9556122
837904405454419	-0.9201813	8.424042	0.25291443
837904413846753	-1.7733765	7.2341614	2.4981537
837904422239087	-2.3780212	5.335434	4.8584747
837904430631421	-1.6731262	5.4142	5.141632
837904439023755	-0.34812927	5.8977814	4.698471
837904447416089	1.3152618	7.2608337	4.054779
837904455808423	2.443283	8.602051	3.600586
837904464200757	2.722107	9.1604	3.4809875
837904472593091	2.1673737	8.931686	3.6539764
837904480985425	0.10557556	9.948624	4.118576
837904489377759	-6.594467	6.258972	4.286255
837904497770093	-2.3853912	5.134186	0.876297
837904506162427	1.2617188	6.2908325	-1.3961334
837904514554761	0.95391846	8.264328	-1.2953644
837904522947095	0.912796	9.603073	-0.5477295
837904531339429	1.7835541	10.284958	0.96713257
837904539731763	1.8754578	8.244141	1.077301
837904548124097	2.246872	8.620316	-0.89302063
837904556516431	3.559021	9.919876	-4.932022
837904564908765	4.1800537	11.408279	-6.5057983
837904573301099	1.8549194	13.339081	-1.5522308
837904581693433	0.18693542	14.4188385	-5.808441
837904590085767	-1.2737885	13.153229	-7.895447
837904598478101	-0.10614014	11.972397	-6.9849243
837904606870435	1.5572815	10.692368	-6.922119
837904615262769	1.769043	9.648148	-7.583481
837904623655103	-0.0032348633	9.59845	-5.593109
837904632047437	-0.69714355	9.871628	-1.6380005
837904640439771	0.46070862	8.689758	0.93904114
837904648832105	1.5263367	7.89682	-0.18486023
837904657224439	1.6749115	8.054169	-2.5454712
837904665616772	1.036911	8.809326	-3.7723541
837904674009106	0.42674255	9.262848	-2.9199677
837904682401440	0.23873901	9.253845	-2.0629578
837904690793774	0.26774597	9.452789	-2.1088104
837904699186108	0.57214355	9.421341	-2.1981812
837904707578442	2.7330933	8.418045	-1.9072266
837904715970776	5.146759	7.1179504	-1.7970428
837904724363110	3.9424896	7.3080597	-2.8545837
837904732755444	1.5855865	9.042847	-3.0300446
837904741147778	0.7277832	10.212265	-3.468399
837904749540112	-0.03630066	11.911972	-4.2097015
837904757932446	-1.591217	12.941101	-2.458603
837904766324780	-2.925064	12.201263	1.434372
837904774717114	-1.8145905	9.547394	3.5869904
837904783109448	-0.5164032	7.6528015	1.2133026
837904791501782	-1.6093903	7.030548	0.09649658
837904799894116	-2.341568	6.949539	-0.59547424
837904808286450	-1.8920441	6.9108276	-1.7820129
837904816678784	-0.656723	6.766693	-3.5179596
837904825071118	0.044128418	6.6957245	-4.79422
837904833463452	-1.2549744	6.546173	-3.7443695
837904841855786	-2.6981812	5.577545	-0.26260376
837904850248120	-2.3640442	4.504242	2.1086578
837904858640454	-1.8728638	4.2260284	1.8326569
837904867032788	-2.5923767	5.00914	-0.73506165
837904875425122	-4.2550354	6.291336	-3.4907532
837904883817456	-2.5970154	7.224533	-3.6652222
837904892209790	-0.62020874	8.367828	-1.5491333
837904900602124	0.049545288	9.864395	-0.14985657
837904908994458	-0.2495575	11.452469	0.068099976
837904917386792	-1.0767059	12.478546	-0.45439148
837904925779126	-2.325058	12.111359	-0.8805084
837904934171460	-2.7415466	10.5199585	-0.4719696
837904942563794	-1.4920807	9.2013855	-0.8294525
837904950956128	-1.6911926	8.663315	-0.1991272
837904959348462	-2.1766052	8.566071	0.79278564
837904967740796	-1.6934052	8.767807	1.0850372
837904976133130	-0.49757385	9.681976	0.09963989
837904984525464	-1.3991394	12.093445	-0.058395386
837904992917798	-2.5674286	13.696625	-0.45300293
837905001310132	-2.7141113	13.28093	-0.39126587
837905009702466	-1.8187561	11.576981	-0.012084961
837905018094800	-0.53764343	9.818283	0.16166687
837905026487134	0.14334106	8.996048	-0.47962952
837905034879468	0.16819763	8.628265	-1.2112122
837905043271802	0.50190735	8.618393	-1.151474
837905051664136	0.66522217	8.898376	-0.95047
837905060056470	0.48617554	9.162918	-0.7165222
837905068448804	0.060455322	9.331894	-0.5319824
837905076841138	-0.31781006	9.707123	-0.6167755
837905085233472	-1.1865692	9.848267	-0.74302673
837905093625806	-1.5831604	10.595367	-0.51127625
837905102018140	-1.9641113	11.102509	0.3778534
837905110410474	-2.057953	11.035797	1.3226929
837905118802808	-1.7835083	10.631973	1.7389374
837905127195142	-1.6630249	10.677673	1.5778503
837905135587476	-2.0727844	11.030609	1.8580017
837905143979810	-1.3418274	10.269684	0.4141388
837905152372144	-0.7085571	10.076462	-0.5523071
837905160764478	-0.69000244	10.698563	-0.63871765
837905169156812	-1.2569275	11.760529	-0.22331238
837905177549146	-1.8652191	12.668152	0.032913208
837905185941480	-2.1403809	13.347137	0.2821808
837905194333814	-2.0340881	13.212982	0.2989502
837905202726147	-1.318985	12.910767	-0.121154785
837905211118481	-0.58714294	12.867172	-0.16539001
837905219510815	-0.45469666	13.1923065	0.6390991
837905227903149	-0.80581665	13.576599	1.3784637
837905236295483	-0.54299927	13.675888	0.59487915
837905244687817	-0.5652313	13.081177	-0.045578003
837905253080151	-0.274292	12.32872	-0.24501038
837905261472485	1.4496613	11.416031	-0.07385254
837905269864819	3.2809143	10.380722	0.23965454
837905278257153	-0.5375061	9.78595	0.44969177
837905286649487	-0.97120667	9.068085	0.055877686
837905295041821	-0.5107422	8.839386	-0.08892822
837905303434155	-0.0063323975	8.964188	-0.8598633
837905311826489	0.52952576	9.184631	-1.5528564
837905320218823	1.267395	9.33548	-1.4891052
837905328611157	2.0196838	9.54567	-1.3839874
837905337003491	2.1642609	9.754059	-1.1317444
837905345395825	2.198227	9.846893	-0.4503479
837905353788159	1.8313293	10.1102295	0.21470642
837905362180493	0.9972534	10.558044	0.5855255
837905370572827	0.009216309	10.935776	0.52485657
837905378965161	-0.27095032	10.707474	0.008407593
837905387357495	0.0073547363	10.062653	-0.37753296
837905395749829	0.3105011	9.278061	-0.82832336
837905404142163	0.59780884	8.918076	-1.517334
837905412534497	0.98217773	9.335358	-2.5228577
837905420926831	1.4944	10.283325	-3.559021
837905429319165	1.8010406	10.72525	-3.7527313
837905437711499	1.5105133	9.167618	-3.182373
837905446103833	1.4078217	6.475418	-1.4130554
837905454496167	2.5934906	5.5766144	-0.5282898
837905462888501	3.6259613	6.2707214	-0.9829254
837905471280835	2.7499847	7.1584167	-2.098877
837905479673169	0.34603882	8.308441	-2.8546906
837905488065503	-0.504776	8.710953	-1.6651459
837905496457837	-1.2651215	8.047684	-2.3367004
837905504850171	-1.7761383	7.824753	-3.0567322
837905513242505	-2.5172882	8.458115	-3.0964355
837905521634839	-3.9897919	9.535065	-2.9443054
837905530027173	-5.768448	10.212036	-4.420868
837905538419507	-4.0894775	8.800446	-3.1497803
837905546811841	-2.4313354	7.5207367	-1.7968445
837905555204175	-0.78627014	6.0863647	-0.50920105
837905563596509	0.2525177	4.8236694	-0.68522644
837905571988843	-0.028900146	4.3405457	-3.043213
837905580381177	-1.637207	4.955841	-4.338394
837905588773511	-2.1717377	5.1494446	-4.4626465
837905597165845	-2.1781464	5.0985107	-4.24823
837905605558179	-2.6203156	5.2007446	-3.572998
837905613950513	-3.4404907	5.2332916	-3.1695862
837905622342847	-3.7026978	4.7855377	-3.7250519
837905630735181	-1.931366	4.2189636	-4.076935
837905639127515	-0.42567444	4.0734406	-4.3234406
837905647519849	0.8576813	4.412979	-4.890381
837905655912183	-0.7339783	6.4370117	-3.276062
837905664304517	-3.536911	7.971649	-1.7210541
837905672696851	-4.154114	6.4642334	-3.4845123
837905681089185	-3.693695	6.5447235	-3.0750427
837905689481519	-2.9785767	6.9949646	-4.672119
837905697873853	-2.0466614	7.4551086	-5.621628
837905706266187	-1.0726776	8.895798	-5.9993744
837905714658521	-1.0398712	10.66922	-5.932129
837905723050855	-2.5930176	11.336014	-5.63089
837905731443189	-3.0087738	11.102722	-6.054611
837905739835522	-2.7463226	11.002502	-6.7494507
837905748227856	-3.7464447	10.607666	-6.681595
837905756620190	-4.625824	10.165085	-6.378418
837905765012524	-4.8167877	9.69455	-6.2091064
837905773404858	-4.7732697	9.005615	-6.1286163
837905781797192	-5.4801483	7.9657288	-5.3878326
837905790189526	-5.6757965	7.3012543	-4.707779
837905798581860	-4.8497925	7.730011	-4.3980103
837905806974194	-3.0475922	9.399719	-4.11409
837905815366528	-1.5182037	12.323975	-3.3997192
837905823758862	-1.5492859	16.179184	-2.096527
837905832151196	-0.8992462	18.19313	-1.4105835
837905840543530	-0.062561035	18.31717	-0.9418793
837905848935864	0.46861267	16.208496	-0.5170288
837905857328198	0.08973694	13.116959	-0.11906433
837905865720532	-0.12644958	9.780869	-0.34140015
837905874112866	1.5678406	6.368149	-1.8493805
837905882505200	3.2373657	3.4854584	-3.195984
837905890897534	3.20253	1.2415466	-0.005722046
837905899289868	1.72258	1.3863068	1.6777954
837905907682202	-1.1818085	4.459442	0.9252014
837905916074536	-3.1544495	8.018829	-0.81581116
837905924466870	-1.1965027	8.319366	-1.1881256
837905932859204	0.008880615	7.838806	-1.1940918
837905941251538	-0.24008179	7.759094	-1.0145264
837905949643872	-0.23764038	7.2718353	-0.7863159
837905958036206	-1.1730652	6.8778687	-0.16748047
837905966428540	-2.7095337	6.8248596	0.6621704
837905974820874	-2.7786865	6.8414154	1.0631714
837905983213208	-0.99694824	6.9214783	1.1539764
837905991605542	0.14250183	7.5124664	2.2223663
837905999997876	0.8227997	7.9813232	3.9095001
837906008390210	-0.33172607	8.656525	4.079544
837906016782544	-3.109848	9.691696	3.0775757
837906025174878	-5.648941	10.852966	3.522293
837906033567212	-7.899063	12.368683	1.9851837
837906041959546	-6.193329	12.40509	-0.58447266
837906050351880	-4.1493835	12.568771	-2.4702606
837906058744214	-3.3273773	12.671448	-3.194641
837906067136548	-3.5302277	11.88913	-2.627121
837906075528882	-3.2406616	9.6076355	-1.0274811
837906083921216	-3.0961761	9.449478	-0.5676422
837906092313550	-3.420517	9.840393	-1.1454926
837906100705884	-3.8659515	9.285889	-0.7328644
837906109098218	-4.2757416	9.212097	0.31085205
837906117490552	-4.1899567	9.32225	1.1653595
837906125882886	-3.016632	7.1833496	1.2181244
837906134275220	-2.7754822	7.323929	0.17347717
837906142667554	-2.5910187	6.841095	-0.08128357
837906151059888	-3.018631	8.048798	0.08114624
837906159452222	-3.0545197	9.593842	0.3635559
837906167844556	-2.3533783	10.077652	0.008636475
837906176236890	-1.9767609	9.7604065	-1.9468079
837906184629224	-2.265747	9.123871	-2.9855804
837906193021558	-0.6432648	8.865494	-0.3297577
837906201413892	-0.46801758	8.686707	1.958847
837906209806226	-1.420929	8.487686	1.950119
837906218198560	-1.7217865	8.220322	0.80726624
837906226590894	0.46305847	7.85437	2.3180237
837906234983228	0.38630676	8.229233	3.7766418
837906243375562	0.29890442	8.7117	2.9592285
837906251767896	0.6998291	8.901718	1.6751709
837906260160230	1.1213531	8.78772	-0.0259552
837906268552564	0.6542816	8.515549	-2.2248688
837906276944897	-1.5955505	8.28775	-4.209259
837906285337231	-3.3313446	8.622742	-2.8024902
837906293729565	-6.0547333	9.10112	-1.9586182
837906302121899	-4.726166	9.316086	-0.33200073
837906310514233	-3.4503632	8.644119	-0.85112
837906318906567	-4.6814575	7.386978	-3.0600128
837906327298901	-4.054352	7.2178497	-0.04937744
837906335691235	-3.9044495	7.677307	0.58529663
837906344083569	-5.0406647	8.891647	0.72447205
837906352475903	-6.180786	9.676941	-0.241745
837906360868237	-7.659195	10.098923	-0.83026123
837906369260571	-9.206329	10.505173	0.21446228
837906377652905	-8.614304	10.696365	2.2292938
837906386045239	-7.1181183	9.891434	3.6492157
837906394437573	-3.5655975	8.853943	4.5292816
837906402829907	-0.06260681	7.568405	6.8714447
837906411222241	3.7128754	6.861923	8.85379
837906419614575	7.322891	7.641144	8.287582
837906428006909	7.360855	10.293716	5.1891937
837906436399243	4.2800293	9.762711	2.2171783
837906444791577	1.0414276	10.687866	2.4240417
837906453183911	-1.6548462	12.498627	3.053833
837906461576245	-3.7508698	14.25116	1.8184814
837906469968579	-5.09848	15.300354	-1.72406
837906478360913	-4.6188507	15.5354	-5.3654175
837906486753247	-2.6716766	13.343948	-4.27269
837906495145581	-0.72872925	11.393509	-2.9388733
837906503537915	0.5094757	10.060272	-1.9587402
837906511930249	0.038009644	9.432114	-1.2455444
837906520322583	-2.128067	9.491409	-0.40931702
837906528714917	-4.0693665	10.521194	0.75068665
837906537107251	-5.396118	12.197388	2.5144958
837906545499585	-7.281067	13.64975	4.176758
837906553891919	-7.2452087	13.821075	4.0781097
837906562284253	-5.497101	12.793732	1.7446747
837906570676587	-3.4148865	11.614288	-1.6601105
837906579068921	-0.8616638	11.593842	-3.6283264
837906587461255	-0.107177734	12.458527	-4.02771
837906595853589	-1.795517	12.647995	-3.754593
837906604245923	-3.4840393	13.211136	-2.2334137
837906612638257	-4.8614655	13.947174	-0.7318268
837906621030591	-6.4379883	14.096695	-0.57598877
837906629422925	-7.9468994	13.001297	-1.0014343
837906637815259	-6.547226	10.216949	-0.4355011
837906646207593	-6.048279	7.3618164	-0.28196716
837906654599927	-5.5614624	5.3955994	-1.8759003
837906662992261	-4.9702606	4.2998505	-3.5572357
837906671384595	-4.580063	3.8597717	-3.1790314
837906679776929	-4.0486755	4.471939	-2.296692
837906688169263	-4.3674774	5.094681	-1.8841705
837906696561597	-4.2891693	5.0976105	-0.7691803
837906704953931	-3.580719	5.0223236	-0.05822754
837906713346265	-2.175888	5.135269	-0.2867279
837906721738599	-0.4860077	5.440628	-1.1618195
837906730130933	0.22172546	6.0181427	-1.851654
837906738523267	-0.08653259	6.3609314	-2.2696686
837906746915601	-0.3346405	6.330185	-2.9469452
837906755307935	-0.18504333	5.854782	-3.2355347
837906763700269	0.4513092	5.1020813	-3.1136017
837906772092603	1.2721558	4.346466	-2.9220123
837906780484937	1.1670227	3.9074554	-2.7448578
837906788877271	0.6854553	3.5424347	-2.7090912
837906797269605	0.59568787	2.664627	-2.0142212
837906805661939	-0.8358307	1.3759766	0.37431335
837906814054272	-2.504486	0.9061737	1.4460297
837906822446606	-2.3108826	2.134735	-1.5873566
837906830838940	-1.5132599	2.6621552	-2.2394104
837906839231274	-1.6677856	3.260971	-3.090332
837906847623608	-1.6504059	3.9364777	-4.2636414
837906856015942	-2.1069336	4.501953	-4.6980286
837906864408276	-2.8746338	4.968384	-4.4704437
837906872800610	-3.287613	5.513611	-4.547943
837906881192944	-3.6624756	6.2663727	-5.2618256
837906889585278	-4.239914	7.1874084	-5.700836
837906897977612	-5.1936493	8.431137	-5.706558
837906906369946	-6.2115173	9.879959	-5.7584534
837906914762280	-7.69899	11.506332	-6.2251587
837906923154614	-10.084763	13.32991	-7.0772552
837906931546948	-11.346298	15.131683	-7.751816
837906939939282	-10.320023	15.969162	-7.9573364
837906948331616	-8.11496	15.905945	-7.937332
837906956723950	-5.7861786	14.89003	-7.8944397
837906965116284	-3.5328217	12.767624	-7.59552
837906973508618	-0.8902283	9.577896	-6.700363
837906981900952	2.15094	6.979965	-5.963257
837906990293286	2.9343567	6.3572083	-5.7484894
837906998685620	2.237091	7.3577423	-5.27829
837907007077954	1.0909576	8.718338	-4.2474976
837907015470288	0.20150757	9.939011	-3.3633423
837907023862622	-0.2374115	11.258926	-3.5704956
837907032254956	-0.19752502	11.943863	-3.373108
837907040647290	0.98802185	11.307724	-1.6892395
837907049039624	2.4780273	10.404831	1.0722198
837907057431958	3.5347137	10.884048	3.8308105
837907065824292	2.9060364	12.550674	4.6147003
837907074216626	0.6647339	12.9934845	1.9534149
837907082608960	5.5570374	9.474045	-0.50619507
837907091001294	5.4198	5.346283	-2.3339844
837907099393628	4.3857117	4.021057	-2.3668365
837907107785962	3.8710632	5.4021606	-1.0116577
837907116178296	4.0953827	7.794922	0.04206848
837907124570630	4.3840485	9.051025	-0.9946747
837907132962964	5.4807587	8.75824	-2.3430328
837907141355298	4.7576904	9.617813	-0.71177673
837907149747632	2.7920074	10.744354	0.69073486
837907158139966	2.7671204	11.350906	1.2529907
837907166532300	3.5498047	11.298462	1.8343201
837907174924634	0.94673157	10.830765	3.4629517
837907183316968	0.58880615	8.58551	1.9275665
837907191709302	0.84085083	7.2239532	-0.03778076
837907200101636	0.72943115	6.526932	-1.4340668
837907208493970	0.8316803	5.952591	-2.4489899
837907216886304	1.274231	5.9167023	-3.0411072
837907225278638	1.507431	7.512268	-2.6519165
837907233670972	1.91922	8.51329	-0.7436371
837907242063306	1.0021515	9.821045	-0.9372864
837907250455640	0.95736694	9.404678	-0.69143677
837907258847974	0.7634735	8.536636	-0.44906616
837907267240308	0.36619568	8.004135	-0.6938019
837907275632642	1.2578583	7.2628326	-1.1391296
837907284024976	0.62376404	8.7443695	-1.5478973
837907292417310	2.2994843	8.254272	-1.7205505
837907300809644	2.0265503	8.416351	-0.6487732
837907309201978	1.576767	8.774109	1.3045044
837907317594312	2.0213928	8.550308	2.9858093
837907325986646	1.9003448	7.7323456	3.2457428
837907334378980	0.68907166	8.609726	3.5502625
837907342771314	0.43643188	9.457642	3.90036
837907351163647	-0.14633179	10.093231	2.6744385
837907359555981	-0.16955566	10.449509	1.1627808
837907367948315	0.39663696	10.462921	0.74568176
837907376340649	0.07098389	10.080124	1.5662231
837907384732983	0.57647705	10.068161	2.0168915
837907393125317	0.3292389	10.027573	0.607193
837907401517651	0.04588318	9.83046	-0.8184204
837907409909985	-0.22891235	9.121048	-1.809555
837907418302319	-0.54444885	7.896103	-2.4478302
837907426694653	-0.9192505	6.7787933	-3.1035004
837907435086987	-2.5035095	6.038025	-3.688736
837907443479321	-2.550888	5.103546	-7.7515564
837907451871655	-0.06329346	5.0867004	-3.8046722
837907460263989	1.9949341	5.736328	3.472458
837907468656323	1.5747681	6.635437	7.2003326
837907477048657	0.61187744	7.791565	6.3806915
837907485440991	1.0290222	8.884354	3.3657227
837907493833325	1.1349335	9.854034	0.80744934
837907502225659	1.2991486	10.43277	-0.24916077
837907510617993	1.1786499	10.726929	0.19696045
837907519010327	0.75598145	10.977203	1.4560547
837907527402661	0.89289856	11.36528	2.371231
837907535794995	0.40330505	11.619873	1.8473511
837907544187329	-0.09602356	11.798309	0.9714508
837907552579663	-0.57263184	11.713989	0.22343445
837907560971997	-1.1056366	11.591232	-0.3620758
837907569364331	-1.5930786	11.6614685	-0.88313293
837907577756665	-1.612915	11.879044	-1.3335114
837907586148999	-1.4230499	12.132507	-1.4816284
837907594541333	-1.6487732	12.567947	0.06640625
837907602933667	-1.8957825	12.978317	1.9299927
837907611326001	-2.0208282	13.3715515	3.1793976
837907619718335	-2.0055084	13.8029175	3.3376617
837907628110669	-1.9096527	14.239548	2.7167969
837907636503003	-1.8082733	14.330002	2.450409
837907644895337	-2.2674103	14.053207	2.5381317
837907653287671	-2.5265198	13.392349	1.8184814
837907661680005	-1.9704285	12.719666	0.9179535
837907670072339	-0.46618652	12.295273	0.93437195
837907678464673	1.1689758	11.696259	2.1732025
837907686857007	2.270584	11.379974	2.5825043
837907695249341	3.3852081	10.980331	2.156189
837907703641675	3.9229736	10.785492	1.885437
837907712034009	3.8631134	10.776566	2.0282288
837907720426343	3.3562775	10.928055	2.5789337
837907728818677	2.5104828	11.472183	3.673996
837907737211011	2.2881927	11.946136	4.726654
837907745603345	2.8019714	12.603821	5.511627
837907753995679	3.3875427	13.272614	5.707794
837907762388013	3.6492615	13.618317	5.0030518
837907770780347	3.4534607	13.344727	3.2803345
837907779172681	2.9320374	12.507248	0.9552765
837907787565015	2.4973297	11.919998	-1.2879791
837907795957349	2.2619934	11.5026245	-2.993332
837907804349683	2.1887817	11.064438	-4.221344
837907812742017	2.371048	10.495621	-4.810486
837907821134351	3.0356445	9.495514	-4.921585
837907829526685	4.621994	7.0921783	-5.881302
837907837919019	5.6736755	4.5216827	-8.016678
837907846311353	1.7693481	7.6776123	0.66000366
837907854703687	-0.48425293	8.788528	5.0191956
837907863096021	-0.18461609	6.929718	3.6014557
837907871488355	0.18658447	5.305435	2.3596344
837907879880689	0.28579712	4.8903656	0.37641907
837907888273022	-1.4313354	5.284561	-0.4752655
837907896665356	-2.0865173	5.728409	-0.21824646
837907905057690	-1.5587311	5.970993	0.5577545
837907913450024	-0.6134033	6.1477814	0.90400696
837907921842358	-0.06843567	6.3605347	0.2798767
837907930234692	0.45043945	5.92218	-0.41693115
837907938627026	1.3112335	5.4902496	-1.3655243
837907947019360	1.9478912	4.843216	-2.4926605
837907955411694	2.2907104	3.7458649	-3.5424347
837907963804028	2.3600006	2.502655	-3.7767334
837907972196362	2.3403015	1.7707062	-2.8454285
837907980588696	2.7490692	2.276184	-2.3539124
837907988981030	1.8258209	2.9952545	-2.1665344
837907997373364	1.4556122	3.5732574	-2.115219
837908005765698	1.1788788	3.8733826	-2.5230255
837908014158032	0.70492554	3.8601074	-3.2264404
837908022550366	0.13771057	3.6621704	-3.7252502
837908030942700	0.36720276	3.8408966	-3.312973
837908039335034	1.3790741	4.413025	-3.795395
837908047727368	2.067154	5.3503723	-4.3752136
837908056119702	2.0719147	6.4988556	-4.6191254
837908064512036	1.7326813	7.6768646	-4.5989685
837908072904370	1.4898834	8.749069	-4.625534
837908081296704	0.23963928	9.744202	-4.582016
837908089689038	-1.1687012	11.725128	-4.300583
837908098081372	-1.1891022	12.051758	-4.994812
837908106473706	0.024993896	11.196671	-6.771332
837908114866040	2.2565918	10.6375885	-9.036148
837908123258374	5.27565	11.571213	-10.594986
837908131650708	8.449524	12.039398	-9.386261
837908140043042	8.046982	11.445267	-2.1459808
837908148435376	6.578842	12.730347	-0.50424194
837908156827710	4.972519	13.240723	-3.7024078
837908165220044	3.7793121	12.077408	-7.1508484
837908173612378	3.2346802	10.324387	-6.3988953
837908182004712	3.262497	9.492401	-5.871063
837908190397046	2.9690247	9.553192	-6.339081
837908198789380	2.6561584	9.855072	-6.5645447
837908207181714	2.8085022	9.633545	-6.523529
837908215574048	3.6154022	9.341385	-6.2761993
837908223966382	4.7762146	9.930817	-5.7628326
837908232358716	4.7448273	9.413513	-4.266571
837908240751050	6.061447	9.463425	-1.5577393
837908249143384	6.459137	9.407547	-0.018875122
837908257535718	6.403305	9.162308	1.44133
837908265928052	5.5888824	8.991974	2.7915192
837908274320386	3.1983795	9.146423	2.8966827
837908282712720	0.8639221	8.250504	1.9187775
837908291105054	0.9841919	6.462097	0.69039917
837908299497388	0.84365845	6.235382	-1.5236816
837908307889722	1.6518402	7.78804	-5.2878876
837908316282056	3.4957733	9.99556	-9.168259
837908324674390	4.8510895	11.152222	-10.279755
837908333066724	3.922882	11.439362	-7.5369873
837908341459058	1.3334656	12.179291	-3.855957
837908349851392	0.10960388	12.310303	-0.052246094
837908358243726	-0.74894714	11.861862	2.4977722
837908366636060	-1.5322876	10.951218	3.3862762
837908375028394	-1.3728638	9.662186	3.2110138
837908383420728	-0.816391	8.59288	1.3750153
837908391813062	-0.23843384	7.917267	-1.4594269
837908400205396	0.19441223	8.002975	-3.561386
837908408597730	0.61177063	8.098206	-4.4470367
837908416990064	1.3688202	7.6678314	-4.6189423
837908425382397	2.8385773	6.823227	-5.061203
837908433774731	4.335861	7.117813	-3.48497
837908442167065	4.0088196	8.333496	-0.6920624
837908450559399	3.7584534	8.147827	0.9537964
837908458951733	3.9726715	6.841522	1.1485138
837908467344067	4.2744446	5.195709	0.055648804
837908475736401	3.9039154	3.8152313	-1.9330139
837908484128735	3.250885	2.3934937	-2.8622131
837908492521069	3.0517883	2.1354218	-1.232193
837908500913403	2.6891174	3.3642426	0.8621826
837908509305737	2.6818085	4.780426	2.56073
837908517698071	2.815216	5.822876	3.2290802
837908526090405	1.9756317	7.159012	2.45784
837908534482739	1.2617645	8.191925	1.501709
837908542875073	1.8171844	8.190659	1.5196686
837908551267407	2.3517456	8.689346	1.1370239
837908559659741	2.4308624	9.369766	0.82354736
837908568052075	2.0120392	9.766861	1.2014313
837908576444409	1.3423004	9.80423	2.3701477
837908584836743	1.102356	9.522797	2.1119843
837908593229077	1.1860657	8.999298	0.81840515
837908601621411	1.4628754	8.452805	-0.5138855
837908610013745	1.8085785	7.967514	-1.5227051
837908618406079	2.2055664	7.6207733	-2.1154633
837908626798413	2.757019	7.5254974	-2.328888
837908635190747	3.208908	8.252579	-1.2433319
837908643583081	3.9366455	8.31134	0.5305023
837908651975415	4.140503	7.9567566	2.0276794
837908660367749	4.0143433	7.7141876	2.426056
837908668760083	3.8777466	7.7508087	1.6660461
837908677152417	3.850418	7.613022	0.6655884
837908685544751	4.4994507	6.7964783	-0.066223145
837908693937085	4.762558	6.239151	-0.014755249
837908702329419	4.6388702	6.0330048	0.85035706
837908710721753	4.2019806	6.519455	1.6622009
837908719114087	3.568863	7.7183533	1.9353027
837908727506421	2.7632294	9.191116	2.3319092
837908735898755	2.1002502	9.919495	1.1050568
837908744291089	1.4744873	11.197922	0.77793884
837908752683423	0.81837463	12.692261	1.1620941
837908761075757	0.27990723	14.18454	1.4595337
837908769468091	-0.003768921	15.639648	1.2019958
837908777860425	-0.030548096	17.175812	0.7108002
837908786252759	0.7752991	17.681992	1.9995422
837908794645093	2.276657	15.695221	3.3384247
837908803037427	3.4913177	14.196091	3.5439148
837908811429761	3.7304382	13.767975	3.011032
837908819822095	2.9049225	14.015549	2.4682465
837908828214429	1.750351	14.305832	2.2388153
837908836606763	0.6509552	13.866486	2.8684998
837908844999097	0.22453308	15.051804	2.5641937
837908853391431	0.40074158	15.1063385	2.4403992
837908861783765	1.0231781	13.493011	2.4280396
837908870176099	1.9490204	10.996109	2.3793945
837908878568433	3.2014313	9.070999	2.9678955
837908886960767	4.0503693	8.158005	3.2591095
837908895353101	4.9216614	7.704468	3.3983917
837908903745435	5.619919	7.6257935	3.2808533
837908912137769	6.197052	7.7751007	2.926361
837908920530103	6.5782166	7.848572	2.4997406
837908928922437	6.2413483	7.3697357	2.2706146
837908937314771	5.963745	9.104263	2.2946625
837908945707105	6.031494	10.313797	1.1717224
837908954099439	5.6727448	10.443359	-0.29293823
837908962491772	5.418167	10.5494995	-1.2425232
837908970884106	5.7569885	11.12027	-1.6555481
837908979276440	5.9324646	10.060455	-3.172989
837908987668774	5.375366	8.503723	-3.334732
837908996061108	4.23497	7.2859344	-2.9839325
837909004453442	3.1788177	6.567688	-2.4335632
837909012845776	2.547989	6.1617584	-1.826477
837909021238110	2.4621277	6.235321	-1.2557831
837909029630444	2.7500153	8.031189	-0.8601837
837909038022778	2.6213226	11.279419	-0.032974243
837909046415112	2.546997	14.095688	0.2150116
837909054807446	3.3243408	14.185028	-0.1335907
837909063199780	3.991333	11.337555	-0.15600586
837909071592114	3.5408478	7.3622284	0.7975311
837909079984448	3.3817902	4.8225403	1.5261383
837909088376782	4.0509644	3.7937317	1.4724731
837909096769116	4.5667267	3.7275543	0.8913574
837909105161450	4.6195984	3.940979	0.08995056
837909113553784	4.050461	4.3872375	-1.2162933
837909121946118	2.961914	4.9581146	-3.1561432
837909130338452	1.7574921	4.261902	-4.5740356
837909138730786	0.9133606	3.4730988	-5.503479
837909147123120	0.7565155	3.0164795	-5.1018066
837909155515454	1.2146606	3.0542908	-4.077118
837909163907788	2.0359344	3.4841614	-2.9136963
837909172300122	2.840866	3.9898224	-1.9477692
837909180692456	3.0801544	4.004776	-1.6705933
837909189084790	2.2397766	2.9088287	-2.161789
837909197477124	0.7525177	2.2071228	-2.9278107
837909205869458	0.09631348	2.5080566	-3.7414398
837909214261792	0.604599	3.547882	-4.4512024
837909222654126	1.5940399	4.561157	-4.9468994
837909231046460	1.1799774	4.416397	-5.080536
837909239438794	1.7200012	4.8250732	-4.752365
837909247831128	2.7156982	5.370285	-4.7170715
837909256223462	3.3379974	5.983734	-4.42688
837909264615796	3.6205444	6.3824463	-3.9915771
837909273008130	4.038666	6.356735	-3.8959503
837909281400464	4.05661	6.367691	-4.040512
837909289792798	4.1701508	7.72258	-4.3734894
837909298185132	4.636215	9.326752	-5.1779175
837909306577466	5.163742	11.458298	-5.912216
837909314969800	5.2306824	14.10321	-6.326935
837909323362134	4.480606	16.788376	-6.4667206
837909331754468	3.3275604	18.145203	-6.302704
837909340146802	4.483078	16.872452	-6.1256104
837909348539136	4.563736	14.972992	-5.5367584
837909356931470	3.3525848	12.323761	-5.659851
837909365323804	1.5592041	9.31456	-6.202072
837909373716138	0.2631073	6.94693	-6.2417603
837909382108472	0.5225525	6.9727783	-7.3679657
837909390500806	1.4442596	8.518387	-7.684662
837909398904672	2.8529358	9.398041	-7.2418976
837909407297006	3.2608643	10.147476	-5.8825684
837909415689340	3.0155945	10.983459	-3.9794922
837909424081674	4.0640564	11.38269	-2.2974243
837909432474008	7.050583	10.033112	-1.0686951
837909440866342	8.5125885	8.169647	0.027359009
837909449258676	9.485947	6.546097	-0.5074463
837909457651010	9.629303	5.633499	-1.1372833
837909466043344	8.105209	6.6933746	0.4349823
837909474435678	4.839386	9.923721	4.585495
837909482828012	4.1138	7.8458405	2.9228058
837909491220346	3.347107	5.881729	-2.5148163
837909499612679	2.7001648	4.6022644	-7.650589
837909508005013	1.9346619	4.385025	-9.284592
837909516397347	1.2494049	5.198639	-7.712723
837909524789681	1.0942078	6.6889954	-5.677231
837909533182015	0.8559265	8.307159	-3.0271454
837909541574349	0.37945557	10.883484	1.1660004
837909549966683	0.7207489	12.233261	6.2280884
837909558359017	1.194107	12.526276	10.179047
837909566751351	0.97706604	12.481812	10.840363
837909575143685	-0.43208313	12.73465	6.2732697
837909583536019	-1.8049164	12.324356	-1.5299988
837909591928353	-2.7224426	11.188965	-4.9774475
837909600320687	-2.4737244	9.217087	-4.59758
837909608713021	-1.2524261	7.2621613	-2.2290344
837909617105355	0.38331604	6.148819	0.23458862
837909625497689	1.7467346	6.125458	1.5246735
837909633890023	2.3832092	6.5925446	1.004715
837909642282357	2.6025696	7.070526	-0.40403748
837909650674691	2.6782837	7.4903564	-1.3025208
837909659067025	2.6909637	7.7034454	-2.0093842
837909667459359	2.5104675	7.7940216	-2.7895508
837909675851693	1.9651489	8.04303	-3.2960052
837909684244027	2.2183838	8.366058	-1.6937866
837909692636361	2.4154205	7.8742065	-0.3366089
837909701028695	2.2255402	7.346588	0.569397
837909709421029	1.8986664	7.0410614	0.97314453
837909717813363	1.7950897	6.859955	0.8777313
837909726205697	2.138794	6.554535	0.3634491
837909734598031	2.1178436	7.0590057	0.020477295
837909742990365	2.4750977	7.0809326	-0.38838196
837909751382699	1.7703705	7.3296814	-0.5045471
837909759775033	0.9924469	7.589035	-0.47581482
837909768167367	0.8867798	7.6147766	-0.47573853
837909776559701	1.1334229	7.442856	-0.51000977
837909784952035	1.9011078	7.419937	-0.38638306
837909793344369	2.596695	7.488617	-0.09817505
837909801736703	2.8118286	7.5958405	0.022857666
837909810129037	2.766159	7.4628296	-0.21542358
837909818521371	2.7417145	7.0003357	-0.71902466
837909826913705	2.8126373	6.50531	-1.0517273
837909835306039	2.9831238	6.351776	-0.54525757
837909843698373	3.2974548	5.9938507	-0.080825806
837909852090707	3.4124603	5.8026276	0.46176147
837909860483041	3.145813	5.9975433	1.2434998
837909868875375	2.530075	6.741043	2.139389
837909877267709	1.7559357	8.187134	2.6975403
837909885660043	0.6033783	10.692657	2.6068115
837909894052377	0.40571594	12.7495575	1.9716034
837909902444711	1.0950317	14.161545	0.83195496
837909910837045	2.2658844	15.219589	-0.17849731
837909919229379	3.5016632	15.879456	-0.42918396
837909927621713	4.642044	15.236511	0.3870697
837909936014047	3.1530151	13.123245	2.1087036
837909944406381	-0.03262329	11.859421	1.9201965
837909952798715	-2.3519287	11.084793	0.05970764
837909961191049	-3.1796722	10.837738	-1.8783722
837909969583383	-2.8225403	11.123535	-2.3378906
837909977975717	-1.9937592	11.65506	-0.847641
837909986368051	-1.3975525	12.352951	0.96591187
837909994760385	-0.40968323	13.529373	2.3894806
837910003152719	0.5688629	14.735138	2.7290955
837910011545053	1.227478	15.498367	2.1568298
837910019937387	1.381607	15.371506	1.3155975
837910028329721	1.0774841	14.152756	0.9482269
837910036722054	0.7424774	13.058029	0.8894043
837910045114388	0.5335541	12.044098	0.91773987
837910053506722	0.4981537	11.053604	1.0553284
837910061899056	1.339859	10.030563	1.3910675
837910070291390	2.7237396	9.282852	1.940033
837910078683724	2.5631256	9.587845	2.5881653
837910087076058	3.7336273	9.135193	3.2272644
837910095468392	5.3945313	8.918228	3.2562103
837910103860726	5.521866	10.234131	3.3254395
837910112253060	4.8172913	11.801804	3.1656036
837910120645394	4.7287445	12.339615	2.5189667
837910129037728	5.816101	12.578415	1.798523
837910137430062	6.9730225	13.213013	0.9432831
837910145822396	7.421356	13.341522	-0.72406006
837910154214730	7.557953	12.919403	-2.3815155
837910162607064	7.1677704	12.102875	-3.4527435
837910170999398	6.0809937	11.169479	-3.432022
837910179391732	4.8471985	10.417465	-1.8858643
837910187784066	3.8691864	9.661743	-1.3507538
837910196176400	3.3345795	8.971939	-1.4325104
837910204568734	2.9041138	8.383072	-1.4941559
837910212961068	2.1012726	7.9283295	-1.2489166
837910221353402	0.9316101	7.6399384	-0.85943604
837910229745736	0.3244934	7.570404	-0.90937805
837910238138070	-0.28578186	7.754471	-0.81259155
837910246530404	-0.28990173	7.421295	-0.45648193
837910254922738	-0.20228577	6.7175903	0.2922516
837910263315072	0.28649902	5.7712555	0.73205566
837910271707406	1.240097	4.779419	0.47732544
837910280099740	1.4564972	4.1497955	0.45088196
837910288492074	0.9778595	4.1549683	0.3065033
837910296884408	0.53334045	4.2464905	-0.14588928
837910305276742	0.45614624	4.2634277	-0.86499023
837910313669076	0.80693054	4.235916	-1.3886108
837910322061410	1.421051	4.2836304	-1.5981445
837910330453744	2.059143	4.505951	-2.6828918
837910338846078	2.9210663	4.6772614	-3.1987457
837910347238412	3.3504333	4.544815	-3.066803
837910355630746	3.4895935	4.5751953	-2.897583
837910364023080	3.876999	4.8805237	-2.3270264
837910372415414	4.671341	5.134262	-1.1028442
837910380807748	4.5307617	4.548477	-0.8197174
837910389200082	1.8807068	4.609787	-2.6540527
837910397592416	0.9342346	4.2524414	-3.730835
837910405984750	1.321579	3.722824	-4.605118
837910414377084	2.0476074	3.39003	-4.9999084
837910422769418	2.441269	3.5209808	-4.434265
837910431161752	3.255951	4.106537	-3.360077
837910439554086	3.2207947	4.622345	-3.5947876
837910447946420	2.2924194	5.487747	-4.4340363
837910456338754	-0.4042511	6.59964	-4.6550903
837910464731088	-2.422989	7.556183	-4.6164246
837910473123422	-1.2129059	8.132675	-5.074936
837910481515756	1.3923187	8.952225	-5.24144
837910489908090	2.5578156	10.76976	-5.3390045
837910498300424	2.890564	13.085205	-6.2273254
837910506692758	3.2216644	15.222641	-7.403717
837910515085092	3.6647797	16.535812	-8.188751
837910523477426	3.8880463	16.473267	-8.157013
837910531869760	3.964569	14.371933	-7.8309784
837910540262094	2.8141327	14.400101	-8.6779175
837910548654428	2.447586	14.637772	-8.134613
837910557046762	3.6744232	12.505875	-6.02829
837910565439096	5.1475525	8.670654	-3.7602081
837910573831429	4.93721	6.0267334	-3.1262665
837910582223763	4.7022095	6.1784973	-3.6002045
837910590616097	4.5912933	7.063278	-5.156006
837910599008431	3.011383	9.46283	-6.781204
837910607400765	1.8685303	12.049683	-7.305603
837910615793099	2.094635	13.825989	-6.107437
837910624185433	3.2308044	14.435379	-3.7006989
837910632577767	4.3554993	13.626038	-2.290924
837910640970101	4.8628387	10.511429	-1.6323547
837910649362435	4.6539154	6.665909	-1.96875
837910657754769	5.4590607	2.3721619	-0.058624268
837910666147103	5.88443	-0.84124756	3.1769867
837910674539437	3.6682587	-1.0810242	4.1591034
837910682931771	4.5956726	2.0023956	4.0726166
837910691324105	3.9109955	8.490616	-1.5747681
837910699716439	0.7834015	11.969681	-8.175858
837910708108773	-4.9936676	10.6302185	-9.137772
837910716501107	-7.8930664	8.542709	-4.9687653
837910724893441	-1.076294	12.450928	-1.8990326
837910733285775	-0.007247925	15.477463	3.668808
837910741678109	1.1187286	15.767471	5.6775208
837910750070443	0.9822235	14.956207	4.0145264
837910758462777	0.04460144	13.46019	0.06611633
837910766855111	-0.76734924	11.322708	-3.1873322
837910775247445	-0.8869629	8.665009	-3.0143585
837910783639779	-1.8847046	6.922592	-2.109085
837910792032113	-3.3585815	8.951843	-1.4382324
837910800424447	-2.8595428	11.4175415	-0.6447754
837910808816781	-1.1944885	12.110443	-0.2610321
837910817209115	0.42842102	10.666336	-0.65019226
837910825601449	1.4594269	8.660278	-1.54245
837910833993783	3.2414856	6.889206	-1.6124573
837910842386117	4.338669	5.8796387	-1.3624573
837910850778451	4.1503296	5.7469025	-0.9065094
837910859170785	3.5490723	6.026016	-0.7182312
837910867563119	3.2131958	6.312683	-0.8551483
837910875955453	3.1182098	6.4753113	-0.7965698
837910884347787	2.3445435	6.6996307	0.13961792
837910892740121	0.04269409	6.9082336	0.35673523
837910901132455	-0.66719055	6.9521637	0.42778015
837910909524789	-0.4412079	7.1445465	0.27488708
837910917917123	-0.18055725	7.48584	-0.08143616
837910926309457	-0.01965332	7.5427094	-0.33067322
837910934701791	0.394104	7.481888	0.05317688
837910943094125	1.0935822	7.431595	-0.1013031
837910951486459	1.315445	7.753662	-0.095184326
837910959878793	1.0604095	8.193787	0.29351807
837910968271127	0.60395813	8.449341	0.6112671
837910976663461	0.26097107	8.488388	0.037872314
837910985055795	-0.062210083	8.94783	-0.40698242
837910993448129	-0.2159729	9.370483	-0.5578003
837911001840463	-0.45025635	9.503326	-0.52545166
837911010232797	-0.49783325	9.22583	-0.29934692
837911018625131	-0.256958	8.607498	-0.030151367
837911027017465	0.08572388	7.87648	-3.8146973E-4
837911035409799	0.68162537	7.8448944	-0.2631836
837911043802133	0.86331177	8.551315	-0.34094238
837911052194467	0.7623291	9.798798	0.07197571
837911060586801	0.71972656	10.76062	0.5709076
837911068979135	0.817749	10.87616	0.7236328
837911077371469	0.6759491	10.348846	0.42112732
837911085763803	0.48094177	9.410812	-0.24890137
837911094156137	0.9439087	8.315704	0.0914917
837911102548471	1.7979431	8.044769	1.0135803
837911110940804	2.5820618	8.625	1.5929718
837911119333138	2.736496	9.424515	1.0690155
837911127725472	1.7898254	9.468414	-0.5462494
837911136117806	1.0849304	10.54332	0.3538971
837911144510140	0.33738708	11.500504	0.34205627
837911152902474	-0.29248047	12.019775	-0.7557068
837911161294808	-0.5477905	12.330475	-1.6660004
837911169687142	-0.41812134	12.649353	-1.4931946
837911178079476	-0.18995667	12.899765	-0.546875
837911186471810	0.016784668	12.929581	0.64494324
837911194864144	0.21066284	13.417587	0.9503784
837911203256478	0.46533203	13.951019	0.644577
837911211648812	0.2788849	14.19812	0.50608826
837911220041146	-0.41583252	13.988251	0.7675171
837911228433480	-0.79867554	13.450623	0.630249
837911236825814	-1.1028442	13.17131	0.4105835
837911245218148	-1.0740204	12.878006	0.20114136
837911253610482	-0.6042175	12.225479	0.10920715
837911262002816	0.16569519	11.143082	0.45765686
837911270395150	1.0612946	10.075623	1.3846588
837911278787484	1.996521	10.049301	2.6045685
837911287179818	2.609497	10.157013	3.6983337
837911295572152	2.2935333	9.36618	3.7794952
837911303964486	2.1403198	8.891586	3.1068573
837911312356820	3.1025238	9.129395	1.6067963
837911320749154	5.1354065	10.024063	-0.2697296
837911329141488	6.5788116	11.184906	-1.1155243
837911337533822	6.6640167	11.095795	-2.4824982
837911345926156	5.358383	12.198334	-2.6212006
837911354318490	4.1622467	13.514603	-2.055893
837911362710824	3.4080505	14.161026	-1.3273315
837911371103158	3.0134888	13.861038	-0.83955383
837911379495492	2.9639893	13.33522	-0.70903015
837911387887826	2.879486	13.27359	-0.58380127
837911396280160	2.6737976	12.78302	0.05014038
837911404672494	3.3603668	11.304764	0.48286438
837911413064828	4.327194	9.57756	0.8715668
837911421457162	4.445114	8.293976	1.4599609
837911429849496	3.0048828	6.9858856	1.9463654
837911438241830	1.7852325	5.674774	1.8787689
837911446634164	1.1802521	4.76651	1.2631378
837911455026498	0.7284088	4.2406006	0.5038452
837911463418832	0.14312744	4.1074524	-0.27833557
837911471811166	-0.64489746	4.3205566	-1.039505
837911480203500	-1.4237213	4.7049255	-1.6117706
837911488595834	-1.8996124	5.120102	-1.1525269
837911496988168	-2.7285767	5.763855	-0.15939331
837911505380502	-2.594513	6.4456024	0.034225464
837911513772836	-1.1654205	6.741913	0.034851074
837911522165170	1.0512543	6.354767	0.52963257
837911530557504	2.787796	5.4929504	0.37257385
837911538949838	3.6219177	4.6651917	-1.8089905
837911547342172	3.7627106	4.063446	-3.8614502
837911555734506	3.4578247	3.640152	-4.748703
837911564126840	3.0792542	3.3922272	-4.3035736
837911572519174	2.868042	3.3130188	-3.0598755
837911580911508	2.6197815	3.3399353	-2.0728455
837911589303842	2.0858154	3.343338	-1.8443298
837911597696176	1.9781342	3.2887573	-2.187851
837911606088510	2.0399017	3.2514648	-2.93161
837911614480844	2.2064514	3.283844	-3.8525238
837911622873178	2.4405823	3.4149017	-4.6615906
837911631265512	2.5587463	3.6502075	-5.050705
837911639657846	2.3898468	4.0963745	-4.622116
837911648050179	2.042282	4.8298035	-4.1905823
837911656442513	1.5714111	6.0831604	-3.9879608
837911664834847	1.0714874	7.9804993	-4.0941925
837911673227181	0.64105225	10.514252	-4.4641113
837911681619515	0.32495117	13.458496	-4.9680634
837911690011849	0.675354	16.283203	-5.982498
837911698404183	1.3912506	18.988815	-7.7747955
837911706796517	2.6134644	20.369186	-9.339371
837911715188851	3.658722	19.85875	-9.736938
837911723581185	3.6786957	17.585022	-8.670456
837911731973519	2.9630585	14.540924	-7.4608307
837911740365853	3.0575104	11.532547	-6.2100983
837911748758187	2.8503723	9.0191345	-5.042557
837911757150521	2.4972687	7.23378	-4.3838654
837911765542855	2.268692	6.402817	-4.4533844
837911773935189	2.3407288	6.7965546	-5.1871643
837911782327523	2.413086	8.574753	-6.080597
837911790719857	2.8718872	10.7827	-6.06929
837911799112191	3.5522003	12.370682	-4.4425964
837911807504525	4.0504303	13.493744	-2.2572632
837911815896859	4.6959076	13.472748	-0.592041
837911824289193	5.846405	11.343323	0.035980225
837911832681527	6.085129	7.3139343	1.394165
837911841073861	4.0681	4.7418213	2.012619
837911849466195	2.8399353	4.0466766	2.626709
837911857858529	2.3499603	4.474457	2.3103333
837911866250863	2.4779205	5.267334	0.8996887
837911874643197	3.0854034	5.988632	-1.4851532
837911883035531	3.8869934	7.174057	-5.6934967
837911891427865	2.6271362	8.9006195	-7.425888
837911899820199	1.2129211	10.083618	-7.307205
837911908212533	0.13087463	10.317856	-5.907791
837911916604867	-1.1020813	9.915009	-3.6698914
837911924997201	-3.053238	9.673126	-0.97016907
837911933389535	-4.611847	10.493195	1.6212158
837911941781869	-2.9544067	11.956253	4.2097015
837911950174203	-1.105896	12.063187	6.2120667
837911958566537	-0.6468506	11.128937	6.354553
837911966958871	-1.5359039	10.067062	4.717453
837911975351205	-2.6956024	9.663727	2.4279022
837911983743539	-3.0884247	9.419464	1.053009
837911992135873	-2.4595184	8.749237	0.25532532
837912000528207	-1.9979248	8.597946	-1.7917633
837912008920541	-1.332962	8.461807	-5.0448914
837912017312875	-0.13145447	8.046738	-7.5609436
837912025705209	1.427002	7.456833	-7.0744324
837912034097543	1.5745544	7.3850403	-4.697571
837912042489877	1.2013397	7.6631775	-2.2649384
837912050882211	1.0682526	7.9262085	-0.1689148
837912059274545	1.3771057	8.007156	1.2404633
837912067666879	1.786377	7.878296	1.81073
837912076059213	1.7550354	7.649475	1.7001038
837912084451547	1.3832397	7.6576233	1.7856598
837912092843881	1.5407715	7.7211	1.7406921
837912101236215	1.9743805	7.806244	1.3364105
837912109628549	2.3443604	7.887985	0.5076752
837912118020883	2.0621643	7.9873657	-0.568985
837912126413217	0.7834778	8.1129	-1.4778748
837912134805551	-0.047027588	8.036133	-1.4170685
837912143197885	-0.3369751	7.943695	-0.7475586
837912151590219	-0.7291565	8.029999	-0.12710571
837912159982553	-1.0316925	8.131317	0.2760315
837912168374887	-1.1872406	8.201447	0.41233826
837912176767221	-1.3034668	8.305801	0.3171234
837912185159554	-1.305481	8.358276	0.10519409
837912193551888	-1.0908966	8.127182	-0.06437683
837912201944222	-0.9220123	7.7497864	-0.5610657
837912210336556	-0.7217865	7.3582	-0.98617554
837912218728890	-0.4908905	7.1670837	-0.9052429
837912227121224	-0.3205719	7.3726044	-0.14186096
837912235513558	-0.19528198	7.825897	0.5457001
837912243905892	0.13433838	8.494339	0.9095154
837912252298226	0.62828064	9.326828	0.8216095
837912260690560	1.1687622	10.235321	0.48025513
837912269082894	1.5568085	11.041809	0.069885254
837912277475228	1.6268463	11.550461	-0.2772827
837912285867562	1.737503	11.846573	-0.24339294
837912294259896	0.89268494	12.02449	0.46122742
837912302652230	-0.111968994	11.98851	1.6191864
837912311044564	-1.2150879	11.866074	2.2786407
837912319436898	-2.387497	11.722565	1.7947693
837912327829232	-3.4887848	11.575363	0.15963745
837912336221566	-4.0802307	11.880524	-1.5619965
837912344613900	-4.3076935	12.206039	-2.2209167
837912353006234	-4.6979065	12.321655	-1.7106781
837912361398568	-4.7869873	12.407898	-0.5823059
837912369790902	-4.3239594	12.71608	0.56036377
837912378183236	-3.58284	13.438232	1.3093872
837912386575570	-3.5589752	14.513763	1.5807343
837912394967904	-2.8855438	14.955246	0.9295349
837912403360238	-2.9570313	15.056	0.71154785
837912411752572	-3.5106506	14.765717	0.99993896
837912420144906	-3.8682556	14.066071	1.3054504
837912428537240	-3.3820953	13.057922	0.995636
837912436929574	-2.238449	11.910324	1.1710358
837912445321908	-1.3489532	10.686203	1.9590607
837912453714242	-0.40196228	9.93956	2.566513
837912462106576	0.5363312	9.543076	2.8436127
837912470498910	1.383728	9.410431	2.9778137
837912478891244	2.1150513	9.655182	3.3359985
837912487283578	2.3426666	9.987183	3.6978302
837912495675912	2.4214783	10.218536	3.8592072
837912504068246	2.404007	10.70784	4.1981964
837912512460580	2.4259186	11.434769	4.6909637
837912520852914	2.6276703	12.288712	5.140503
837912529245248	3.1771393	13.135513	5.2887726
837912537637582	5.1492615	13.261749	5.125763
837912546029916	7.3709564	12.562759	4.134201
837912554422250	7.2019806	11.957855	2.7065277
837912562814584	4.996475	11.788986	1.3744507
837912571206918	2.3143463	11.782974	0.3317871
837912579599252	1.0231323	11.107254	-0.7566223
837912587991586	1.1990662	10.045639	-1.7645569
837912596383920	2.2311707	8.417892	-2.4886932
837912604776254	2.7767944	7.015274	-2.622818
837912613168588	2.5981598	5.997986	-2.3457031
837912621560922	1.8477325	5.364273	-2.0276337
837912629953256	0.7787018	5.136551	-2.0350342
837912638345590	0.09779358	5.1186676	-2.0738068
837912646737924	-0.29589844	5.2204895	-1.9476929
837912655130258	-0.8174286	5.969574	-1.4787598
837912663522592	-2.097046	7.1566925	-0.31025696
837912671914926	-3.6035614	8.171829	1.4786682
837912680307260	-3.026657	8.213791	3.034195
837912688699594	-1.2519989	7.167938	3.2395782
837912697091928	0.84599304	5.9459076	1.7434845
837912705484262	2.446701	4.9614563	-0.33563232
837912713876596	3.4331207	4.1640015	-2.5193481
837912722268929	3.7220306	3.4667358	-4.326523
837912730661263	2.9228973	2.994461	-5.002945
837912739053597	1.8587189	2.7084045	-4.4425507
837912747445931	1.4900208	2.3649292	-3.2291412
837912755838265	1.6057739	2.0959625	-2.136444
837912764230599	1.8449707	2.0347595	-1.687088
837912772622933	1.956192	2.22081	-2.0082092
837912781015267	2.0404205	2.5675201	-2.8765259
837912789407601	2.4205017	2.9004517	-3.8468628
837912797799935	2.4109497	3.2795105	-4.560074
837912806192269	2.5761719	3.69516	-4.8462524
837912814584603	2.7566528	4.2189026	-4.6897125
837912822976937	2.7047577	4.9902344	-4.219803
837912831369271	2.6068115	6.3244476	-3.7282562
837912839761605	2.471222	8.172897	-3.5069122
837912848153939	2.093628	10.507919	-3.7194214
837912856546273	1.7615814	13.060501	-4.36409
837912864938607	1.5438995	15.661713	-5.6531982
837912873330941	1.4141998	18.148453	-7.7216034
837912881723275	1.3755035	20.219315	-10.480026
837912890115609	1.7354126	19.57225	-11.898743
837912898507943	1.9501648	17.03888	-10.63916
837912906900277	1.8140411	14.09053	-8.810272
837912915292611	1.610672	11.367996	-7.1779785
837912923684945	1.615509	9.031998	-5.9013367
837912932077279	1.5696411	7.096817	-5.2742157
837912940469613	0.9576416	5.6129456	-5.3972015
837912948861947	0.5879669	4.3069916	-4.902527
837912957254281	0.62960815	3.8452759	-4.383423
837912965646615	1.2624207	4.9561615	-4.526291
837912974038949	2.6203003	7.7369843	-5.389084
837912982431283	4.6763916	10.703964	-5.585312
837912990823617	5.719589	12.809784	-3.4150543
837912999215951	6.6462097	14.3719635	-0.5231476
837913007608285	7.3968353	14.801392	1.5357971
837913016000619	7.1875916	13.658585	2.169281
837913024392953	5.462967	11.018585	1.6588898
837913032785287	3.0508728	7.966812	0.9132538
837913041177621	0.6539459	6.6733856	0.6365967
837913049569955	0.03727722	5.758896	0.14485168
837913057962289	1.2433167	5.090744	-0.38432312
837913066354623	3.222824	4.9735107	-1.8793945
837913074746957	4.519638	5.8245087	-4.9225006
837913083139291	4.097473	7.7797394	-7.3246765
837913091531625	2.1691437	9.370987	-7.962265
837913099923959	1.1103058	9.235077	-6.146759
837913108316293	-0.56088257	8.811707	-2.1798859
837913116708627	-2.7993622	8.760529	2.4198303
837913125100961	-4.3343506	9.252945	5.873398
837913133493295	-4.0472107	11.104385	8.71785
837913141885629	-1.9753876	14.008652	9.913345
837913150277963	-1.2364502	13.923096	7.510666
837913158670297	-1.5120544	12.533005	3.739975
837913167062631	-1.7357025	11.166672	0.8278198
837913175454965	-1.2161865	10.118179	-0.626297
837913183847299	-1.2661285	8.883377	-3.5551453
837913192239633	-0.91682434	7.990036	-7.6600647
837913200631967	0.095718384	7.4506073	-9.294052
837913209024301	1.2032776	7.284912	-8.177765
837913217416635	1.878067	7.4384003	-5.0476837
837913225808969	1.9002228	7.773224	-1.1073151
837913234201303	1.8263245	8.01416	2.4024506
837913242593637	1.7235413	7.691391	4.4275665
837913250985971	1.0849915	7.4249268	4.270569
837913259378304	0.55244446	7.251343	2.843567
837913267770638	0.6335907	7.1380615	0.98765564
837913276162972	1.3466034	7.0346527	-0.68663025
837913284555306	1.8570709	6.9509125	-2.1522064
837913292947640	1.0236359	7.087311	-2.5652466
837913301339974	0.20098877	7.3262787	-1.897232
837913309732308	-0.5268097	7.5235596	-0.90245056
837913318124642	-1.1006165	7.6123657	0.021362305
837913326516976	-1.4403381	7.621826	0.9069824
837913334909310	-1.6586914	7.550354	1.3486176
837913343301644	-2.0539398	7.699295	1.5918732
837913351693978	-2.3408966	8.085815	1.3965454
837913360086312	-2.240921	8.456406	0.47253418
837913368478646	-1.8309174	8.627426	-1.0806274
837913376870980	-1.4375153	8.54715	-2.7592316
837913385263314	-1.187027	8.091888	-3.2492828
837913393655648	-0.9633789	7.82782	-2.389923
837913402047982	-0.9780121	7.981842	-1.2999878
837913410440316	-0.87332153	8.428925	-0.4169922
837913418832650	-0.6140442	8.995453	0.19032288
837913427224984	-0.47080994	9.542175	0.6813507
837913435617318	-0.33050537	10.110291	1.139801
837913444009652	0.011047363	10.4822235	0.97702026
837913452401986	0.33950806	10.740601	0.5729523
837913460794320	0.40957642	10.946091	0.2950592
837913469186654	0.102386475	11.105164	0.20953369
837913477578988	-0.46176147	11.19075	0.05644226
837913485971322	-0.85957336	11.210678	-0.42210388
837913494363656	-1.0863037	11.438278	-0.9840393
837913502755990	-1.3539276	11.52684	-1.7292786
837913511148324	-1.7638245	11.635178	-2.1985626
837913519540658	-2.3739471	11.858337	-1.9038544
837913527932992	-3.1419067	12.153152	-0.62693787
837913536325326	-3.3859863	12.880508	0.8746033
837913544717660	-3.317337	13.799271	1.4085236
837913553109994	-3.0691376	14.428177	1.4104462
837913561502328	-3.1210938	14.880157	1.0363159
837913569894662	-3.7080994	15.232803	0.3937683
837913578286996	-4.672928	15.372482	-0.3287506
837913586679330	-5.4727936	14.886841	-0.07066345
837913595071664	-3.9978485	13.418671	1.1443329
837913603463998	-1.9005432	12.104401	2.7663422
837913611856332	-0.12150574	11.505951	3.8630676
837913620248666	1.1139526	11.4328	4.028839
837913628641000	2.081955	11.079529	3.5919495
837913637033334	2.592453	10.225464	3.1212463
837913645425668	2.8281097	9.631912	2.8023682
837913653818002	3.0077057	9.548599	2.8502655
837913662210336	2.9564514	10.003616	3.087204
837913670602670	2.548706	10.967148	3.2760925
837913678995004	1.8856354	12.35495	3.2448425
837913687387338	1.3125458	13.530411	2.890442
837913695779672	1.4445953	14.224625	2.4443665
837913704172006	2.0620575	14.084946	1.7602997
837913712564340	3.5181122	13.131638	0.7910919
837913720956674	5.5709686	11.7842865	-0.39186096
837913729349008	6.9848175	10.6866455	-1.6255646
837913737741342	5.634491	10.057022	-2.5724487
837913746133676	3.8347168	9.294159	-2.8101044
837913754526010	2.536972	8.434265	-2.434433
837913762918344	1.7116241	7.5448303	-1.744278
837913771310678	1.2533875	6.639099	-1.0517578
837913779703012	1.3171844	5.661438	-0.58843994
837913788095346	0.7827759	5.061249	-0.27539063
837913796487679	0.27574158	4.79039	-0.5382385
837913804880013	-0.05569458	4.872757	-1.0024414
837913813272347	-0.5673981	5.4911346	-1.2850494
837913821664681	-1.5383606	6.689987	-1.0489807
837913830057015	-2.7358093	8.033813	-0.008453369
837913838449349	-2.7477722	7.9670258	2.7722473
837913846841683	-0.76475525	7.22937	4.9395294
837913855234017	1.157608	6.442398	4.7098694
837913863626351	2.395401	5.7790833	2.5005493
837913872018685	3.132492	5.1966553	-0.38882446
837913880411019	4.0775146	4.5440216	-2.9947662
837913888803353	4.0980835	3.9839172	-4.902237
837913897195687	3.408249	3.555832	-5.426651
837913905588021	2.767212	3.2999573	-4.607773
837913913980355	2.5440674	3.1883087	-3.0873108
837913922372689	2.6554413	3.1564026	-1.7032776
837913930765023	2.6329346	3.1524963	-0.9972687
837913939157357	2.1796722	3.0550842	-1.0877075
837913947549691	2.4577332	2.8686523	-1.9884033
837913955942025	2.8159637	2.6732635	-3.3945465
837913964334359	2.9235992	2.636383	-4.710129
837913972726693	2.7594452	2.9134064	-5.446274
837913981119027	2.5538177	3.5724182	-5.4668274
837913989511361	2.2959442	4.8252563	-5.2999115
837913997903695	1.9350281	6.5861816	-5.173538
837914006296029	1.6333313	8.899689	-5.0073853
837914014688363	1.405777	11.664963	-4.8806915
837914023080697	1.3088379	14.67804	-4.9812164
837914031473031	1.6235199	17.61589	-5.5598755
837914039865365	2.3821106	19.917023	-7.074127
837914048257699	3.2362213	20.163696	-8.008987
837914056650033	3.2614899	18.331467	-8.016998
837914065042367	2.7519379	15.219147	-7.6129
837914073434701	2.4141998	11.904648	-7.3969116
837914081827035	2.2203827	8.951447	-7.055969
837914090219369	1.624054	7.07135	-6.3584595
837914098611703	1.4656982	6.044632	-6.091156
837914107004037	1.6835175	6.1053925	-5.9871674
837914115396371	1.7942047	7.263855	-5.9438324
837914123788705	1.4438477	9.3363495	-5.9851837
837914132181039	0.9840088	11.887421	-6.1501923
837914140573373	1.809021	14.085358	-4.88356
837914148965707	2.8517609	15.817139	-2.1620026
837914157358041	3.904541	16.168823	0.22312927
837914165750375	4.6975555	14.097992	1.4676208
837914174142709	4.8735504	9.579407	1.7799683
837914182535043	3.6761475	5.3890076	2.047165
837914190927377	2.9048004	3.816208	2.2437897
837914199319711	2.9261322	3.683197	2.0157166
837914207712045	3.3003845	4.2246857	1.1087799
837914216104379	4.156372	4.9715576	-1.3757477
837914224496713	5.402191	5.9468994	-5.5934753
837914232889047	4.8059845	7.7684326	-7.7011414
837914241281381	1.4828186	9.617233	-7.3799286
837914249673715	-0.27355957	9.265625	-6.1628113
837914258066049	-1.4950104	8.561523	-2.800064
837914266458383	-3.096054	8.616257	1.8464355
837914274850717	-4.825226	9.376038	5.6422577
837914283243051	-3.9335938	9.905838	7.7326508
837914291635385	-2.4562836	12.552002	9.511398
837914300027719	-1.2315979	13.355209	8.368408
837914308420053	-1.3426819	12.313126	5.172531
837914316812387	-2.011795	10.787735	1.9700012
837914325204721	-1.8890228	10.050293	-0.15852356
837914333597054	-1.9418945	9.0984955	-4.716812
837914341989388	-1.6443481	8.21817	-10.738876
837914350381722	-0.3787384	7.9097595	-11.825455
837914358774056	0.8389282	7.878891	-8.60408
837914367166390	1.2962036	7.997299	-3.3963623
837914375558724	0.97831726	8.266312	1.4297028
837914383951058	0.81829834	8.31105	4.243744
837914392343392	0.7523651	7.9693146	4.339615
837914400735726	0.28683472	7.771881	2.8541565
837914409128060	0.13375854	7.665344	0.7780762
837914417520394	0.4598999	7.5220184	-1.2752533
837914425912728	0.73394775	7.292877	-2.905548
837914434305062	0.2657776	7.2899017	-2.485077
837914442697396	0.14364624	7.230667	-0.78196716
837914451089730	0.18930054	7.192993	0.47364807
837914459482064	0.062942505	7.3661194	0.73143005
837914467874398	-0.20028687	7.724304	0.02748108
837914476266732	-0.27703857	8.0392	-0.9390106
837914484659066	-0.39907837	8.24324	-0.792572
837914493051400	-0.79618835	8.36377	-0.056777954
837914501443734	-1.0946045	8.484894	0.65512085
837914509836068	-1.2101288	8.613403	0.7810669
837914518228402	-1.1424255	8.710068	0.19352722
837914526620736	-0.9381256	8.690277	-0.7876892
837914535013070	-0.67276	8.346573	-1.5426636
837914543405404	-0.6189575	7.821289	-1.9028778
837914551797738	-0.40460205	7.4939575	-1.8864441
837914560190072	-0.29875183	7.5218964	-1.4485474
837914568582406	-0.30226135	7.8571014	-0.6690216
837914576974740	-0.11282349	8.336716	0.23435974
837914585367074	0.16932678	8.925934	0.7328491
837914593759408	0.27627563	9.457489	0.7219391
837914602151742	0.34516907	9.872269	0.40171814
837914610544076	0.25254822	10.215607	-0.09239197
837914618936410	-0.09815979	10.57225	-0.51498413
837914627328744	-0.6967926	11.016968	-0.5295563
837914635721078	-1.6060791	11.535416	0.44354248
837914644113412	-2.4206085	11.669617	0.8663788
837914652505746	-3.2160034	11.538605	0.59114075
837914660898080	-3.7904816	11.361206	-0.09321594
837914669290414	-3.956833	11.294037	-1.0119629
837914677682748	-3.6718903	11.345062	-2.198639
837914686075082	-3.3253632	11.454086	-2.7301178
837914694467416	-3.3031616	11.737427	-1.7810822
837914702859750	-3.190796	12.1953125	-0.060546875
837914711252084	-2.4633026	12.93248	1.5130768
837914719644418	-1.3071747	14.067291	2.443924
837914728036752	-0.5729065	15.545578	2.816925
837914736429086	-0.0016326904	15.585449	2.5038605
837914744821420	-0.3844452	14.868286	1.5975952
837914753213754	-1.1903687	14.350601	1.0953369
837914761606088	-1.533371	13.8203125	1.1531067
837914769998422	-1.0686035	12.895203	1.5676727
837914778390756	-0.26307678	11.486832	2.07164
837914786783090	0.7836151	10.79599	2.9046173
837914795175424	1.691391	10.352188	3.1006012
837914803567758	2.397995	9.596176	2.739212
837914811960092	2.831482	8.828629	2.215973
837914820352426	3.050949	8.563385	2.013733
837914828744760	3.2638245	9.104736	2.4077148
837914837137094	3.212082	10.190384	3.0462036
837914845529428	3.2002716	11.663025	3.5943146
837914853921762	3.477127	12.945663	3.8812408
837914862314096	4.4026947	13.559296	3.8109436
837914870706429	5.678711	13.41748	3.2527618
837914879098763	6.170578	12.89183	2.0051575
837914887491097	4.89859	12.573593	0.2543335
837914895883431	3.5842896	12.102203	-1.5843353
837914904275765	2.8188324	11.499084	-3.1772308
837914912668099	2.8190308	10.579056	-4.2113037
837914921060433	3.2346497	9.344513	-4.4026184
837914929452767	3.2339935	8.139847	-3.4898682
837914937845101	2.1475372	7.388382	-2.0197144
837914946237435	1.1840668	6.7318573	-1.0738373
837914954629769	0.72714233	6.272995	-0.888855
837914963022103	0.2992096	6.1704407	-0.96502686
837914971414437	-0.42765808	6.5529633	-0.7322998
837914979806771	-0.9237366	7.376831	-0.17689514
837914988199105	-1.8050995	7.6021576	0.010543823
837914996591439	-0.5155029	7.053589	0.9500122
837915004983773	0.70399475	6.3219757	1.9703217
837915013376107	1.1405029	5.708252	2.5398712
837915021768441	1.2200012	5.3212585	2.3321228
837915030160775	2.3585968	5.038559	1.4466553
837915038553109	2.8815002	4.9328003	-0.087768555
837915046945443	2.8188324	4.4613037	-1.9746704
837915055337777	2.477188	3.7363129	-3.9286194
837915063730111	2.1137543	2.9390106	-5.4053955
837915072122445	1.8241272	2.2099457	-5.764923
837915080514779	1.470993	1.6061707	-4.375122
837915088907113	1.4063721	1.470993	-2.9666138
837915097299447	1.3425598	1.485672	-2.4485474
837915105691781	1.2051849	1.5273743	-2.5088654
837915114084115	1.0918274	1.5666199	-2.9265442
837915122476449	1.1149292	1.6448975	-3.503601
837915130868783	1.2568207	1.8637543	-4.1474
837915139261117	1.32341	2.343872	-4.6404266
837915147653451	1.453537	3.159607	-4.924225
837915156045785	1.7672119	4.4656067	-5.062958
837915164438119	2.1506805	6.3882294	-5.116928
837915172830453	2.3891907	9.020523	-5.089981
837915181222787	2.3268585	12.46373	-4.8315887
837915189615121	2.3865814	15.966354	-4.783615
837915198007455	2.4066162	19.596558	-5.575897
837915206399789	2.2559052	22.053146	-6.77742
837915214792123	2.4450378	21.952713	-7.767624
837915223184457	3.3593903	18.75235	-8.157318
837915231576791	4.151886	13.872147	-8.336594
837915239969125	3.7646942	9.887558	-8.219543
837915248361459	2.948578	6.955551	-7.5771637
837915256753793	2.0835724	5.131317	-6.895935
837915265146127	1.4706573	4.292206	-6.443268
837915273538461	1.0709686	4.012253	-6.205063
837915281930795	0.19226074	3.3890076	-5.8750305
837915290323129	-1.4976807	1.8990784	-5.722534
837915298715463	-1.8359833	0.26083374	-5.5929413
837915307107797	-0.21435547	-0.32806396	-5.2432556
837915315500131	1.8521576	1.1370544	-4.817581
837915323892465	2.5051422	4.713745	-4.513748
837915332284799	3.0289764	8.242477	-3.9859161
837915340677133	5.8811646	11.800232	-0.87623596
837915349069467	8.652344	17.718048	3.3443756
837915357461801	11.6358795	25.084732	6.07843
837915365854135	13.04332	32.255875	9.445267
837915374246469	9.828888	35.05429	12.384369
837915382638803	-2.59375	21.582855	-5.2174683
837915391031137	-2.0936432	10.635971	-9.238571
837915399423471	-0.04801941	4.2512817	-5.077179
837915407815804	1.2134857	0.85302734	-0.60694885
837915416208138	1.6844177	-1.078064	0.55448914
837915424600472	2.1799316	-2.3359985	-1.1369934
837915432992806	1.4125671	-2.082901	-4.160904
837915441385140	-1.7073059	1.2402496	-5.294647
837915449777474	-4.3991547	5.1874695	-2.9080353
837915458169808	-6.0881042	10.809448	3.654419
837915466562142	-5.118927	16.356613	11.480469
837915474954476	-1.379837	18.487946	15.4210205
837915483346810	-1.3947906	14.389252	9.625458
837915491739144	-4.091095	12.852142	3.259781
837915500131478	-4.966797	11.088211	-0.20857239
837915508523812	-5.057022	9.453888	-4.655731
837915516916146	-4.331833	8.456848	-9.748505
837915525308480	-2.285904	8.288025	-11.999069
837915533700814	0.108932495	8.150436	-7.491516
837915542093148	0.8803253	7.926117	-2.0945435
837915550485482	0.89756775	7.9733124	1.5411377
837915558877816	1.0601349	8.008957	3.4410706
837915567270150	1.4704437	8.086014	3.658966
837915575662484	1.822998	8.374863	2.3992767
837915584054818	2.5297546	8.462189	0.78266907
837915592447152	3.4141083	8.417145	0.2781372
837915600839486	2.9395142	8.576614	0.104537964
837915609231820	2.1417847	8.45285	0.05458069
837915617624154	1.4651794	7.997772	0.13226318
837915626016488	0.72753906	7.504486	0.4136505
837915634408822	-0.34783936	7.15007	0.7558594
837915642801156	-1.1065063	6.938278	1.1343231
837915651193490	-1.4222107	6.9293213	1.2267151
837915659585824	-1.6375885	7.25502	1.280014
837915667978158	-1.9595032	7.8228607	1.3942871
837915676370492	-2.3799744	8.366196	1.4599609
837915684762826	-2.461731	8.583542	1.1110077
837915693155160	-1.6432037	8.072311	0.27478027
837915701547494	-1.2596588	7.670273	-0.23095703
837915709939828	-1.0164032	7.4622955	-0.5194702
837915718332162	-0.5982208	7.454651	-0.8875427
837915726724496	0.076934814	7.677307	-1.6293488
837915735116830	0.24298096	8.310898	-2.547104
837915743509164	-0.21257019	9.108429	-2.672287
837915751901498	-0.5555115	9.704514	-1.8010254
837915760293832	-0.9290161	10.125732	-0.4624939
837915768686166	-1.3338776	10.30986	0.60697937
837915777078500	-1.5853882	10.186569	0.84135437
837915785470834	-1.472992	10.24585	0.4816742
837915793863168	-1.4426422	10.488541	-0.012039185
837915802255502	-1.4986115	10.691681	-0.6263733
837915810647836	-1.3959045	10.841736	-1.3626862
837915819040170	-1.1531525	11.016678	-2.081009
837915827432504	-1.0121002	11.315659	-2.5529175
837915835824838	-0.9316101	11.585602	-2.6914368
837915844217172	-1.013382	11.695969	-2.302826
837915852609506	-1.5769958	11.733429	-1.6066589
837915861001840	-2.387329	11.653915	-0.695755
837915869394174	-2.9366608	11.740372	0.39013672
837915877786508	-2.7204285	12.481003	1.5740204
837915886178842	-2.126999	13.73941	2.2340393
837915894571176	-2.152542	14.771088	2.4776459
837915902963510	-3.005188	14.605606	2.128189
837915911355844	-3.951645	13.805435	2.0408173
837915919748178	-4.025833	12.97821	2.6322174
837915928140512	-2.448532	12.413574	3.5483856
837915936532846	1.0381927	12.042786	3.2998352
837915944925179	1.8218231	12.310562	3.005371
837915953317513	2.4328918	11.85611	2.2499542
837915961709847	3.175064	11.046967	1.3745117
837915970102181	3.5929565	10.618439	0.99453735
837915978494515	3.0322723	11.164413	1.6342621
837915986886849	1.9250488	12.550751	2.6315002
837915995279183	1.1155396	13.82251	3.4852142
837916003671517	0.88990784	14.762894	4.045044
837916012063851	0.86073303	14.913666	3.9564056
837916020456185	0.7109375	14.191925	3.0809784
837916028848519	0.44836426	13.016098	1.606842
837916037240853	0.7783661	11.944336	-0.11895752
837916045633187	3.1666412	10.922562	-1.6087646
837916054025521	5.6030426	10.038788	-2.6794891
837916062417855	6.1172485	9.293457	-3.300583
837916070810189	4.3683624	8.616989	-3.4129791
837916079202523	2.0644226	7.9048004	-2.941803
837916087594857	1.6071625	7.248764	-2.2102203
837916095987191	1.7725983	6.5500946	-1.450592
837916104379525	1.8168793	5.994095	-0.9471283
837916112771859	1.1613922	5.64093	-0.48950195
837916121164193	-0.04953003	5.523758	0.01852417
837916129556527	-0.9299774	5.668152	0.3985901
837916137948861	-1.1219177	6.152527	0.33564758
837916146341195	-1.3686371	6.661209	0.9700012
837916154733529	-1.3047333	6.8001404	1.7227173
837916163125863	-0.98295593	6.636673	2.1082764
837916171518197	-0.3721466	6.408783	1.8537598
837916179910531	0.7264862	6.351303	0.9959259
837916188302865	1.7644501	5.8796844	-0.25595093
837916196695199	2.052658	5.089798	-1.4620667
837916205087533	2.2833252	4.1454926	-2.4204254
837916213479867	2.5232391	3.1689606	-3.0552063
837916221872201	2.650238	2.3681488	-3.317154
837916230264535	2.533722	2.0254211	-3.1661987
837916238656869	2.4479828	2.1340942	-2.7245178
837916247049203	2.3820038	2.442093	-2.584671
837916255441537	2.4354248	2.7418823	-2.7906647
837916263833871	2.528061	3.028534	-3.2186127
837916272226205	2.5764618	3.3290405	-3.7199097
837916280618539	2.5754547	3.6382294	-4.205078
837916289010873	2.57341	4.0220795	-4.6000977
837916297403207	2.53862	4.6035767	-4.9158783
837916305795541	2.2693024	5.352005	-4.985962
837916314187875	1.8500366	6.304352	-4.986969
837916322580209	1.3937836	7.53862	-5.1016235
837916330972543	0.9274597	9.136246	-5.346756
837916339364877	1.3817749	10.816971	-6.0424805
837916347757211	1.4519501	12.727402	-6.2798767
837916356149545	1.0803528	14.525482	-6.7227325
837916364541879	0.7998657	15.836105	-7.0948486
837916372934213	0.9337311	16.27884	-7.0907593
837916381326547	1.139679	15.527695	-6.8726654
837916389718881	1.0535583	13.824554	-7.072006
837916398111215	0.9358368	11.895538	-7.2290497
837916406503549	0.9039154	10.107147	-7.097275
837916414895883	0.92845154	8.719696	-6.743683
837916423288217	1.0309753	7.8524475	-6.4006653
837916431680551	1.447815	7.58609	-6.2423553
837916440072885	2.4604034	8.614365	-5.8043213
837916448465219	3.2172394	10.720657	-5.493637
837916456857553	3.464508	13.121277	-5.2395935
837916465249887	3.642624	15.309784	-4.0268707
837916473642221	4.0567627	16.906296	-1.2432556
837916482034554	4.2803345	17.513565	2.3280487
837916490426888	5.1240387	14.136002	4.8646393
837916498819222	5.0145874	9.060562	4.971039
837916507211556	4.470352	5.378708	3.69635
837916515603890	3.6479187	3.610077	2.1886444
