accelerometer_timestamp	accelerometer_x_data	accelerometer_y_data	accelerometer_z_data
1187618365871298	0.3321991	3.555313	8.983078
1187618374263632	0.390213	3.560501	8.794189
1187618382655966	0.53674316	3.5552216	8.740799
1187618391048300	0.7318878	3.50943	8.733261
1187618399440634	0.8426056	3.4418793	8.70018
1187618407832968	0.7730408	3.3842163	8.741928
1187618416225302	0.6728821	3.3908691	8.993744
1187618424617636	0.6120148	3.3616943	9.344467
1187618433009970	0.63020325	3.2992096	9.773605
1187618441402304	0.7106018	3.2129517	10.145721
1187618449794638	0.7964325	3.127121	10.307388
1187618458186972	0.84628296	3.1650238	10.484863
1187618466579306	0.8319855	3.1991425	10.403046
1187618474971640	0.81134033	3.1780243	10.162735
1187618483363974	0.7713623	3.177353	9.84906
1187618491756308	0.70028687	3.235794	9.486465
1187618500148642	0.61091614	3.325943	9.057159
1187618508540976	0.59994507	3.335907	8.623474
1187618516933310	0.6081238	3.385025	8.1718445
1187618525325644	0.6837311	3.48703	7.8368073
1187618533717978	0.78541565	3.5959778	7.734207
1187618542110312	0.87394714	3.663086	7.8521423
1187618550502646	0.9323578	3.6676483	8.066849
1187618558894980	0.97335815	3.6856537	8.362869
1187618567287314	0.88916016	3.6537628	8.701569
1187618575679648	0.770813	3.621872	9.009979
1187618584071982	0.6781616	3.6005707	9.262314
1187618592464316	0.60350037	3.5854797	9.372879
1187618600856650	0.5111084	3.583374	9.261398
1187618609248984	0.5737457	3.7324677	9.210724
1187618617641318	0.7624054	3.9826813	9.079849
1187618626033652	0.96759033	4.155731	8.791946
1187618634425986	1.1247711	4.1968536	8.553253
1187618642818320	1.1707916	4.113205	8.485077
1187618651210654	1.0540314	3.9654083	8.572922
1187618659602988	0.7896271	3.897812	8.817444
1187618667995322	0.5548248	3.928131	9.231186
1187618676387656	0.48208618	3.9395447	9.644104
1187618684779990	0.4953308	3.8756104	9.921951
1187618693172324	0.513855	3.7285461	10.062759
1187618701564658	0.50587463	3.5378418	10.194809
1187618709956992	0.50787354	3.3942719	10.441086
1187618718349326	0.4796753	3.3075562	10.392441
1187618726741660	0.43537903	3.3380127	10.117584
1187618735133994	0.44589233	3.4615479	9.704941
1187618743526328	0.5535736	3.6076355	9.226334
1187618751918662	0.7369232	3.6807098	8.724472
1187618760310996	0.7816467	3.6051636	8.282135
1187618768703330	0.73135376	3.4553986	8.202469
1187618777095664	0.5669861	3.373581	8.285751
1187618785487998	0.30741882	3.4092102	8.4045105
1187618793880332	0.06680298	3.5210266	8.524979
1187618802272666	0.014770508	3.5904694	8.709076
1187618810665000	0.08457947	3.4867706	9.021118
1187618819057334	0.12879944	3.3370056	9.124176
1187618827449668	0.16870117	3.1796722	9.115433
1187618835842002	0.20753479	3.1351929	9.085068
1187618844234336	0.23176575	3.2316437	9.041336
1187618852626670	0.22169495	3.3820496	8.917938
1187618861019004	0.24700928	3.3800354	8.862244
1187618869411338	0.1308899	3.373703	9.047638
1187618877803672	0.046936035	3.3454132	9.363892
1187618886196005	0.07269287	3.2962494	9.687759
1187618894588339	0.16233826	3.2632751	9.883148
1187618902980673	0.16079712	3.3122864	9.828873
1187618911373007	0.1438446	3.424942	9.445023
1187618919765341	0.15765381	3.5155182	8.929977
1187618928157675	0.33535767	3.5303192	8.578476
1187618936550009	0.50779724	3.541214	8.426117
1187618944942343	0.5613098	3.5952606	8.451782
1187618953334677	0.5648804	3.6581268	8.60759
1187618961727011	0.58573914	3.6670685	8.722916
1187618970119345	0.4925995	3.7000275	8.826355
1187618978511679	0.40441895	3.687561	8.94426
1187618986904013	0.30322266	3.666504	9.127762
1187618995296347	0.18359375	3.6641998	9.350952
1187619003688681	0.10101318	3.6540833	9.473511
1187619012081015	0.11276245	3.595337	9.407898
1187619020473349	0.24188232	3.5349731	9.330414
1187619028865683	0.40101624	3.500183	9.364944
1187619037258017	0.5003052	3.4972076	9.321579
1187619045650351	0.5322876	3.4958954	9.129654
1187619054042685	0.59580994	3.4369507	9.011398
1187619062435019	0.5531616	3.456253	9.101776
1187619070827353	0.45254517	3.4367065	9.049118
1187619079219687	0.31924438	3.4879913	9.025253
1187619087612021	0.28930664	3.544983	8.9939575
1187619096004355	0.40571594	3.5530548	8.860764
1187619104396689	0.52056885	3.5519714	8.56723
1187619112789023	0.6060486	3.5499878	8.611954
1187619121181357	0.6996765	3.6060028	8.758621
1187619129573691	0.7595978	3.6609497	8.895493
1187619137966025	0.7786102	3.7075653	8.892929
1187619146358359	0.8176422	3.7900543	8.5242
1187619154750693	0.9991455	4.000244	7.56987
1187619163143027	0.9649811	4.210129	8.221054
1187619171535361	0.871521	4.1187134	8.684479
1187619179927695	0.67163086	4.0092316	9.022736
1187619188320029	0.49261475	3.993927	9.261169
1187619196712363	0.42988586	4.0836487	9.423676
1187619205104697	0.41612244	4.2136536	9.562271
1187619213497031	0.58815	4.1556396	10.165283
1187619221889365	0.7420654	4.1176147	10.611038
1187619230281699	0.7438202	4.063431	10.313385
1187619238674033	0.6077118	3.9221191	9.341034
1187619247066367	0.4774475	3.7405548	8.138321
1187619255458701	0.60853577	3.7897797	7.3371124
1187619263851035	0.9334717	4.008087	7.6772766
1187619272243369	1.0349731	4.14946	8.556
1187619280635703	0.904541	4.1346283	9.457611
1187619289028037	0.5905762	4.006134	9.881668
1187619297420371	0.19088745	3.8697052	9.51828
1187619305812705	-0.17042542	3.841095	8.506561
1187619314205039	-0.25816345	3.9049072	7.9552
1187619322597373	-0.11808777	4.0018616	8.135376
1187619330989707	0.12791443	4.0165863	8.489975
1187619339382041	0.29470825	3.9972687	8.749008
1187619347774375	0.26615906	4.0110016	8.838425
1187619356166709	0.14529419	4.019684	8.896637
1187619364559043	0.08653259	4.011856	8.973999
1187619372951377	0.057907104	4.263336	7.7656097
1187619381343711	0.8568115	4.315811	7.7579346
1187619389736045	1.7489471	4.1703033	8.775024
1187619398128379	1.7787781	3.9912567	9.735657
1187619406520713	1.0717926	3.9148865	9.894302
1187619414913047	0.7818756	3.8205109	9.585266
1187619423305380	0.58522034	3.8674316	9.628113
1187619431697714	0.47483826	3.8330536	9.769867
1187619440090048	0.49263	3.6933746	9.826736
1187619448482382	0.5534363	3.6124268	9.710602
1187619456874716	0.2685852	3.957718	9.498947
1187619465267050	0.5001831	3.9607086	9.2574005
1187619473659384	0.9560852	3.7667236	9.002884
1187619482051718	1.134964	3.6775513	8.851837
1187619490444052	1.0381622	3.7510986	8.7391815
1187619498836386	0.88305664	3.900467	8.57225
1187619507228720	0.7896118	3.9851227	8.41449
1187619515621054	0.88731384	3.9661865	8.300827
1187619524013388	0.91200256	3.938919	8.28479
1187619532405722	0.80477905	3.9455872	8.299042
1187619540798056	0.6739197	3.9570007	8.345123
1187619549190390	0.6438141	3.936264	8.463028
1187619557582724	0.6266632	3.9302063	8.706253
1187619565975058	0.7386627	3.971115	8.829895
1187619574367392	0.84625244	4.0103455	8.892899
1187619582759726	0.8927002	4.0485687	8.911484
1187619591152060	0.8680725	4.0575256	8.889725
1187619599544394	0.7841034	4.0122986	8.838058
1187619607936728	0.624588	3.9455109	8.807144
1187619616329062	0.52801514	3.8894806	8.742676
1187619624721396	0.44462585	3.8430786	8.785156
1187619633113730	0.40481567	3.8155975	8.862152
1187619641506064	0.4064026	3.7935486	8.89386
1187619649898398	0.41947937	3.770523	8.85173
1187619658290732	0.39263916	3.7874146	8.812958
1187619666683066	0.33450317	3.7926636	8.774078
1187619675075400	0.28944397	3.7747192	8.735733
1187619683467734	0.23580933	3.740631	8.848206
1187619691860068	0.14556885	3.7057343	9.127701
1187619700252402	0.013549805	3.6805267	9.472321
1187619708644736	-0.084854126	3.6417542	9.717834
1187619717037070	-0.08105469	3.647293	9.655579
1187619725429404	-0.026473999	3.6646423	9.376297
1187619733821738	0.101867676	3.7062073	9.036606
1187619742214072	0.26524353	3.741623	8.739044
1187619750606406	0.39019775	3.7407684	8.546341
1187619758998740	0.4350586	3.7876282	8.586212
1187619767391074	0.47898865	3.7732086	8.647781
1187619775783408	0.5575714	3.7827148	8.665253
1187619784175742	0.6162567	3.8172302	8.718933
1187619792568076	0.65922546	3.8467865	8.817108
1187619800960410	0.7164459	3.8370972	8.890411
1187619809352744	0.72639465	3.8042908	8.798965
1187619817745078	0.6457367	3.8133698	8.787369
1187619826137412	0.57084656	3.8054962	8.873108
1187619834529746	0.52334595	3.7887878	9.005783
1187619842922080	0.4990692	3.7710876	9.13205
1187619851314414	0.47976685	3.7578888	9.192276
1187619859706748	0.4558258	3.766861	9.047699
1187619868099082	0.4769745	3.7863617	8.923767
1187619876491416	0.5124512	3.8356018	8.825653
1187619884883750	0.5841217	3.8742523	8.733795
1187619893276084	0.649704	3.9062805	8.661774
1187619901668418	0.631897	3.9558105	8.642609
1187619910060752	0.5357208	3.968979	8.682098
1187619918453086	0.43232727	3.986374	8.87648
1187619926845420	0.40402222	3.972763	9.008331
1187619935237754	0.40293884	3.9746094	9.138977
1187619943630088	0.39031982	3.9885864	9.236145
1187619952022422	0.35923767	3.9809875	9.208267
1187619960414755	0.3552704	3.9760284	9.102905
1187619968807089	0.29716492	3.941681	9.054123
1187619977199423	0.2767334	3.889389	9.093048
1187619985591757	0.29785156	3.8336182	9.204285
1187619993984091	0.34040833	3.7871704	9.332321
1187620002376425	0.3789215	3.749588	9.395081
1187620010768759	0.43060303	3.6680908	9.315567
1187620019161093	0.3943329	3.6405792	9.363312
1187620027553427	0.29904175	3.6382446	9.304413
1187620035945761	0.18951416	3.6350098	9.146423
1187620044338095	0.1401825	3.6265259	8.913498
1187620052730429	0.21583557	3.6213837	8.631683
1187620061122763	0.30059814	3.5984497	8.337555
1187620069515097	0.38330078	3.5837097	8.06955
1187620077907431	0.49551392	3.5957794	7.9344025
1187620086299765	0.62065125	3.6529846	8.064285
1187620094692099	0.71699524	3.7287598	8.432465
1187620103084433	0.73750305	3.765442	8.855789
1187620111476767	0.67588806	3.757492	9.1201935
1187620119869101	0.6373749	3.7629395	9.182938
1187620128261435	0.6014862	3.7601776	9.174774
1187620136653769	0.5854492	3.7492218	9.164246
1187620145046103	0.57873535	3.74617	9.190643
1187620153438437	0.5449829	3.7688293	9.261597
1187620161830771	0.49430847	3.7708282	9.343094
1187620170223105	0.41355896	3.8264465	9.3980255
1187620178615439	0.35247803	3.8671722	9.402191
1187620187007773	0.34098816	3.8815308	9.321518
1187620195400107	0.38938904	3.8908997	9.17009
1187620203792441	0.4840088	3.9298859	9.011887
1187620212184775	0.58758545	3.940033	8.866669
1187620220577109	0.6320038	3.928238	8.806808
1187620228969443	0.6092682	3.9193268	8.782059
1187620237361777	0.55111694	3.9059448	8.833725
1187620245754111	0.50779724	3.8793182	8.969437
1187620254146445	0.52227783	3.8413696	9.149353
1187620262538779	0.53445435	3.8383179	9.43367
1187620270931113	0.5524597	3.8424683	9.854233
1187620279323447	0.56448364	3.86174	10.233063
1187620287715781	0.5417175	3.8919525	10.425888
1187620296108115	0.42080688	3.9304047	10.354813
1187620304500449	0.13186646	3.973404	10.019211
1187620312892783	-0.18917847	3.960434	9.390106
1187620321285117	-0.51371765	3.9212646	8.629715
1187620329677451	-1.3436432	3.8576813	7.859482
1187620338069785	-1.9722748	3.644043	7.4704742
1187620346462119	-2.0008392	3.3440247	7.6220093
1187620354854453	-1.7671814	3.251175	8.080124
1187620363246787	-1.7960968	3.4236603	8.379242
1187620371639121	-1.8315887	3.6134796	8.56749
1187620380031455	-1.7765503	3.6905212	8.83313
1187620388423789	-1.6836395	3.6373596	9.156296
1187620396816123	-1.6640167	3.4917145	9.461456
1187620405208457	-1.8495178	3.3388367	9.649597
1187620413600791	-2.1590118	3.211914	9.649597
1187620421993125	-2.4311829	3.2089844	9.388397
1187620430385459	-2.5159607	3.258789	8.967499
1187620438777793	-2.4415436	3.3484802	8.485977
1187620447170127	-2.2718658	3.4861145	8.042206
1187620455562461	-2.0583801	3.6828308	7.709366
1187620463954795	-1.8968658	3.8942108	7.4272003
1187620472347129	-1.7690277	4.1058655	7.2865295
1187620480739463	-1.6330872	4.2820435	7.479309
1187620489131797	-1.6178131	4.312683	8.013931
1187620497524130	-1.7173462	4.1646576	8.676987
1187620505916464	-1.747879	3.907196	9.121918
1187620514308798	-1.8930054	3.7491455	9.208389
1187620522701132	-2.000183	3.6979218	9.182404
1187620531093466	-1.9184723	3.681366	9.376923
1187620539485800	-2.1162415	3.5407104	10.439819
1187620547878134	-2.1903687	3.3862152	11.815765
1187620556270468	-0.61402893	3.6737823	11.371338
1187620564662802	-0.72932434	3.8785553	11.161606
1187620573055136	-0.18855286	4.0896454	10.384476
1187620581447470	-0.09262085	4.2180023	9.801483
1187620589839804	-0.12121582	4.1500244	9.341949
1187620598232138	0.022827148	3.88414	8.922546
1187620606624472	0.085632324	3.6192017	8.723373
1187620615016806	-0.27690125	3.6516876	8.658386
1187620623409140	-0.6139374	3.6147003	8.47081
1187620631801474	-0.91363525	3.5866852	8.38353
1187620640193808	-1.1707458	3.5596771	8.566605
1187620648586142	-1.3959503	3.5269318	8.855667
1187620656978476	-1.5869293	3.5080872	8.679291
1187620665370810	-1.2805176	3.347992	8.8433075
1187620673763144	-0.989563	3.4383087	8.524292
1187620682155478	-0.7322693	3.563858	8.08519
1187620690547812	-0.5134735	3.5720978	7.8163757
1187620698940146	-0.39552307	3.4464874	7.775009
1187620707332480	-0.51605225	3.338623	7.718109
1187620715724814	-0.7357178	3.2994995	7.707077
1187620724117148	-0.6819458	3.3700104	7.46196
1187620732509482	-0.4194336	3.4502258	6.713806
1187620740901816	-0.07142639	3.4944763	5.7350006
1187620749294150	0.20291138	3.4653168	4.9561462
1187620757686484	0.25332642	3.3214264	4.7789154
1187620766078818	0.3446045	2.968338	5.763962
1187620774471152	0.7046814	2.3501587	9.677246
1187620782863486	0.99102783	1.9151306	13.30719
1187620791255820	1.0253143	1.7247009	14.744141
1187620799648154	0.7440338	1.5651093	14.041382
1187620808040488	0.16809082	1.0388794	13.560074
1187620816432822	-1.3334045	0.66101074	12.318817
1187620824825156	-1.4555664	0.17678833	11.276855
1187620833217490	-1.2414703	-0.20840454	10.281815
1187620841609824	-0.9839325	-0.36027527	9.710724
1187620850002158	-0.5747986	-0.10447693	9.752213
1187620858394492	0.3166504	0.77583313	10.0190735
1187620866786826	1.2378998	1.6811218	10.144699
1187620875179160	2.2490845	1.9381714	10.2708435
1187620883571494	2.753357	1.8526611	10.343628
1187620891963828	2.837906	1.6296844	10.304565
1187620900356162	2.71521	1.3981628	10.207336
1187620908748496	2.417038	1.1933746	10.282333
1187620917140830	2.3166504	1.0084839	10.564636
1187620925533164	2.2275238	0.95318604	10.293777
1187620933925498	2.0690765	0.958313	9.509338
1187620942317832	1.8865509	0.96629333	8.691284
1187620950710166	1.7526093	0.95866394	8.252792
1187620959102500	1.7023621	0.9756775	8.190643
1187620967494834	1.768158	0.9507599	8.605408
1187620975887168	1.8223572	0.9838867	9.069778
1187620984279502	1.9012604	0.96990967	9.535934
1187620992671836	1.9686279	0.9203186	9.919022
1187621001064170	1.9765778	0.89178467	10.242798
1187621009456504	1.9113617	0.9321594	10.735825
1187621017848838	1.7378845	0.9461212	10.891342
1187621026241172	1.4279633	0.90486145	10.657883
1187621034633505	1.1407623	0.7466583	10.4830475
1187621043025839	0.92671204	0.5755768	10.478287
1187621051418173	0.78982544	0.50634766	10.600616
1187621059810507	0.72901917	0.5362549	10.781296
1187621068202841	0.50772095	0.58032227	10.932098
1187621076595175	0.27360535	0.67033386	10.93335
1187621084987509	0.16271973	0.84262085	11.128494
1187621093379843	0.21116638	1.0386353	11.512268
1187621101772177	0.29109192	1.2039337	11.886566
1187621110164511	0.053985596	1.3698883	12.01236
1187621118556845	-0.12947083	1.3838501	11.6414795
1187621126949179	0.05178833	1.3458557	11.066208
1187621135341513	0.25086975	1.5116119	10.287888
1187621143733847	0.3589325	1.9365387	9.311417
1187621152126181	0.37521362	2.6158752	8.418472
1187621160518515	0.28503418	3.6237335	8.43631
1187621168910849	-1.212143	3.949768	9.241119
1187621177303183	-3.0966187	4.318222	10.448425
1187621185695517	-4.9188232	6.21138	11.706497
1187621194087851	-5.594406	7.2707367	11.981094
1187621202480185	-4.5831146	5.442154	10.858139
1187621210872519	-3.3137665	3.8398132	10.118576
1187621219264853	-2.6194153	2.6253967	8.968643
1187621227657187	-2.5625305	2.180832	8.444366
1187621236049521	-2.432907	2.4095306	8.515808
1187621244441855	-1.6504059	3.0349884	8.541
1187621252834189	0.1819458	3.6500092	7.8281403
1187621261226523	3.3135223	3.7227783	6.3077087
1187621269618857	4.9958954	3.2576752	4.092682
1187621278011191	5.695114	2.9283752	2.7028656
1187621286403525	5.3675385	2.6154175	2.0327759
1187621294795859	4.1959076	2.1078796	0.5644989
1187621303188193	2.6137695	1.6544342	-1.4800415
1187621311580527	1.3465576	2.8997192	3.18602
1187621319972861	-3.313446	4.4576416	4.5056458
1187621328365195	-4.2671967	5.3247375	6.7113953
1187621336757529	-3.6443787	6.0559387	7.6676025
1187621345149863	-2.7590942	6.7393646	7.174774
1187621353542197	-1.9093323	7.1815186	6.1671906
1187621361934531	-0.55337524	7.310135	4.962799
1187621370326865	0.6080017	7.4565735	3.6977386
1187621378719199	1.0569763	7.0576935	1.9811707
1187621387111533	1.2367096	6.736191	1.1823883
1187621395503867	0.96998596	6.933075	1.7829132
1187621403896201	-0.21920776	7.7058105	3.3699188
1187621412288535	-2.3916779	8.446579	4.7567596
1187621420680869	-4.404007	9.33992	6.238968
1187621429073203	-5.8758698	9.799103	7.2041016
1187621437465537	-6.308075	9.894638	7.428421
1187621445857871	-5.507004	9.877945	6.9011993
1187621454250205	-3.61409	9.972321	5.801239
1187621462642539	-1.0498047	9.99823	4.4483185
1187621471034873	0.18411255	9.766769	3.6441803
1187621479427207	0.16809082	9.593964	3.583496
1187621487819541	-0.8161621	9.639404	3.710907
1187621496211875	-2.2143707	9.897385	3.76651
1187621504604209	-3.4579163	10.227112	3.7954865
1187621512996543	-4.4190216	10.380646	4.005844
1187621521388877	-4.7078247	10.678787	4.179611
1187621529781211	-4.2576447	11.036911	3.8992004
1187621538173545	-3.268158	11.090286	3.4890594
1187621546565879	-2.1402588	10.743759	3.0445251
1187621554958213	-1.2153015	10.15181	2.5021515
1187621563350547	-0.20632935	9.55661	2.0425262
1187621571742880	0.19456482	8.851166	2.1493225
1187621580135214	-0.3958435	8.343399	2.7258453
1187621588527548	-1.7033081	8.170502	3.3183289
1187621596919882	-3.1904144	8.417267	3.850418
1187621605312216	-4.172943	9.069138	4.436493
1187621613704550	-4.0774994	9.401138	4.415619
1187621622096884	-2.7050934	9.287537	4.069275
1187621630489218	-1.0122223	9.113922	3.6131744
1187621638881552	0.36801147	8.818939	2.9601746
1187621647273886	1.085495	8.374512	2.2431488
1187621655666220	1.1290741	7.883911	1.7947083
1187621664058554	0.8100281	7.677536	1.5394745
1187621672450888	0.67733765	8.035431	1.0490112
1187621680843222	0.81440735	8.482178	0.48391724
1187621689235556	0.80825806	8.913315	-0.09283447
1187621697627890	0.5458374	9.311844	-0.4621277
1187621706020224	0.3203125	9.612595	-0.4054718
1187621714412558	0.5777588	9.176224	-0.3577423
1187621722804892	0.43460083	8.54483	-0.14793396
1187621731197226	0.36044312	7.9821777	0.43623352
1187621739589560	1.9295349	10.349579	1.5223541
1187621747981894	2.5339813	14.396286	0.95921326
1187621756374228	-1.8854828	15.386642	-3.3770447
1187621764766562	-2.7259674	10.655777	-2.8296814
1187621773158896	0.032730103	9.106323	-0.91007996
1187621781551230	0.59288025	8.088516	-0.26010132
1187621789943564	0.474823	8.401245	0.13049316
1187621798335898	0.33351135	9.743134	0.7770386
1187621806728232	-0.70783997	10.572937	1.3342896
1187621815120566	-1.2108154	10.689224	2.21698
1187621823512900	-0.95899963	10.050583	3.0436096
1187621831905234	-0.41201782	8.999298	3.3817444
1187621840297568	0.125	8.069611	3.1803436
1187621848689902	0.55485535	7.621063	2.6858978
1187621857082236	0.97789	7.674408	2.3591003
1187621865474570	1.3029175	8.071213	2.0709534
1187621873866904	1.5537109	8.638824	1.7478638
1187621882259238	1.8636322	9.090118	2.071701
1187621890651572	1.8715057	9.399277	2.5363922
1187621899043906	1.4322662	9.700912	2.8362732
1187621907436240	0.7234497	10.158173	3.1603088
1187621915828574	-0.061279297	10.5451355	3.3125305
1187621924220908	-0.18928528	10.697113	3.9407196
1187621932613242	0.37677002	10.32016	5.2888184
1187621941005576	1.1051483	9.345825	7.445587
1187621949397910	1.7014618	7.977768	9.922028
1187621957790244	2.2592773	6.59111	11.753937
1187621966182578	1.7478027	6.1813507	11.60141
1187621974574912	0.2535553	6.5570984	8.9640045
1187621982967246	-0.37547302	6.9723816	6.4850006
1187621991359580	0.11035156	7.610199	4.740082
1187621999751914	1.2819214	8.334015	3.5757294
1187622008144248	2.3836365	8.541382	2.5165863
1187622016536582	3.1224213	8.458649	1.5435028
1187622024928916	1.9836884	8.859848	0.98197937
1187622033321250	1.7048645	8.37114	2.2995605
1187622041713584	1.3182068	7.8000946	3.180481
1187622050105918	0.042037964	7.68338	3.0407715
1187622058498252	-1.522522	7.4967346	4.278244
1187622066890586	-3.0148163	6.6516876	4.6611176
1187622075282920	-2.8118591	6.273163	4.5003967
1187622083675254	-3.173462	6.007492	4.251892
1187622092067588	-4.120331	5.7766266	4.176697
1187622100459922	-4.578232	5.6610413	4.4154816
1187622108852255	-3.30307	5.7826233	4.9992065
1187622117244589	-2.0819855	5.5809174	5.7101135
1187622125636923	-0.6780548	5.3479156	6.9053497
1187622134029257	-0.046279907	5.170517	8.091263
1187622142421591	-0.25367737	5.0563354	8.570206
1187622150813925	-1.0951843	4.959961	8.464279
1187622159206259	-2.3303986	4.83136	8.836258
1187622167598593	-3.528183	5.1285706	8.400894
1187622175990927	-4.9671326	5.1814575	8.021744
1187622184383261	-5.515045	5.1781006	7.4386444
1187622192775595	-5.432785	5.0799713	6.7871094
1187622201167929	-5.3031006	4.8405304	6.3515167
1187622209560263	-5.4669647	4.5212708	6.3785553
1187622217952597	-6.2055054	4.4258423	6.8616486
1187622226344931	-6.8405	4.4408875	7.3394012
1187622234737265	-6.567856	3.6831665	8.254944
1187622243129599	-5.119644	2.2900238	9.092285
1187622251521933	-3.655304	1.467392	8.748764
1187622259914267	-4.5635834	2.9481964	6.1599274
1187622268306601	-6.8030243	4.226059	4.5628357
1187622276698935	-8.280289	4.9726105	3.50914
1187622285091269	-8.541382	4.8857574	3.4844208
1187622293483603	-7.6528473	4.0554047	4.166092
1187622301875937	-5.9857635	2.7223206	5.117279
1187622310268271	-4.150528	1.2475739	5.9983215
1187622318660605	-3.3110504	1.2425842	4.8627167
1187622327052939	-3.8324585	1.973587	4.1516724
1187622335445273	-4.871826	2.260971	4.283142
1187622343837607	-5.1676636	2.1474762	4.3832855
1187622352229941	-5.13562	2.2348938	4.202667
1187622360622275	-7.5638885	3.1498108	5.0350494
1187622369014609	-8.725388	3.7410278	5.304245
1187622377406943	-10.833511	4.2288055	6.1040344
1187622385799277	-12.18306	4.1745605	9.328049
1187622394191611	-10.857132	4.026825	9.261353
1187622402583945	-7.1680756	4.0533295	3.7621918
1187622410976279	-5.302719	3.6146088	2.059616
1187622419368613	-4.4429016	3.2279358	3.1142578
1187622427760947	-4.428726	3.7095795	3.3681335
1187622436153281	-5.0805054	3.9822235	4.347885
1187622444545615	-5.9345093	3.7442474	5.539444
1187622452937949	-6.5849915	3.2927399	6.12294
1187622461330283	-7.0397186	3.2968903	6.207138
1187622469722617	-6.9457245	3.572052	5.6176453
1187622478114951	-6.6088867	3.0677185	4.646759
1187622486507285	-6.4366913	2.076416	3.8879547
1187622494899619	-6.017746	2.155716	3.1380157
1187622503291953	-5.3359528	3.8763733	2.5641174
1187622511684287	-5.6787567	5.393982	3.6085052
1187622520076621	-8.047653	6.189575	5.4549713
1187622528468955	-7.3032837	5.121567	5.9236755
1187622536861289	-6.1650543	3.799179	5.8390656
1187622545253623	-5.5713654	2.9556274	5.4650574
1187622553645957	-5.6663666	2.758072	4.7780304
1187622562038291	-6.2758484	2.8151093	3.6376953
1187622570430625	-7.279785	3.868744	2.7192383
1187622578822959	-7.6709595	4.493271	3.2228699
1187622587215293	-7.872452	4.6430206	3.4779663
1187622595607627	-8.123428	4.3877563	3.7989502
1187622603999961	-8.467148	3.9155426	4.699524
1187622612392295	-8.660614	3.490799	5.0695496
1187622620784629	-8.497086	3.2450104	5.2722626
1187622629176963	-8.769272	3.0041504	5.3071747
1187622637569297	-9.170578	2.9339752	5.104477
1187622645961630	-9.565552	3.0181122	4.829361
1187622654353964	-9.953964	3.1296387	4.6548615
1187622662746298	-10.404312	3.1527557	4.5091095
1187622671138632	-11.045685	3.2252197	4.3142548
1187622679530966	-11.414444	3.0745392	4.398773
1187622687923300	-11.879074	2.9736633	4.633728
1187622696315634	-12.358124	3.0033264	4.9584503
1187622704707968	-12.638733	3.0427551	5.254059
1187622713100302	-12.70961	2.749176	5.1335907
1187622721492636	-12.901001	2.3539429	4.6647034
1187622729884970	-12.774002	2.2664032	4.3996887
1187622738277304	-12.7005005	2.4423218	3.9514465
1187622746669638	-12.736008	2.7052765	3.246811
1187622755061972	-12.736954	2.8737946	2.4617462
1187622763454306	-12.447418	2.9021301	2.0568085
1187622771846640	-12.313095	2.9359741	2.1865082
1187622780238974	-12.091187	2.9013977	2.385086
1187622788631308	-11.72377	2.9225922	2.5538788
1187622797023642	-11.221893	3.0254517	2.5296478
1187622805415976	-10.717865	3.1762695	2.1894073
1187622813808310	-10.507492	3.359726	1.5742493
1187622822200644	-10.131607	4.1860046	1.9591522
1187622830592978	-9.569809	3.9963531	0.5457001
1187622838985312	-8.918808	3.6696472	-1.4776306
1187622847377646	-8.259048	3.6427612	-3.1759338
1187622855769980	-7.828476	3.873932	-4.136902
1187622864162314	-8.369843	4.038437	-4.3851624
1187622872554648	-8.9374695	4.308853	-3.3965454
1187622880946982	-9.537781	4.452896	-2.0720673
1187622889339316	-10.004669	4.233963	-1.3550568
1187622897731650	-9.989578	3.8829346	-1.7376709
1187622906123984	-9.317825	3.8038483	-2.6560059
1187622914516318	-8.370377	3.8566437	-1.7136536
1187622922908652	-9.0950775	4.2862244	-1.1434326
1187622931300986	-9.183289	4.206085	-1.4677582
1187622939693320	-8.593323	4.120117	-1.9629059
1187622948085654	-7.9092255	4.166916	-2.1226044
1187622956477988	-7.822098	4.1845093	-1.7629242
1187622964870322	-7.856888	4.039398	-1.1943512
1187622973262656	-7.3997803	3.8414001	-0.6670532
1187622981654990	-7.283676	3.7562866	-0.4894104
1187622990047324	-7.732193	3.941742	-0.594162
1187622998439658	-8.533585	4.3903046	-0.9134064
1187623006831992	-9.341568	4.901764	-1.408844
1187623015224326	-10.561218	5.153244	-2.208023
1187623023616660	-11.370514	5.176285	-2.5581818
1187623032008994	-11.584503	5.124832	-2.6630707
1187623040401328	-11.444717	5.0665283	-2.587494
1187623048793662	-11.221024	5.030258	-2.4523926
1187623057185996	-11.0989685	5.0152893	-2.319931
1187623065578330	-11.152786	5.053879	-1.8314819
1187623073970664	-11.276947	5.08136	-1.7493896
1187623082362998	-11.18512	5.1790924	-2.1184998
1187623090755332	-10.877197	5.3783417	-2.344345
1187623099147666	-10.554245	5.66214	-2.3785248
1187623107540000	-10.50412	5.9295807	-2.5094757
1187623115932334	-10.642288	5.9226227	-2.2221985
1187623124324668	-10.464325	5.579941	-1.4136505
1187623132717002	-10.143982	5.368744	-0.6777649
1187623141109336	-10.0191345	5.5724792	-0.29510498
1187623149501670	-10.208481	5.8831635	-0.24008179
1187623157894004	-10.516846	5.6966705	-0.29992676
1187623166286338	-10.365768	5.630081	-0.6925659
1187623174678672	-9.389999	6.0210876	-0.8135834
1187623183071005	-8.217346	6.738571	-1.3901062
1187623191463339	-6.9108734	7.3651276	-2.065796
1187623199855673	-5.8420105	7.7630005	-2.446045
1187623208248007	-5.5130615	8.105103	-2.407257
1187623216640341	-5.8680725	8.42012	-2.354248
1187623225032675	-5.5388794	7.8628235	-1.1863556
1187623233425009	-4.9843445	7.2052	0.21417236
1187623241817343	-4.728424	6.7134705	1.9067383
1187623250209677	-5.0077515	6.3413696	3.5408936
1187623258602011	-5.6274414	5.8432007	4.512848
1187623266994345	-6.154846	5.3068085	4.9335785
1187623275386679	-6.3067627	4.8293915	4.36084
1187623283779013	-6.389679	4.484024	3.9805603
1187623292171347	-6.5393677	4.3517456	3.7835236
1187623300563681	-6.5545197	4.4765778	3.7587128
1187623308956015	-6.1204376	4.8507843	3.9754486
1187623317348349	-6.2267914	5.4521637	4.020172
1187623325740683	-7.5397797	5.733261	3.4398193
1187623334133017	-8.115021	6.1901093	2.8828125
1187623342525351	-7.6738434	6.6196594	2.8032227
1187623350917685	-6.7631073	6.894211	3.0859375
1187623359310019	-6.3950806	7.035843	3.0749054
1187623367702353	-6.229599	6.77063	2.5664215
1187623376094687	-6.762146	6.6914825	2.160736
1187623384487021	-6.9078674	6.6512756	1.7325745
1187623392879355	-6.7870026	6.514847	1.2105713
1187623401271689	-6.6602173	6.308502	0.83106995
1187623409664023	-6.679489	6.199356	0.97143555
1187623418056357	-6.955673	6.0218964	1.0262604
1187623426448691	-7.449005	5.7445374	1.8482056
1187623434841025	-8.102814	5.3762817	2.3121796
1187623443233359	-8.859863	5.0474243	2.452011
1187623451625693	-9.551041	4.9282684	2.4397278
1187623460018027	-9.861176	5.1073456	2.3596497
1187623468410361	-8.906631	5.122574	1.945343
1187623476802695	-7.7683105	5.0823975	1.6215515
1187623485195029	-6.778534	4.990158	1.453064
1187623493587363	-5.5437317	4.3498535	2.1467896
1187623501979697	-4.465866	3.485443	3.209488
1187623510372031	-4.8488464	3.6557617	2.8177948
1187623518764365	-5.457016	3.851181	2.6712341
1187623527156699	-6.2026367	4.0598145	2.849762
1187623535549033	-6.9770966	4.3352203	3.1239624
1187623543941367	-7.6439056	4.599243	3.3777313
1187623552333701	-8.047913	4.759247	3.4426575
1187623560726035	-8.080872	4.761154	3.11763
1187623569118369	-7.7359467	4.5901794	2.3452911
1187623577510703	-7.1415253	4.4051514	1.6121979
1187623585903037	-6.23555	4.3007355	0.82902527
1187623594295371	-5.0447235	4.344406	-0.047668457
1187623602687705	-3.6993103	4.502426	-0.9949188
1187623611080039	-2.4361725	4.6339264	-1.8618164
1187623619472373	-1.8094635	4.802368	-1.9215546
1187623627864707	-1.4870453	4.9389343	0.030960083
1187623636257041	-1.2709198	4.971298	1.9958191
1187623644649375	-1.2780609	5.1816254	3.381012
1187623653041709	-1.7621155	5.789734	4.1097107
1187623661434043	-2.9916992	6.8088074	4.3596497
1187623669826377	-5.0276947	8.921982	3.7696686
1187623678218711	-6.967865	10.866486	3.3503113
1187623686611045	-8.997009	12.716034	3.199051
1187623695003379	-10.9474945	14.712173	3.3525848
1187623703395713	-12.518066	16.92987	3.671875
1187623711788047	-13.292587	19.024643	3.7742615
1187623720180380	-12.906921	18.743347	2.8876038
1187623728572714	-11.982483	17.548828	1.8416901
1187623736965048	-10.071213	15.752777	1.403717
1187623745357382	-7.4026947	13.331497	1.2171783
1187623753749716	-4.9761505	10.787872	1.0861206
1187623762142050	-4.3067017	9.391251	1.539978
1187623770534384	-5.5651245	9.62262	1.9285431
1187623778926718	-7.712021	10.650787	0.56329346
1187623787319052	-8.765671	10.919968	0.09651184
1187623795711386	-9.018112	10.334152	0.98213196
1187623804103720	-9.030304	9.319794	2.3881378
1187623812496054	-8.491867	8.260941	2.855545
1187623820888388	-7.8178406	7.2678986	2.4455109
1187623829280722	-6.759842	6.7059174	1.3977814
1187623837673056	-5.9039917	6.7943115	0.15518188
1187623846065390	-5.6597595	7.277191	-0.9347534
1187623854457724	-5.919388	7.918503	-1.506134
1187623862850058	-5.6931305	8.759979	-1.2070313
1187623871242392	-5.2384796	9.580536	-1.2180023
1187623879634726	-4.9196777	9.866119	-1.1607666
1187623888027060	-4.914276	9.818283	-1.1959991
1187623896419394	-5.2492065	9.822052	-1.5448608
1187623904811728	-5.6618195	10.020889	-2.319687
1187623913204062	-5.484421	9.932327	-3.1405945
1187623921596396	-5.3094788	8.484055	1.1197357
1187623929988730	-6.600601	8.190964	2.083374
1187623938381064	-7.9732666	8.495071	0.5987549
1187623946773398	-8.939514	8.882675	-1.6047211
1187623955165732	-9.349579	8.961395	-2.6861572
1187623963558066	-9.129761	8.734695	-2.154663
1187623971950400	-8.776886	7.732727	-1.4558716
1187623980342734	-8.754501	7.248871	-1.2588654
1187623988735068	-9.118042	7.0016327	-0.6503906
1187623997127402	-9.33989	6.8984375	-0.22340393
1187624005519736	-8.75116	6.804413	-0.48709106
1187624013912070	-7.115967	6.3322906	-0.33792114
1187624022304404	-6.285965	5.5380707	-0.7653351
1187624030696738	-5.738434	5.19162	-0.21299744
1187624039089072	-5.3087463	5.0718384	-0.0059661865
1187624047481406	-4.9927826	5.038803	-0.18733215
1187624055873740	-4.799637	4.9891663	-0.34733582
1187624064266074	-4.5718536	4.8059387	-0.35240173
1187624072658408	-4.283615	4.7433167	-0.8772278
1187624081050742	-3.8588867	4.634491	-1.2548523
1187624089443076	-3.570221	4.537781	-1.474472
1187624097835410	-3.4848022	4.441208	-1.5164642
1187624106227744	-3.4978333	4.301605	-1.3802185
1187624114620078	-3.3318024	4.073822	-1.1007996
1187624123012412	-3.6840057	3.9293365	-1.8314362
1187624131404746	-3.6605988	3.6803894	-1.4006653
1187624139797080	-3.5155792	3.48378	-1.1389465
1187624148189414	-3.3334808	3.3834076	-1.3152161
1187624156581748	-3.0158844	3.3327942	-1.4861603
1187624164974082	-2.262146	3.2320862	-1.0823822
1187624173366416	-1.9283447	3.1088715	-1.3491211
1187624181758750	-1.9823303	2.9381409	-1.9555511
1187624190151084	-2.357254	2.819809	-2.6592255
1187624198543418	-2.751709	2.7221985	-3.2655487
1187624206935752	-2.9658966	2.5999756	-3.7378845
1187624215328086	-3.5449524	2.609085	-4.4779205
1187624223720420	-4.0363007	2.7924042	-5.1642
1187624232112754	-4.658676	3.2166595	-5.630829
1187624240505088	-5.564392	3.988449	-5.874237
1187624248897422	-6.914749	5.187546	-5.9537964
1187624257289755	-8.825897	6.8629456	-6.0757904
1187624265682089	-11.167587	8.938583	-6.9379425
1187624274074423	-13.3272705	10.521545	-9.471573
1187624282466757	-15.398544	12.0569	-11.839996
1187624290859091	-16.553497	12.780838	-12.597824
1187624299251425	-15.902618	11.943176	-10.956253
1187624307643759	-13.388733	9.578354	-7.5862885
1187624316036093	-10.759567	7.3120117	-5.195694
1187624324428427	-9.658936	6.2786865	-3.595337
1187624332820761	-9.4048	6.122101	-2.5239563
1187624341213095	-9.332092	6.3672943	-2.7210999
1187624349605429	-8.960388	6.7730255	-3.6826477
1187624357997763	-8.1792755	7.3308563	-4.292801
1187624366390097	-7.765503	8.281998	-5.182129
1187624374782431	-8.063187	9.204834	-3.565033
1187624383174765	-7.781906	9.876846	-1.7290039
1187624391567099	-7.321228	10.435806	-0.052322388
1187624399959433	-6.7315674	10.509384	1.1749878
1187624408351767	-5.830902	9.557419	1.725174
1187624416744101	-4.7473907	7.4878845	1.3413239
1187624425136435	-3.9223022	6.0390472	-0.023452759
1187624433528769	-3.1047516	5.6542816	-1.2776184
1187624441921103	-2.943451	6.404541	-1.3676605
1187624450313437	-3.251999	7.215454	-1.0432281
1187624458705771	-3.3168945	6.6613007	-1.5807343
1187624467098105	-3.0944977	5.5869293	0.1526947
1187624475490439	-3.32518	5.300171	2.1425781
1187624483882773	-3.6819458	6.074875	3.574173
1187624492275107	-3.953659	6.971817	4.7753906
1187624500667441	-3.9871826	7.5371246	5.495941
1187624509059775	-3.8434143	7.940918	4.9914703
1187624517452109	-4.3712463	8.620819	3.3046417
1187624525844443	-5.73114	9.262085	1.3865814
1187624534236777	-7.9148407	9.243515	-0.02848816
1187624542629111	-9.850983	8.614716	-0.4669037
1187624551021445	-10.868835	7.7568054	-0.16194153
1187624559413779	-10.895279	7.0866547	0.22875977
1187624567806113	-10.972214	5.9204254	0.84732056
1187624576198447	-9.00708	5.91333	0.98950195
1187624584590781	-7.3992157	6.6661987	0.19364929
1187624592983115	-6.627014	7.129242	-0.98846436
1187624601375449	-6.3236237	7.231827	-1.8773346
1187624609767783	-5.7490845	7.732605	-1.8752899
1187624618160117	-5.474243	8.215286	-0.955246
1187624626552451	-5.2058105	8.455612	-0.28086853
1187624634944785	-4.814087	8.301865	0.031570435
1187624643337119	-4.514145	7.9127045	0.17706299
1187624651729453	-4.351074	7.4641266	0.27947998
1187624660121787	-4.1675415	7.0987396	0.37271118
1187624668514121	-4.22818	6.760788	0.65800476
1187624676906455	-3.9606934	6.4822845	0.91664124
1187624685298789	-3.7894135	6.33786	1.2861786
1187624693691123	-3.7386322	6.297333	1.7616119
1187624702083457	-3.8149414	6.3884583	2.2243805
1187624710475791	-4.022003	6.643387	2.4338531
1187624718868125	-3.8148499	6.409836	1.9048004
1187624727260459	-3.8232422	6.4314423	1.3217316
1187624735652793	-4.0258636	6.495636	0.7971802
1187624744045127	-4.2235565	6.4779663	0.46247864
1187624752437461	-4.1764526	6.382736	0.3351593
1187624760829795	-3.6622314	6.3255157	0.35636902
1187624769222129	-2.852356	6.291092	0.8939209
1187624777614463	-2.64534	6.6236267	1.7916565
1187624786006797	-2.855713	7.1694946	2.6628265
1187624794399130	-3.6062317	7.6726227	3.0040588
1187624802791464	-4.7002716	8.095856	2.4756317
1187624811183798	-5.5723267	8.643097	1.0180054
1187624819576132	-6.1914673	8.8893585	0.017990112
1187624827968466	-6.5834503	8.92691	0.019592285
1187624836360800	-7.0356903	8.94339	0.61672974
1187624844753134	-7.3529053	8.904251	1.6136932
1187624853145468	-7.3964233	8.771408	2.7197266
1187624861537802	-7.314392	8.595581	3.4325256
1187624869930136	-7.473831	8.507233	3.1177216
1187624878322470	-7.2761383	8.381638	2.3957977
1187624886714804	-6.83284	8.2391815	1.7183685
1187624895107138	-6.1896667	7.961487	1.3685913
1187624903499472	-5.110092	7.3943176	1.2341309
1187624911891806	-3.2697144	6.4515686	0.8793335
1187624920284140	-4.2738953	5.8339233	2.155014
1187624928676474	-6.3185577	5.718155	3.3203278
1187624937068808	-8.860153	5.9693146	3.6635895
1187624945461142	-12.409958	6.610855	3.3082733
1187624953853476	-16.327347	7.4065247	2.7333221
1187624962245810	-18.033829	7.759781	2.5168304
1187624970638144	-14.506744	7.405304	2.9212494
1187624979030478	-10.167511	7.7412567	2.4313507
1187624987422812	-8.222015	8.511993	1.3812714
1187624995815146	-7.5352325	9.2595825	0.5270386
1187625004207480	-6.5066986	10.173401	0.6890869
1187625012599814	-4.8856354	12.242828	2.3443756
1187625020992148	-3.9877167	12.434753	0.782547
1187625029384482	-4.314392	11.461456	0.6190338
1187625037776816	-4.359024	9.941193	1.0065002
1187625046169150	-4.131363	8.674255	1.1015778
1187625054561484	-4.0203705	8.198456	0.23835754
1187625062953818	-4.1538696	8.566483	-1.8784943
1187625071346152	-4.733795	9.889374	-2.917282
1187625079738486	-4.469116	11.113129	-2.9831848
1187625088130820	-4.045761	11.938553	-2.6431274
1187625096523154	-4.2592163	12.314636	-1.9664459
1187625104915488	-5.2138214	12.275085	-1.0583801
1187625113307822	-5.894989	11.855911	-0.4326477
1187625121700156	-6.12529	11.649536	-0.6240692
1187625130092490	-6.20076	11.18277	1.0696564
1187625138484824	-7.4895325	10.599731	1.5469818
1187625146877158	-9.287796	10.069992	0.030349731
1187625155269492	-10.371689	9.447006	-2.6609802
1187625163661826	-10.131439	8.034668	-4.4669037
1187625172054160	-9.710388	6.3621826	-2.8257751
1187625180446494	-10.289642	5.3425446	-1.2845612
1187625188838828	-11.6106415	5.3836517	-0.9662628
1187625197231162	-12.292221	5.7601013	-1.4880981
1187625205623496	-11.359619	5.663849	-2.0215912
1187625214015830	-9.436844	4.99675	-2.113922
1187625222408164	-8.007202	4.5835266	-1.5117035
1187625230800498	-6.890915	4.3608704	-1.2979584
1187625239192832	-6.022354	4.356842	-0.8524475
1187625247585166	-5.174164	4.509384	-0.2896576
1187625255977500	-4.258896	4.736679	0.07684326
1187625264369834	-3.562088	4.9782257	0.25178528
1187625272762168	-3.148346	5.102844	0.01651001
1187625281154502	-3.024231	5.1746826	-0.20231628
1187625289546836	-2.9850006	5.0679474	-0.5918884
1187625297939170	-3.0285492	4.7174377	-1.2034149
1187625306331504	-3.1974487	4.185013	-1.8204193
1187625314723838	-3.4098053	3.744339	-1.789505
1187625323116172	-3.5998077	3.3266907	-1.9846649
1187625331508505	-3.5943756	3.009613	-1.8795013
1187625339900839	-3.3381653	2.8490143	-1.6168365
1187625348293173	-2.867096	2.832779	-1.3809967
1187625356685507	-2.2771149	2.8944092	-1.3263092
1187625365077841	-1.6846924	2.9291992	-1.504242
1187625373470175	-1.4907379	2.8351288	-1.5464478
1187625381862509	-1.4249725	2.6300354	-1.519989
1187625390254843	-1.4603119	2.3303528	-1.6819
1187625398647177	-1.7467041	2.037918	-2.2883606
1187625407039511	-2.3769073	1.8658142	-3.3962402
1187625415431845	-3.017044	1.8558655	-4.590042
1187625423824179	-3.6205292	1.9636536	-6.113922
1187625432216513	-4.10466	2.109314	-7.5262604
1187625440608847	-5.083954	2.7299805	-8.344025
1187625449001181	-6.9353485	4.215149	-8.243286
1187625457393515	-9.580124	6.64299	-7.2512817
1187625465785849	-12.198349	9.388428	-6.0763702
1187625474178183	-14.141693	10.976044	-7.2315063
1187625482570517	-16.010757	12.491196	-10.311401
1187625490962851	-16.68811	13.318695	-11.537521
1187625499355185	-16.025696	12.877502	-10.602783
1187625507747519	-14.300308	10.944565	-9.037872
1187625516139853	-10.882584	8.120056	-6.517456
1187625524532187	-8.206818	6.5971527	-4.3178253
1187625532924521	-7.0282745	6.7523804	-3.2526093
1187625541316855	-6.313858	7.4447327	-3.4634705
1187625549709189	-5.4334106	7.8399506	-4.590103
1187625558101523	-4.463501	7.888397	-5.8735657
1187625566493857	-4.097702	8.606079	-5.855667
1187625574886191	-3.6586914	9.785156	-5.8168488
1187625583278525	-4.1657867	10.485031	-5.5191803
1187625591670859	-5.8251343	10.701309	-4.540268
1187625600063193	-8.028732	10.572952	-2.6216736
1187625608455527	-9.726349	10.123932	0.013397217
1187625616847861	-9.824066	8.876678	1.7342224
1187625625240195	-8.158051	7.1470947	2.9214478
1187625633632529	-6.9051514	6.018753	2.7278748
1187625642024863	-5.679352	5.4316254	2.1336823
1187625650417197	-4.619568	5.4151764	1.8349457
1187625658809531	-4.279602	5.922241	1.9104614
1187625667201865	-4.5420227	5.9500732	1.520813
1187625675594199	-4.347534	5.844864	1.5581055
1187625683986533	-3.9668732	5.807663	1.8712006
1187625692378867	-3.6181335	5.954468	2.1632385
1187625700771201	-3.4995575	6.5114136	2.289978
1187625709163535	-3.7410889	7.611038	2.3313751
1187625717555869	-4.443863	8.787949	2.5460815
1187625725948203	-5.468506	9.635223	2.4632568
1187625734340537	-6.7644196	9.779816	1.8226166
1187625742732871	-8.020508	9.475296	1.15979
1187625751125205	-8.893616	8.918457	0.8657837
1187625759517539	-9.054489	8.128906	0.9242859
1187625767909873	-7.8840027	7.316345	0.7448273
1187625776302207	-5.9309235	7.039856	0.40116882
1187625784694541	-4.8762207	6.8789063	-0.47839355
1187625793086875	-4.1074524	6.77005	-1.4069519
1187625801479209	-3.1920013	6.695572	-1.9612427
1187625809871543	-2.3945618	6.64476	-2.0957336
1187625818263877	-2.6808014	6.614212	-2.0529633
1187625826656211	-3.4059143	6.6509857	-1.0441437
1187625835048545	-4.256714	6.7666016	0.23622131
1187625843440879	-4.877899	6.730591	1.1062622
1187625851833213	-5.0500793	6.499466	1.2187653
1187625860225547	-4.8338013	6.294235	0.7377777
1187625868617880	-4.869583	6.1719666	0.20399475
1187625877010214	-5.4427185	5.594101	-0.16149902
1187625885402548	-5.952591	5.251663	-0.31274414
1187625893794882	-6.1868134	5.381485	0.0128479
1187625902187216	-5.96109	5.9102173	0.8706207
1187625910579550	-5.2418213	6.4810944	1.9054565
1187625918971884	-5.0082245	6.8806763	2.2096252
1187625927364218	-5.141983	7.136566	1.4602356
1187625935756552	-5.3349	7.1510315	0.13412476
1187625944148886	-5.5232544	7.0056458	-1.2389374
1187625952541220	-5.6794586	6.904587	-2.0636292
1187625960933554	-5.7987213	7.0603027	-1.8872528
1187625969325888	-6.2254486	7.4611053	-0.2611084
1187625977718222	-6.686737	7.4752197	1.4627228
1187625986110556	-6.9358826	7.1718597	2.4889374
1187625994502890	-6.9072723	6.7164	2.7289124
1187626002895224	-6.8054504	6.316498	2.2295837
1187626011287558	-7.1112213	6.167343	0.99238586
1187626019679892	-7.9332275	6.367798	-0.32366943
1187626028072226	-8.425812	6.726837	-0.38032532
1187626036464560	-8.322327	7.2318115	0.22146606
1187626044856894	-7.72023	7.807678	0.8071289
1187626053249228	-7.086563	8.401215	1.0625916
1187626061641562	-7.2707977	9.008331	1.3205414
1187626070033896	-7.9467316	9.512283	2.0670319
1187626078426230	-8.409882	9.399841	3.1303864
1187626086818564	-8.928314	8.608704	3.7413483
1187626095210898	-9.65593	7.460968	3.4853516
1187626103603232	-10.482452	6.402237	2.5298615
1187626111995566	-10.964172	5.7345276	1.7881622
1187626120387900	-11.037613	5.712982	1.5639191
1187626128780234	-11.500061	6.0800934	1.2892914
1187626137172568	-11.887924	6.4678497	1.2306519
1187626145564902	-11.796631	6.82724	1.7134857
1187626153957236	-11.131195	7.161438	2.5504608
1187626162349570	-10.161209	7.3780365	2.883667
1187626170741904	-8.631561	7.499527	2.0150757
1187626179134238	-7.9373627	8.09758	1.2783661
1187626187526572	-7.577774	9.094406	0.9069214
1187626195918906	-7.1053925	9.999512	0.8450165
1187626204311240	-6.4335175	10.436386	0.95422363
1187626212703574	-6.1650696	10.612289	1.1721039
1187626221095908	-5.4512177	10.577042	0.6873932
1187626229488242	-4.491501	10.414154	-0.64660645
1187626237880576	-3.805664	10.583038	-2.2713165
1187626246272910	-3.4444275	11.144913	-3.419693
1187626254665244	-3.3425446	11.975647	-3.2492828
1187626263057578	-3.5286407	12.827591	-0.9167633
1187626271449912	-3.2681885	12.944122	2.129547
1187626279842246	-4.1917267	12.303284	3.5526123
1187626288234580	-5.0844727	11.579956	2.9203186
1187626296626914	-5.661789	10.844223	1.0637665
1187626305019248	-6.2727203	10.070099	-0.7701874
1187626313411582	-7.5095215	9.656403	-1.8724365
1187626321803916	-8.320297	9.676971	-2.6959534
1187626330196250	-8.524246	9.629547	-5.071289
1187626338588584	-8.556107	9.126312	-6.206436
1187626346980918	-8.439255	8.020004	-5.464493
1187626355373252	-8.146744	6.5108337	-3.4066772
1187626363765586	-8.064499	5.282913	-0.6678467
1187626372157920	-8.770538	4.5101013	0.70240784
1187626380550254	-10.269028	4.203827	-0.5552063
1187626388942588	-10.902054	4.1183167	-1.9706421
1187626397334922	-10.3797455	4.0837708	-2.339447
1187626405727255	-9.092026	4.031494	-1.5977173
1187626414119589	-7.5846405	3.9677124	-0.79493713
1187626422511923	-6.9486084	4.244293	-0.062942505
1187626430904257	-5.95578	4.388077	0.46238708
1187626439296591	-4.9611816	4.51416	0.67800903
1187626447688925	-4.05719	4.631256	0.52388
1187626456081259	-3.2630768	4.7240753	0.073516846
1187626464473593	-2.8184204	4.895569	-0.17176819
1187626472865927	-2.6874695	4.840164	-1.0679016
1187626481258261	-2.5938568	4.8141327	-1.1825714
1187626489650595	-2.6444092	4.6098633	-1.47052
1187626498042929	-2.8077087	4.295395	-1.7106171
1187626506435263	-2.945465	4.0674896	-1.362442
1187626514827597	-2.9092407	3.95195	-1.1558228
1187626523219931	-2.8496704	3.8157196	-0.8692322
1187626531612265	-2.6515656	3.6572266	-0.76893616
1187626540004599	-2.3279266	3.4974976	-0.6932068
1187626548396933	-1.9108276	3.3365326	-0.65000916
1187626556789267	-1.4919434	3.192337	-0.7290802
1187626565181601	-1.3742981	3.2112885	-0.83477783
1187626573573935	-1.3257751	3.1357422	-1.0865021
1187626581966269	-1.2741089	3.0851898	-1.4912262
1187626590357034	-1.7190552	3.0808868	-2.2911987
1187626598749368	-2.630539	3.136078	-3.4831085
1187626607141702	-3.577118	3.2468414	-4.9019623
1187626615534036	-4.196686	3.3582	-6.5703125
1187626623926370	-5.01828	3.786026	-7.7084656
1187626632318704	-7.210129	5.31073	-8.174377
1187626640711038	-10.807617	7.7399597	-9.162308
1187626649103372	-14.856354	10.283966	-10.617416
1187626657495706	-17.938812	12.017639	-11.704208
1187626665888040	-19.524048	12.962784	-13.054138
1187626674280374	-19.360153	12.199234	-13.3638
1187626682672708	-18.120087	10.543732	-11.535065
1187626691065042	-15.529388	8.380493	-8.67392
1187626699457376	-12.072922	6.269516	-6.2875977
1187626707849710	-8.845963	4.7722015	-5.204727
1187626716242044	-6.632965	4.2336426	-3.92099
1187626724634378	-5.983078	5.289734	-1.7458344
1187626733026712	-5.5722504	7.1968536	-2.458023
1187626741419046	-4.5144653	8.693283	-4.9612885
1187626749811380	-2.9705048	9.110428	-7.0338593
1187626758203714	-2.0421448	8.557465	-6.2870026
1187626766596048	-3.189148	8.235535	-2.8358765
1187626774988382	-4.3603363	8.733307	-1.3727417
1187626783380716	-4.9919586	9.702438	0.02835083
1187626791773050	-5.4511414	10.889816	1.4273071
1187626800165384	-5.7264557	11.476715	2.8502045
1187626808557718	-5.4621887	10.405624	4.2961884
1187626816950052	-5.264389	8.176056	4.8090973
1187626825342386	-5.3187256	7.084198	5.037735
1187626833734720	-5.5784607	7.4858856	4.8663025
1187626842127054	-6.0163116	8.452805	3.4295807
1187626850519388	-6.1320343	8.873337	0.65016174
1187626858911722	-5.135025	8.06366	-2.2703705
1187626867304056	-3.5078278	7.139221	-2.4413452
1187626875696390	-2.5854492	6.9866486	-0.9471588
1187626884088724	-2.3587646	7.474228	1.3140411
1187626892481058	-2.254654	8.048248	2.8795776
1187626900873392	-2.149704	8.437302	3.238617
1187626909265726	-2.5248108	8.83754	3.2290497
1187626917658060	-3.2885895	9.480881	4.2102203
1187626926050394	-4.270691	9.82399	5.5639343
1187626934442728	-5.119446	10.247498	6.0967255
1187626942835061	-5.9453735	10.5815735	5.6189117
1187626951227395	-6.838196	10.565521	4.5247803
1187626959619729	-7.768051	10.001343	3.5449677
1187626968012063	-8.960602	8.841187	2.7968292
1187626976404397	-9.800827	7.7218475	1.2234497
1187626984796731	-9.974808	6.570984	-0.7392578
1187626993189065	-9.398773	5.4927063	-2.4374237
1187627001581399	-8.2547	4.7332153	-3.213684
1187627009973733	-6.91066	4.640564	-2.659607
1187627018366067	-5.2486725	5.22406	-1.564209
1187627026758401	-3.7541199	5.5396576	-0.59088135
1187627035150735	-3.1640167	5.2785034	0.95166016
1187627043543069	-3.2626953	4.9979095	2.6575775
1187627051935403	-3.553833	5.0375214	3.8339386
1187627060327737	-3.5748444	5.0860443	3.8359375
1187627068720071	-3.3717651	4.989395	2.5813904
1187627077112405	-2.8997955	5.094589	0.9343109
1187627085504739	-3.2499084	6.078308	-0.87838745
1187627093897073	-3.9490051	7.352646	-2.2781372
1187627102289407	-4.1880646	8.183395	-2.679184
1187627110681741	-3.4688568	8.266632	-1.7356262
1187627119074075	-2.9324646	8.313492	-0.78248596
1187627127466409	-3.823532	7.6046143	0.9272156
1187627135858743	-5.391617	6.771698	3.1119537
1187627144251077	-7.5410614	6.2244873	4.3944855
1187627152643411	-9.754852	6.064926	3.7478638
1187627161035745	-10.667786	6.018326	1.3956146
1187627169428079	-10.893555	6.067932	-0.76071167
1187627177820413	-11.09552	6.200302	-1.4313202
1187627186212747	-11.078217	6.262924	-1.257721
1187627194605081	-10.76889	6.466736	-0.42443848
1187627202997415	-10.197205	6.9879303	0.8489685
1187627211389749	-9.506882	7.7026825	2.112152
1187627219782083	-9.173889	8.174271	2.0832367
1187627228174417	-9.160522	8.425095	2.1149597
1187627236566751	-9.337051	8.423889	2.2996063
1187627244959085	-9.656372	8.119415	2.267212
1187627253351419	-9.863266	7.5381317	1.8828583
1187627261743753	-9.431	6.851654	1.7520905
1187627270136087	-9.48288	6.5911865	2.1173248
1187627278528421	-9.528931	6.4332275	2.1254578
1187627286920755	-9.897446	6.2240143	2.0657349
1187627295313089	-10.352386	6.135666	2.320221
1187627303705423	-10.506439	6.412918	3.0775146
1187627312097757	-10.061188	7.1829987	4.058563
1187627320490091	-9.451736	7.787384	3.6708221
1187627328882425	-8.999542	8.467224	2.5580292
1187627337274759	-8.23587	9.459381	1.8717346
1187627345667093	-6.960373	10.761475	1.6632538
1187627354059427	-5.2103577	12.045898	1.4697571
1187627362451761	-3.2757416	12.565857	0.79937744
1187627370844095	-3.3295746	13.059372	0.5272064
1187627379236429	-3.0993958	13.384705	-0.5570984
1187627387628763	-2.6422882	13.396927	-1.2941589
1187627396021097	-2.5022583	13.042297	-1.2045593
1187627404413431	-3.0565643	12.390213	-0.24357605
1187627412805765	-3.6827545	11.654907	1.3027649
1187627421198099	-4.3162994	11.259308	1.2097473
1187627429590433	-3.2342987	11.876312	1.2897186
1187627437982767	-2.9200897	12.65657	1.1289368
1187627446375101	-4.373398	12.933487	0.2766266
1187627454767435	-7.169983	12.501694	-1.2934418
1187627463159769	-9.497391	12.00058	-2.4991608
1187627471552103	-9.331223	11.73143	-4.4450836
1187627479944436	-8.843826	11.080963	-5.2427063
1187627488336770	-8.398483	9.781464	-5.0888824
1187627496729104	-7.8585205	8.006378	-3.2572174
1187627505121438	-7.3240204	6.1340485	0.39842224
1187627513513772	-8.404495	4.4263306	2.8526306
1187627521906106	-11.375198	3.3435974	0.24855042
1187627530298440	-12.339951	2.8536224	-1.7336884
1187627538690774	-11.471207	2.5080261	-2.2798004
1187627547083108	-9.820297	2.357956	-1.9542694
1187627555475442	-8.373306	2.6212616	-1.5635986
1187627563867776	-6.678467	2.9949493	-0.36228943
1187627572260110	-5.235489	3.3472137	0.4666443
1187627580652444	-4.1323395	3.8169403	0.65966797
1187627589044778	-3.030548	4.343292	0.81285095
1187627597437112	-2.0415955	4.783081	0.9551697
1187627605829446	-1.4952698	4.9826813	0.7917328
1187627614221780	-1.4912262	4.9178925	0.17521667
1187627622614114	-1.8647308	4.8703766	-0.43595886
1187627631006448	-2.2570496	4.783142	-1.0007935
1187627639398782	-2.728714	4.550537	-1.346756
1187627647791116	-3.256958	4.2058105	-1.4051361
1187627656183450	-3.692749	3.8577576	-1.2493744
1187627664575784	-3.6439056	3.53273	-1.179596
1187627672968118	-3.3246307	3.3125458	-1.1998596
1187627681360452	-2.845871	3.1896057	-1.1087494
1187627689752786	-2.0937958	3.0114288	-1.1070709
1187627698145120	-1.2964478	2.7638245	-1.2485504
1187627706537454	-0.8273926	2.4984436	-1.4557648
1187627714929788	-0.63397217	2.0478058	-1.6980438
1187627723322122	-0.1312561	1.7732697	-2.3401947
1187627731714456	-0.76145935	1.9149323	-3.2790375
1187627740106790	-1.699173	2.1276855	-4.302353
1187627748499124	-2.5366516	2.307724	-5.491623
1187627756891458	-3.4609528	2.666031	-6.875717
1187627765283792	-5.4865875	3.9295807	-7.2087097
1187627773676126	-9.261276	6.743637	-6.84111
1187627782068460	-13.355728	9.781509	-8.031403
1187627790460794	-16.914764	12.13121	-10.648697
1187627798853128	-19.697586	13.834	-13.875015
1187627807245462	-21.844864	15.32019	-16.06636
1187627815637796	-22.867447	14.812454	-13.309326
1187627824030130	-19.009491	11.584579	-9.086838
1187627832422464	-13.17923	7.501587	-6.615738
1187627840814798	-8.365829	4.319824	-5.2014313
1187627849207132	-5.434021	2.6846619	-3.958374
1187627857599466	-3.4467316	2.3899994	-2.4286041
1187627865991800	-2.125702	3.8502045	-0.515152
1187627874384134	-1.6791992	6.2558746	-1.8929901
1187627882776468	-1.892456	7.9551697	-4.053528
1187627891168802	-2.4445496	9.033966	-4.899353
1187627899561136	-3.451828	10.084488	-4.038498
1187627907953470	-5.1917114	11.789246	-2.9284973
1187627916345804	-7.129364	14.06604	-3.8294983
1187627924738138	-8.16571	14.43129	-1.4939117
1187627933130472	-10.128281	12.865982	2.484665
1187627941522806	-10.254227	10.1653595	4.5906677
1187627949915140	-7.7360687	8.175888	2.9197083
1187627958307474	-4.6939087	9.169769	-1.5629578
1187627966699808	-3.9790802	10.661102	-2.5255127
1187627975092142	-3.8669128	9.356445	-1.3200531
1187627983484476	-3.968277	7.5227966	1.7645264
1187627991876810	-3.8678284	5.922531	4.607544
1187628000269144	-3.3097687	4.7188263	5.7608337
1187628008661478	-2.3401794	3.7539673	5.139206
1187628017053811	-1.9234161	3.733017	2.8201294
1187628025446145	-1.6101227	4.351471	1.7086792
1187628033838479	-2.001587	5.7368774	2.0908203
1187628042230813	-2.9871979	7.8134155	3.199829
1187628050623147	-4.0837097	10.223221	4.3024597
1187628059015481	-4.7420654	12.398178	5.174515
1187628067407815	-6.295395	14.272537	6.443695
1187628075800149	-7.971405	15.354279	7.3755035
1187628084192483	-9.5264435	14.887039	7.230179
1187628092584817	-10.336761	13.136017	6.0997467
1187628100977151	-9.952866	10.613235	4.089615
1187628109369485	-8.5208435	8.035751	1.259079
1187628117761819	-8.206741	6.249527	-1.8143921
1187628126154153	-6.8161163	5.5421753	-3.8386688
1187628134546487	-5.0530243	5.5163116	-4.343857
1187628142938821	-3.9034271	5.7515564	-3.8457031
1187628151331155	-3.7417908	5.9623413	-3.087204
1187628159723489	-3.8532715	6.027817	-2.7910461
1187628168115823	-2.7270966	6.0664063	-0.9449005
1187628176508157	-2.0752563	5.891983	1.6764984
1187628184900491	-2.4537354	5.7664948	3.962799
1187628193292825	-3.0842896	5.4815674	5.175659
1187628201685159	-3.2235565	4.9957123	4.902939
1187628210077493	-2.9658508	4.7080383	3.186798
1187628218469827	-2.9558105	4.4933777	0.9428711
1187628226862161	-3.3124695	4.844742	-0.50561523
1187628235254495	-3.6630707	5.4235992	-1.2704315
1187628243646829	-3.906784	5.910507	-1.3424683
1187628252039163	-4.071335	6.109894	-0.82862854
1187628260431497	-4.2917786	6.077194	-0.017852783
1187628268823831	-5.365555	6.33342	0.92829895
1187628277216165	-5.988785	6.288162	2.4213562
1187628285608499	-6.552475	6.2117615	3.5453491
1187628294000833	-7.651642	6.435013	3.5429077
1187628302393167	-9.232697	7.0312195	2.2519684
1187628310785501	-10.166779	7.637451	0.41288757
1187628319177835	-10.181732	8.064163	-0.69677734
1187628327570169	-9.919357	8.3250885	-0.46688843
1187628335962503	-9.528748	8.437668	0.52482605
1187628344354837	-9.142731	8.481186	1.5771484
1187628352747171	-8.761093	8.473724	2.149231
1187628361139505	-8.187302	8.294479	2.1228027
1187628369531839	-8.182327	8.011322	1.4019775
1187628377924173	-8.600128	7.8199463	0.822876
1187628386316507	-9.050537	7.544937	1.0877075
1187628394708841	-9.33493	7.104721	2.0412445
1187628403101175	-9.459213	6.54187	3.0746307
1187628411493509	-9.663727	6.0488434	3.399231
1187628419885843	-10.2061	5.3748627	2.6016235
1187628428278177	-10.729416	5.0354156	1.315094
1187628436670511	-11.023407	4.967865	0.50531006
1187628445062845	-11.149109	5.221161	0.80558777
1187628453455179	-11.17337	5.81102	2.1371918
1187628461847513	-10.931763	6.603943	3.3524475
1187628470239847	-10.872131	7.2082977	2.8971863
1187628478632181	-10.1575165	8.069336	2.4846954
1187628487024515	-9.336792	9.208191	2.423584
1187628495416849	-8.061218	10.643112	2.5617218
1187628503809183	-5.9582214	12.280472	2.5486603
1187628512201517	-3.5437622	13.788391	2.0904236
1187628520593851	-3.6377106	14.994324	1.1082153
1187628528986185	-3.7856903	15.86264	-0.9611206
1187628537378519	-3.3246002	15.874603	-2.8819885
1187628545770853	-2.6338654	14.927292	-3.7470398
1187628554163186	-2.4039764	13.319382	-3.3950348
1187628562555520	-2.7846832	11.782639	-2.9506989
1187628570947854	-3.1283417	11.55304	0.010650635
1187628579340188	-3.6795502	11.276642	0.777298
1187628587732522	-4.421631	10.767792	0.6563721
1187628596124856	-5.0643463	9.975723	0.6131439
1187628604517190	-5.584381	9.0858	0.85517883
1187628612909524	-7.0739136	8.744843	0.32278442
1187628621301858	-8.568756	8.928925	-2.663681
1187628629694192	-9.106644	9.437836	-5.5349426
1187628638086526	-8.72316	9.256363	-6.361328
1187628646478860	-7.2775726	7.8802185	-4.301651
1187628654871194	-5.4919434	5.5968933	-0.20080566
1187628663263528	-7.0423126	3.937851	2.2977295
1187628671655862	-10.08429	3.8372803	0.27749634
1187628680048196	-11.331024	4.6257477	-1.5476379
1187628688440530	-10.59079	5.425247	-1.9594574
1187628696832864	-8.712021	5.9278107	-1.3401794
1187628705225198	-6.9368744	6.249756	-0.7816162
1187628713617532	-5.9398804	6.538025	-0.5211792
1187628722009866	-5.0848083	6.871582	-0.19187927
1187628730402200	-4.209488	7.2149963	0.25726318
1187628738794534	-3.3124847	7.3613586	0.35838318
1187628747186868	-2.5737152	7.282715	0.10054016
1187628755579202	-2.2134552	7.064926	-0.21121216
1187628763971536	-2.2114563	6.6781006	-0.43055725
1187628772363870	-2.3456268	5.93631	-1.1015472
1187628780756204	-2.7687988	5.107956	-1.2451477
1187628789148538	-3.2131653	4.2073364	-1.0483246
1187628797540872	-3.5302277	3.3221283	-0.745636
1187628805933206	-3.684967	2.57695	-0.50746155
1187628814325540	-3.5845795	1.989502	-0.4239807
1187628822717874	-3.2352753	1.8313904	-0.8530884
1187628831110208	-2.9535675	1.925415	-1.1950836
1187628839502542	-2.6930847	2.1698303	-1.359375
1187628847894876	-2.4140778	2.4465332	-1.3665619
1187628856287210	-2.119461	2.6142883	-1.3452148
1187628864679544	-1.8212433	2.5576324	-1.4694672
1187628873071878	-1.6753998	2.3632202	-2.0297546
1187628881464212	-2.1363678	2.2202759	-3.0231323
1187628889856546	-2.7917633	2.155365	-3.8561096
1187628898248880	-3.3930206	2.1903229	-4.5038605
1187628906641214	-3.9513855	2.3518677	-5.391342
1187628915033548	-4.517975	2.6470947	-6.2799835
1187628923425882	-5.880066	3.5259094	-6.6852417
1187628931818216	-8.074646	5.1460114	-5.9831543
1187628940210550	-10.946442	7.447632	-6.085266
1187628948602884	-14.020447	10.06134	-7.9668427
1187628956995218	-16.64531	12.403976	-11.465836
1187628965387552	-18.794373	14.07988	-15.924957
1187628973779886	-20.153656	14.636139	-14.418488
1187628982172220	-19.074509	13.393753	-9.853806
1187628990564554	-15.430252	10.505066	-6.1024933
1187628998956888	-10.384079	7.213608	-4.582718
1187629007349222	-6.33696	5.6536865	-3.3572845
1187629015741556	-4.5314026	6.5848846	-1.276535
1187629024133890	-3.8908234	8.277603	-1.7911377
1187629032526224	-2.7306213	9.202667	-3.8945313
1187629040918558	-1.1708374	9.528748	-5.5224915
1187629049310892	-0.038146973	9.684769	-5.4045563
1187629057703226	-0.23384094	9.862366	-3.9799042
1187629066095560	-1.6807098	10.439346	-2.5632935
1187629074487894	-2.9051666	11.585892	-0.95500183
1187629082880228	-4.6433716	12.570953	-0.5299225
1187629091272561	-6.695236	12.131577	-0.14852905
1187629099664895	-8.205688	9.912857	1.3135681
1187629108057229	-8.059982	6.9194946	3.953354
1187629116449563	-6.7657776	5.7912903	4.789322
1187629124841897	-5.073105	5.9120636	4.5320435
1187629133234231	-4.8411255	6.627548	4.0907745
1187629141626565	-5.5274353	7.179291	3.8828735
1187629150018899	-5.7808075	7.074356	4.095642
1187629158411233	-4.6547546	6.4451447	4.576172
1187629166803567	-3.6378021	6.498993	3.56221
1187629175195901	-3.1330261	7.1110077	1.3684845
1187629183588235	-2.895935	7.8570404	-0.086242676
1187629191980569	-2.7557983	8.550674	-0.64959717
1187629200372903	-2.9575195	9.185852	-0.31976318
1187629208765237	-4.123459	9.928818	1.1918488
1187629217157571	-4.8063965	10.502106	3.0373077
1187629225549905	-5.5276337	11.234665	4.157028
1187629233942239	-6.3671722	11.608032	4.518051
1187629242334573	-7.3857117	11.295792	4.247696
1187629250726907	-8.23584	10.221222	3.4243927
1187629259119241	-8.107925	8.700714	2.018753
1187629267511575	-7.509613	7.3464813	1.0992737
1187629275903909	-6.8032837	6.391449	0.1971283
1187629284296243	-6.078186	5.857498	-0.5814667
1187629292688577	-5.40773	5.6408386	-1.0031586
1187629301080911	-4.8793335	5.620926	-0.8455658
1187629309473245	-4.5783386	5.7719116	0.024871826
1187629317865579	-3.8724518	5.8137817	0.75268555
1187629326257913	-3.4906464	5.78125	1.0252838
1187629334650247	-3.5829926	5.758545	1.0814514
1187629343042581	-4.0884094	5.718796	1.1003876
1187629351434915	-4.711487	5.6624146	1.167923
1187629359827249	-4.9523773	5.680847	1.2251129
1187629368219583	-4.7071075	5.6509247	0.8352661
1187629376611917	-4.508133	5.6144104	0.25283813
1187629385004251	-4.6006317	5.7821503	-0.12654114
1187629393396585	-4.745117	6.065628	-0.32302856
1187629401788919	-4.6914825	6.2737274	-0.39146423
1187629410181253	-4.5419617	6.245407	-0.2130127
1187629418573587	-4.706955	6.199524	0.1433258
1187629426965921	-5.329483	6.144272	0.4335785
1187629435358255	-6.2963867	6.265259	0.9048462
1187629443750589	-7.107666	6.603424	1.6604309
1187629452142923	-7.435013	7.035675	2.3847961
1187629460535257	-7.6124115	7.3243103	2.2179413
1187629468927591	-8.643387	7.6464844	1.1615906
1187629477319925	-9.567276	7.8950653	-0.03175354
1187629485712259	-9.98262	7.9986877	-0.7807007
1187629494104593	-9.832016	8.009552	-0.7984619
1187629502496927	-9.284546	8.047562	-0.010513306
1187629510889261	-8.652817	8.287506	1.6132965
1187629519281595	-8.399582	8.088089	2.1885834
1187629527673929	-8.76799	8.126144	2.021347
1187629536066263	-9.29303	7.9324646	2.0283966
1187629544458597	-9.76828	7.412445	2.396759
1187629552850931	-10.039871	6.6736603	2.8257751
1187629561243265	-9.812241	5.9231873	2.6856232
1187629569635599	-9.954727	5.416031	2.183136
1187629578027933	-10.2352295	5.0076294	1.9322662
1187629586420267	-10.266495	4.9513245	1.8683167
1187629594812601	-10.407669	5.334732	1.5183411
1187629603204935	-10.93985	6.1647186	0.86598206
1187629611597269	-10.627792	7.5316315	1.8291016
1187629619989603	-10.591354	8.732254	3.558838
1187629628381936	-9.852875	9.466858	3.688263
1187629636774270	-8.331253	10.002457	2.5732117
1187629645166604	-6.9988556	10.580322	1.16362
1187629653558938	-6.586899	11.1492	0.3846283
1187629661951272	-5.748398	11.01561	0.6438446
1187629670343606	-4.6901855	10.374786	1.0289001
1187629678735940	-4.3358307	9.8059845	0.7263489
1187629687128274	-4.4329834	9.379059	-0.24810791
1187629695520608	-4.7204895	9.276459	-1.4465332
1187629703912942	-4.96344	9.612778	-2.1260986
1187629712305276	-5.1345215	10.276871	-1.5652618
1187629720697610	-5.262909	10.536987	-1.4193573
1187629729089944	-5.2443237	10.6740265	-1.2304535
1187629737482278	-4.783188	11.396896	0.3527069
1187629745874612	-4.574936	12.480347	2.1414948
1187629754266946	-5.6165924	13.073395	1.5743256
1187629762659280	-6.989319	12.91832	-1.1174622
1187629771051614	-8.055603	12.782684	-2.6568298
1187629779443948	-8.473785	12.856735	-4.1769714
1187629787836282	-8.264542	12.573563	-5.138809
1187629796228616	-7.743103	11.526337	-4.6408844
1187629804620950	-7.443695	9.78595	-2.3153534
1187629813013284	-7.7926483	8.220657	0.21803284
1187629821405618	-8.149475	6.9231873	2.5483093
1187629829797952	-9.668564	5.643524	1.9015656
1187629838190286	-10.858856	4.5627747	-0.20735168
1187629846582620	-10.793091	3.57901	-1.7481232
1187629854974954	-9.734329	2.5311737	-1.5417023
1187629863367288	-8.906799	2.20813	-0.82185364
1187629871759622	-7.71933	2.718338	-0.008361816
1187629880151956	-5.896469	3.09964	0.08778381
1187629888544290	-4.4439697	3.527176	0.048461914
1187629896936624	-3.5709076	3.9854126	0.09529114
1187629905328958	-2.7802887	4.279434	0.04801941
1187629913721292	-2.4751282	4.5796204	-0.07722473
1187629922113626	-1.900238	4.583206	-0.3004303
1187629930505960	-1.6906586	4.6706696	-0.42510986
1187629938898294	-1.7372894	4.7691193	-0.56707764
1187629947290628	-1.9234161	4.7545166	-0.7825928
1187629955682962	-2.1872559	4.543091	-1.0161438
1187629964075296	-2.494339	4.309784	-1.1168518
1187629972467630	-2.54245	4.051605	-1.0247803
1187629980859964	-2.3607788	3.7407684	-0.9319153
1187629989252298	-2.0079193	3.3997803	-0.8536072
1187629997644632	-1.5520782	2.986206	-0.86286926
1187630006036966	-1.086029	2.4219208	-1.0804138
1187630014429300	-0.8931885	1.8006592	-1.535675
1187630022821634	-1.0582733	1.299469	-1.8299103
1187630031213968	-1.7145233	0.9862366	-2.51445
1187630039606302	-2.4567719	0.86325073	-3.5476532
1187630047998636	-2.9915924	0.89227295	-4.82016
1187630056390970	-3.4732666	1.0758362	-6.2426605
1187630064783304	-4.8350525	1.9197693	-7.5256042
1187630073175638	-8.019211	4.1227264	-7.608856
1187630081567972	-11.887024	7.1056366	-7.9940796
1187630089960306	-15.475098	10.033997	-9.461319
1187630098352640	-18.368515	12.738129	-12.175034
1187630106744974	-20.539093	15.617706	-15.599899
1187630115137308	-20.925156	16.911346	-14.910294
1187630123529642	-18.251434	14.695358	-10.307343
1187630131921976	-14.051819	10.875351	-7.736206
1187630140314310	-9.828918	7.368576	-6.111557
1187630148706644	-6.723877	5.636734	-3.9508057
1187630157098978	-5.2434387	6.2152863	-1.3165588
1187630165491311	-5.2015686	7.9700165	-2.4272156
1187630173883645	-4.0746307	8.683472	-4.316742
1187630182275979	-2.4152527	9.027039	-4.269058
1187630190668313	-1.8012695	9.512222	-3.4506683
1187630199060647	-2.5165863	10.465881	-2.6402588
1187630207452981	-3.0932922	11.888931	-0.96139526
1187630215845315	-4.2218933	13.347534	-1.1175995
1187630224237649	-6.8964996	13.087311	-0.123413086
1187630232629983	-8.139801	10.570023	2.3045197
1187630241022317	-7.501114	7.3402405	4.4005737
1187630249414651	-5.7900696	5.1340637	4.6039734
1187630257806985	-4.4635315	4.998047	2.592804
1187630266199319	-4.774246	6.070389	0.97006226
1187630274591653	-5.877777	6.6336365	1.3916321
1187630282983987	-6.0079956	6.435364	3.2964935
1187630291376321	-5.083145	5.98407	4.7197266
1187630299768655	-3.5488434	5.8638306	4.418869
1187630308160989	-2.1549988	6.4424744	3.2732391
1187630316553323	-1.5956726	7.679779	3.2842255
1187630324945657	-1.440979	8.922134	2.5458984
1187630333337991	-1.6671906	10.182999	2.2792969
1187630341730325	-2.2044373	11.397171	2.8530579
1187630350122659	-3.061325	12.40271	4.042816
1187630358514993	-4.2839813	12.981125	4.8846893
1187630366907327	-5.3497925	13.082825	5.2246704
1187630375299661	-6.339142	12.584946	4.7682343
1187630383691995	-7.116577	11.564117	3.6873932
1187630392084329	-7.595215	10.051437	2.4701385
1187630400476663	-7.7530212	8.348312	1.4233093
1187630408868997	-7.656967	7.1397247	0.15336609
1187630417261331	-6.942108	6.632248	-0.63926697
1187630425653665	-5.6991425	6.4144897	-1.0878906
1187630434045999	-4.8256836	6.1714325	-1.203186
1187630442438333	-4.4488373	5.9501038	-0.92422485
1187630450830667	-4.3778534	5.801346	-0.22299194
1187630459223001	-4.2542267	5.49588	0.7389679
1187630467615335	-4.419235	5.144989	2.2667542
1187630476007669	-4.9793243	5.0547333	3.3686981
1187630484400003	-5.3142395	5.1002502	3.4850922
1187630492792337	-5.282913	5.0592957	2.6603546
1187630501184671	-4.988785	4.8185425	1.2953339
1187630509577005	-4.726959	4.6478424	0.250412
1187630517969339	-5.01622	5.071289	-0.31617737
1187630526361673	-5.3525085	5.464859	-0.2116394
1187630534754007	-5.5026245	5.7268066	0.09968567
1187630543146341	-5.610489	5.8200073	0.39134216
1187630551538675	-5.924225	5.798691	0.5513611
1187630559931009	-6.455017	5.7798157	0.5066223
1187630568323343	-7.1549225	5.8446198	0.6103058
1187630576715677	-7.4981384	6.1332397	1.0149536
1187630585108011	-7.8188934	6.451874	0.95222473
1187630593500345	-8.504944	6.8317413	0.2268219
1187630601892679	-9.625168	7.30571	-0.7801361
1187630610285013	-10.324951	7.59993	-1.1558685
1187630618677347	-10.160004	7.9897003	0.13087463
1187630627069681	-9.266708	8.024292	1.666565
1187630635462015	-8.362549	7.9028473	2.1663513
1187630643854349	-7.8333435	7.846344	1.7955627
1187630652246683	-7.884842	7.957855	1.2521362
1187630660639017	-8.666122	7.923218	0.6867981
1187630669031351	-9.54892	7.62883	0.96928406
1187630677423685	-9.2881775	7.01239	1.6848297
1187630685816019	-9.06868	6.3800354	2.1694946
1187630694208353	-9.075394	5.827118	2.2633057
1187630702600686	-9.091187	5.3324738	2.0886688
1187630710993020	-9.59993	4.90802	1.8023071
1187630719385354	-10.165527	4.8511353	0.92277527
1187630727777688	-10.768143	4.8744965	0.53956604
1187630736170022	-10.929413	5.3901978	1.4168701
1187630744562356	-10.777832	6.5452576	3.1148376
1187630752954690	-10.789841	8.018158	4.230667
1187630761347024	-11.070145	8.961456	3.3271332
1187630769739358	-9.879196	9.744797	1.6793518
1187630778131692	-7.834244	11.099762	1.1324005
1187630786524026	-4.9586334	12.240402	0.9611206
1187630794916360	-2.6341858	12.779419	0.9984894
1187630803308694	-2.4731293	12.779831	1.3363342
1187630811701028	-3.190979	12.985214	1.2176971
1187630820093362	-3.0882874	12.942841	0.12120056
1187630828485696	-3.1306915	12.664703	-0.8627777
1187630836878030	-3.5723724	12.286362	-1.3943787
1187630845270364	-4.4080353	11.855743	-1.5559845
1187630853662698	-5.406891	11.428864	-1.3984833
1187630862055032	-5.805176	11.505249	0.4625244
1187630870447366	-5.1671753	11.469955	1.0245361
1187630878839700	-5.468506	11.12413	1.9838257
1187630887232034	-6.9167023	10.669846	1.71492
1187630895624368	-8.7000885	10.369492	-0.2230072
1187630904016702	-9.711273	10.478394	-3.414688
1187630912409036	-10.535843	11.106964	-7.974182
1187630920801370	-10.31868	10.753983	-9.864044
1187630929193704	-8.798782	8.823059	-7.607666
1187630937586038	-7.995117	6.6983337	-3.1379547
1187630945978372	-8.71907	5.1288147	1.4263916
1187630954370706	-10.41571	4.0960236	3.8963928
1187630962763040	-12.830536	3.5628967	1.3495789
1187630971155374	-12.553589	4.197174	-1.3975372
1187630979547708	-10.554047	4.3804474	-1.8643036
1187630987940042	-8.527084	4.0982666	-1.0315094
1187630996332376	-6.886215	3.6526337	0.10371399
1187631004724710	-5.117279	3.4465485	0.9662018
1187631013117044	-4.9314423	3.8517303	1.231247
1187631021509378	-4.432022	4.197403	1.6056366
1187631029901712	-3.9363556	4.880234	1.8840942
1187631038294046	-3.2660675	5.379944	1.8223419
1187631046686380	-2.5509338	5.525818	1.3782654
1187631055078714	-2.2184143	5.556549	0.6890106
1187631063471048	-2.2469025	5.562439	0.0074005127
1187631071863382	-2.5157013	5.6788177	-0.809433
1187631080255716	-2.8095703	5.6539	-1.5950623
1187631088648050	-2.884201	5.4064026	-1.8884888
1187631097040384	-2.824936	4.9999847	-1.6781311
1187631105432718	-3.0047913	4.638443	-1.4906158
1187631113825052	-3.0425568	4.4306946	-0.95980835
1187631122217386	-2.574234	4.1867676	-0.6230469
1187631130609720	-1.8068542	3.9234467	-0.5606537
1187631139002054	-0.95625305	3.6049957	-0.6375122
1187631147394388	-0.2934723	3.251068	-0.68273926
1187631155786722	-0.1554718	2.9503326	-0.56088257
1187631164179056	-0.7442322	2.5602112	-0.7513733
1187631172571390	-1.7430573	2.2839813	-1.709137
1187631180963724	-2.5980225	2.1062164	-2.5551147
1187631189356058	-3.2926636	2.0405579	-3.5262299
1187631197748392	-3.8045654	2.0113525	-4.8759766
1187631206140726	-4.0862885	1.8971863	-6.5457153
1187631214533060	-5.2648315	2.2679596	-7.640732
1187631222925394	-8.022156	4.333023	-7.2868347
1187631231317728	-11.614197	7.619385	-7.3892365
1187631239710061	-15.009003	10.815582	-8.994797
1187631248102395	-17.705704	13.333908	-12.286636
1187631256494729	-20.033981	15.8489685	-16.024017
1187631264887063	-20.575348	17.305588	-14.594315
1187631273279397	-18.860107	15.093506	-10.218369
1187631281671731	-14.641373	11.062759	-6.6990967
1187631290064065	-9.752441	7.39386	-4.3359833
1187631298456399	-5.9882507	5.7173615	-2.4058685
1187631306848733	-4.0754547	6.2821198	-0.15829468
1187631315241067	-3.8595276	7.6286926	-0.9904938
1187631323633401	-3.0594788	8.255585	-3.4364166
1187631332025735	-1.6775665	8.697311	-5.590576
1187631340418069	-0.20414734	9.108032	-6.556183
1187631348810403	0.45451355	9.599609	-6.0113983
1187631357202737	-0.92100525	10.345184	-4.0669403
1187631365595071	-3.1104584	11.2534485	-2.4148712
1187631373987405	-5.520355	12.10936	-1.2451782
1187631382379739	-7.709137	11.99231	0.3977356
1187631390772073	-8.495331	10.554062	1.8231506
1187631399164407	-7.784622	8.453033	2.5903625
1187631407556741	-7.3113403	7.4233093	3.3811646
1187631415949075	-6.0667725	7.369461	5.2171783
1187631424341409	-5.680893	7.5520935	6.6903687
1187631432733743	-5.3766785	7.6421967	7.3444824
1187631441126077	-4.325348	7.3783417	7.177887
1187631449518411	-2.5063019	6.9023285	6.2389984
1187631457910745	-1.1344604	6.930008	4.476959
1187631466303079	-1.2950745	8.0143585	2.771576
1187631474695413	-1.4486237	8.901093	1.1209412
1187631483087747	-2.5774078	9.507797	0.4186554
1187631491480081	-4.229843	9.6324005	0.7033844
1187631499872415	-5.441971	9.26181	1.6522675
1187631508264749	-5.411438	8.795273	2.9036865
1187631516657083	-5.9869537	8.954315	3.9931183
1187631525049417	-6.107498	9.473511	3.807785
1187631533441751	-5.7566986	9.649658	3.1626892
1187631541834085	-5.580063	9.173172	2.3377686
1187631550226419	-6.0584717	8.193893	1.4406586
1187631558618753	-6.8160706	7.404068	0.6674347
1187631567011087	-7.442627	6.6782837	-0.09501648
1187631575403421	-7.433487	5.906494	-0.73197937
1187631583795755	-7.223114	5.300659	-1.1318665
1187631592188089	-6.86499	5.034439	-1.2401428
1187631600580423	-6.1837463	5.112503	-0.96195984
1187631608972757	-4.911026	5.2395782	-0.06159973
1187631617365091	-4.3660126	5.3536987	1.5948639
1187631625757425	-4.629669	5.3560486	3.0387268
1187631634149759	-4.979019	5.379532	3.6752014
1187631642542093	-4.977234	5.39946	3.2880554
1187631650934427	-4.6276703	5.337723	2.009781
1187631659326761	-4.41658	5.2078857	0.32901
1187631667719095	-4.785614	5.4624176	-1.1470184
1187631676111429	-5.1738586	5.939392	-1.9942169
1187631684503763	-5.739975	6.3272095	-1.7138519
1187631692896097	-6.194397	6.511505	-0.8621826
1187631701288431	-6.308136	6.5450134	-0.24230957
1187631709680765	-6.6730347	6.549011	0.093688965
1187631718073099	-7.5289764	6.6934357	1.0321808
1187631726465433	-8.265244	6.9525604	1.8141785
1187631734857767	-8.676086	7.1868744	1.928009
1187631743250101	-9.089478	7.294113	1.2470093
1187631751642435	-9.866684	7.2620544	0.08679199
1187631760034769	-10.58754	7.2540894	-0.60713196
1187631768427103	-10.358612	7.1515503	-0.3209381
1187631776819436	-9.222107	7.122635	0.45396423
1187631785211770	-8.004532	7.2880707	1.4601288
1187631793604104	-7.463135	7.481201	2.1240692
1187631801996438	-7.897064	7.556061	1.9943237
1187631810388772	-8.80835	8.007706	1.4260101
1187631818781106	-9.120377	8.006805	1.6226501
1187631827173440	-9.137207	7.6775055	2.255783
1187631835565774	-8.828369	7.3000336	2.7130737
1187631843958108	-8.615189	7.0099792	2.6741638
1187631852350442	-8.862274	6.755066	2.2623138
1187631860742776	-8.698257	6.361435	2.1837769
1187631869135110	-9.2048645	6.1735077	1.6685638
1187631877527444	-9.902435	6.1754456	1.2550812
1187631885919778	-10.421982	6.545212	1.77005
1187631894312112	-10.465103	7.291733	3.0914307
1187631902704446	-10.104584	8.19754	4.19545
1187631911096780	-10.57077	8.587189	3.2193298
1187631919489114	-9.876251	8.741272	1.5518188
1187631927881448	-8.259918	9.280777	0.9134979
1187631936273782	-6.128601	10.330841	0.8152313
1187631944666116	-4.1239777	11.459854	0.8470917
1187631953058450	-3.0552826	11.900681	0.8516693
1187631961450784	-3.5139008	11.93956	0.9523773
1187631969843118	-3.7797852	11.763077	0.35409546
1187631978235452	-3.7684631	11.170776	-0.17286682
1187631986627786	-4.13385	10.360748	-0.40548706
1187631995020120	-5.2159424	9.415619	-0.5155487
1187632003412454	-6.5656433	8.520477	-0.79473877
1187632011804788	-6.4572906	9.432968	-0.4011078
1187632020197122	-4.790863	11.060562	0.9720459
1187632028589456	-5.19368	11.689346	0.8550873
1187632036981790	-6.522339	11.740646	0.077178955
1187632045374124	-7.6980743	11.721527	-0.9992218
1187632053766458	-8.577377	11.714508	-2.8842163
1187632062158792	-8.294342	11.188293	-5.2526855
1187632070551126	-8.016998	9.528107	-5.9979553
1187632078943460	-8.190643	8.103424	-4.5290527
1187632087335794	-8.788513	7.23555	-1.6562653
1187632095728128	-9.769897	6.864868	0.95780945
1187632104120462	-11.063721	6.683258	1.611145
1187632112512796	-11.2043	6.216675	0.6390686
1187632120905130	-9.846252	5.5485992	-0.44776917
1187632129297464	-8.426849	4.7269897	-0.87086487
1187632137689798	-7.429947	4.0664215	-0.9242096
1187632146082132	-6.8493195	3.7294617	-0.72117615
1187632154474466	-6.24028	3.588852	-0.089645386
1187632162866800	-5.589203	3.5988007	0.27514648
1187632171259134	-4.973404	3.878601	0.047576904
1187632179651468	-4.3975525	4.43219	0.0066070557
1187632188043802	-3.910019	4.9786987	0.056289673
1187632196436136	-3.6135406	5.3836975	-0.024291992
1187632204828470	-3.6090088	5.777664	-0.29815674
1187632213220804	-3.5494385	6.031494	-0.43385315
1187632221613138	-3.3174438	6.0506744	-0.702652
1187632230005472	-3.1676788	5.768051	-1.129425
1187632238397806	-3.2011414	5.357773	-1.2671814
1187632246790140	-3.350296	4.9644012	-0.99082947
1187632255182474	-3.3762207	4.573349	-0.80563354
1187632263574808	-3.0222778	4.14563	-0.6929779
1187632271967142	-2.366455	3.7259216	-0.5539398
1187632280359476	-1.6842499	3.420929	-0.35498047
1187632288751810	-1.2478027	3.2029572	-0.26245117
1187632297144144	-1.0699768	2.999405	-0.43481445
1187632305536478	-0.7779999	2.7294006	-0.88287354
1187632313928811	-1.0033112	2.592804	-1.0553436
1187632322321145	-1.7088928	2.4653473	-1.7944794
1187632330713479	-2.4380493	2.3360748	-2.5355682
1187632339105813	-2.984909	2.2200775	-3.3797607
1187632347498147	-3.3759155	2.1560364	-4.57251
1187632355890481	-3.910431	2.2018738	-6.1491547
1187632364282815	-4.736847	2.5647583	-7.209732
1187632372675149	-7.0463257	4.2065277	-7.384384
1187632381067483	-10.214249	6.951706	-7.517288
1187632389459817	-13.592377	9.799789	-8.925812
1187632397852151	-16.722519	12.049149	-11.758713
1187632406244485	-19.475555	13.945969	-14.460617
1187632414636819	-21.120605	16.212143	-14.964111
1187632423029153	-20.244446	15.022888	-11.043274
1187632431421487	-16.56842	11.638657	-6.9202423
1187632439813821	-11.626389	7.785919	-4.116699
1187632448206155	-7.477356	5.102707	-2.4735718
1187632456598489	-5.537384	4.549011	-0.8529053
1187632464990823	-5.8733215	5.6259766	-1.296524
1187632473383157	-5.821884	6.227829	-3.1053314
1187632481775491	-4.267456	6.749283	-4.616272
1187632490167825	-2.0152283	7.5132904	-5.11145
1187632498560159	-0.41604614	8.671005	-4.490967
1187632506952493	-0.6379852	10.112488	-3.1462402
1187632515344827	-1.6768646	11.560135	-2.3885193
1187632523737161	-3.4674988	12.874039	-1.2527466
1187632532129495	-5.382019	13.137543	-0.13520813
1187632540521829	-6.869049	12.004456	0.9420166
1187632548914163	-7.6973267	9.895935	1.9416351
1187632557306497	-8.404938	8.231735	2.4931183
1187632565698831	-8.273529	7.726532	3.961029
1187632574091165	-7.9221497	7.5671997	5.3367004
1187632582483499	-6.949127	7.3356323	5.935379
1187632590875833	-5.285904	6.9578857	5.5665894
1187632599268167	-3.3098907	6.6078186	4.4638367
1187632607660501	-1.9597931	6.526062	3.2393036
1187632616052835	-1.8950043	7.3005676	2.6129456
1187632624445169	-1.756012	7.8328705	1.8226929
1187632632837503	-1.8840485	8.411041	1.4506378
1187632641229837	-2.4022827	9.018341	1.9053802
1187632649622171	-3.2249146	9.47644	3.1497803
1187632658014505	-4.127411	9.703583	4.245819
1187632666406839	-4.7161713	9.992386	4.855713
1187632674799173	-5.292267	10.229294	4.4374847
1187632683191507	-5.4256287	10.304474	3.3669434
1187632691583841	-5.490402	9.903259	2.267395
1187632699976175	-6.0451508	8.854492	1.6393585
1187632708368509	-6.5875244	7.774719	0.9862976
1187632716760843	-7.4167175	6.8897552	-0.08079529
1187632725153177	-7.553894	6.1206055	-0.78334045
1187632733545511	-7.3007507	5.6954346	-1.0263214
1187632741937845	-6.8535156	5.545532	-1.0040894
1187632750330179	-6.357483	5.4514923	-0.9385376
1187632758722513	-5.908386	5.4485474	-0.49235535
1187632767114847	-5.1641235	5.6496887	0.5085144
1187632775507181	-4.907959	5.643051	1.5304871
1187632783899515	-5.162674	5.5500336	2.3079681
1187632792291849	-5.479553	5.444916	2.6328888
1187632800684183	-5.3675385	5.3343964	2.3661194
1187632809076517	-5.2435455	5.22995	1.5196838
1187632817468851	-5.179489	5.1929016	0.5881653
1187632825861185	-5.3246765	5.4159546	0.047088623
1187632834253519	-5.600769	5.892868	-0.34417725
1187632842645853	-5.949188	6.41304	-0.5647125
1187632851038186	-6.293091	6.685364	-0.450531
1187632859430520	-6.336899	6.5621033	-0.112350464
1187632867822854	-6.373169	6.392914	0.052764893
1187632876215188	-6.7461853	6.3028717	0.55599976
1187632884607522	-7.2507324	6.2628174	1.0713501
1187632892999856	-7.7638397	6.3098145	1.2915497
1187632901392190	-8.23645	6.4628296	1.0231476
1187632909784524	-8.598282	6.4290314	0.37109375
1187632918176858	-9.02298	6.420639	-0.10636902
1187632926569192	-9.04985	6.508423	0.01902771
1187632934961526	-8.816742	6.7470093	0.58187866
1187632943353860	-8.566727	7.188324	1.3039551
1187632951746194	-8.453796	7.7622986	1.9374084
1187632960138528	-8.228256	7.993683	2.4255524
1187632968530862	-8.644409	8.229813	1.6455688
1187632976923196	-8.83609	8.289215	1.1539764
1187632985315530	-8.784866	8.011459	1.1736603
1187632993707864	-8.632538	7.5080566	1.6316376
1187633002100198	-8.606384	7.1001434	2.232193
1187633010492532	-8.950348	6.499939	2.4256134
1187633018884866	-9.292496	5.9609375	2.7830048
1187633027277200	-10.060898	5.5555115	2.7531738
1187633035669534	-10.729019	5.395508	2.4615326
1187633044061868	-11.003204	5.575424	2.3569489
1187633052454202	-11.075806	6.176071	2.9393616
1187633060846536	-11.364975	7.4808807	3.5452728
1187633069238870	-10.844711	8.124283	2.9167023
1187633077631204	-10.034012	8.713364	2.1740875
1187633086023538	-8.937134	9.458115	1.4959259
1187633094415872	-7.5673676	10.571152	1.2979279
1187633102808206	-5.810959	12.169281	1.8371887
1187633111200540	-2.3577728	13.377991	-0.38542175
1187633119592874	-1.0370331	13.217575	-1.9542389
1187633127985208	-2.6854553	12.732193	-1.5252991
1187633136377542	-4.4667664	11.718292	-0.09991455
1187633144769876	-4.951462	10.064331	0.7910309
1187633153162210	-5.521347	8.188858	0.078933716
1187633161554544	-6.4791718	7.8180084	-0.23158264
1187633169946878	-5.0548553	9.279434	-0.5431671
1187633178339212	-4.6911926	10.511276	0.40127563
1187633186731546	-5.1254272	11.392563	0.17758179
1187633195123880	-5.6250153	11.783997	-1.48143
1187633203516214	-5.808029	11.15831	-1.629242
1187633211908548	-6.3929443	9.948868	-2.446701
1187633220300882	-7.255768	7.9734497	-2.8394318
1187633228693216	-9.412613	7.025177	-1.4940338
1187633237085550	-12.0784	6.9157867	0.5722351
1187633245477884	-13.921875	7.061737	1.4150085
1187633253870218	-13.673843	7.109085	-0.6636963
1187633262262552	-11.115265	7.297943	-1.1368408
1187633270654886	-9.739914	7.7428894	-1.2515869
1187633279047220	-8.678055	7.554016	-1.4364014
1187633287439554	-7.9492493	6.7759094	-1.3078918
1187633295831888	-7.4954987	5.846405	-0.72309875
1187633304224222	-6.9301605	5.283554	-0.19325256
1187633312616556	-6.5670776	4.958435	0.337265
1187633321008890	-6.358017	4.947632	0.16304016
1187633329401224	-5.9232635	5.131531	-0.06072998
1187633337793558	-5.3446503	5.333481	-0.1671753
1187633346185892	-4.740387	5.4003296	-0.23640442
1187633354578226	-4.0601654	5.2809143	-0.46305847
1187633362970560	-3.9131775	5.2809143	-0.539978
1187633371362894	-3.7484436	4.990402	-0.8068695
1187633379755228	-3.7300873	4.511673	-0.8385773
1187633388147561	-3.5910492	3.863388	-0.9461975
1187633396539895	-3.1861115	3.2091522	-1.214035
1187633404932229	-2.8596497	2.9858856	-0.88864136
1187633413324563	-2.4565125	2.8376312	-0.704834
1187633421716897	-1.9836121	2.7696228	-0.42037964
1187633430109231	-1.3967133	2.7401428	-0.113983154
1187633438501565	-1.0202942	2.747345	-0.0074310303
1187633446893899	-1.1433868	2.7416077	-0.25013733
1187633455286233	-1.6627197	2.5676117	-0.7107086
1187633463678567	-2.044571	2.3532562	-0.94799805
1187633472070901	-2.4586182	2.1852722	-1.328125
1187633480463235	-2.8305206	1.9875793	-1.9505768
1187633488855569	-3.053711	1.7203674	-2.8598175
1187633497247903	-3.1240692	1.416626	-4.08107
1187633505640237	-3.281479	1.2251892	-5.626526
1187633514032571	-4.2392273	1.6147308	-6.6848297
1187633522424905	-6.1052856	2.917038	-7.2810974
1187633530817239	-8.733917	5.2243347	-7.686798
1187633539209573	-11.510651	8.095184	-8.613022
1187633547601907	-13.940521	11.010498	-10.4722595
1187633555994241	-16.317429	13.895889	-12.551056
1187633564386575	-18.597717	17.282852	-14.078934
1187633572778909	-18.64505	17.261292	-11.098419
1187633581171243	-15.961395	14.152176	-7.79747
1187633589563577	-12.154373	9.743149	-5.774353
1187633597955911	-9.17453	6.117523	-4.62236
1187633606348245	-7.215439	4.4759827	-2.73732
1187633614740579	-7.4058685	5.204788	-0.88887024
1187633623132913	-7.6781006	6.2074127	-1.8590698
1187633631525247	-6.681595	6.6795044	-3.857956
1187633639917581	-5.0856476	6.759491	-5.1774445
1187633648309915	-4.090393	7.041168	-4.5268555
1187633656702249	-3.8584595	8.273422	-1.8385773
1187633665094583	-3.8546448	10.08139	-2.02388
1187633673486917	-4.198166	11.948151	-1.1438904
1187633681879251	-5.41037	13.443588	0.0057373047
1187633690271585	-6.789505	13.447235	0.8986969
1187633698663919	-7.1544647	11.149292	1.33844
1187633707056253	-6.230377	7.7566376	1.67659
1187633715448587	-5.715683	6.3198853	2.3318787
1187633723840921	-5.2642365	5.9276123	3.0606232
1187633732233255	-5.099701	5.9962616	3.1822357
1187633740625589	-4.756668	5.9615173	3.0592346
1187633749017923	-3.706894	5.601074	3.453308
1187633757410257	-2.672989	5.590103	4.1422577
1187633765802591	-2.3483887	6.363556	4.928482
1187633774194925	-1.9277344	7.0336914	5.0448303
1187633782587259	-1.8900146	7.8973846	4.400711
1187633790979593	-2.4443817	8.982651	3.8612213
1187633799371927	-3.4347992	10.071426	4.447098
1187633807764261	-4.2459106	10.861649	5.323822
1187633816156595	-5.0509796	10.818405	4.9728546
1187633824548929	-5.953766	10.956192	3.9011078
1187633832941263	-6.665283	11.136383	2.7016754
1187633841333597	-7.3384094	10.898697	1.6247864
1187633849725931	-8.181427	9.840515	0.7661896
1187633858118265	-8.181427	8.542801	0.49014282
1187633866510599	-8.515915	7.4008026	-0.4600525
1187633874902933	-8.490234	6.5814514	-1.1273651
1187633883295267	-7.802948	5.974045	-1.3745422
1187633891687601	-6.864212	5.473358	-1.52742
1187633900079935	-6.4077606	5.05838	-1.9551086
1187633908472269	-6.073761	4.938736	-1.6121368
1187633916864603	-4.695938	5.3721924	-0.06298828
1187633925256936	-3.9573822	5.3469543	1.418045
1187633933649270	-3.9055939	5.0603485	2.7019196
1187633942041604	-4.2521515	4.845642	3.6134186
1187633950433938	-4.6180115	4.917328	3.836975
1187633958826272	-4.6957703	5.0110626	2.9795532
1187633967218606	-4.435211	5.059845	1.721405
1187633975610940	-4.4742126	5.2863007	0.73883057
1187633984003274	-4.9024963	5.935669	-0.22061157
1187633992395608	-5.3970795	6.8002777	-1.0997314
1187634000787942	-5.408615	7.3328705	-1.473877
1187634009180276	-4.9851685	7.4435425	-0.71025085
1187634017572610	-5.057083	7.291565	0.40429688
1187634025964944	-5.760803	7.22052	1.0391998
1187634034357278	-6.5642242	7.204544	1.4758911
1187634042749612	-7.2548523	7.098358	1.9005432
1187634051141946	-7.99028	6.7319946	2.224823
1187634059534280	-8.950394	6.2953186	1.8389893
1187634067926614	-9.693512	5.993149	0.67489624
1187634076318948	-9.955765	5.908386	0.013839722
1187634084711282	-9.738953	5.8507233	0.16603088
1187634093103616	-9.27449	5.764801	1.0074158
1187634101495950	-8.939957	5.8191376	2.018219
1187634109888284	-8.994797	6.3794556	2.1338654
1187634118280618	-9.214645	6.952606	1.4153442
1187634126672952	-9.318741	7.3305206	1.2576141
1187634135065286	-9.422684	7.4309998	1.8721924
1187634143457620	-9.509262	7.2858734	2.83049
1187634151849954	-9.385681	7.008835	3.3119812
1187634160242288	-9.503967	6.480011	3.1052246
1187634168634622	-10.101318	6.032837	2.2344513
1187634177026956	-10.935608	5.8620605	0.8235016
1187634185419290	-11.710342	6.0824585	-0.006591797
1187634193811624	-11.906998	6.7353516	0.67671204
1187634202203958	-11.037811	7.6690063	2.9276733
1187634210596292	-11.0056	8.188385	3.453888
1187634218988626	-9.975983	8.840363	2.6554565
1187634227380960	-8.659042	9.769745	1.9606628
1187634235773294	-7.7799377	10.99054	1.5997314
1187634244165628	-7.1026	12.265579	1.556015
1187634252557962	-5.419235	13.14975	1.7793732
1187634260950296	-4.4371796	13.634293	1.48526
1187634269342630	-3.7086182	14.022598	0.00970459
1187634277734964	-3.1148071	14.036224	-1.6940765
1187634286127298	-2.7458038	13.60939	-2.7427368
1187634294519632	-2.6896973	12.790436	-2.8944397
1187634302911966	-2.9545288	11.690796	-2.7480469
1187634311304300	-3.5072021	10.211716	-2.4488525
1187634319696634	-3.612152	10.691513	1.0826874
1187634328088968	-3.298767	11.271927	2.6992798
1187634336481302	-4.0033417	11.665924	2.2569427
1187634344873636	-6.081421	11.657928	0.69169617
1187634353265970	-7.8698425	10.679382	-1.0105743
1187634361658304	-9.009689	9.450912	-2.659729
1187634370050638	-9.089584	9.111588	-3.591339
1187634378442972	-8.599548	8.875427	-4.8898773
1187634386835306	-8.02623	8.396149	-5.638031
1187634395227640	-7.719223	7.5412292	-4.8126373
1187634403619974	-7.840454	6.4522705	-2.231842
1187634412012308	-8.982254	5.795212	-0.43008423
1187634420404642	-9.866516	5.7251434	-0.69654846
1187634428796976	-9.573685	5.4813995	-1.260849
1187634437189310	-8.661377	4.9189606	-1.608963
1187634445581644	-7.8054657	4.224716	-1.4916382
1187634453973978	-6.9858856	3.7476196	-0.48727417
1187634462366311	-5.987686	3.7263489	-0.0023651123
1187634470758645	-5.2947693	3.8481598	0.49487305
1187634479150979	-4.7113953	3.7803497	0.71209717
1187634487543313	-4.3385773	3.543579	0.77749634
1187634495935647	-4.2682343	3.2513733	0.7665405
1187634504327981	-4.41214	2.9686127	0.42933655
1187634512720315	-4.268265	2.8992004	-0.047561646
1187634521112649	-4.1876373	3.0517273	-0.6724396
1187634529504983	-4.1463013	3.311142	-1.3765869
1187634537897317	-3.886444	3.4242706	-1.9544067
1187634546289651	-3.328308	3.3112946	-2.248764
1187634554681985	-2.8276215	3.2588196	-2.2814941
1187634563074319	-2.832611	3.2528229	-2.1594849
1187634571466653	-2.540863	3.055893	-2.0196075
1187634579858987	-2.1429443	2.7200165	-1.887558
1187634588251321	-1.7968597	2.335907	-1.7685242
1187634596643655	-1.6134338	1.9810486	-1.7049866
1187634605035989	-1.6268005	1.6747742	-1.8073883
1187634613428323	-1.704956	1.2290192	-2.0891266
1187634621820657	-2.5121918	0.90908813	-2.8836975
1187634630212991	-3.5279694	0.6364136	-3.760666
1187634638605325	-4.2987213	0.45716858	-4.525528
1187634646997659	-4.707535	0.47683716	-5.1807556
1187634655389993	-5.0620728	0.8014221	-5.8086853
1187634663782327	-5.862213	2.1096802	-6.017975
1187634672174661	-8.307648	5.122589	-5.8428497
1187634680566995	-11.784027	9.0052185	-6.736374
1187634688959329	-14.468613	12.515305	-8.664551
1187634697351663	-15.652191	15.3077545	-11.352264
1187634705743997	-17.561157	18.849869	-15.328751
1187634714136331	-18.509888	18.97754	-14.248413
1187634722528665	-17.023407	15.6961975	-11.033676
1187634730920999	-13.8689575	11.944	-7.3114166
1187634739313333	-10.409393	9.577866	-3.8513794
1187634747705667	-7.7858887	8.913422	-1.3704529
1187634756098001	-6.3197174	8.487991	-1.5772095
1187634764490335	-4.6681213	7.581558	-2.497757
1187634772882669	-3.1326752	7.2151794	-2.7060242
1187634781275003	-1.8304138	7.680832	-3.378296
1187634789667337	-1.3460693	8.724319	-3.792038
1187634798059671	-2.017868	9.901306	-2.7534027
1187634806452005	-3.0906525	10.952148	-0.31373596
1187634814844339	-5.025177	11.473862	0.30363464
1187634823236673	-6.4315186	10.573425	0.7463989
1187634831629007	-6.9213257	9.005035	2.1597595
1187634840021341	-6.5642853	7.521286	3.769806
1187634848413675	-5.787445	6.57782	4.32135
1187634856806009	-5.2665863	5.981415	4.07782
1187634865198343	-5.796692	6.209198	3.334381
1187634873590677	-5.6734314	6.069824	3.0431366
1187634881983011	-4.9618073	5.7330933	2.8205414
1187634890375345	-4.0270996	5.5493774	2.7742615
1187634898767679	-3.2469635	5.794815	3.1618652
1187634907160013	-2.660736	6.3371735	3.6952667
1187634915552347	-2.5160828	7.139435	3.0352783
1187634923944681	-2.732666	8.268845	2.8631134
1187634932337015	-3.3091125	9.378082	2.9802551
1187634940729349	-4.3268433	10.353775	3.3590088
1187634949121683	-5.7391357	11.182922	3.9257202
1187634957514017	-6.8723145	11.567612	3.814392
1187634965906351	-7.2592926	11.346848	2.3675842
1187634974298685	-7.4401703	10.319077	0.8041992
1187634982691019	-7.668396	8.984573	-0.41960144
1187634991083353	-7.843048	7.759094	-0.9900818
1187634999475686	-7.6762238	6.879135	-0.8879242
1187635007868020	-7.0411377	6.388611	-0.8171234
1187635016260354	-6.259918	6.16066	-0.79989624
1187635024652688	-5.5253296	6.078003	-0.54455566
1187635033045022	-5.044342	5.979126	-0.15705872
1187635041437356	-4.9792175	5.869919	0.37919617
1187635049829690	-5.3481293	5.8546906	1.1302795
1187635058222024	-5.7556763	5.895447	1.8708191
1187635066614358	-5.7095795	5.760895	2.1762848
1187635075006692	-5.4243927	5.571518	2.1364594
1187635083399026	-5.3116455	5.351181	1.8271179
1187635091791360	-5.202942	5.091751	1.4576569
1187635100183694	-4.7288666	4.829544	1.2350311
1187635108576028	-4.8471375	4.914032	0.91397095
1187635116968362	-5.0464783	5.473877	0.535141
1187635125360696	-5.1658173	5.9513855	0.1764679
1187635133753030	-5.213318	6.2873993	-0.0569458
1187635142145364	-5.266098	6.5090027	-0.1489563
1187635150537698	-5.456543	6.649704	-0.12506104
1187635158930032	-6.023834	6.618805	0.23583984
1187635167322366	-6.2049103	6.653305	0.35353088
1187635175714700	-6.6010284	6.880066	0.6263275
1187635184107034	-6.8978577	7.0759277	1.0183105
1187635192499368	-7.1318207	7.133133	1.2711334
1187635200891702	-7.651001	7.0974274	1.0432739
1187635209284036	-8.032684	6.953293	0.2778778
1187635217676370	-8.6474	7.070404	-0.37269592
1187635226068704	-8.845779	7.053009	-0.3395691
1187635234461038	-8.783051	7.017441	0.57173157
1187635242853372	-8.542831	7.015869	2.0780182
1187635251245706	-8.127747	6.967819	3.2565155
1187635259638040	-8.192551	6.992737	2.7938995
1187635268030374	-8.610184	7.189209	1.8506165
1187635276422708	-8.882599	7.1492615	1.3249664
1187635284815042	-9.058563	6.977997	1.4455719
1187635293207376	-9.198181	6.79068	1.9516449
1187635301599710	-9.277008	6.5923004	2.140747
1187635309992044	-9.273117	6.196121	2.1388092
1187635318384378	-9.752457	5.911789	1.9025116
1187635326776712	-10.263031	5.946594	1.4390411
1187635335169046	-10.739166	6.238861	1.1192932
1187635343561380	-11.026428	6.8230743	1.504837
1187635351953714	-10.823532	7.794647	3.0557556
1187635360346048	-10.264786	8.265793	4.288101
1187635368738382	-10.0329895	8.16716	3.7299194
1187635377130716	-9.268799	8.130112	2.4727173
1187635385523050	-8.205612	8.422516	1.4394379
1187635393915384	-7.1241302	9.165802	1.323349
1187635402307718	-5.762741	10.4075165	2.230713
1187635410700052	-2.4501953	11.098145	-0.006164551
1187635419092386	-2.3401947	11.357193	-0.99546814
1187635427484720	-3.3199158	11.463852	-0.5038147
1187635435877054	-3.9524536	11.335007	0.38345337
1187635444269388	-3.7529755	10.7565	0.654953
1187635452661722	-3.6808472	9.661789	0.11505127
1187635461054056	-5.046768	9.457397	-1.4273376
1187635469446390	-4.3920135	10.46077	-1.9969025
1187635477838724	-4.050873	11.312119	-1.2393188
1187635486231058	-5.096222	12.058197	0.04006958
1187635494623392	-6.952484	12.772217	1.057663
1187635503015726	-7.0736847	12.897324	1.9477081
1187635511408060	-5.8423157	12.213013	1.605072
1187635519800394	-6.8402557	10.901276	0.13600159
1187635528192728	-8.318298	9.858871	-2.156311
1187635536585061	-9.607086	9.299973	-4.4858704
1187635544977395	-10.3428955	8.839737	-5.8718414
1187635553369729	-10.048492	7.673584	-5.3029633
1187635561762063	-10.856628	6.7809753	-3.0266876
1187635570154397	-11.715775	6.239792	-0.7521515
1187635578546731	-12.037598	5.8845673	0.24095154
1187635586939065	-11.756226	5.502243	-0.13510132
1187635595331399	-10.831314	4.893326	-1.155014
1187635603723733	-9.04097	3.966034	-1.5203705
1187635612116067	-8.120529	3.918335	-1.1078644
1187635620508401	-6.942978	3.890976	-0.21253967
1187635628900735	-5.6854706	3.843567	0.15777588
1187635637293069	-4.62883	3.936142	0.14250183
1187635645685403	-3.9332733	4.2688446	0.18569946
1187635654077737	-3.3418884	4.6048737	0.44528198
1187635662470071	-3.0906372	5.0116425	0.17608643
1187635670862405	-2.999115	5.463394	-0.026275635
1187635679254739	-2.6914978	5.6632996	-0.43136597
1187635687647073	-2.4813995	5.6237946	-1.0096283
1187635696039407	-2.6915283	5.4348907	-1.512558
1187635704431741	-3.0507965	5.027481	-1.5726929
1187635712824075	-3.3204346	4.3986664	-1.4003754
1187635721216409	-3.3968964	3.9429016	-0.7732086
1187635729608743	-3.1629791	3.5682068	-0.31362915
1187635738001077	-2.6356812	3.235443	-0.33963013
1187635746393411	-1.9659882	2.9720917	-0.72164917
1187635754785745	-1.4809113	2.8597717	-0.78526306
1187635763178079	-1.4324493	2.9010925	-0.31661987
1187635771570413	-1.0659027	2.8225555	-0.4376831
1187635779962747	-0.65185547	2.787857	-0.79164124
1187635788355081	-0.6233063	2.8024597	-1.4251709
1187635796747415	-1.3260345	2.800766	-2.4371643
1187635805139749	-2.49057	2.7439423	-3.4212189
1187635813532083	-3.126587	2.6145325	-4.4662323
1187635821924417	-3.7404022	2.5567627	-5.5583496
1187635830316751	-4.6902313	2.7240906	-6.791794
1187635838709085	-6.243332	3.3839722	-8.043716
1187635847101419	-8.539108	4.838211	-8.734558
1187635855493753	-11.480377	7.1940155	-7.583496
1187635863886087	-13.604095	9.210693	-7.0480194
1187635872278421	-15.860626	10.844849	-10.185104
1187635880670755	-18.439255	13.027557	-14.410477
1187635889063089	-20.11679	14.667816	-16.06343
1187635897455423	-19.58551	14.177338	-12.952576
1187635905847757	-17.26744	11.7894745	-6.747101
1187635914240091	-13.631348	10.516907	-2.9005737
1187635922632425	-9.560043	9.435455	-0.79623413
1187635931024759	-6.493515	8.2960205	-1.0930328
1187635939417093	-4.8864136	6.900543	-2.6239777
1187635947809427	-4.106003	5.3937225	-3.2478333
1187635956201761	-3.5254974	4.715805	-2.575882
1187635964594095	-2.8342133	5.7836304	-3.51857
1187635972986429	-2.2166595	7.142639	-4.339493
1187635981378763	-2.7753906	8.903961	-3.6474762
1187635989771097	-4.5558777	11.055374	-1.8746796
1187635998163431	-6.4747925	13.105057	-0.6450653
1187636006555765	-6.8706055	13.517838	-0.14855957
1187636014948099	-7.2131805	13.034485	1.412857
1187636023340433	-7.575577	12.067871	3.2485352
1187636031732767	-7.303238	10.403366	4.7941437
1187636040125101	-6.593979	8.308868	5.758362
1187636048517435	-6.0633087	6.396576	6.13414
1187636056909769	-4.81781	4.6650085	5.826996
1187636065302103	-3.302658	3.6778717	4.9641113
1187636073694436	-2.224472	3.2086945	3.335373
1187636082086770	-1.8409271	3.0821075	1.1706238
1187636090479104	-2.38031	3.4922333	-0.5154877
1187636098871438	-3.7011871	4.6547394	-0.7045746
1187636107263772	-4.592804	5.7630615	-0.2363739
1187636115656106	-4.807556	6.9468994	1.0377808
1187636124048440	-4.9528656	7.905136	1.9004669
1187636132440774	-5.1806946	8.809357	2.3399048
1187636140833108	-5.400635	9.773178	2.3659515
1187636149225442	-5.4959564	10.697647	2.009201
1187636157617776	-6.119095	10.924973	1.350174
1187636166010110	-7.1628113	10.026077	0.64250183
1187636174402444	-7.634918	8.67012	0.045532227
1187636182794778	-7.4112396	7.545868	-0.43977356
1187636191187112	-6.5298767	7.017273	-0.62890625
1187636199579446	-5.1512604	7.095932	-0.26393127
1187636207971780	-4.3108673	7.137558	-0.028076172
1187636216364114	-4.7572174	6.9404144	0.28520203
1187636224756448	-5.6661377	6.866516	0.6896057
1187636233148782	-6.378372	6.90184	1.0749207
1187636241541116	-6.5569763	6.940338	1.2970123
1187636249933450	-6.3320007	6.8612823	1.2599182
1187636258325784	-6.095703	6.7356567	1.0515594
1187636266718118	-5.872406	6.4849396	0.7595062
1187636275110452	-5.7399445	6.1797943	0.47683716
1187636283502786	-5.6747894	5.810272	0.26478577
1187636291895120	-5.7108765	5.4591064	0.14674377
1187636300287454	-5.9267883	5.270935	0.10977173
1187636308679788	-6.1653595	5.3146667	0.14753723
1187636317072122	-6.25502	5.513382	0.20028687
1187636325464456	-6.3931885	5.7144012	0.20695496
1187636333856790	-6.502289	5.8020477	0.21585083
1187636342249124	-6.6256866	5.8137665	0.22032166
1187636350641458	-7.0000763	5.929184	0.15786743
1187636359033792	-7.5736084	5.8745117	0.29603577
1187636367426126	-7.7105865	5.644333	0.39274597
1187636375818460	-7.563507	5.4736786	0.5945587
1187636384210794	-7.0811615	5.389862	0.89097595
1187636392603128	-6.443619	5.4353943	1.1758423
1187636400995462	-6.1615753	5.6987	1.2430725
1187636409387796	-6.1276855	6.1054688	0.89212036
1187636417780130	-6.0867767	6.6605377	0.19726563
1187636426172464	-5.9634247	7.1670074	-0.36003113
1187636434564798	-5.9109955	7.612259	-0.59342957
1187636442957132	-6.021591	8.004425	-0.48487854
1187636451349466	-6.2482605	8.369247	-0.062164307
1187636459741800	-6.695572	9.27977	1.148529
1187636468134134	-6.6940613	9.25853	2.8433228
1187636476526468	-7.099243	8.71669	3.3412476
1187636484918802	-7.4060974	7.932251	2.9202576
1187636493311136	-7.2795258	7.1481476	2.2331085
1187636501703470	-7.281128	6.480942	1.60643
1187636510095804	-7.874893	6.024414	2.06781
1187636518488138	-8.79248	5.7247925	2.9270782
1187636526880472	-9.541931	5.7200317	3.1828308
1187636535272806	-10.145615	5.8867493	2.8222961
1187636543665140	-10.853363	6.0985413	2.3306427
1187636552057474	-12.006363	6.312332	2.463028
1187636560449808	-13.075928	6.4584656	2.7761383
1187636568842142	-12.932449	6.299942	2.0480804
1187636577234476	-11.845673	6.4891357	1.491333
1187636585628216	-10.470383	7.1502075	1.4951019
1187636594020550	-9.190063	8.483505	2.01474
1187636602412884	-7.7822113	10.787369	2.3718872
1187636610805217	-6.261368	13.38472	-0.70654297
1187636619197551	-4.978363	14.029663	-1.6509552
1187636627589885	-5.293747	13.741547	-0.8477478
1187636635982219	-6.383438	13.008957	0.71513367
1187636644374553	-6.843521	11.829437	1.4963989
1187636652766887	-6.192047	9.691772	0.23373413
1187636661159221	-6.437317	8.99585	-0.36746216
1187636669551555	-5.881241	9.489838	-0.22737122
1187636677943889	-6.231735	9.98053	-0.47859192
1187636686336223	-7.0597534	10.842255	-0.69026184
1187636694728557	-7.370514	12.11351	-0.29948425
1187636703120891	-6.5876923	12.337418	0.32060242
1187636711513225	-6.0353546	11.900726	-2.9515686
1187636719905559	-6.327011	11.033066	-3.8979187
1187636728297893	-7.237808	10.0924835	-3.3506012
1187636736690227	-7.984024	8.964264	-1.7159271
1187636745082561	-8.345703	7.638626	0.06225586
1187636753474895	-9.7304535	6.704834	-0.49066162
1187636761867229	-10.469223	6.0547943	-1.5046082
1187636770259563	-10.749985	5.1495514	-1.8030396
1187636778651897	-10.651367	4.4553375	-1.5290375
1187636787044231	-10.521637	4.2514343	-1.4605408
1187636795436565	-10.390762	4.5071564	-1.9067688
1187636803828899	-9.497116	4.616928	-1.6750336
1187636812221233	-8.2247925	4.7501373	-0.52297974
1187636820613567	-7.273102	4.8806	-0.07154846
1187636829005901	-6.3698273	5.025299	-0.059921265
1187636837398235	-5.574875	5.21875	-0.19648743
1187636845790569	-5.0348053	5.4714203	-0.16670227
1187636854182903	-4.700287	5.714554	0.20054626
1187636862575237	-4.4081726	5.7644043	0.32917786
1187636870967571	-4.1506042	5.7899475	0.30270386
1187636879359905	-3.9690247	5.7426147	0.008346558
1187636887752239	-3.8854523	5.5715027	-0.31825256
1187636896144573	-3.8335419	5.2394104	-0.38534546
1187636904536907	-3.5231934	4.764435	-0.13444519
1187636912929241	-3.0252075	4.2038116	-0.075790405
1187636921321575	-2.5403748	3.7510986	-0.44132996
1187636929713909	-1.9855347	3.4061127	-0.83436584
1187636938106243	-1.3805847	3.1768494	-1.0696716
1187636946498577	-0.9322052	3.0631409	-1.1756744
1187636954890911	-1.2744598	2.9938812	-1.5413513
1187636963283245	-1.337326	2.9577332	-1.4875946
1187636971675579	-1.5945892	2.9302979	-1.6281586
1187636980067913	-1.8625641	2.8184967	-1.919281
1187636988460247	-2.1773224	2.6281738	-2.2536774
1187636996852581	-2.6752625	2.4449768	-2.531189
1187637005244915	-3.4349823	2.365219	-2.7963867
1187637013637249	-3.8525543	2.1681519	-3.1087952
1187637022029583	-4.244049	1.9362488	-3.6343231
1187637030421917	-4.660675	1.6816101	-4.361084
1187637038814251	-5.15329	1.4792786	-4.991699
1187637047206585	-5.940094	1.5570679	-5.1207733
1187637055598919	-7.6497803	2.393036	-4.708267
1187637063991253	-9.564667	4.1447754	-4.301346
1187637072383587	-11.176773	6.934372	-4.863693
1187637080775921	-12.424042	10.627045	-7.430969
1187637089168255	-14.264572	15.186768	-12.47673
1187637097560589	-17.306625	20.028671	-18.334518
1187637105952923	-18.48053	21.797638	-15.314484
1187637114345257	-16.986023	20.268097	-7.5023346
1187637122737591	-15.245728	18.02356	-4.496475
1187637131129925	-12.459152	14.726044	-1.9114532
1187637139522259	-9.903366	11.4440155	1.1648712
1187637147914592	-9.3411255	9.733276	3.1896057
1187637156306926	-8.432861	8.871857	3.8057556
1187637164699260	-7.277191	8.522446	3.4229279
1187637173091594	-6.020035	9.134094	1.2821045
1187637181483928	-4.375168	10.15889	-1.4982605
1187637189876262	-2.675644	11.005264	-3.0705414
1187637198268596	-1.394516	11.17923	-2.2016296
1187637206660930	0.34729004	10.389587	-0.98127747
1187637215053264	0.85298157	9.006409	0.08615112
1187637223445598	0.5539093	7.4622498	1.0369415
1187637231837932	-0.45690918	5.6364746	1.7908173
1187637240230266	-1.7457886	3.7925873	2.4345093
1187637248622600	-2.634735	2.483841	3.1370544
1187637257014934	-2.1947021	2.2658691	3.8786163
1187637265407268	-0.5549011	2.6112518	4.9790955
1187637273799602	1.264389	3.2310638	6.7082214
1187637282191936	1.3412781	4.169403	7.88266
1187637290584270	-0.81884766	5.6032715	7.822052
1187637298976604	-4.3214264	7.6384735	6.4006042
1187637307368938	-6.056885	9.07843	4.2427216
1187637315761272	-6.9454346	9.808121	0.01600647
1187637324153606	-8.293945	9.869965	-3.6244965
1187637332545940	-9.226456	9.270569	-3.441925
1187637340938274	-9.78392	8.3207245	-0.23168945
1187637349330608	-11.090927	7.695511	1.1128998
1187637357722942	-13.447144	8.068451	-0.81007385
1187637366115276	-12.574005	8.2043915	-5.428665
1187637374507610	-9.30629	8.21637	-7.5665283
1187637382899944	-7.399109	7.7508087	-6.2864075
1187637391292278	-7.776184	6.87883	-2.2861023
1187637399684612	-7.8965607	6.160141	2.3555603
1187637408076946	-6.721649	5.5885925	6.352463
1187637416469280	-4.722336	4.7461395	7.977768
1187637424861614	-3.6113892	4.4200287	6.469986
1187637433253948	-3.4014435	4.6664124	3.4228058
1187637441646282	-3.6174622	5.2998047	0.5155029
1187637450038616	-3.6861725	6.074066	-1.1396942
1187637458430950	-3.836914	7.0081177	-2.1277466
1187637466823284	-4.5493774	7.8067474	-2.0589294
1187637475215618	-4.7534027	7.892563	-1.0602722
1187637483607952	-4.7091217	7.4538727	0.22129822
1187637492000286	-4.7178345	6.9273834	1.2638092
1187637500392620	-4.879776	6.817642	1.7956238
1187637508784954	-5.2157745	6.884445	1.9192505
1187637517177288	-5.733902	6.9155426	1.7009277
1187637525569622	-6.1710052	6.899765	1.391571
1187637533961956	-6.4417267	6.860794	1.1448364
1187637542354290	-6.662613	6.8208923	1.07518
1187637550746624	-7.0990906	6.784958	1.2151947
1187637559138958	-7.107071	6.6234436	1.4794006
1187637567531292	-6.733246	6.4127197	1.3520203
1187637575923626	-6.5870667	6.2218018	1.2149811
1187637584315960	-6.5810547	6.0628967	1.0540924
1187637592708294	-6.530472	5.9519653	0.7684021
1187637601100628	-6.359436	5.925476	0.30563354
1187637609492962	-6.3076477	6.082855	-0.16046143
1187637617885296	-6.2653046	6.270584	-0.018676758
1187637626277630	-6.2854614	6.449066	0.57388306
1187637634669964	-6.3656616	6.6630554	1.2469025
1187637643062298	-6.559433	6.9396057	1.8027344
1187637651454632	-7.006378	7.2533264	2.3591309
1187637659846966	-7.373352	7.4509277	3.1281433
1187637668239300	-7.672531	7.3799744	3.5509186
1187637676631634	-7.903595	7.2503357	3.4072876
1187637685023967	-8.185928	7.149643	3.0641022
1187637693416301	-8.628601	7.075821	2.8375092
1187637701808635	-9.244995	6.956665	2.688736
1187637710200969	-9.876663	6.89711	1.9008484
1187637718593303	-10.866501	6.776825	0.88401794
1187637726985637	-12.361557	6.5155334	0.5691223
1187637735377971	-14.191696	6.2002563	0.90737915
1187637743770305	-15.986038	6.006485	1.529892
1187637752162639	-17.041122	6.1449738	1.9937744
1187637760554973	-13.855164	6.349518	2.5861816
1187637768947307	-10.23497	7.606262	0.8227844
1187637777339641	-7.920868	8.935638	-0.6782074
1187637785731975	-7.319504	10.241455	-0.6926422
1187637794124309	-7.6648865	11.610733	0.24435425
1187637802516643	-7.253418	12.780975	0.039474487
1187637810908977	-6.234482	13.430038	-0.1698761
1187637819301311	-4.9233856	13.344162	-0.8006134
1187637827693645	-4.2792206	12.553787	-1.3363342
1187637836085979	-4.332794	11.838516	-1.1987762
1187637844478313	-4.648758	11.650055	-0.3196869
1187637852870647	-4.628601	11.367081	0.45343018
1187637861262981	-6.1417694	10.213058	-0.188797
1187637869655315	-7.8799744	9.559769	-0.36340332
1187637878047649	-8.217834	8.965439	-0.41537476
1187637886439983	-7.352661	8.4735565	-0.61479187
1187637894832317	-6.344528	8.206787	-1.4102478
1187637903224651	-6.3765564	7.960266	-3.6861877
1187637911616985	-6.800827	7.5107727	-3.3504333
1187637920009319	-6.8770294	6.9298096	-2.416565
1187637928401653	-7.2782288	5.956085	-1.7339325
1187637936793987	-8.115433	4.975067	-1.3887177
1187637945186321	-9.243301	4.614334	-1.232254
1187637953578655	-10.604523	5.391205	-1.3962708
1187637961970989	-10.596603	6.1722717	-1.2813416
1187637970363323	-9.506149	6.484131	-0.542099
1187637978755657	-8.0737915	6.4417114	-0.29530334
1187637987147991	-6.911331	6.29393	-0.68873596
1187637995540325	-6.296402	6.2348633	-1.223053
1187638003932659	-5.9079285	6.1872864	-1.0971985
1187638012324993	-5.4886475	6.103073	-0.58055115
1187638020717327	-5.1910553	5.9643097	-0.4386902
1187638029109661	-5.0163574	5.824417	-0.60513306
1187638037501995	-4.8561707	5.6750183	-0.9017639
1187638045894329	-4.627701	5.4944763	-1.1973877
1187638054286663	-4.4477844	5.313568	-1.5939789
1187638062678997	-4.20961	4.96875	-2.103485
1187638071071331	-4.179291	4.7332916	-1.937439
1187638079463665	-4.024292	4.535568	-1.5171509
1187638087855999	-3.6478424	4.375992	-1.131424
1187638096248333	-3.1404724	4.294922	-0.88549805
1187638104640667	-2.6335297	4.279999	-0.86860657
1187638113033001	-2.2354279	4.249298	-1.0503082
1187638121425335	-1.7772827	4.20282	-1.0326691
1187638129817669	-1.7761536	4.0925446	-1.2038422
1187638138210003	-2.231659	3.8876648	-1.4606476
1187638146602337	-2.7920074	3.5942078	-1.509552
1187638154994671	-3.1160278	3.2891235	-1.533493
1187638163387005	-3.467743	3.034546	-1.7272034
1187638171779339	-3.8493195	2.6940155	-1.9902802
1187638180171673	-4.216278	2.3141327	-2.2580261
1187638188564007	-4.541031	1.9377441	-2.6379547
1187638196956341	-4.792099	1.5816345	-3.3238525
1187638205348675	-4.8648834	1.2127533	-4.4524536
1187638213741009	-5.158676	0.8530731	-5.7746735
1187638222133342	-5.93956	0.75761414	-6.85553
1187638230525676	-7.306305	1.3102417	-7.1092987
1187638238918010	-9.487442	2.9350586	-6.6604767
1187638247310344	-12.537643	5.774353	-6.193878
1187638255702678	-15.300339	8.852112	-6.648514
1187638264095012	-16.598099	11.074356	-9.860138
1187638272487346	-18.276749	13.352631	-14.791
1187638280879680	-19.025375	14.16832	-15.491379
1187638289272014	-17.90741	12.877777	-11.20079
1187638297664348	-15.146881	10.044632	-5.8071747
1187638306056682	-13.209671	7.352661	-2.4910736
1187638314449016	-12.035553	5.3872223	-1.0157471
1187638322841350	-10.614166	3.982254	-0.7745056
1187638331233684	-8.404053	3.0459442	-1.4680481
1187638339626018	-5.8721924	2.6401215	-2.5058594
1187638348018352	-4.3095856	3.0520172	-3.0821533
1187638356410686	-4.2866364	4.29628	-2.7800446
1187638364803020	-4.8858795	6.1627045	-2.9768066
1187638373195354	-5.119934	8.581238	-4.5646515
1187638381587688	-4.916809	11.776062	-7.1017914
1187638389980022	-4.2588654	15.363739	-9.165634
1187638398372356	-3.2824554	17.989624	-8.125244
1187638406764690	-3.2635193	17.609772	-1.3664398
1187638415157024	-5.0484314	15.154999	2.92128
1187638423549358	-6.266342	12.234985	4.870285
1187638431941692	-6.315155	9.430023	5.927246
1187638440334026	-5.6182404	6.8794556	6.561157
1187638448726360	-5.0974426	4.380371	6.043106
1187638457118694	-4.796341	1.9347229	5.8796234
1187638465511028	-4.3530273	0.3410492	5.963501
1187638473903362	-4.097229	-0.33328247	5.5303497
1187638482295696	-4.0603333	-0.05331421	4.2946625
1187638490688030	-4.0244904	1.1873322	2.702652
1187638499080364	-3.7246094	3.3021088	1.8325043
1187638507472698	-4.39888	6.4003296	2.456009
1187638515865032	-5.439392	8.121124	3.5284882
1187638524257366	-6.237015	8.885117	4.997772
1187638532649700	-6.04422	8.884216	5.793808
1187638541042034	-4.911438	8.377472	5.4298096
1187638549434368	-4.071991	7.8611145	4.5688477
1187638557826702	-4.2315063	8.137299	4.041443
1187638566219036	-4.528244	8.716736	4.0119324
1187638574611370	-4.8976746	9.598831	4.1415253
1187638583003704	-5.128952	10.606842	3.8950348
1187638591396038	-4.9200897	11.432999	2.690155
1187638599788372	-4.0210266	11.618408	0.33345032
1187638608180706	-2.5071564	9.801361	-1.4289246
1187638616573040	-3.2590942	8.450867	-1.6888733
1187638624965374	-4.8660583	7.768524	-1.2863312
1187638633357708	-5.963257	7.306732	-0.921875
1187638641750042	-6.138962	6.653534	-0.6204834
1187638650142376	-6.324173	5.8472443	0.41423035
1187638658534710	-6.603424	5.348648	1.246933
1187638666927044	-6.821762	5.0767365	1.5791168
1187638675319378	-7.0520782	4.9664307	1.535675
1187638683711712	-7.3718567	4.954483	1.1662903
1187638692104046	-7.8677826	4.954834	0.37820435
1187638700496380	-8.600037	4.867218	-1.0693817
1187638708888714	-9.027466	4.5690155	-1.2791138
1187638717281048	-9.061356	4.2934113	0.0025939941
1187638725673382	-8.989914	4.051529	1.1253662
1187638734065716	-8.852066	3.8441315	1.6451111
1187638742458050	-8.601898	3.6975098	1.6275787
1187638750850384	-8.181946	3.7136383	1.3770447
1187638759242717	-7.8010864	4.3726654	1.2952728
1187638767635051	-7.5433655	5.024338	1.2973633
1187638776027385	-7.4013824	5.532791	1.3003998
1187638784419719	-7.2588654	5.8877563	1.2367096
1187638792812053	-7.043106	6.1299896	1.0492859
1187638801204387	-6.876541	6.2967834	0.71110535
1187638809596721	-6.8076324	6.506424	-0.033294678
1187638817989055	-6.7466125	6.6821136	-0.40708923
1187638826381389	-6.6645203	6.788513	-0.21406555
1187638834773723	-6.5762024	6.83844	0.43907166
1187638843166057	-6.5360107	6.8709717	1.2084503
1187638851558391	-6.620697	6.919632	1.6864014
1187638859950725	-6.556183	6.8884125	1.5773926
1187638868343059	-6.506958	6.742462	1.9948425
1187638876735393	-6.8281403	6.6020203	3.007553
1187638885127727	-7.327652	6.4097137	3.810089
1187638893520061	-7.759491	6.139923	3.650589
1187638901912395	-8.439468	6.074127	2.9387207
1187638910304729	-9.063004	6.135742	2.652588
1187638918697063	-9.694809	6.2332306	2.6524353
1187638927089397	-10.48201	6.510147	2.5841217
1187638935481731	-11.522736	7.0809326	2.3637543
1187638943874065	-12.705154	7.8340607	2.1786957
1187638952266399	-13.335678	8.002121	2.6727295
1187638960658733	-12.556198	7.15242	3.5973663
1187638969051067	-12.13826	6.577072	3.472046
1187638977443401	-11.499329	6.4628906	2.8588257
1187638985835735	-10.438889	6.785019	2.0844116
1187638994228069	-8.907959	7.535675	0.975708
1187639002620403	-6.561966	9.20369	-1.6055756
1187639011012737	-4.7946777	9.98732	-3.086609
1187639019405071	-5.7899933	10.546982	-0.9855194
1187639027797405	-6.7780304	10.46962	1.1329498
1187639036189739	-6.661331	9.94519	1.618454
1187639044582073	-5.8552246	9.639725	0.54600525
1187639052974407	-5.241974	10.286087	-1.482605
1187639061366741	-4.582367	10.782074	-2.5246124
1187639069759075	-3.6902008	11.166992	-2.480423
1187639078151409	-3.6607513	11.373199	-1.2390747
1187639086543743	-4.738922	11.348862	0.45962524
1187639094936077	-6.6024933	11.077835	1.5528259
1187639103328411	-8.334122	10.717239	1.3878174
1187639111720745	-8.548981	10.15181	0.016235352
1187639120113079	-8.328629	9.46582	-1.0837097
1187639128505413	-8.199402	8.926712	-1.6502686
1187639136897747	-8.704147	8.5655365	-2.8598633
1187639145290081	-9.90654	8.132294	-5.4556274
1187639153682415	-9.988052	6.9752655	-5.197174
1187639162074749	-9.776566	5.0229187	-4.2447357
1187639170467083	-10.46199	3.3159332	-2.9057312
1187639178859417	-11.782669	2.6352386	-1.9884186
1187639187251751	-12.915878	3.1494293	-1.9499512
1187639195644085	-12.906021	4.153015	-2.5288544
1187639204036419	-11.212265	4.147171	-2.6505432
1187639212428753	-9.84314	4.00679	-1.8994446
1187639220821087	-8.512878	4.0950775	-0.8992157
1187639229213421	-7.229477	4.276703	-0.26527405
1187639237605755	-6.1300964	4.463028	-0.09767151
1187639245998089	-5.375061	4.6602173	-0.056671143
1187639254390423	-4.8372955	4.832184	0.00894165
1187639262782757	-4.709564	4.9882965	0.17805481
1187639271175091	-4.903534	5.186905	0.173172
1187639279567425	-5.20961	5.332367	-0.071243286
1187639287959759	-5.437729	5.3707275	-0.57373047
1187639296352092	-5.467209	5.287079	-1.289505
1187639304744426	-5.2482147	4.877594	-1.9271545
1187639313136760	-5.101013	4.5065155	-1.806961
1187639321529094	-4.861389	4.0947113	-1.2497253
1187639329921428	-4.492935	3.6469727	-0.7073517
1187639338313762	-4.007263	3.169983	-0.41870117
1187639346706096	-3.411438	2.7004547	-0.35983276
1187639355098430	-2.5247955	2.492691	-0.63119507
1187639363490764	-1.8109589	2.6658783	-0.74783325
1187639371883098	-1.454422	2.886734	-0.9230499
1187639380275432	-1.4536743	3.1126404	-1.0533905
1187639388667766	-1.7709503	3.2782288	-1.1945496
1187639397060100	-2.297287	3.3121948	-1.5150757
1187639405452434	-2.6574554	3.339447	-1.6445313
1187639413844768	-2.982132	3.2477112	-1.9065704
1187639422237102	-3.4753113	3.1328125	-2.2733765
1187639430629436	-3.972351	2.9609528	-2.7541504
1187639439021770	-4.5360413	2.774887	-3.4290466
1187639447414104	-5.4499664	2.6995087	-4.433853
1187639455806438	-6.0907288	2.5248566	-6.0200195
1187639464198772	-7.3159485	2.8506927	-6.8294373
1187639472591106	-8.650986	3.5699463	-6.984482
1187639480983440	-10.926468	5.132324	-6.5343933
1187639489375774	-14.977646	7.926178	-7.0096893
1187639497768108	-20.805786	11.821747	-11.491241
1187639506160442	-24.093887	14.495712	-18.47226
1187639514552776	-24.651566	15.066162	-17.2229
1187639522945110	-23.070602	13.190369	-9.808411
1187639531337444	-20.618332	10.005844	-2.273758
1187639539729778	-17.464874	6.4029694	1.1659851
1187639548122112	-12.633011	2.864746	1.0263672
1187639556514446	-7.7407227	1.9165955	1.0014343
1187639564906780	-4.3983154	2.0023804	-0.39382935
1187639573299114	-2.8223267	2.668274	-1.4444275
1187639581691448	-2.1383057	4.0417633	-1.2046051
1187639590083782	-1.8521118	6.455017	-0.014678955
