accelerometer_timestamp	accelerometer_x_data	accelerometer_y_data	accelerometer_z_data
722321250014343	-3.4227753	7.875946	-0.18719482
722321255019226	-3.3294067	7.871155	-0.077056885
722321260024109	-3.2683563	7.705963	0.052230835
722321265028992	-3.2276459	7.5886383	0.25453186
722321270033874	-3.2061005	7.5335693	0.3862152
722321275038757	-3.2659607	7.460556	0.57177734
722321280043640	-3.3413696	7.3683777	0.6783142
722321285048523	-3.4706573	7.4282227	0.7585144
722321290053406	-3.5963593	7.6209564	0.8530884
722321295058289	-3.6741638	7.798126	0.894989
722321300063171	-3.7543793	8.042343	0.8961792
722321305068054	-3.8872528	8.2973175	0.75253296
722321310072937	-3.9411316	8.578644	0.49635315
722321315077820	-4.003372	8.876724	0.18391418
722321320174255	-4.121887	9.204727	-0.09022522
722321325179138	-4.1302643	9.626114	-0.20993042
722321330214539	-4.155411	10.057068	-0.2937317
722321335249939	-4.194916	10.437744	-0.42062378
722321340315857	-4.129074	10.737015	-0.4709015
722321345381775	-4.105133	10.987213	-0.44935608
722321350478210	-4.1386414	11.124878	-0.25064087
722321355544128	-4.2140656	11.25058	-0.05430603
722321360610046	-4.4235535	11.334366	0.23658752
722321365675964	-4.583969	11.261353	0.49754333
722321370741882	-4.7012787	11.011154	0.46643066
722321375807800	-4.8114166	10.629272	0.27249146
722321380873718	-4.959854	10.326416	0.1013031
722321385939636	-5.2938538	10.157623	0.16835022
722321391005554	-5.781067	10.18396	0.42092896
722321396071472	-6.0563965	10.335983	0.48558044
722321401137390	-6.263504	10.555054	0.46403503
722321406203308	-6.3209686	10.793274	0.2856598
722321411269226	-6.3999634	11.015945	0.066589355
722321416365662	-6.378418	11.261353	-0.012420654
722321421431580	-6.3461	11.510345	-0.109375
722321426497498	-6.2299805	11.761734	-0.21832275
722321431563416	-6.049225	11.968826	-0.34640503
722321436629333	-5.533264	12.019104	-0.26260376
722321441695251	-4.939514	11.850327	0.0677948
722321446761169	-4.571991	11.450485	0.5442352
722321451827087	-4.5348816	11.0243225	1.0314636
722321456893005	-4.5492554	10.60054	1.4360809
722321461989441	-4.4869995	10.199524	1.4624176
722321467055359	-4.228424	9.872711	1.3031921
722321472121277	-3.6574097	9.367538	1.0218811
722321477187195	-2.8613434	8.813278	0.68070984
722321482253113	-2.0425262	8.291336	0.13961792
722321487319031	-1.0860443	8.001648	-0.8503876
722321492384949	-0.41445923	8.136917	-1.7242737
722321497481384	0.108673096	8.634903	-2.3970337
722321502547302	0.39596558	9.408234	-2.8100433
722321507643738	0.5683594	10.521545	-2.9189758
722321512709656	0.8784027	11.774902	-3.0111542
722321517775574	1.1752777	12.960037	-2.8746796
722321522841492	1.6241913	13.947647	-2.5765991
722321527907410	2.3113403	14.614426	-2.0774078
722321532973328	2.7195435	14.88736	-1.0730438
722321538039246	2.9039001	15.023834	0.04145813
722321543105164	2.8775635	15.054962	1.0829315
722321548171082	2.8548126	14.957993	1.8059845
722321553236999	2.7973633	14.726959	2.0705414
722321558302917	2.397522	14.227768	1.938858
722321563368835	1.690033	13.622025	1.4061432
722321568465271	0.92030334	13.082138	0.59451294
722321573531189	0.106277466	12.493164	-0.14888
722321578597107	-0.89450073	11.891022	-0.76060486
722321583663025	-2.1071625	11.594147	-1.3208466
722321588728943	-3.394043	11.542664	-1.7948914
722321593794861	-4.70607	11.397812	-2.3300018
722321598860779	-5.583542	11.27092	-2.9501038
722321603926697	-6.402359	11.2026825	-3.0985413
722321608992615	-6.943451	10.986008	-2.8076477
722321614089050	-5.6805115	10.901016	-2.5634308
722321619154968	-4.5289	10.807648	-2.2881012
722321624220886	-4.6210785	10.391052	-2.3527527
722321629286804	-5.500946	10.039108	-2.6280823
722321634352722	-6.3317413	9.747009	-2.6580048
722321639418640	-6.354477	9.587799	-2.140854
722321644515076	-5.8480988	9.334015	-1.6201172
722321649580994	-5.109497	8.807297	-1.0562897
722321654646912	-4.552841	8.206345	-0.6720123
722321659712830	-3.5173492	7.452179	-0.6265259
722321664778748	-3.6430511	6.689621	-0.9689026
722321669844666	-3.6107178	5.38118	-1.773346
722321674910583	2.9721375	1.5085602	-6.1559296
722321680007019	-0.6933899	0.7328491	-4.057419
722321685072937	-9.176041	7.065506	1.444458
722321690138855	-4.7671204	6.405899	-1.6931458
722321695204773	-2.7284546	4.03804	-2.152832
722321700270691	-2.6674042	3.392807	-1.7027283
722321705336609	-2.108368	3.1114807	-1.9074249
722321710402527	-1.7192993	2.8576965	-2.0905762
722321715468445	-1.2380676	2.7679138	-2.2138824
722321720564880	-0.8849335	2.8840332	-1.9660797
722321725630798	-0.9759064	2.97023	-1.6692047
722321730696716	-1.1147766	2.9283295	-1.6332855
722321735762634	-0.99505615	3.0025482	-1.4728851
722321740828552	-0.87893677	3.0037384	-1.1065674
722321745894470	-0.9962616	2.9355164	-0.7234955
722321750960388	-0.93640137	2.8972015	-0.4637146
722321756056824	-0.6155853	2.8469238	-0.35717773
722321761122742	-0.4515686	2.8612823	-0.22789001
722321766188660	-0.18222046	2.9630432	-0.20753479
722321771254578	0.16732788	3.155777	-0.108184814
722321776320496	0.058395386	3.14859	0.13482666
722321781386414	0.014099121	3.0037384	0.31559753
722321786452332	0.2499237	3.045639	0.23179626
722321791548767	0.31576538	3.093521	0.1875
722321796614685	0.2750702	3.006134	-0.1381073
722321801680603	0.23675537	2.9019928	-0.57266235
722321806746521	0.103881836	2.8744507	-0.8922882
722321811812439	0.05479431	2.9019928	-1.227478
722321816878357	-0.49346924	3.0384674	-1.484848
722321821944275	-0.5054474	3.0564117	-2.4233704
722321827010193	-0.008651733	2.9391022	-3.595337
722321832076111	-1.9898529	3.1976776	-3.2840881
722321837172546	-1.9120331	3.4658203	-4.1867065
722321842238464	-2.0018158	3.859665	-5.0234833
722321847304382	-2.793106	4.4821625	-5.647171
722321852370300	-3.5748138	5.4183044	-6.2409363
722321857436218	-4.3170166	6.5926514	-6.978348
722321862502136	-5.2543488	8.029175	-7.5876617
722321867568054	-6.2766724	9.623718	-7.8498383
722321872633972	-7.397156	11.115295	-7.848633
722321877730408	-8.916275	12.433304	-7.7768097
722321882796326	-10.4162445	13.690262	-7.7313232
722321887862244	-12.062256	14.823914	-8.056931
722321892928162	-13.702286	15.774414	-8.085663
722321897994080	-14.692291	16.570496	-7.8318787
722321903059998	-14.96283	16.948776	-7.5302124
722321908125916	-14.117676	16.735687	-7.3650055
722321913191833	-13.041489	15.830673	-7.0358124
722321918288269	-12.07782	14.491119	-6.655121
722321923354187	-11.095001	13.016296	-6.402542
722321928420105	-10.204361	11.467255	-6.2493134
722321933486023	-9.269424	9.8858795	-6.251709
722321938551941	-8.166885	8.438583	-6.485138
722321943617859	-6.9566193	7.254654	-6.595276
722321948714294	-5.5847473	6.444214	-6.5306244
722321953780212	-4.1673737	5.820526	-6.3331146
722321958846130	-3.1438599	5.175293	-6.19664
722321963912048	-2.5453033	4.376816	-5.8949738
722321968977966	-1.804306	3.7938385	-5.132416
722321974074402	-1.1339264	3.7124329	-4.414154
722321979140320	-1.2572174	4.026062	-3.7605438
722321984206238	-1.7205048	4.6629333	-3.0590363
722321989272156	-2.0125885	5.4865265	-2.1061401
722321994338074	-1.5529022	6.433441	-0.895874
722321999434509	-0.51501465	7.5766754	0.18989563
722322004500427	0.7395325	8.967697	0.79203796
722322009566345	1.6912384	10.507172	0.9823761
722322014632263	2.3484497	12.077774	1.1978607
722322019698181	2.6237793	13.632797	2.0657501
722322024764099	2.6118011	15.051361	3.5453644
722322029830017	2.4442139	16.107208	4.7628174
722322034926453	2.176056	16.325089	4.813095
722322039992371	1.6996155	15.684631	3.7704315
722322045058289	0.88319397	14.487534	2.7552795
722322050124207	-0.59043884	13.22699	1.7928162
722322055190124	-2.2843323	12.057419	0.12286377
722322060256042	-2.7919006	11.042282	-2.160019
722322065321960	-2.7883148	10.033127	-3.2805023
722322070387878	-2.9595032	9.144867	-2.884262
722322075484314	-3.2049103	8.436188	-1.9481201
722322080550232	-3.5472717	7.840027	-1.1125488
722322085616150	-4.141037	7.2534485	-0.2937317
722322090682068	-4.484604	6.598633	0.37304688
722322095747986	-4.458267	5.8624268	0.519104
722322100813904	-4.658188	5.1333923	0.68429565
722322105879822	-4.753952	4.582718	1.1427917
722322110945740	-4.583969	4.3840027	1.7078247
722322116042175	-4.362503	4.4223022	2.4200897
722322121108093	-3.835785	4.859253	3.0581512
722322126174011	-3.113922	5.633774	3.5776978
722322131239929	-2.3058777	6.4537964	4.0397644
722322136305847	-1.7899323	7.2726135	4.2803955
722322141371765	-1.716919	8.175217	4.117584
722322146437683	-1.8892975	9.282532	3.9595642
722322151534119	-2.3597565	10.225861	3.7548676
722322156600037	-2.7643738	10.974045	3.298767
722322161665955	-2.9283752	11.5342865	2.590088
722322166731873	-2.978653	11.72702	1.9173126
722322171797791	-2.9211884	11.540268	1.444458
722322176863708	-2.800293	11.09256	1.2541199
722322181929626	-2.659027	10.567032	1.2852478
722322187026062	-2.6099548	9.944534	1.1667328
722322192091980	-2.49263	9.27536	0.9847717
722322197157898	-2.5417175	8.638504	0.82196045
722322202223816	-2.8613434	7.986084	0.40776062
722322207289734	-2.9199982	7.5132294	-0.2925415
722322212355652	-2.5979767	7.121765	-0.8036957
722322217421570	-2.4243927	6.8584137	-0.9712982
722322222518005	-2.563263	6.6692657	-0.8420105
722322227583923	-2.8290253	6.6046295	-0.8420105
722322232649841	-3.010971	6.66568	-0.75102234
722322237715759	-3.1103363	6.7985535	-0.51400757
722322242781677	-3.128296	6.9134827	-0.26620483
722322247847595	-3.0049896	7.1145935	-0.07107544
722322252913513	-2.9750671	7.227112	0.09892273
722322257979431	-2.8409882	7.405487	0.3718567
722322263045349	-2.4674988	7.599411	0.73217773
722322268141785	-2.2424316	7.753845	0.9644165
722322273207703	-2.1610413	7.867569	0.9464569
722322278273621	-2.1610413	8.010025	0.99554443
722322283339539	-2.2687683	7.974106	1.152359
722322288405457	-1.9754791	8.017197	1.0482178
722322293471374	-2.0329437	8.168045	0.9907532
722322298537292	-2.0760345	8.330841	0.91174316
722322303633728	-2.1969452	8.360764	0.6998596
722322308699646	-2.3753204	8.30571	0.563385
722322313765564	-2.5129852	8.1345215	0.47839355
722322318831482	-2.6614227	7.9489746	0.34910583
722322323897400	-2.8505707	7.741867	0.3143921
722322328963318	-3.097168	7.5132294	0.17193604
722322334029236	-3.2503967	7.3372498	0.112091064
722322339095154	-3.3557434	7.231903	0.03187561
722322344161072	-3.5029907	7.1588745	-0.033966064
722322349257507	-3.5580597	7.0631104	-0.07107544
722322354323425	-3.631073	7.1074066	-0.04473877
722322359389343	-3.567627	7.2211304	0.119262695
722322364455261	-3.5353088	7.3312683	0.29045105
722322369521179	-3.631073	7.4198456	0.38381958
722322374587097	-3.6215057	7.4868927	0.49395752
722322379683533	-3.71727	7.6401215	0.563385
722322384749451	-3.7112885	7.8963013	0.6016998
722322389815369	-3.8250122	8.218323	0.578949
722322394881287	-3.9327393	8.627731	0.52508545
722322399947205	-4.0093536	9.021576	0.43649292
722322405013123	-4.0321045	9.409439	0.26052856
722322410079041	-3.9459076	9.779343	0.013916016
722322415144958	-3.9040222	10.067841	-0.25543213
722322420241394	-3.9100037	10.34317	-0.42781067
722322425307312	-3.8250122	10.628082	-0.4481659
722322430373230	-3.828598	10.849548	-0.35359192
722322435439148	-3.9399261	10.989609	-0.077056885
722322440505066	-4.0285187	11.1188965	0.22221375
722322445570984	-4.089569	11.061432	0.38502502
722322450636902	-4.0883636	10.844757	0.29882813
722322455702820	-4.1709747	10.532318	0.26890564
722322460799255	-4.3648987	10.330002	0.32995605
722322465865173	-4.7958527	10.321625	0.49635315
722322470931091	-5.2926483	10.465271	0.5897217
722322475997009	-5.588333	10.620895	0.46043396
722322481062927	-5.967819	10.850739	0.25334167
722322486128845	-6.141403	11.062622	0.059417725
722322491194763	-6.291031	11.3211975	-0.14408875
722322496260681	-6.465805	11.50795	-0.16564941
722322501357117	-6.4705963	11.624069	-0.104599
722322506423035	-6.3484955	11.740189	-0.21232605
722322511488953	-6.046829	11.920944	-0.32485962
722322516554871	-5.5667877	12.003555	-0.322464
722322521620789	-5.089142	11.938904	0.011520386
722322526686707	-4.6294556	11.706665	0.4544525
722322531752624	-4.6773376	11.373871	0.9751892
722322536849060	-4.718048	11.0793915	1.1236267
722322541914978	-4.6641693	10.83638	0.95124817
722322546980896	-4.5025635	10.571823	0.75971985
722322552046814	-3.9758453	10.2222595	0.42811584
722322557112732	-3.1031494	9.817642	0.009140015
722322562178650	-2.1933594	9.399857	-0.36795044
722322567244568	-1.369751	9.093399	-0.8743286
722322572341003	-0.85380554	9.142471	-1.2609863
722322577406921	-0.5258026	9.490829	-1.5782166
722322582472839	-0.29833984	9.981644	-2.018753
722322587538757	-0.08526611	10.641251	-2.3168335
722322592604675	0.1876831	11.436127	-2.5382996
722322597670593	0.53842163	12.266907	-2.5789948
722322602736511	0.8939667	13.132416	-2.4544983
722322607802429	1.4087219	13.894974	-2.2797241
722322612898865	1.8672028	14.316345	-1.9098206
722322617964783	2.2311249	14.364227	-1.3256378
722322623030701	2.4813232	14.364227	-0.42900085
722322628096619	2.6848297	14.41571	0.39819336
722322633162537	2.8500214	14.297195	1.0398407
722322638228455	2.7758026	13.930878	1.3079834
722322643294373	2.3759766	13.32634	1.2194061
722322648360291	1.9486084	12.749344	0.81118774
722322653456726	1.5188599	12.350708	0.33235168
722322658522644	1.010086	11.630051	-0.26860046
722322663588562	0.3480835	10.990799	-0.76898193
722322668654480	-0.42762756	10.7872925	-1.3052826
722322673720398	-1.4355927	10.690323	-1.900238
722322678786316	-2.8278198	10.634064	-2.432953
722322683852234	-4.082382	10.790878	-2.8854523
722322688948669	-4.7826843	11.085373	-3.3164063
722322694014587	-5.0269012	11.087769	-2.9872131
722322699080505	-5.164566	10.85553	-2.267746
722322704146423	-4.164978	10.745392	-2.3144379
722322709212341	-3.9052124	10.397034	-2.2617645
722322714278259	-4.243988	9.986435	-2.1396637
722322719344177	-4.6486053	9.713501	-2.0223541
722322724410095	-4.9574585	9.316055	-1.9696808
722322729506531	-5.6374207	8.870743	-1.5219574
722322734572449	-5.6853027	8.393097	-0.8384094
722322739638367	-4.896408	7.6880035	-0.7653961
722322744704285	-4.429535	7.385132	-0.45533752
722322749770203	-4.172165	6.6321564	-0.53434753
722322754836121	-4.379257	5.688843	-1.2681732
722322759902039	-4.4678497	4.94783	-1.979248
722322764998474	-3.7591705	4.2104187	-2.3958435
722322770064392	-0.08166504	2.3980103	-3.2421875
722322775130310	3.603012	-3.805359	-8.004257
722322780196228	-8.30217	5.887558	1.2972107
722322785262146	-6.24794	7.8567963	0.37664795
722322790328064	-2.0640717	4.3444977	-2.9177856
722322795393982	-2.4112244	3.4777985	-2.1396637
722322800490417	-2.1035767	3.4358978	-2.0235443
722322805556335	-1.5241852	3.4119568	-2.2701416
722322810622253	-1.6522675	3.3724518	-2.3683167
722322815688171	-1.2919464	3.4275208	-2.1707916
722322820754089	-0.84780884	3.392807	-1.6249084
722322825820007	-0.6838074	3.3939972	-1.3459778
722322830885925	-0.72810364	3.531662	-1.168808
722322835951843	-0.4479828	3.6394043	-0.7007446
722322841048279	-0.41326904	3.595108	-0.3440094
722322846114197	-0.25645447	3.574768	-0.45533752
722322851180115	0.06677246	3.6166534	-0.3212738
722322856246033	0.13619995	3.638214	7.4768066E-4
722322861311951	9.3078613E-4	3.6202545	0.14201355
722322866377869	0.09790039	3.6322174	0.147995
722322871443787	0.25830078	3.559204	0.085754395
722322876509705	0.13380432	3.3628693	0.018707275
722322881606140	0.13140869	3.2072449	-0.08782959
722322886672058	0.4163208	2.9319153	-0.53674316
722322891737976	-0.29475403	2.7631226	-0.4529419
722322896803894	-0.20257568	2.6829224	-1.2418365
722322901869812	0.36364746	2.6134949	-2.377884
722322906935730	0.42948914	2.5835571	-3.117691
722322912001648	0.04762268	2.6446075	-3.4038086
722322917098083	-0.5700836	2.7906647	-3.8227844
722322922164001	-1.175827	3.0971222	-4.280075
722322927229919	-1.84021	3.5687714	-4.9049683
722322932295837	-2.5249481	4.2499237	-5.4520416
722322937361755	-3.3246155	5.199234	-5.865036
722322942427673	-4.196106	6.3723907	-6.140381
722322947493591	-5.1059113	7.662857	-6.4228973
722322952559509	-6.144989	8.976074	-6.7449036
722322957655945	-7.0883026	10.320419	-6.857437
722322962721863	-8.348846	11.58696	-7.1950226
722322967787781	-9.821289	12.985168	-7.544571
722322972853699	-11.433777	14.422897	-7.812729
722322977919617	-13.005569	15.681046	-8.212555
722322982985535	-14.59053	16.519012	-8.472321
722322988051453	-15.110077	16.958344	-8.256851
722322993117371	-13.897415	16.96434	-7.908493
722322998213806	-12.289703	16.53218	-7.533798
722323003279724	-11.073456	15.695404	-7.1638947
722323008345642	-9.9457855	14.475555	-6.7568817
722323013411560	-8.758255	12.864258	-6.375
722323018477478	-7.794586	11.114105	-6.1523438
722323023543396	-6.7207947	9.632095	-6.1631165
722323028609314	-5.370468	8.664841	-6.3259277
722323033705749	-3.8788757	7.954956	-6.5270386
722323038771667	-2.8433838	7.3133087	-6.4157104
722323043837585	-1.9850616	6.8260803	-5.904541
722323048903503	-1.0309753	6.5136414	-5.4233093
722323053969421	-0.44558716	6.3915405	-5.424515
722323059035339	-0.40368652	6.6393433	-5.2628937
722323064101257	-0.8190918	7.1588745	-4.588928
722323069167175	-1.002243	7.670044	-3.464859
722323074263611	-0.8274689	7.97052	-2.3479614
722323079329529	-0.15708923	8.248245	-1.1544495
722323084456649	0.7131958	8.798904	0.09173584
722323089522567	1.4518127	9.879898	0.9129486
722323094588485	1.9617767	11.328384	1.4612122
722323099654403	1.9246674	13.016296	2.160324
722323104720321	1.6828613	14.69223	3.5753021
722323109786239	1.551178	16.030594	5.500229
722323114852157	1.1968384	16.179031	6.467499
722323119918075	0.5791321	14.680267	5.845001
722323124983993	-0.24447632	12.362686	4.471924
722323130049911	-1.6414948	10.233032	2.922882
722323135115829	-3.0648499	8.938965	1.3750305
722323140181747	-3.4706573	8.509216	0.011520386
722323145247665	-3.576004	8.281769	-1.1364899
722323150344101	-4.354126	8.115372	-1.6177216
722323155410018	-4.807831	8.211136	-1.1735992
722323160475936	-5.0209045	7.986084	-0.29852295
722323165541854	-5.627838	7.441391	0.8063965
722323170607772	-6.1629486	6.8021393	1.7377472
722323175673690	-6.1473846	5.9929047	2.1016693
722323180739608	-6.050415	5.3799896	2.2632751
722323185836044	-5.785858	5.121414	2.5158691
722323190901962	-5.25914	5.317734	2.886963
722323195967880	-4.5348816	5.590683	3.0964508
722323201033798	-3.658615	6.004883	3.3717957
722323206099716	-2.9846344	6.6453247	3.5705109
722323211165634	-2.2292633	7.460556	3.6866302
722323216231552	-1.5469208	8.394287	3.6878204
722323221297470	-1.4667206	9.389084	3.3681946
722323226363388	-1.7324677	10.206696	2.5158691
722323231459823	-2.068863	10.780106	1.5378265
722323236525741	-2.2843323	11.007568	0.8411255
722323241591659	-2.2304688	10.880661	0.3251648
722323246657577	-1.8342285	10.484421	0.30003357
722323251723495	-1.4930573	10.046295	0.78245544
722323256789413	-1.393692	9.568649	1.2984161
722323261855331	-1.2081451	9.052689	1.6192322
722323266951767	-0.6754303	8.553497	1.4372711
722323272017684	-0.33665466	7.963333	1.1032867
722323277083602	-0.5126343	7.436615	0.7645111
722323282149520	-0.9926605	6.930237	0.31080627
722323287215438	-1.4008789	6.574692	-0.0184021
722323292281356	-1.7959137	6.404709	-0.12374878
722323297347274	-2.2412415	6.4118958	-0.18240356
722323302413192	-2.6326904	6.5579376	-0.27697754
722323307509628	-2.8972473	6.833267	-0.38111877
722323312575546	-3.2228699	7.247467	-0.4230194
722323317641464	-3.3114471	7.6676483	-0.36915588
722323322707382	-3.248001	7.982483	-0.30690002
722323327773300	-3.2300415	8.221909	-0.17881775
722323332839218	-3.4754486	8.112976	0.035476685
722323337905136	-3.06604	7.8903046	0.064193726
722323343001571	-2.7799377	7.771805	0.3646698
722323348067489	-2.3681335	7.721512	0.6352234
722323353133407	-1.9000702	7.7071533	0.90457153
722323358199325	-1.8892975	7.71434	1.0254669
722323363265243	-2.1035767	7.7514496	1.0075226
722323368331161	-2.2388458	7.859192	0.88061523
722323373397079	-2.539322	8.05072	0.7968292
722323378462997	-2.8613434	8.236267	0.6639404
722323383559433	-3.1881409	8.408661	0.440094
722323388625351	-3.5377045	8.500839	0.18989563
722323393691268	-3.9758453	8.455338	-0.06388855
722323398757186	-4.228424	8.298523	-0.30690002
722323403823104	-4.4953766	8.080643	-0.46492004
722323408889022	-4.649811	7.81369	-0.48527527
722323413954940	-4.610306	7.622162	-0.20993042
722323419051376	-4.551651	7.453369	0.21862793
722323424117294	-4.5145416	7.271408	0.6507721
722323429183212	-4.4439087	7.1588745	0.94047546
722323434249130	-4.3684845	7.0798798	1.0565948
722323439315048	-4.339752	7.192398	1.0721588
722323444380966	-4.3098297	7.508438	1.0960999
722323449446884	-4.2643433	7.9657288	1.1631317
722323454512802	-4.097946	8.444565	1.1224365
722323459609237	-3.734024	8.892288	1.053009
722323464675155	-3.373703	9.2969055	0.89738464
722323469741073	-3.1115265	9.624908	0.5729675
722323474806991	-2.8493652	9.889465	0.2521515
722323479872909	-2.642273	10.109741	0.078567505
722323484938827	-2.6697998	10.346756	-0.13691711
722323490004745	-2.7727509	10.631668	-0.28295898
722323495101181	-2.884079	10.933334	-0.24824524
722323500167099	-3.1438599	11.164383	-0.08782959
722323505233017	-3.409607	11.298462	0.14201355
722323510298934	-3.6442413	11.212265	0.2964325
722323515364852	-3.710083	10.906998	0.25094604
722323520430770	-3.7268372	10.496399	0.13722229
722323525496688	-3.8477478	10.20311	0.11328125
722323530562606	-4.2296295	10.089386	0.3143921
722323535659042	-4.5779877	10.053467	0.6016998
722323540724960	-5.0640106	10.260574	0.8087921
722323545790878	-5.322586	10.45929	0.6292267
722323550856796	-5.3046265	10.674774	0.28686523
722323555922714	-5.3297577	10.891449	-0.09501648
722323560988632	-5.413559	11.038681	-0.3511963
722323566054550	-5.3369446	11.105728	-0.535553
722323571120468	-5.43631	11.059036	-0.47210693
722323576216903	-5.4829865	11.053055	-0.35717773
722323581282821	-5.51532	11.130859	-0.33921814
722323586348739	-5.4901733	11.195511	-0.3212738
722323591414657	-5.116684	11.166779	-0.25422668
722323596480575	-4.840149	11.059036	-0.069869995
722323601546493	-4.76593	10.869888	0.5669861
722323606642929	-4.847336	10.594559	1.3929749
722323611708847	-5.12027	10.328812	1.8083801
722323616774765	-5.117874	10.071426	1.6096497
722323621840683	-4.741989	9.779343	1.2241974
722323626906601	-3.890854	9.344788	0.72380066
722323631972518	-2.7272644	8.785736	0.20306396
722323637038436	-1.6235352	8.328445	-0.49604797
722323642104354	-0.7580261	8.206345	-1.2514191
722323647170272	-0.019424438	8.439774	-1.9337616
722323652266708	0.5623627	8.956924	-2.5586548
722323657332626	0.93466187	9.7673645	-2.9848175
722323662398544	1.2686615	10.974045	-3.2230377
722323667464462	1.5188599	12.304016	-3.2386017
722323672530380	1.9282532	13.4664	-2.9979858
722323677596298	2.476532	14.507889	-2.6448364
722323682662216	2.9122772	15.112427	-2.1432495
722323687758651	3.1576843	15.288391	-1.203537
722323692824569	3.286972	15.372192	-0.060302734
722323697890487	3.2618256	15.347046	0.90934753
722323702956405	3.168457	15.199814	1.5354309
722323708022323	2.9290314	14.819138	1.8155518
722323713088241	2.4477997	14.260086	1.6946564
722323718154159	1.8205261	13.653152	1.0901184
722323723220077	0.97416687	12.878632	0.26052856
722323728316513	0.046417236	12.082565	-0.35957336
722323733382431	-0.97232056	11.724625	-0.8827057
722323738448349	-1.9000702	11.655197	-1.5016022
722323743514267	-3.1163177	11.553436	-2.1013489
722323748580184	-4.595932	11.444504	-2.559845
722323753646102	-5.635025	11.50914	-3.148819
722323758712020	-5.658966	11.656387	-3.315216
722323763808456	-5.722412	11.347534	-2.8938293
722323768874374	-4.871277	10.873489	-2.5634308
722323773940292	-3.7627563	10.426971	-2.161209
722323779006210	-3.6993103	9.94812	-2.1875458
722323784072128	-3.9602814	9.501602	-2.5095673
722323789138046	-3.8968353	9.045517	-2.7394104
722323794203964	-4.379257	8.915024	-2.389862
722323799269882	-4.829376	8.885101	-1.6967316
722323804366317	-4.4283447	8.494843	-0.8635559
722323809432235	-4.108719	7.877136	-0.33563232
722323814498153	-3.8190155	6.9410095	-0.6768036
722323819564071	-3.3294067	5.8815765	-0.97369385
722323824629989	-2.697342	5.1309967	-1.187973
722323829695907	0.6042633	2.4339294	-5.3526764
722323834792343	-2.4483337	1.7910767	-4.0909424
722323839858261	-6.0360565	6.6956024	0.7645111
722323844924179	-3.334198	5.736725	-2.3443604
722323849990097	-2.6805725	3.677719	-2.5861816
722323855056015	-2.836197	2.9235382	-2.0199585
722323860121933	-2.2388458	2.6098938	-2.2617645
722323865187851	-1.7899323	2.8301697	-2.3922577
722323870284286	-1.6163483	3.1461945	-2.4952087
722323875350204	-1.3051147	3.361679	-2.3814697
722323880416122	-1.2248993	3.476593	-2.082199
722323885482040	-1.1770172	3.603485	-1.8751068
722323890547958	-1.0956116	3.657364	-1.6991272
722323895613876	-1.0166016	3.5687714	-1.3399963
722323900679794	-0.9998474	3.4203339	-0.9210205
722323905745712	-0.8406372	3.3425293	-0.6444855
722323910811630	-0.507843	3.2515411	-0.44456482
722323915908065	-0.4180603	3.1809082	-0.18598938
722323920973983	-0.2348938	3.1042938	-0.122543335
722323926039901	0.027267456	3.04924	-0.029174805
722323931105819	0.13380432	3.030075	0.24975586
722323936171737	0.103881836	3.0121307	0.36587524
722323941237655	0.09429932	3.0432434	0.49276733
722323946303573	0.06677246	3.0324707	0.5274811
722323951369491	0.36245728	2.8995972	-0.3368225
722323956435409	0.38279724	2.7942505	-1.1077576
722323961531845	0.048812866	2.8110046	-1.0371399
722323966597763	-0.17623901	2.6805267	-1.2418365
722323971663681	-0.428833	2.621872	-1.5818176
722323976729599	-0.7065582	2.6122894	-2.065445
722323981795517	-1.3446198	2.5691986	-2.6496277
722323986861434	-1.824646	2.7691193	-3.4385223
722323991957870	-1.7492371	2.903183	-4.824753
722323997023788	-2.140686	3.1509857	-5.6495667
722324002089706	-2.7152863	3.6872864	-6.182266
722324007155624	-3.5388947	4.5144806	-6.8514557
722324012221542	-4.2858887	5.6134186	-7.4404297
722324017287460	-4.990982	6.9410095	-7.8821564
722324022353378	-6.0216827	8.437393	-8.141922
722324027419296	-7.243927	9.909821	-8.204178
722324032485214	-8.478134	11.340363	-7.971939
722324037581649	-9.718338	12.749344	-7.9659576
722324042647567	-11.279358	14.01947	-8.205368
722324047713485	-13.268936	15.183044	-8.564499
722324052779403	-14.930511	16.213745	-8.602814
722324057845321	-15.651169	17.030182	-8.159882
722324062911239	-14.931702	17.489868	-7.630768
722324068007675	-13.711868	17.426422	-7.042984
722324073073593	-12.495605	16.84822	-6.517456
722324078139511	-11.078247	15.755264	-6.0924835
722324083205429	-9.480118	14.231354	-5.7249756
722324088271347	-8.244705	12.359085	-5.6136475
722324093337265	-7.7754364	10.91658	-6.3606415
722324098403183	-6.1114655	9.404648	-6.707794
722324103469101	-4.400818	7.9848785	-6.793991
722324108535018	-3.5460815	7.1074066	-6.987915
722324113600936	-2.5117798	6.627365	-6.6335754
722324118697372	-1.5576935	6.1533203	-6.0601654
722324123763290	-0.95196533	6.01445	-5.590912
722324128829208	-0.9411926	6.3951263	-5.0330505
722324133895126	-1.0944214	7.1552887	-4.302826
722324138961044	-1.1339264	8.026779	-3.339157
722324144026962	-0.7352905	8.794128	-2.1240997
722324149092880	0.21760559	9.696732	-0.47927856
722324154189315	1.28302	10.768143	1.4324799
722324159255233	2.2227478	11.98439	2.875
722324164321151	2.6908112	13.213821	3.1706696
722324169387069	2.66687	14.379791	3.085678
722324174452987	2.4358368	14.926865	3.9535828
722324179518905	2.5232239	14.324722	5.563675
722324184584823	2.4490051	12.2573395	6.001816
722324189681259	1.7055969	9.545898	4.7915497
722324194747177	0.58392334	7.4976654	3.0904694
722324199813095	-0.26483154	6.6560974	1.0793457
722324204879013	-0.18222046	6.768631	-0.82644653
722324209944931	-0.051742554	7.3360596	-2.0989685
722324215010849	-0.7424774	7.9765015	-2.3922577
722324220076767	-1.982666	8.414642	-1.855957
722324225173202	-2.8673248	8.436188	-0.535553
722324230239120	-3.555664	8.144089	1.1332092
722324235305038	-4.2499695	7.5922394	1.8766174
722324240370956	-4.889221	7.029602	1.7892151
722324245436874	-5.053238	6.8500366	1.7880249
722324250502792	-4.8197937	6.8344727	1.8897858
722324255568710	-4.7719116	6.7578583	2.1004639
722324260634628	-4.5408783	6.9888916	2.6020508
722324265731063	-3.9543	7.1792297	3.0521698
722324270796981	-3.4551086	7.524002	3.298767
722324275862899	-3.026535	8.201553	3.769226
722324280928817	-2.7787323	8.95932	3.9212646
722324285994735	-2.7655792	9.694336	3.5369873
722324291060653	-2.8972473	10.288101	3.0198364
722324296126571	-2.9535217	10.750183	2.5146637
722324301192489	-2.80867	11.03389	1.8873901
722324306288925	-2.5824127	11.080582	1.3762207
722324311354843	-2.1311035	10.85553	1.1008911
722324316420761	-1.8114777	10.467667	1.0793457
722324321486679	-1.6606445	10.00798	1.1595459
722324326552597	-1.4571381	9.347183	1.171524
722324331618515	-1.196167	8.727081	1.4408722
722324336684433	-1.1602631	8.160858	1.6874695
722324341780868	-1.3805237	7.5706787	1.5713501
722324346846786	-1.58284	7.1026154	1.3295288
722324351912704	-1.5732574	6.7662354	1.1942596
722324356978622	-1.5361481	6.682434	0.96681213
722324362044540	-1.6367035	6.7518616	0.5921173
722324367110458	-2.0808258	6.8787537	0.20785522
722324372176376	-2.5584717	7.2175446	0.033081055
722324377242294	-2.848175	7.685608	-0.02319336
722324382308212	-2.994217	8.132126	0.028289795
722324387374130	-3.0804138	8.437393	0.059417725
722324392440048	-3.0073853	8.50322	0.17912292
722324397505966	-2.6949463	8.430206	0.41255188
722324402571884	-2.1047668	8.333237	0.44726563
722324407668319	-1.7360687	8.296127	0.61486816
722324412734237	-1.6211395	8.18959	0.8925934
722324417800155	-1.2919464	7.958542	1.0482178
722324422866073	-1.1674347	7.7705994	1.2038422
722324427931991	-0.8705597	7.57428	1.1260223
722324432997909	-0.5856476	7.6401215	0.7692871
722324438063827	-0.8729553	7.784973	0.4915619
722324443129745	-1.2344818	7.9250336	0.28805542
722324448226181	-1.5696716	8.020798	0.24975586
722324453292099	-2.0054169	8.084244	0.27609253
722324458358017	-2.4794617	8.067474	0.34431458
722324463423934	-2.8290253	8.060303	0.42811584
722324468489852	-3.1701965	8.001648	0.4329071
722324473555770	-3.4754486	7.907074	0.33235168
722324478621688	-3.7460022	7.697571	0.16714478
722324483687606	-3.9997864	7.543152	0.016311646
722324488784042	-4.137451	7.4186554	-0.1776123
722324493849960	-4.2655334	7.4713287	-0.17042542
722324498915878	-4.1063232	7.547943	0.01272583
722324503981796	-3.9183807	7.6161804	0.2677002
722324509047714	-3.7819061	7.650894	0.58255005
722324514113632	-3.5820007	7.6951904	0.82795715
722324519210067	-3.4694672	7.756241	0.91773987
722324524275985	-3.4467163	7.9202423	0.8914032
722324529341903	-3.457489	8.151276	0.8171692
722324534407821	-3.4862213	8.529556	0.73217773
722324539473739	-3.6250916	8.961716	0.5957184
722324544570175	-3.615509	9.378311	0.43888855
722324549636093	-3.710083	9.8463745	0.3359375
722324554702011	-3.7148743	10.240219	0.01751709
722324559767929	-3.7041016	10.602936	-0.31288147
722324564833847	-3.7268372	10.911789	-0.5642853
722324569899765	-3.780716	11.130859	-0.6803894
722324574965683	-3.7471924	11.294861	-0.5930023
722324580031601	-3.8848572	11.279297	-0.38232422
722324585097518	-4.045273	11.217056	-0.25901794
722324590163436	-4.1230774	10.9848175	-0.26020813
722324595229354	-4.1985016	10.69751	-0.38710022
722324600325790	-4.318207	10.397034	-0.401474
722324605391708	-4.5648193	10.163605	-0.32965088
722324610457626	-4.958664	10.118118	-0.15367126
722324615523544	-5.441086	10.309647	0.037857056
722324620589462	-5.75354	10.562241	0.04385376
722324625655380	-5.9175415	10.83757	-0.16564941
722324630721298	-6.128235	11.127274	-0.32965088
722324635787216	-6.177307	11.342743	-0.4637146
722324640883651	-6.1713257	11.512741	-0.5870209
722324645949569	-6.2132263	11.6492	-0.6277313
722324651015487	-6.1713257	11.792862	-0.6289215
722324656081405	-5.83374	11.981995	-0.52238464
722324661147323	-5.3165894	12.183121	-0.1381073
722324666213241	-4.749161	12.246567	0.34431458
722324671279159	-4.453491	12.090942	0.70344543
722324676345077	-4.2858887	11.809616	1.0937042
722324681441513	-4.176956	11.403809	1.2936249
722324686507431	-3.9028168	10.8663025	1.4312897
722324691573349	-3.4143982	10.206696	1.428894
722324696639267	-2.7164917	9.5099945	1.1547546
722324701705184	-1.8904877	8.847992	0.5514221
722324706801620	-0.820282	8.418228	-0.31648254
722324711867538	0.0907135	8.440979	-1.0981903
722324716933456	0.75032043	8.844406	-1.6919403
722324721999374	1.1082458	9.636887	-2.1660004
722324727065292	1.2052155	10.769333	-2.5311127
722324732131210	1.3057709	12.232193	-2.6580048
722324737197128	1.6289825	13.735748	-2.6089325
722324742263046	1.9174805	15.064529	-2.267746
722324747359481	2.1138153	15.969543	-1.6392822
722324752425399	2.3089447	16.231705	-0.81806946
722324757491317	2.401123	16.320297	0.1360321
722324762587753	2.4490051	16.296356	1.0458221
722324767653671	2.7003937	16.204178	1.7102203
722324772719589	2.891922	15.791183	1.8730164
722324777785507	2.7015839	14.856247	1.736557
722324782851425	1.9893188	13.917709	1.262497
722324787917343	1.2710571	13.3012085	0.60528564
722324792983261	0.6629181	12.474014	-0.17042542
722324798049179	-0.28398132	11.833557	-0.85517883
722324803145614	-1.2715912	11.501968	-1.5471039
722324808211532	-2.4878387	11.355911	-2.0211487
722324813277450	-4.247589	11.175156	-2.3826752
722324818343368	-5.5021515	10.968063	-2.8471527
722324823409286	-5.2292023	11.036285	-3.1859283
722324828475204	-5.078369	10.788498	-2.5035858
722324833541122	-3.79628	10.455704	-2.1624146
722324838607040	-2.8673248	10.485626	-1.6440582
722324843703476	-2.7919006	10.199524	-1.7087097
722324848769393	-3.5963593	9.780533	-2.2019196
722324853835311	-4.425949	9.572235	-2.3479614
722324858901229	-4.3481445	9.185577	-1.9983978
722324863967147	-4.7120514	9.120926	-1.1508636
722324869033065	-5.065201	8.974884	-0.59420776
722324874098983	-2.1023712	7.0032654	-2.1097412
722324879164901	1.3907623	1.0093689	-7.9180756
722324884230819	-7.3325043	8.851578	3.8386536
722324889327255	-6.097107	10.833984	2.3997498
722324894393173	-4.010559	6.8189087	-2.136078
722324899459091	-4.11351	4.852066	-1.9289703
722324904525009	-3.4407349	3.8860016	-1.8822937
722324909590927	-3.0133667	3.1773224	-1.4776611
722324914656845	-2.4651031	2.9199524	-1.4405518
722324919753280	-2.0209808	2.8660736	-1.6129456
722324924819198	-1.7121277	2.757141	-1.713501
722324929885116	-1.6319122	2.8445282	-1.6117401
722324934951034	-1.3410187	3.0827484	-1.4668884
722324940016952	-0.91485596	3.1174622	-1.4633026
722324945082870	-0.9124603	3.0109253	-1.4620972
722324950148788	-0.7975311	3.0205078	-1.7314453
722324955245224	-0.52101135	3.0444489	-1.8619385
722324960311142	-0.24328613	3.0085297	-1.8356018
722324965377059	0.016494751	3.030075	-1.524353
722324970442977	9.3078613E-4	3.0564117	-1.263382
722324975508895	-0.097229004	2.9199524	-0.935379
722324980574813	-0.12477112	2.700882	-0.57266235
722324985640731	-0.012237549	2.5835571	-0.40266418
722324990706649	0.23435974	2.535675	-0.23866272
722324995803085	0.3875885	2.5404663	-0.109375
722325000869003	0.4737854	2.582367	-0.021987915
722325005934921	0.4857483	2.6087036	-0.0052337646
722325011000839	0.45822144	2.5560303	0.088134766
722325016066757	0.046417236	2.4111786	0.01751709
722325021132675	0.04283142	2.2950592	-0.23028564
722325026198593	0.28463745	2.4674377	-0.35359192
722325031264511	-0.06611633	2.4770203	-0.5678711
722325036360946	0.08592224	2.4075928	-1.4417572
722325041426864	0.2678833	2.250763	-2.2725372
722325046492782	-0.24926758	2.1573944	-3.0338898
722325051558700	-0.547348	2.2723236	-3.6444244
722325056624618	-0.93640137	2.3920288	-4.089737
722325061690536	-1.4391785	2.7104492	-4.543442
722325066756454	-1.9623108	3.3018188	-5.193466
722325071822372	-2.516571	4.1457825	-5.813568
722325076918808	-3.200119	5.1932373	-6.4085236
722325081984726	-4.0321045	6.610611	-7.019043
722325087050643	-4.792267	8.349991	-7.34346
722325092116561	-5.8469086	10.1827545	-7.244095
722325097182479	-7.0176697	11.987991	-7.0334167
722325102248397	-8.834869	13.653152	-7.003479
722325107314315	-10.804108	15.392548	-7.402115
722325112380233	-12.272949	16.736893	-8.098831
722325117476669	-13.669968	17.671814	-8.143127
722325122542587	-15.817566	19.164612	-7.909683
722325127608505	-15.406952	19.740417	-8.121582
722325132674423	-13.575394	18.906036	-7.5350037
722325137740341	-12.360336	17.313889	-6.8670197
722325142806259	-11.09021	15.367401	-6.4121094
722325147872177	-9.968521	13.349091	-6.2457123
722325152938095	-8.986908	11.44809	-6.260086
722325158004013	-7.844864	9.676392	-6.228958
722325163069931	-6.529251	8.152481	-6.307968
722325168135849	-5.1274567	6.974533	-6.3917694
722325173201767	-3.8309937	6.3472443	-6.607239
722325178298202	-2.456726	6.2478943	-6.5222473
722325183364120	-1.2248993	6.4561768	-6.165512
722325188430038	-0.45516968	6.754257	-5.809967
722325193495956	-0.37734985	7.492874	-5.4400635
722325198561874	-0.5641022	8.609772	-5.1204376
722325203627792	-0.99505615	10.112137	-4.7481384
722325208693710	-1.0297699	11.622864	-3.9724274
722325213759628	-0.6215668	12.963623	-2.7525787
722325218856063	0.11705017	14.03743	-0.9066467
722325223921981	0.8353119	14.615616	1.7389374
722325228987899	1.26268	14.68985	3.595642
722325234053817	1.017273	14.458801	3.2832031
722325239119735	0.33491516	14.181076	2.2022247
722325244185653	-0.06251526	13.323944	2.4440308
722325249251571	0.103881836	11.438522	4.3210907
722325254348007	0.5037079	8.789337	5.594803
722325259413925	0.28105164	6.2897797	4.955551
722325264479843	-0.13194275	4.6880646	2.8294983
722325269545761	0.11584473	4.237961	0.40896606
722325274611679	0.8568573	4.527649	-1.3016968
722325279677597	1.2842255	5.3512573	-2.0606537
722325284743515	0.6605377	6.2802124	-2.247406
722325289809433	-0.5293884	6.736313	-1.9577026
722325294905868	-1.5864258	6.754257	-0.9257965
722325299971786	-2.484253	6.7746124	0.68070984
722325305037704	-3.5089722	6.9362183	1.8670349
722325310103622	-4.163788	7.1696625	2.0872955
722325315169540	-4.532486	7.3707733	1.9005585
722325320235458	-4.689316	7.5455475	1.7748566
722325325301376	-4.7084656	7.7119446	1.9316711
722325330367294	-4.7276154	7.9022827	2.32193
722325335463729	-4.658188	8.150085	3.0737152
722325340529647	-4.2332153	8.700745	3.8410492
722325345595565	-3.919571	9.325638	4.421646
722325350661483	-4.062027	10.018753	4.713745
722325355727401	-4.1039276	10.666382	4.342636
722325360793319	-4.1458282	11.240997	3.5669098
722325365859237	-4.204483	11.461258	2.6032562
722325370925155	-3.804657	11.169174	1.3426971
722325376021591	-3.1354828	10.642441	0.26171875
722325381087509	-2.3310242	10.173187	-0.2135315
722325386153427	-1.5696716	9.6883545	-0.19317627
722325391219345	-1.175827	9.101776	-0.05192566
722325396285263	-0.93759155	8.521179	0.12046814
722325401351181	-0.70536804	8.017197	0.37783813
722325406417099	-0.57966614	7.540756	0.73817444
722325411513534	-0.65867615	7.23909	0.95962524
722325416579452	-0.8514099	6.9877014	1.0039215
722325421645370	-0.8633728	6.76503	1.0003357
722325426711288	-0.7987366	6.6920166	0.81837463
722325431777206	-1.1901855	6.66568	0.49993896
722325436843124	-1.6881866	6.733917	0.22102356
722325441909042	-2.0113983	7.0272064	0.009140015
722325446974960	-2.2891235	7.421051	-0.0758667
722325452071395	-2.516571	7.7634125	-0.07107544
722325457137313	-2.8110657	7.9884796	-0.053115845
722325462203231	-2.9056396	8.168045	0.1300354
722325467269149	-2.7440186	8.205154	0.32637024
722325472335067	-2.5860138	8.24704	0.5597992
722325477400985	-2.401657	8.269791	0.71302795
722325482466903	-2.164627	8.188385	0.8231659
722325487563339	-2.1849823	7.954956	1.0769501
722325492629257	-1.6247406	7.8268585	0.8255615
722325497695175	-1.5720673	7.9525604	0.7393646
722325502761093	-1.6570587	8.072266	0.6076813
722325507827011	-1.7624054	8.120148	0.4903717
722325512892929	-1.9455566	8.136917	0.4688263
722325517958847	-2.2292633	8.122543	0.44726563
722325523024765	-2.4435577	8.054306	0.44488525
722325528121200	-2.619522	7.954956	0.5095215
722325533187118	-2.8074646	7.8927	0.58732605
722325538253036	-2.9367523	7.8507996	0.5705719
722325543349472	-3.097168	7.7945404	0.41973877
722325548415390	-3.2539825	7.761017	0.16595459
722325553481308	-3.3808746	7.6724396	-0.06628418
722325558547226	-3.3844757	7.6281433	-0.11895752
722325563613143	-3.4419403	7.6880035	-0.033966064
722325568679061	-3.476654	7.740677	0.08694458
722325573744979	-3.4263763	7.8125	0.31678772
722325578841415	-3.3641205	7.9022827	0.63760376
722325583907333	-3.270752	7.9681244	0.8459015
722325588973251	-3.246811	8.056702	0.8770294
722325594039169	-3.3365936	8.14888	0.7872467
722325599105087	-3.425171	8.359573	0.563385
722325604171005	-3.5149536	8.593002	0.27967834
722325609236923	-3.5855865	8.948547	0.064193726
722325614302841	-3.6969147	9.35437	-0.074661255
722325619399276	-3.8142395	9.793701	-0.13931274
722325624465194	-3.8585205	10.1827545	-0.16564941
722325629531112	-3.7795105	10.454498	-0.29852295
722325634597030	-3.6837463	10.663986	-0.49604797
722325639662948	-3.599945	10.880661	-0.5930023
722325644728866	-3.5975494	11.0638275	-0.5319519
722325649794784	-3.7136688	11.23262	-0.46012878
722325654891220	-3.899231	11.385849	-0.25901794
722325659957138	-3.9914093	11.516327	-0.03036499
722325665023056	-3.9818268	11.430145	-0.0040283203
722325670088974	-3.9770355	11.13446	-0.20753479
722325675154892	-4.1697693	10.9058075	-0.31767273
722325680220809	-4.4822083	10.698715	-0.3320465
722325685286727	-4.7647247	10.643646	-0.20275879
722325690383163	-5.061615	10.710678	-0.08303833
722325695449081	-5.3213806	10.824402	-0.057907104
722325700514999	-5.4027863	11.045868	-0.19676208
722325705580917	-5.4075775	11.240997	-0.38949585
722325710646835	-5.469818	11.412186	-0.46492004
722325715712753	-5.59671	11.602524	-0.46133423
722325720778671	-5.626648	11.867081	-0.46850586
722325725844589	-5.362076	12.227402	-0.30570984
722325730910507	-5.065201	12.532669	0.28686523
722325736006942	-4.726425	12.677521	0.96920776
722325741072860	-4.464264	12.604492	1.3750305
722325746138778	-4.4391174	12.385422	1.6707153
722325751204696	-4.1063232	12.00235	1.6946564
722325756270614	-3.4934082	11.31163	1.3486938
722325761336532	-2.7476196	10.479645	0.83273315
722325766402450	-2.0257568	9.717087	0.44128418
722325771498886	-1.4044647	9.093399	0.14440918
722325776564804	-0.844223	8.725891	-0.24345398
722325781630722	-0.3139038	8.736664	-0.6612396
722325786696640	0.21520996	9.210709	-1.0000305
722325791762558	0.45703125	9.869125	-1.5458984
722325796828476	0.5719452	10.693924	-2.0929718
722325801924911	0.8185425	11.790466	-2.5095673
722325806990829	1.0783234	12.9300995	-2.5167542
722325812056747	1.2578888	14.003906	-2.2917023
722325817122665	1.3907623	14.720963	-1.9134064
722325822188583	1.6780701	14.971161	-1.2574005
722325827254501	2.038391	15.094467	-0.31767273
722325832320419	2.2897797	15.16629	0.6471863
722325837386337	2.5507507	15.078903	1.4480438
722325842452255	2.6237793	14.62999	1.8311157
722325847518173	2.4238586	13.751312	1.844284
722325852614608	2.124588	13.021088	1.3403168
722325857680526	1.6074371	12.502747	0.63760376
722325862746444	1.0244446	11.859894	-0.23149109
722325867812362	0.44984436	11.401413	-0.99642944
722325872878280	-0.25045776	11.2374115	-1.6775818
722325877974716	-0.9711151	11.243393	-2.2210693
722325883040634	-2.101181	11.184738	-2.5538635
722325888106552	-3.1103363	11.1188965	-2.9285583
722325893172470	-3.7316284	11.334366	-3.1200867
722325898238388	-3.7759247	11.353531	-2.7920837
722325903304306	-3.394043	11.015945	-2.575409
722325908370224	-2.7248688	10.619705	-1.8332062
722325913436142	-2.0844269	10.389862	-1.5482941
722325918502059	-2.3250427	10.037903	-1.9361572
722325923567977	-3.0397034	9.572235	-1.7518005
722325928664413	-3.8633118	9.193954	-1.4740753
722325933730331	-4.7874756	9.007202	-1.4130249
722325938796249	-4.8772583	8.354782	-1.311264
722325943862167	-3.0001984	6.859604	-1.5458984
722325948928085	0.3361206	2.7631226	-5.283249
722325953994003	-6.058792	7.771805	1.5270538
722325959059921	-6.282654	9.859543	1.6156464
722325964156356	-4.6653748	7.08107	-1.3412018
722325969222274	-4.7587433	5.8217163	-0.89108276
722325974288192	-3.425171	4.543213	-2.1169128
722325979354110	-2.401657	3.344925	-2.9285583
722325984420028	-2.3274384	2.5536346	-2.7825012
722325989485946	-2.0556946	2.3980103	-2.432953
722325994551864	-2.1155396	2.6003265	-1.7697601
722325999617782	-1.8869019	2.784668	-1.8092651
722326004714218	-1.7540283	2.9594574	-1.9086151
722326009780136	-1.7240906	3.124649	-1.7948914
722326014846054	-1.6582489	3.2611237	-1.594986
722326019911972	-1.5086212	3.4382935	-1.469284
722326024977890	-1.0561066	3.4071655	-1.5303345
722326030043808	-0.87535095	3.1677551	-1.2167053
722326035109726	-0.6610718	3.1294403	-1.0012207
722326040206161	-0.6945801	3.0564117	-0.9293976
722326045272079	-0.67063904	3.06839	-0.68518066
722326050337997	-0.25405884	3.0384674	-0.5774536
722326055403915	-0.019424438	2.9367065	-0.5235748
722326060469833	0.07633972	2.8900146	-0.36676025
722326065535751	0.36364746	2.8660736	-0.2757721
722326070601669	0.53842163	2.8768463	-0.23747253
722326075698104	0.57673645	3.04924	-0.28295898
722326080764022	0.7814331	3.1054993	-0.4134369
722326085829940	0.8089752	3.0205078	-0.6097717
722326090895858	0.7874298	3.0121307	-0.83721924
722326095961776	0.74432373	2.9630432	-1.0550842
722326101027694	0.58750916	2.7990417	-1.4321747
722326106093612	0.50131226	2.6829224	-1.852356
722326111159530	0.3947754	2.5943298	-2.4030304
722326116225448	0.15774536	2.6230621	-2.9620667
722326121321884	-0.15229797	2.6517944	-3.607315
722326126387802	-0.52459717	2.7786865	-4.2190247
722326131453720	-0.87893677	2.958252	-4.699066
722326136519638	-1.4679108	3.2599182	-5.374222
722326141585556	-2.1730042	3.7746735	-6.1631165
722326146651474	-2.80867	4.5049133	-6.943634
722326151717392	-3.599945	5.5380096	-7.6774445
722326156783309	-4.5887604	6.8691864	-8.544159
722326161849227	-5.5943146	8.469711	-8.96434
722326166945663	-6.931488	10.084595	-8.963135
722326172011581	-8.6098175	11.724625	-8.620773
722326177077499	-10.417435	13.302399	-8.159882
722326182143417	-12.173584	14.793991	-8.106018
722326187209335	-13.819595	16.11081	-8.016235
722326192275253	-15.276474	17.003845	-8.071304
722326197371688	-15.776855	17.562881	-8.071304
722326202437606	-15.094513	17.729279	-7.7205505
722326207503524	-13.868683	17.550919	-7.4188843
722326212569442	-12.39386	17.034958	-6.7748413
722326217635360	-10.99324	15.987503	-6.0649567
722326222701278	-9.750656	14.51387	-5.5729523
722326227767196	-8.758255	12.71463	-5.6890717
722326232833114	-7.607849	10.960876	-5.9248962
722326237929550	-5.9103546	9.436966	-5.8818054
722326242995468	-4.0835724	8.261414	-5.8111725
722326248061386	-2.7835236	7.303726	-5.741745
722326253127304	-2.0401306	6.662079	-5.5035095
722326258193222	-1.721695	6.559128	-5.137207
722326263259140	-1.6259308	7.048752	-4.8068085
722326268325058	-1.7743683	8.11058	-4.2214203
722326273421493	-1.7229004	9.35556	-3.3798523
722326278487411	-1.0549164	10.589767	-2.231842
722326283553329	-0.05055237	11.80603	-0.55589294
722326288619247	1.1716919	13.021088	1.1834869
722326293685165	2.4358368	14.263672	2.22258
722326298751083	2.9984741	15.458389	2.0717316
722326303817001	3.3348541	16.33107	1.9675903
722326308882919	3.6520844	16.091644	3.005478
722326313979354	4.0207977	14.233749	4.392914
722326319045272	3.8627777	11.039886	4.7197266
722326324111190	2.899109	7.7705994	3.6890259
722326329177108	1.8001709	5.77742	1.9400635
722326334243026	1.5559692	5.1070557	0.114471436
722326339308944	2.0419922	5.1262054	-1.1436768
722326344374862	2.1377563	5.487732	-1.7087097
722326349440780	1.4673767	6.179657	-1.8583374
722326354537216	0.09429932	6.694412	-1.4525299
722326359603134	-1.2320862	6.714752	-0.26141357
722326364669052	-2.3705292	6.5735016	1.0913086
722326369734970	-3.3162384	6.4944916	1.6994324
722326374800888	-4.101532	6.445404	1.8802032
722326379866806	-4.781494	6.4118958	2.0142822
722326384932724	-5.389618	6.4741364	2.3111572
722326390029159	-5.793045	6.7123566	2.7361298
722326395095077	-5.730789	7.1792297	3.2089844
722326400160995	-5.591934	7.765808	3.6447296
722326405226913	-5.5667877	8.412247	4.085266
722326410292831	-5.480591	9.077835	4.53537
722326415358749	-5.4315186	9.797287	4.7831726
722326420424667	-5.3836365	10.549072	4.591629
722326425490585	-5.2375793	11.264938	3.836258
722326430556503	-5.04126	11.632446	2.8498535
722326435622421	-4.8461304	11.4888	1.7592926
722326440688339	-4.311035	11.073395	0.77407837
722326445754257	-3.3234253	10.528717	0.16714478
722326450820175	-2.3058777	9.970871	-0.124938965
722326455916610	-1.4990387	9.368729	-0.16325378
722326460982528	-0.88612366	8.715118	-0.15965271
722326466048446	-0.5018616	8.093811	-0.067474365
722326471114364	-0.4575653	7.4749146	-0.0016479492
722326476180282	-0.62875366	7.0080414	0.15637207
722326481246200	-0.7580261	6.7159576	0.32276917
722326486312118	-0.7233124	6.5256195	0.43649292
722326491408554	-0.7245178	6.380768	0.6280365
722326496474472	-0.9902649	6.294571	0.6016998
722326501540390	-1.2823639	6.4071045	0.38742065
722326506606308	-1.5181885	6.697998	0.1875
722326511672226	-1.7947235	7.203171	0.11807251
722326516738143	-2.0185852	7.7837677	0.14680481
722326521804061	-2.2963104	8.259018	0.17193604
722326526869979	-2.4818573	8.458939	0.3419342
722326531935897	-2.6171265	8.442169	0.62564087
722326537001815	-2.5776215	8.44696	0.92970276
722326542098251	-2.365738	8.38591	1.1260223
722326547164169	-1.8198547	8.36795	1.0745544
722326552230087	-1.6762085	8.217117	1.2756653
722326557296005	-1.6247406	7.9130554	1.4061432
722326562361923	-1.1183624	8.067474	1.2852478
722326567427841	-0.88253784	8.1740265	1.2289734
722326572524276	-0.7005768	8.021988	1.0266724
722326577590194	-0.65986633	8.061493	0.7860565
722326582656112	-0.71972656	8.12973	0.64479065
722326587722030	-0.8298645	8.085434	0.49993896
722326592787948	-1.0872345	8.006424	0.47120667
722326597853866	-1.3063049	7.9178467	0.5083313
722326602919784	-1.5900116	7.7705994	0.66275024
722326607985702	-1.8869019	7.6054077	0.7573242
722326613082138	-2.2232819	7.4234467	0.76330566
722326618148056	-2.4902344	7.322891	0.5490265
722326623213974	-2.6207275	7.255844	0.3826294
722326628279892	-2.7823334	7.211548	0.36946106
722326633345809	-2.923584	7.223526	0.43530273
722326638411727	-3.0001984	7.29895	0.53944397
722326643477645	-3.0361176	7.361191	0.63760376
722326648543563	-3.128296	7.5814514	0.6531677
722326653609481	-3.2300415	7.9094696	0.52508545
722326658705917	-3.3042603	8.358383	0.40298462
722326663771835	-3.4467163	8.905457	0.31559753
722326668837753	-3.4934082	9.5099945	0.3527069
722326673903671	-3.6215057	10.005585	0.27488708
722326678969589	-3.8214111	10.406616	0.02947998
722326684035507	-3.9961853	10.690323	-0.11177063
722326689101425	-4.0764008	10.91539	-0.115371704
722326694167343	-4.148224	11.147629	-0.02319336
722326699263778	-4.2212524	11.310425	0.12046814
722326704329696	-4.275116	11.420563	0.27609253
722326709395614	-4.393631	11.444504	0.3945923
722326714461532	-4.531296	11.397812	0.4736023
722326719527450	-4.6773376	11.2374115	0.47720337
722326724623886	-4.7635345	10.947708	0.28805542
722326729689804	-4.7874756	10.604141	-0.096206665
722326734755722	-4.78508	10.345566	-0.35838318
722326739821640	-4.871277	10.1983185	-0.43858337
722326744887558	-5.0963287	10.294083	-0.40985107
722326749953476	-5.2818756	10.592163	-0.2973175
722326755019393	-5.2986298	10.921371	-0.2422638
722326760115829	-5.2938538	11.280502	-0.30929565
722326765181747	-5.18013	11.505554	-0.4876709
722326770247665	-5.2304077	11.62886	-0.575058
722326775313583	-5.069992	11.783279	-0.48886108
722326780379501	-4.9730225	11.875458	-0.45654297
722326785445419	-4.927536	11.958054	-0.5870209
722326790511337	-4.722824	12.096924	-0.79052734
722326795577255	-4.457077	12.2022705	-0.6947632
722326800643173	-4.3086395	12.193893	-0.20515442
722326805739608	-4.4044037	12.131638	0.48199463
722326810805526	-4.544464	12.019104	1.1870728
722326815871444	-4.556427	11.76413	1.5402222
722326820937362	-4.302643	11.306839	1.523468
722326826003280	-3.835785	10.668777	1.349884
722326831069198	-3.4203796	9.991226	1.0996857
722326836135116	-2.9020386	9.317261	0.66633606
722326841201034	-2.1035767	8.766586	0.08694458
722326846266952	-0.9998474	8.559494	-0.68518066
722326851363388	-0.15827942	8.736664	-1.4237976
722326856429306	0.29901123	9.1388855	-1.9983978
722326861495224	0.72636414	9.891861	-2.3934479
722326866561142	1.1453552	10.986008	-2.67836
722326871627059	1.6385651	12.120865	-2.983612
722326876692977	2.131775	13.163544	-3.1440277
722326881758895	2.6225739	14.050598	-2.9944
722326886855331	3.0858612	14.543793	-2.4521027
722326891921249	3.2797852	14.761673	-1.5339355
722326896987167	3.4665375	14.983139	-0.39309692
722326902053085	3.544342	15.136368	0.5957184
722326907119003	3.425827	15.126785	1.171524
722326912184921	3.3851318	14.975952	1.4384766
722326917250839	3.0295868	14.458801	1.3187561
722326922316757	2.4753418	13.847092	0.6208496
722326927413192	1.895935	13.24733	-0.16085815
722326932509628	1.001709	12.584137	-0.67082214
722326937575546	-0.17744446	12.08017	-1.1891632
722326942641464	-1.4260101	11.892212	-1.7278595
722326947707382	-2.7978973	11.7521515	-1.9888306
722326952773300	-4.1194916	11.584564	-2.1743774
722326957839218	-5.12027	11.424149	-2.6184998
722326962905136	-5.6888885	11.276901	-2.9093933
722326967971054	-5.880432	10.926163	-2.2485962
722326973036972	-4.409195	10.693924	-1.9804535
722326978133407	-3.4455261	10.499985	-1.515976
722326983199325	-3.7088928	10.142059	-1.5566711
722326988265243	-4.460663	9.804474	-2.0726318
722326993331161	-5.1693573	9.61174	-2.3156433
722326998397079	-5.318985	9.436966	-1.9648895
722327003462997	-3.4084167	8.806091	0.19708252
722327008528915	-2.2915192	7.3707733	1.0625763
722327013594833	-5.1382294	7.927414	-1.5889893
722327018691268	-5.7583313	8.541534	-1.6440582
722327023757186	-4.232025	7.911865	-1.1807861
722327028823104	-2.9307709	6.642929	-1.0766449
722327033889022	-2.6554413	5.6636963	-1.8870697
722327038954940	-2.2771606	4.780243	-2.5694275
722327044020858	-1.8701477	4.385193	-2.8495483
722327049086776	-1.670227	4.0152893	-2.5299225
722327054183212	-1.7432404	3.4454803	-1.9433441
722327059249130	-1.191391	2.9762115	-1.6596222
722327064315048	-1.2285004	2.9953613	-1.7326508
722327069380966	-0.042160034	2.4135742	-1.900238
722327074446884	-0.36538696	2.1657715	-2.5538635
722327079512802	-1.4786835	2.9642334	-2.310852
722327084578720	-0.97709656	3.361679	-1.4992065
722327089675155	0.10986328	2.9881897	-1.6464539
722327094741073	-0.77719116	2.9678345	-1.7829285
722327099806991	-0.9687195	3.0169067	-1.6153259
722327104872909	-0.7735901	2.827774	-1.0311432
722327109938827	-1.5217896	2.930725	-0.096206665
722327115004745	-1.6905823	3.0899353	0.4257202
722327120070663	-1.081253	3.0576172	0.121658325
722327125136581	-0.52220154	3.0468445	-0.2530365
722327130233017	-0.008651733	2.8756561	-0.25064087
722327135298934	0.23435974	2.6877136	-0.057907104
722327140364852	0.5204773	2.5835571	0.025894165
722327145430770	0.65693665	2.4889984	0.016311646
722327150496688	0.7479248	2.5416565	-0.021987915
722327155562606	0.79341125	2.5739899	-0.1668396
722327160628524	0.7622833	2.6003265	-0.3045044
722327165694442	0.7790375	2.6170807	-0.5319519
722327170790878	0.7167969	2.5799713	-0.8491821
722327175856796	0.7000427	2.6170807	-1.3280334
722327180922714	0.61026	2.6278534	-1.9181976
722327185988632	0.2690735	2.73201	-2.3096466
722327191054550	-0.19898987	2.8301697	-2.7118835
722327196120468	-0.45277405	3.0073395	-3.7114563
722327201186386	-0.85020447	3.289856	-4.4584503
722327206282821	-1.3015137	3.5759583	-5.2868347
722327211348739	-1.5505219	4.0739594	-6.2852173
722327216414657	-2.398056	4.9179077	-6.857437
722327221480575	-3.3629303	6.1030426	-7.244095
722327226546493	-4.0871735	7.6006165	-7.726532
722327231612411	-4.9778137	9.239441	-8.059326
722327236678329	-6.117447	10.877075	-8.109604
722327241744247	-7.8029785	12.661957	-7.3721924
722327246840683	-8.709183	14.562958	-7.9659576
722327251906601	-10.557495	16.595627	-8.696182
722327256972518	-13.318008	17.925613	-9.048126
722327262038436	-14.950867	19.00299	-9.227692
722327267104354	-15.781647	20.00856	-9.014618
722327272170272	-15.118454	19.930756	-8.68541
722327277236190	-13.594543	18.795898	-8.551331
722327282332626	-12.312454	17.194183	-7.93602
722327287398544	-10.812485	15.338669	-7.354233
722327292464462	-9.471725	13.522675	-7.003479
722327297530380	-8.190826	11.631256	-6.670685
722327302596298	-7.0559845	10.205505	-6.9855347
722327307662216	-5.45665	8.973694	-7.1076355
722327312728134	-3.8561249	7.908264	-6.7808228
722327317794052	-2.4651031	7.148102	-6.292404
722327322859970	-1.120758	6.4897003	-5.983551
722327327925888	0.03564453	5.943817	-5.729767
722327333022323	0.34329224	5.8576355	-5.38739
722327338088241	0.06677246	6.188034	-4.955246
722327343154159	-0.4515686	6.9757233	-4.4680176
722327348220077	-0.741272	8.024384	-3.6623688
722327353285995	-0.4575653	9.174805	-1.9577026
722327358351913	0.239151	10.096573	0.33714294
722327363448349	1.144165	10.908203	2.136383
722327368514267	1.9713593	11.88623	2.6882477
722327373580184	2.4142761	12.949265	2.536209
722327378646102	2.761444	13.956024	2.9180908
722327383712020	2.9098816	14.468384	4.27919
722327388777938	2.962555	13.808777	5.333832
722327393843856	2.792572	12.078964	5.065689
722327398909774	1.9138947	10.060654	3.8218994
722327404006210	0.97895813	8.594208	2.2596893
722327409072128	0.5635681	7.828064	0.49993896
722327414138046	0.39356995	7.6161804	-1.0514984
722327419203964	0.24873352	7.908264	-1.8511658
722327424269882	-0.29475403	8.309296	-1.9385529
722327429335800	-1.472702	8.418228	-1.0730438
722327434401718	-2.7033234	8.193176	0.3431244
722327439467636	-3.7124786	7.7622223	1.5641632
722327444533554	-4.5193176	7.255844	2.0717316
722327449599472	-5.109497	6.7470856	2.4057312
722327454695907	-5.7319946	6.3711853	2.6188202
722327459761825	-6.0444336	6.244293	2.8271027
722327464827743	-6.0839386	6.3077393	3.1275787
722327469893661	-5.794235	6.7315216	3.5369873
722327474959579	-5.0879517	7.2809906	3.8458405
722327480025497	-4.1865234	7.7430725	3.7752075
722327485091415	-3.1558228	8.361969	3.350235
722327490157333	-2.2675781	9.125717	2.7864075
722327495223251	-1.9694977	9.811661	2.294403
722327500289169	-1.8318329	10.485626	1.8263397
722327505385604	-1.7336731	10.952499	1.1751099
722327510451522	-1.5648804	11.102127	0.59690857
722327515517440	-1.2464447	10.923767	0.31678772
722327520583358	-0.725708	10.607727	0.45924377
722327525649276	-0.11758423	10.173187	0.82795715
722327530715194	0.27146912	9.683563	1.2349701
722327535781112	0.1589508	9.073044	1.5294495
722327540877548	-0.32348633	8.539139	1.6802826
722327545943466	-0.6742401	8.109375	1.7592926
722327551009384	-0.95436096	7.580261	1.3750305
722327556075302	-1.3039093	7.1421204	0.82196045
722327561141220	-1.5816345	6.785385	0.41973877
722327566207138	-1.8258514	6.6130066	0.24615479
722327571273056	-2.109558	6.653702	0.2341919
722327576338974	-2.444748	6.8452454	0.14559937
722327581404892	-2.8589478	7.0475464	0.03666687
722327586501327	-3.3389893	7.2534485	0.1695404
722327591567245	-3.6538239	7.598221	0.38502502
722327596633163	-3.5245361	7.9693146	0.49993896
722327601699081	-3.4503174	8.04953	0.67233276
722327606764999	-3.3808746	7.9537506	0.6136627
722327611830917	-2.8374023	8.005234	0.58732605
722327616896835	-2.8254242	7.915451	0.8985748
722327621993270	-2.5285492	7.6844025	0.90815735
722327627059188	-2.116745	7.5503387	0.989563
722327632125106	-1.9108429	7.6006165	1.0482178
722327637191024	-1.4463654	7.7394714	1.1032867
722327642256942	-1.2404633	7.8101044	1.0877228
722327647322860	-1.2835541	7.9058685	0.9213257
722327652388778	-1.2680054	8.037552	0.70584106
722327657454696	-1.3996735	8.255432	0.55500793
722327662551132	-1.5325623	8.419434	0.44966125
722327667617050	-1.7121277	8.419434	0.44488525
722327672682968	-1.9216156	8.272186	0.50593567
722327677748886	-2.1502686	8.075867	0.4113617
722327682814804	-2.3513794	7.8783417	0.21981812
722327687880722	-2.5764313	7.6448975	-0.036361694
722327692946640	-2.8194427	7.4509735	-0.15367126
722327698012558	-2.8589478	7.242676	-0.112976074
722327703078476	-2.8302155	7.103821	-0.0028381348
722327708144393	-2.836197	7.0798798	0.18151855
722327713240829	-2.9966125	7.127762	0.23298645
722327718306747	-3.2061005	7.393509	0.1767273
722327723372665	-3.2767334	7.8340454	0.147995
722327728438583	-3.433548	8.425415	0.17553711
722327733504501	-3.6203003	9.05748	0.26171875
722327738570419	-3.6729736	9.687164	0.41734314
722327743666854	-3.7747345	10.155228	0.41973877
722327748732772	-3.9207764	10.503586	0.3754425
722327753798690	-3.8968353	10.83757	0.24017334
722327758864608	-3.8573303	11.027908	0.05342102
722327763930526	-3.9243622	11.121292	-0.21711731
722327768996444	-3.9686584	11.193115	-0.40386963
722327774062362	-4.109909	11.25296	-0.38111877
722327779128280	-4.2451935	11.339157	-0.22070313
722327784224716	-4.4319305	11.383453	0.1013031
722327789290634	-4.6917114	11.396622	0.48916626
722327794356552	-4.8976135	11.297256	0.6759186
722327799422470	-4.967041	11.017136	0.49874878
722327804488388	-4.951477	10.711884	0.11088562
722327809554306	-4.9646454	10.594559	-0.20753479
722327814620224	-5.0400696	10.6185	-0.36076355
722327819716659	-5.2172394	10.731033	-0.24345398
722327824782577	-5.372864	10.99559	-0.13331604
722327829879013	-5.326172	11.276901	-0.20753479
722327834944931	-5.1358337	11.584564	-0.31048584
722327840010849	-4.926346	11.856308	-0.3547821
722327845076767	-4.9215546	11.979614	-0.2817688
722327850142684	-4.7431793	12.112488	-0.08543396
722327855208602	-4.721634	12.143616	0.13124084
722327860274520	-4.6677704	12.23938	0.3431244
722327865370956	-4.491791	12.531464	0.52508545
722327870436874	-4.13266	12.7517395	0.7585144
722327875502792	-3.622696	12.679916	0.78964233
722327880568710	-3.2132874	12.422531	0.8255615
722327885634628	-3.1665955	11.947281	0.9237213
722327890700546	-3.0313263	11.426544	0.9440613
722327895766464	-2.5919952	10.911789	0.83872986
722327900862899	-1.9910431	10.315643	0.53466797
722327905928817	-1.3434143	9.665604	0.1408081
722327910994735	-0.6826172	9.126923	-0.22669983
722327916060653	-0.1439209	8.808487	-0.64208984
722327921126571	0.22717285	8.797714	-1.1197357
722327926192489	0.5324402	9.034744	-1.579422
722327931258407	0.79341125	9.458511	-1.9325714
722327936324325	0.9693756	10.150436	-2.3874664
722327941390243	1.2650604	11.078186	-2.5311127
722327946456161	1.5272369	12.137619	-2.2809143
722327951552597	1.6960297	13.054596	-1.9265747
722327956618515	1.9701538	13.559784	-1.5686493
722327961684433	2.227539	13.600479	-1.0012207
722327966750351	2.3472443	13.485565	-0.16564941
722327971816268	2.3053436	13.517883	0.6639404
722327976882186	2.3927307	13.589706	1.2660828
722327981978622	2.318512	13.462814	1.5665588
722327987044540	2.2502747	13.114456	1.4695892
722327992110458	1.8181305	12.562592	1.0422363
722327997176376	1.2219696	12.213043	0.3431244
722328002242294	0.6988373	11.956863	-0.30091858
722328007308212	0.21401978	11.778488	-0.89707947
722328012374130	-0.2911682	11.762924	-1.484848
722328017440048	-0.99147034	11.838348	-2.1396637
722328022536483	-2.0054169	11.82518	-2.5789948
722328027602401	-3.3222198	11.688705	-2.6735687
722328032668319	-4.2104797	11.630051	-2.8555298
722328037734237	-4.3876495	11.541473	-2.8244019
722328042800155	-4.5612183	11.159592	-2.243805
722328047866073	-3.5484772	10.951294	-1.891861
722328052931991	-2.421997	10.917786	-1.6727905
722328058028427	-2.7631836	10.759766	-1.7003326
722328063094345	-3.7316284	10.550262	-1.855957
722328068160263	-4.6617737	10.38028	-1.9445343
722328073226181	-5.0604095	9.94693	-1.6057587
722328078292099	-5.00296	9.533936	-0.7450409
722328083358017	-4.0548553	8.727081	-0.10697937
722328088423934	-3.8848572	8.176422	0.28326416
722328093489852	-3.8812714	7.911865	0.21144104
722328098586288	-3.9734497	7.2522583	-0.26141357
722328103652206	-3.1474457	6.041992	-1.3376007
722328108718124	-2.8110657	4.756302	-2.5897675
722328113784042	-2.461502	4.242737	-3.085373
722328118849960	-2.31427	4.2164154	-3.0362854
722328123915878	-2.2963104	4.0583954	-2.654419
722328128981796	-2.2568054	3.6214447	-1.8152466
722328134047714	-1.5924072	3.4107666	-1.5207672
722328139144149	-1.3925018	3.234787	-1.5111847
722328144210067	-1.2871552	3.1461945	-1.7266693
722328149275985	-0.95555115	3.052826	-1.8822937
722328154341903	-1.0429382	2.9091797	-1.8044739
722328159407821	-0.6526947	2.7655182	-1.729065
722328164473739	-0.5736847	2.7379913	-1.6141357
722328169539657	-0.39891052	2.7104492	-1.5063934
722328174636093	-0.2348938	2.7284088	-1.2885284
722328179702011	-0.14750671	2.6350403	-0.9222107
722328184767929	0.003326416	2.5919495	-0.59181213
722328189833847	0.09669495	2.559616	-0.40266418
722328194899765	0.21401978	2.504547	-0.2243042
722328199965683	0.49891663	2.520111	-0.03994751
722328205031601	0.78382874	2.520111	0.001953125
722328210128036	0.99931335	2.551239	-0.02558899
722328215193954	1.1333923	2.5859528	0.042648315
722328220259872	1.1728973	2.535675	0.011520386
722328225325790	1.1190186	2.5308838	-0.038757324
722328230391708	1.0352173	2.5069427	-0.22190857
722328235457626	0.9454346	2.4901886	-0.40985107
722328240523544	0.8185425	2.4985657	-0.737854
722328245589462	0.6581421	2.479416	-1.1592407
722328250685897	0.5396271	2.4842072	-1.678772
722328255751815	0.22358704	2.4853973	-2.2976837
722328260817733	-0.21095276	2.535675	-2.872284
722328265883651	-0.349823	2.7535553	-3.4229584
722328270949569	-0.76641846	3.04924	-3.9700317
722328276015487	-1.4559479	3.495758	-4.41774
722328281081405	-2.3094788	4.3133698	-5.092911
722328286147323	-2.8529663	5.0831146	-6.1714935
722328291243759	-3.492218	6.239502	-6.9903107
722328296309677	-4.2068787	7.7825775	-7.667877
722328301375595	-5.077179	9.536331	-8.286774
722328306441513	-6.2527313	11.353531	-8.560913
722328311507431	-7.9334564	13.108475	-8.430435
722328316573349	-9.615387	14.8311	-8.119186
722328321639267	-11.414627	16.607605	-7.9264526
722328326705184	-13.441315	18.253616	-8.034195
722328331801620	-15.224991	19.608734	-8.211365
722328336867538	-15.617645	20.444305	-8.540558
722328341933456	-14.724609	20.656189	-8.741669
722328346999374	-13.811218	20.04448	-8.505844
722328352065292	-12.709885	18.901245	-8.024612
722328357131210	-11.177597	17.170242	-7.3841553
722328362197128	-10.126541	14.833496	-6.852646
722328367293563	-9.35083	12.357895	-6.686249
722328372359481	-8.129776	10.02713	-6.8227234
722328377425399	-6.5232697	8.114166	-7.0130615
722328382491317	-5.0089417	6.8177032	-6.9663696
722328387557235	-2.690155	5.473358	-6.845459
722328392623153	-3.2097015	5.448227	-6.140381
722328397689071	-2.0281525	5.472168	-5.6064606
722328402754989	-0.41685486	5.224365	-4.8463135
722328407820907	0.03804016	5.705597	-4.137619
722328412917343	-0.23609924	6.912277	-3.6551971
722328417983261	-0.6790314	8.645676	-3.1344604
722328423049179	-0.29714966	10.355148	-2.2462006
722328428115097	0.6605377	11.871872	-0.71751404
722328433181015	1.713974	13.2617035	1.9316711
722328438246933	2.2418976	14.216995	4.392914
722328443312851	2.0012817	14.843079	4.8897095
722328448409286	1.3464661	15.307541	3.8961182
722328453475204	1.0950775	15.041794	3.7045898
722328458541122	1.6277924	13.314377	4.890915
722328463607040	2.2442932	10.223465	5.7791595
722328468672958	1.9581909	6.970932	5.0884247
722328473738876	1.535614	4.764679	2.3231354
722328478804794	2.1233826	4.0344543	-0.97727966
722328483870712	2.974533	4.270279	-3.196701
722328488967147	3.1098022	4.993332	-3.5977325
722328494033065	1.9845276	5.8767853	-3.4720306
722328499098983	0.12901306	6.516037	-2.9728394
722328504164901	-1.1111755	6.7039795	-1.0790253
722328509230819	-2.187378	6.8608093	0.98716736
722328514296737	-3.1223145	7.243881	1.7940063
722328519362655	-3.583191	7.7227173	1.5653687
722328524428573	-3.983017	8.024384	1.262497
722328529525009	-4.5109406	8.093811	1.4887543
722328534590927	-4.8197937	8.223099	2.160324
722328539656845	-4.7671204	8.481674	3.1431427
722328544722763	-4.769516	8.709122	3.9463959
722328549788681	-4.5731964	8.942566	4.6239624
722328554854599	-4.445099	9.372314	5.204544
722328559920517	-4.6378326	10.042694	5.386505
722328564986434	-4.757553	10.801666	4.6646576
722328570082870	-4.832962	11.370285	3.2951813
722328575148788	-4.8784485	11.464859	2.0082855
722328580214706	-4.4115906	11.121292	0.85787964
722328585280624	-3.5879822	10.455704	0.011520386
722328590346542	-2.57164	9.739838	-0.2470398
722328595412460	-1.7683868	9.105362	-0.16325378
722328600478378	-1.2464447	8.559494	0.021102905
722328605574813	-0.81069946	8.013611	0.20425415
722328610640731	-0.36418152	7.618576	0.5274811
722328615706649	-0.26722717	7.349228	0.88301086
722328620772567	-0.50305176	7.084656	0.9249115
722328625838485	-0.65867615	6.863205	0.87223816
722328630904403	-0.62275696	6.7470856	0.8243561
722328635970321	-0.8621826	6.6249695	0.6495819
722328641036239	-1.294342	6.7027893	0.5047302
722328646132675	-1.7480316	6.946991	0.21264648
722328651198593	-2.0808258	7.389923	-0.17163086
722328656264511	-2.3848877	7.832855	-0.47450256
722328661330429	-2.7224731	8.196762	-0.4996338
722328666396347	-2.8912659	8.449356	-0.45773315
722328671462265	-2.817047	8.601395	-0.3320465
722328676528183	-2.5153809	8.527161	-0.22909546
722328681594101	-2.216095	8.461334	-0.0040283203
722328686690536	-1.8964691	8.434998	0.28926086
722328691756454	-1.9970398	8.085434	0.7010498
722328696822372	-1.3015137	7.7382813	0.67233276
722328701888290	-1.0070343	7.8017273	0.7645111
722328706954208	-0.9124603	7.8029175	0.871048
722328712020126	-0.7640228	7.7442627	0.9021759
722328717086044	-0.725708	7.788559	0.8195648
722328722151962	-0.98428345	7.8340454	0.7226105
722328727217880	-1.196167	7.938202	0.578949
722328732314315	-1.5050201	8.078262	0.47001648
722328737380233	-1.764801	8.165649	0.5502167
722328742446151	-2.0437164	8.13092	0.61247253
722328747512069	-2.421997	8.05072	0.52149963
722328752577987	-2.690155	7.9250336	0.30361938
722328757643905	-2.875702	7.7909546	0.13363647
722328762740341	-3.1199188	7.6808167	0.01512146
722328767806259	-3.3329926	7.6413116	0.021102905
722328772872177	-3.468277	7.6293488	0.09173584
722328777938095	-3.5807953	7.6496887	0.21742249
722328783004013	-3.425171	7.678421	0.43530273
722328788069931	-3.3509521	7.737076	0.6172638
722328793135849	-3.342575	7.860382	0.71421814
722328798232284	-3.3677063	8.090225	0.73098755
722328803298202	-3.327011	8.417038	0.7010498
722328808364120	-3.291092	8.80011	0.61605835
722328813430038	-3.3353882	9.29451	0.479599
722328818495956	-3.3294067	9.758987	0.24975586
722328823561874	-3.3198242	10.179169	0.01751709
722328828627792	-3.3042603	10.596954	-0.053115845
722328833693710	-3.3150482	10.977631	-0.09022522
722328838790145	-3.3844757	11.231415	-0.09741211
722328843856063	-3.5724182	11.367889	-0.03755188
722328848921981	-3.702896	11.420563	0.10609436
722328853987899	-3.8513489	11.425354	0.3024292
722328859053817	-4.1027374	11.42894	0.27848816
722328864119735	-4.196106	11.314026	0.068984985
722328869185653	-4.0560455	11.142838	-0.30929565
722328874251571	-4.0919647	10.962067	-0.7306824
722328879348007	-4.322998	10.813629	-0.88868713
722328884413925	-4.6378326	10.912994	-0.7593994
722328889479843	-5.046051	11.166779	-0.42660522
722328894545761	-5.267517	11.403809	-0.30929565
722328899611679	-5.4243317	11.6528015	-0.29493713
722328904677597	-5.4817963	11.90538	-0.3547821
722328909743515	-5.49736	12.041855	-0.39549255
722328914809433	-5.571579	12.067001	-0.3715515
722328919905868	-5.5931244	12.055023	-0.38830566
722328924971786	-5.3932037	12.06221	-0.48287964
722328930037704	-5.089142	12.0442505	-0.54512024
722328935103622	-4.587555	11.913773	-0.31767273
722328940169540	-4.2930756	11.634842	0.17074585
722328945235458	-4.345749	11.298462	0.8171692
722328950301376	-4.5743866	10.9848175	1.325943
722328955397811	-4.7635345	10.786102	1.4875488
722328960463729	-4.5384827	10.612518	1.2960205
722328965529647	-4.074005	10.393448	0.95843506
722328970595565	-3.1378632	9.938553	0.4436798
722328975661483	-1.8222504	9.27655	-0.2745819
722328980727401	-0.641922	8.784546	-1.0275574
722328985793319	0.17330933	8.693558	-1.4597168
722328990859237	0.7622833	8.990448	-1.8236237
722328995955673	1.2123871	9.529144	-2.3371887
722329001021591	1.606247	10.347961	-2.764557
722329006087509	1.9761505	11.543869	-3.0805817
722329011153427	2.34964	12.883423	-3.0602264
722329016219345	2.9577637	14.239731	-2.7190552
722329021285263	3.5575104	15.211777	-1.9409485
722329026381698	3.8352356	15.651108	-0.7701721
722329031447616	3.9561462	15.85582	0.34431458
722329036513534	3.8172913	15.909683	1.2960205
722329041579452	3.7239075	15.842651	1.9472351
722329046645370	3.7622223	15.586472	2.0741272
722329051711288	3.3851318	14.888565	1.9627991
722329056777206	2.6680756	14.078125	1.499527
722329061843124	1.8528442	13.402954	0.7393646
722329066939559	0.94065857	12.549423	-0.04473877
722329072005477	-0.20378113	11.863495	-0.816864
722329077071395	-1.180603	11.600128	-1.7649689
722329082137313	-2.3310242	11.433731	-2.4796448
722329087203231	-3.7938843	11.187134	-2.8303833
722329092269149	-4.8030396	11.008759	-3.40979
722329097335067	-4.829376	10.981232	-3.4445038
722329102400985	-4.9251404	10.699905	-2.693924
722329107466903	-3.5508728	10.5143585	-2.4425354
722329112563339	-2.1047668	10.434143	-1.9648895
722329117629257	-2.0868225	10.18515	-1.8332062
722329122695175	-2.836197	9.982849	-2.0786133
722329127761093	-3.6825562	9.793701	-2.0199585
722329132827011	-4.4558716	9.527939	-1.8715057
722329137892929	-4.591156	9.316055	-1.3890839
722329142958847	-3.789093	8.836014	-0.44577026
722329148024765	-1.6247406	7.579071	-0.057907104
722329153121200	-1.7324677	6.7662354	-0.44935608
722329158187118	-3.890854	6.694412	-0.4625244
722329163253036	-3.5891724	6.484909	-1.0012207
722329168318954	-3.6179047	5.6038513	-1.6416626
722329173384872	-3.294693	4.7227783	-2.2414093
722329178450790	-2.484253	4.206833	-2.669983
722329183516708	-2.0963898	3.8046112	-2.5490723
722329188582626	-2.192154	3.3580933	-2.1193085
722329193679061	-1.5744629	2.9714203	-1.7470093
722329198744979	-1.1590576	2.8289642	-1.792511
722329203810897	-2.0999908	3.179718	-1.5494995
722329208876815	-2.0018158	3.2228088	-1.6883545
722329213942733	-1.2919464	3.0396576	-2.010376
722329219008651	-1.3506012	3.0169067	-1.8834839
722329224074569	-1.3972778	3.085144	-1.6045532
722329229140487	-1.385315	3.40477	-1.2574005
722329234236923	-1.0106201	3.298233	-1.4525299
722329239302841	-0.7795868	3.009735	-1.287323
722329244368759	-0.8897095	3.1054993	-0.52716064
722329249434677	-0.7616272	3.3640747	-0.32006836
722329254500595	-0.53178406	3.286255	-0.65286255
722329259566513	-0.32229614	3.0791626	-0.80729675
722329264632431	-0.007446289	2.9881897	-0.69355774
722329269698349	0.40196228	2.9522705	-0.3033142
722329274794784	0.40315247	3.0707855	-0.2865448
722329279860702	0.44984436	3.2371826	-0.3260498
722329284926620	0.68566895	3.3952026	-0.29493713
722329289992538	0.9167175	3.4813843	-0.28894043
722329295058456	1.0723267	3.3748474	-0.37393188
722329300124374	1.0771179	3.282669	-0.7043457
722329305190292	1.0579681	3.3437195	-1.1113586
722329310286727	1.2566833	3.353302	-1.4620972
722329315352645	1.3584442	3.3628693	-2.0055847
722329320418563	1.2100067	3.432312	-2.6340637
722329325484481	0.8795929	3.507721	-3.1141052
722329330550399	0.39237976	3.7279968	-3.7976532
722329335616317	-0.11160278	4.022476	-4.3878174
722329340682235	-0.7077484	4.376816	-5.0174866
722329345748153	-1.4116516	4.9334717	-5.758499
722329350844589	-2.0125885	5.702011	-6.5342255
722329355910507	-2.6494598	6.696808	-7.2022095
722329360976425	-3.4455261	7.916641	-7.767227
722329366042343	-4.515732	9.27536	-8.042572
722329371108261	-5.741562	10.752579	-8.292755
722329376174179	-7.125412	12.387817	-8.501053
722329381240097	-8.567917	14.001511	-8.665054
722329386306015	-10.174423	15.579285	-8.702164
722329391402450	-12.020355	16.953568	-8.899689
722329396468368	-13.6579895	17.742447	-8.945175
722329401534286	-14.298447	18.001022	-8.659073
722329406600204	-13.764542	17.73288	-8.248474
722329411666122	-12.484833	16.969116	-7.7708282
722329416732040	-11.194351	15.7803955	-7.10643
722329421797958	-9.94339	14.47197	-6.5533752
722329426894393	-9.104218	12.977982	-6.153549
722329431960311	-8.32251	11.357117	-6.0039063
722329437026229	-7.461792	9.725464	-5.95842
722329442092147	-6.3293457	8.334442	-5.904541
722329447158065	-5.0843506	7.2175446	-5.86145
722329452223983	-3.520935	6.3987274	-5.8004
722329457289901	-0.567688	5.081909	-6.0446014
722329462355819	-1.804306	4.7742615	-5.540619
722329467452255	-1.6271362	5.1692963	-4.749344
722329472518173	-0.36897278	4.908325	-4.8870087
722329477584091	-0.45516968	5.0364227	-4.7601166
722329482650009	-0.8705597	5.741516	-4.3878174
722329487715927	-1.0429382	6.634552	-3.6228638
722329492781845	-0.6526947	7.5706787	-2.6244812
722329497847763	-0.2348938	8.590622	-1.5566711
722329502913681	0.77186584	9.753006	-0.23028564
722329508010116	1.9151001	11.130859	1.0973053
722329513076034	2.2526703	12.825958	2.22258
722329518141952	2.2047882	14.904129	2.9204865
722329523207870	2.5196228	17.087631	3.887741
722329528273788	2.9039001	18.378113	4.9280243
722329533339706	3.1457062	17.880112	5.449951
722329538405624	2.4142761	15.552948	4.837036
722329543471542	1.2339478	12.288452	3.9164734
722329548567977	-0.78796387	9.797287	2.2046204
722329553633895	-0.9974518	8.487671	-0.32006836
722329558699813	-0.42045593	7.848419	-2.7130737
722329563765731	-0.41207886	7.5299835	-3.8000488
722329568831649	-1.3134918	7.3671722	-3.7246246
722329573897567	-2.3046875	7.47731	-2.7190552
722329578963485	-3.113922	7.2690125	-1.4956207
722329584029403	-3.8633118	6.5423737	-0.09262085
722329589125839	-4.5851593	5.863617	1.0649719
722329594191757	-4.935913	5.3392944	1.720993
722329599257675	-4.8736725	5.0196686	2.1663055
722329604323593	-4.8138123	5.02565	2.4691772
722329609389511	-4.563614	5.457794	2.843872
722329614455429	-3.983017	5.9761505	3.3322906
722329619521347	-3.0361176	6.5375824	3.9296417
722329624587265	-2.2627869	7.0547333	4.4336243
722329629683700	-1.8869019	7.73468	4.4791107
722329634749618	-1.7516327	8.583435	4.0900574
722329639815536	-1.9838715	9.407043	3.7033844
722329644881454	-2.3968658	10.116913	3.2999573
722329649947372	-2.6075592	10.741806	2.6104279
722329655013290	-2.587204	11.026718	1.765274
722329660109726	-2.401657	11.018341	1.0230713
722329665175643	-2.0125885	10.733429	0.6795044
722329670241561	-1.6797943	10.313248	0.71183777
722329675307479	-1.4583435	9.828415	0.9033661
722329680373397	-1.1698303	9.320847	1.0242767
722329685439315	-0.8693695	8.839615	1.0853271
722329690505233	-0.8274689	8.282959	0.8482971
722329695571151	-1.1482849	7.7478485	0.41615295
722329700667587	-1.3613739	7.3133087	0.054626465
722329705733505	-1.3733368	6.978119	-0.03515625
722329710799423	-1.409256	6.8177032	-0.18838501
722329715865341	-1.6055756	6.6453247	-0.43139648
722329720931259	-1.9946442	6.614197	-0.5966034
722329725997177	-2.2819366	6.848831	-0.575058
722329731063095	-2.516571	7.358795	-0.41464233
722329736129013	-2.6710052	7.7861633	-0.20155334
722329741225448	-2.705719	8.08783	-0.1668396
722329746291366	-2.611145	8.330841	-0.0016479492
722329751357284	-2.5057983	8.38472	0.33833313
722329756423202	-2.1502686	8.359573	0.6172638
722329761489120	-1.6103668	8.340424	0.88061523
722329766555038	-1.3110962	8.360764	1.1200409
722329771651474	-1.3051147	8.108185	1.3690338
722329776717392	-1.0501251	7.9836884	1.3367157
722329781783309	-1.033371	7.987274	1.3187561
722329786849227	-1.0644989	8.025589	1.2241974
722329791915145	-1.1159668	8.078262	1.132019
722329796981063	-1.299118	8.13092	0.96562195
722329802046981	-1.4547424	8.182404	0.8662567
722329807112899	-1.685791	8.18959	0.8542938
722329812178817	-2.0161896	8.203949	0.7788696
722329817244735	-2.3561707	8.120148	0.71183777
722329822341171	-2.5967865	8.0399475	0.52627563
722329827407089	-2.8302155	7.942978	0.30122375
722329832473007	-3.0684357	7.79335	0.013916016
722329837538925	-3.2719421	7.671234	-0.21113586
722329842604843	-3.3808746	7.591034	-0.28775024
722329847670761	-3.3808746	7.6006165	-0.2566223
722329852767196	-3.3198242	7.647293	-0.031570435
722329857833114	-3.2180786	7.717926	0.29763794
722329862899032	-3.14505	7.792145	0.6364136
722329867964950	-3.1342773	7.9513702	0.9165344
722329873030868	-3.22406	8.236267	1.0518036
722329878096786	-3.330597	8.585831	1.0793457
722329883162704	-3.385666	8.953339	1.0410309
722329888228622	-3.3880615	9.35437	0.93807983
722329893294540	-3.4000397	9.7278595	0.6651459
722329898390976	-3.4658813	10.010376	0.26171875
722329903456893	-3.4299622	10.300079	-0.16085815
722329908522811	-3.3557434	10.571823	-0.540329
722329913588729	-3.3042603	10.859116	-0.7869415
722329918654647	-3.2372284	11.104523	-0.7342682
722329923720565	-3.1630096	11.327194	-0.52716064
722329928786483	-3.112732	11.495972	-0.30570984
722329933852401	-3.200119	11.58696	-0.10220337
722329938948837	-3.176178	11.589355	0.035476685
722329944014755	-3.1031494	11.443298	-0.10220337
722329949080673	-3.1354828	11.165573	-0.33444214
722329954146591	-3.1905365	10.921371	-0.47688293
722329959212509	-3.5377045	10.780106	-0.36915588
722329964278427	-4.017746	10.772934	-0.14050293
722329969344345	-4.2846985	10.862717	-0.0028381348
722329974410263	-4.489395	10.980026	-0.03036499
722329979506698	-4.726425	11.116501	-0.18598938
722329984572616	-4.9610596	11.1584015	-0.35717773
722329989638534	-4.955063	11.225433	-0.42062378
722329994704452	-5.160965	11.325989	-0.4122467
722329999770370	-5.2292023	11.504364	-0.52238464
722330004836288	-5.220825	11.680328	-0.68159485
722330009902206	-4.871277	11.937714	-0.6899719
722330014998642	-4.4199677	12.045441	-0.4517517
722330020064559	-4.1985016	11.961655	-0.021987915
722330025130477	-4.218857	11.766525	0.642395
722330030196395	-4.2942657	11.614487	1.1810913
722330035262313	-4.3445435	11.475632	1.3486938
722330040328231	-4.1518097	11.296066	1.2433472
722330045394149	-3.567627	10.972839	0.94047546
722330050460067	-2.5465088	10.478439	0.48797607
722330055556503	-1.6127625	9.917007	-0.05192566
722330060622421	-0.7700043	9.465698	-0.6097717
722330065688339	0.02128601	9.3914795	-0.9928436
722330070754257	0.6425781	9.507599	-1.2909241
722330075820175	1.1106415	9.858337	-1.7111053
722330080886093	1.590683	10.417389	-2.137268
722330085952011	1.9677582	11.300858	-2.417389
722330091017929	2.381958	12.244171	-2.5335083
722330096114364	2.8512268	13.304794	-2.28331
722330101180282	3.2187347	14.13678	-1.8499603
722330106246200	3.5658875	14.607239	-1.168808
722330111312118	3.927414	14.77005	-0.21592712
722330116378036	4.026779	14.847855	0.8303375
722330121443954	3.9453735	14.896942	1.6790924
722330126509872	3.7622223	14.821518	2.108841
722330131575790	3.4126587	14.334305	2.088501
722330136641708	2.5663147	13.594498	1.8227386
722330141738143	1.5966644	12.985168	1.2660828
722330146804061	0.7598877	12.390213	0.37425232
722330151869979	0.099090576	11.858704	-0.4709015
722330156935897	-0.7580261	11.577377	-1.1305084
722330162001815	-1.622345	11.621674	-1.8882751
722330167067733	-2.8194427	11.718643	-2.4233704
722330172164169	-4.1147003	11.650406	-3.1272736
722330177230087	-4.599533	11.64801	-3.4193573
722330182296005	-4.6127014	11.604919	-2.9944
722330187361923	-3.9519043	11.272125	-2.9381256
722330192427841	-2.868515	10.781311	-2.4604797
722330197493759	-2.171814	10.394638	-1.6273041
722330202559677	-2.0844269	10.157623	-1.8272247
722330207625595	-2.6518402	9.976852	-1.8595428
722330212722030	-2.6865692	9.472885	-1.6225128
722330217787948	-2.0796356	8.660049	-1.3938751
722330222853866	-2.022171	8.648071	-1.5806122
722330227919784	-4.1985016	8.688782	-0.4709015
722330232985702	-4.689316	8.414642	0.07496643
722330238051620	-3.0983582	7.4473877	-0.3260498
722330243148056	-2.7428284	6.618988	-1.0287476
722330248213974	-3.010971	5.871994	-1.5626678
722330253279892	-3.1881409	5.2147827	-1.7314453
722330258345809	-3.0875854	4.7586975	-2.0175629
722330263411727	-2.805069	4.302597	-2.121704
722330268477645	-2.1622314	3.9554443	-2.0283356
722330273543563	-2.2675781	3.634613	-1.8535614
722330278609481	-2.046112	3.3485107	-1.7518005
722330283675399	-2.013794	3.2228088	-1.6273041
722330288771835	-1.9479523	3.2323914	-1.5123749
722330293837753	-2.1215363	3.4813843	-1.0778351
722330298903671	-1.4236145	3.365265	-1.6572266
722330303969589	-0.71614075	2.8014374	-2.1013489
722330309035507	-0.91604614	2.8600922	-1.6716003
722330314101425	-1.0381622	3.595108	-0.8455963
722330319167343	-0.7867584	3.6238403	-1.263382
722330324233261	-0.844223	3.0085297	-1.634491
722330329329696	-0.6526947	2.6015167	-1.4046478
722330334395614	-0.34144592	2.3704834	-1.140091
722330339461532	-0.042160034	2.182541	-0.88749695
722330344527450	0.044021606	2.266327	-0.8491821
722330349593368	0.12063599	2.3752594	-0.97727966
722330354659286	0.22000122	2.372879	-0.97846985
722330359725204	0.24513245	2.499771	-0.8156738
722330364791122	0.38639832	2.5632172	-0.91741943
722330369887558	1.0579681	2.305832	-0.8743286
722330374953476	0.98973083	2.048462	-1.1664124
722330380019393	0.34449768	2.2770996	-1.3711243
722330385085311	0.34091187	2.6422272	-1.5291443
722330390151229	0.25350952	2.7451782	-1.9146118
722330395217147	0.30618286	2.6996765	-2.3204193
722330400283065	0.11225891	2.7272186	-2.7034912
722330405348983	-0.32588196	2.8385468	-3.212265
722330410445419	-0.7065582	3.0863495	-3.6863098
722330415511337	-1.1423035	3.38443	-4.118469
722330420577255	-1.6390991	3.8129883	-4.6559753
722330425643173	-2.211319	4.4390717	-5.0785522
722330430709091	-2.7739563	5.38118	-5.975174
722330435775009	-3.2611694	6.595047	-6.643158
722330440840927	-3.9878082	8.043533	-7.118408
722330445937362	-4.855713	9.693146	-7.6295624
722330451003280	-5.7607117	11.500763	-7.8474426
722330456069198	-7.125412	13.283249	-7.709778
722330461135116	-8.766632	14.835892	-7.904907
722330466201034	-10.35878	16.388535	-8.212555
722330471266952	-12.243027	17.798721	-8.091644
722330476332870	-13.775314	18.985046	-8.395706
722330481398788	-14.434906	19.637466	-8.726105
722330486495224	-13.637634	19.711685	-8.656677
722330491561142	-12.615311	18.98384	-8.180237
722330496627059	-11.239853	17.597595	-7.5972443
722330501692977	-9.650101	15.979126	-7.0932617
722330506758895	-8.38356	14.153549	-6.7688446
722330511824813	-7.300186	12.254944	-6.8909607
722330516890731	-6.105484	10.507172	-7.120804
722330521956649	-4.5815735	8.936569	-7.141144
722330527053085	-3.4419403	7.89151	-6.880188
722330532119003	-2.540512	7.151703	-6.659912
722330537184921	-1.3817291	6.3292847	-6.2588806
722330542250839	-0.7352905	5.894745	-5.7632904
722330547316757	-0.68141174	6.077896	-5.2652893
722330552382675	-1.0920258	6.800949	-4.670334
722330557448593	-1.4571381	7.9753113	-3.753357
722330562514511	-1.211731	9.162827	-2.631668
722330567580429	-0.310318	9.970871	-1.3328094
722330572676864	0.76467896	10.516754	0.45205688
722330577742782	1.8911438	11.208679	2.2261658
722330582808700	2.4262543	12.050232	2.9934998
722330587874618	2.4837189	13.074951	2.4512177
722330592940536	2.0862732	13.826736	1.9400635
722330598006454	1.8540344	13.825531	2.958786
722330603102890	1.9713593	12.548233	5.2129364
722330608168808	2.0874786	10.121704	6.3717194
722330613234726	1.4254761	7.4713287	5.4140472
722330618300643	0.50968933	5.724762	2.9336548
722330623366561	0.38041687	5.1513367	0.2844696
722330628432479	0.8963623	5.3787994	-1.6883545
722330633498397	1.1286011	6.083893	-2.6532135
722330638564315	0.34568787	6.772217	-2.8555298
722330643660751	-1.0046387	7.132553	-2.472458
722330648726669	-2.0269623	7.1074066	-1.2310638
722330653792587	-3.085205	6.990097	0.46403503
722330658858505	-4.0548553	6.911087	1.4360809
722330663924423	-4.4283447	6.8763733	1.6850739
722330668990341	-4.544464	6.9613647	1.7042236
722330674056259	-4.563614	7.1971893	2.045395
722330679122177	-4.6282654	7.527588	2.622406
722330684188095	-4.563614	7.954956	3.179062
722330689284530	-4.3289795	8.618149	3.6016388
722330694350448	-3.9243622	9.256195	3.8961182
722330699416366	-3.5412903	9.974457	4.10083
722330704482284	-3.4156036	10.5742035	4.072098
722330709548202	-3.6047363	11.021927	3.6100159
722330714614120	-3.804657	11.397812	2.9180908
722330719680038	-3.7352295	11.4947815	2.0837097
722330724776474	-3.3485565	11.29007	1.302002
722330729842392	-2.6949463	10.853134	0.5729675
722330734908309	-2.0353394	10.349152	0.045043945
722330739974227	-1.2296906	9.809265	-0.0184021
722330745040145	-0.4695282	9.193954	0.08454895
722330750106063	0.077545166	8.654068	0.2521515
722330755171981	0.30618286	8.144089	0.34910583
722330760268417	0.1816864	7.708359	0.47720337
722330765334335	-0.008651733	7.4629517	0.58374023
722330770400253	-0.2193451	7.3444366	0.5705719
722330775466171	-0.53297424	7.1660614	0.61128235
722330780532089	-0.68141174	7.084656	0.73817444
722330785598007	-0.7113495	7.184021	0.81118774
722330790663925	-1.0441437	7.2618256	0.6172638
722330795760360	-1.5708618	7.4282227	0.47001648
722330800826278	-1.9216156	7.820877	0.30122375
722330805892196	-2.2520142	8.206345	0.15039063
722330810958114	-2.4674988	8.457733	0.097717285
722330816024032	-2.5907898	8.650467	0.054626465
722330821089950	-2.6446686	8.60498	0.03187561
722330826155868	-2.6207275	8.492447	0.15637207
722330831221786	-2.3286285	8.363159	0.26651
722330836287704	-2.0329437	8.171631	0.440094
722330841384140	-1.5565033	7.942978	0.5490265
722330846450058	-1.4703064	7.6891937	0.88900757
722330851515976	-1.4032745	7.47731	1.0697632
722330856581893	-1.254837	7.5216064	0.92251587
722330861647811	-1.3565826	7.512024	0.75971985
722330866713729	-1.3948975	7.5778656	0.6280365
722330871779647	-1.5744629	7.6832123	0.5993042
722330876845565	-1.9778748	7.7550354	0.58374023
722330881942001	-2.2424316	7.820877	0.65556335
722330887007919	-2.3872833	7.8460236	0.7070465
722330892073837	-2.697342	7.808914	0.7082367
722330897139755	-2.9463348	7.693985	0.7178192
722330902205673	-3.14505	7.599411	0.7070465
722330907271591	-3.2994843	7.444992	0.69866943
722330912337509	-3.325821	7.342041	0.598114
722330917403427	-3.2204742	7.2295074	0.41734314
722330922499862	-3.2683563	7.1708527	0.34431458
722330927565780	-3.2049103	7.2259216	0.30960083
722330932631698	-3.0361176	7.3983	0.34431458
722330937697616	-2.9343567	7.6042023	0.34072876
722330942763534	-2.9211884	7.883133	0.27488708
722330947829452	-3.0121765	8.24704	0.20785522
722330952895370	-3.0792084	8.734268	0.21981812
722330957961288	-3.255188	9.263382	0.19108582
722330963057724	-3.4598846	9.797287	-0.06388855
722330968123642	-3.584381	10.2378235	-0.23268127
722330973189559	-3.7424011	10.630478	-0.27218628
722330978255477	-3.7879028	10.909393	-0.3440094
722330983321395	-3.8214111	11.039886	-0.3511963
722330988387313	-3.8788757	11.122482	-0.38232422
722330993453231	-3.9530945	11.173965	-0.34999084
722330998549667	-3.9483032	11.161987	-0.29852295
722331003615585	-3.9902039	11.109314	-0.2638092
722331008681503	-4.0368958	11.094955	-0.2530365
722331013747421	-3.9447174	11.001572	-0.36076355
722331018813339	-3.9135895	10.83638	-0.5523071
722331023879257	-4.005768	10.71666	-0.6696167
722331028945175	-4.179352	10.747787	-0.540329
722331034011093	-4.5588226	10.930954	-0.1955719
722331039107528	-4.7802887	11.157196	0.057022095
722331044173446	-5.007736	11.393021	0.116867065
722331049239364	-5.133438	11.674347	0.02947998
722331054305282	-5.085556	11.978409	-0.13092041
722331059371200	-5.164566	12.107697	-0.16325378
722331064437118	-5.133438	12.16156	-0.15367126
722331069503036	-5.0197144	12.210648	-0.24345398
722331074599472	-4.926346	12.233398	-0.37872314
722331079665390	-4.7635345	12.265717	-0.3547821
722331084731308	-4.4989777	12.278885	-0.14888
722331089797226	-4.1578064	12.105301	0.22102356
722331094863143	-4.0285187	11.82399	0.6962738
722331099929061	-4.1506195	11.512741	1.1200409
722331104994979	-4.3014526	11.294861	1.1619415
722331110060897	-4.263138	11.102127	0.9847717
722331115157333	-3.813034	10.861511	0.7405548
722331120223251	-2.8290253	10.400635	0.39100647
722331125289169	-1.6977539	9.712296	-0.24584961
722331130355087	-0.6945801	9.165222	-0.8204651
722331135421005	0.058395386	8.962906	-1.1185303
722331140486923	0.6318054	9.0598755	-1.5842133
722331145552841	1.2255554	9.484848	-2.207901
722331150618759	1.8037567	10.225861	-2.796875
722331155715194	2.176056	11.297256	-3.0506592
722331160781112	2.6752472	12.614075	-3.0985413
722331165847030	3.2678223	13.967987	-2.8004608
722331170912948	3.7837677	14.94722	-2.089386
722331175978866	4.0758667	15.60083	-1.0024109
722331181044784	4.164444	15.752869	-0.0028381348
722331186110702	4.0195923	15.59845	1.0218811
722331191207138	3.867569	15.56134	1.8023834
722331196273056	3.8160858	15.353043	2.1579285
722331201338974	3.5539246	14.740128	2.2872162
722331206404892	2.9050903	14.134384	1.9125214
722331211470809	2.0503693	13.557388	1.171524
722331216536727	1.1465607	12.666748	0.27488708
722331221602645	0.19485474	12.077774	-0.49365234
722331226668563	-0.7185364	11.901794	-1.2813416
722331231764999	-2.0820313	11.820389	-1.9457397
722331236830917	-3.6083374	11.730606	-2.6256866
722331241896835	-4.7084656	11.659988	-3.0171356
722331246962753	-5.065201	11.524704	-3.1739655
722331252028671	-5.047241	11.240997	-2.7825012
722331257094589	-3.8381805	11.038681	-2.492813
722331262160507	-2.578827	10.871094	-1.8260193
722331267226425	-2.2699738	10.631668	-1.7673645
722331272292343	-3.057663	10.319229	-2.0115662
722331277388778	-3.868103	9.996017	-2.1983185
722331282454696	-3.3449707	9.174805	-1.8679199
722331287520614	-2.7619781	8.382324	-1.6955414
722331292586532	-4.464264	8.689972	-1.0191803
722331297652450	-4.5576324	8.789337	-1.0155792
722331302718368	-3.5269318	8.026779	-1.1065674
722331307784286	-3.0995636	7.452179	-1.3016968
722331312850204	-3.4120026	6.811722	-1.6225128
722331317946640	-3.5077667	6.0563507	-1.8870697
722331323012558	-3.0600586	5.3081665	-2.0666351
722331328078476	-2.547699	4.6234283	-2.0941772
722331333144393	-2.226883	3.7435608	-1.5997772
722331338210311	-1.7588043	2.9283295	-1.3172607
722331343306747	-1.2524414	2.5943298	-1.3100739
722331348372665	-1.1973724	2.4315338	-1.4824524
722331353438583	-1.1255493	2.384842	-1.7326508
722331358504501	-1.0752716	2.465042	-1.6524353
722331363570419	-1.4691162	2.5069427	-1.2885284
722331368636337	-1.630722	3.045639	-0.9042511
722331373702255	-0.9088745	2.8229828	-1.6488495
722331378768173	-0.34144592	2.2770996	-2.200714
722331383834091	-0.55093384	2.2423859	-1.7661743
722331388930526	-0.8885193	2.5955353	-0.80729675
722331393996444	-0.68859863	3.1294403	-0.35717773
722331399062362	-0.60121155	2.961853	-0.98565674
722331404128280	-0.51382446	2.6266632	-1.4202118
722331409194198	-0.25045776	2.420761	-1.3639374
722331414260116	0.17570496	2.4470978	-0.89707947
722331419326034	0.27386475	2.6733398	-0.8132782
722331424391952	0.22598267	2.927124	-0.67440796
722331429457870	0.42829895	3.0707855	-0.57624817
722331434523788	0.78382874	3.1234589	-0.579834
722331439620224	0.9430542	3.1701355	-0.792923
722331444686142	0.92388916	3.1976776	-1.0562897
722331449752059	0.9394531	3.1916962	-1.3136597
722331454817977	0.9873352	3.1354218	-1.4273834
722331459883895	1.0268402	3.0408478	-1.8176422
722331464949813	1.120224	2.9211426	-2.2450104
722331470046249	0.7778473	2.9881897	-2.6999054
722331475112167	0.45463562	3.1390228	-3.1631775
722331480178085	0.12901306	3.3509064	-3.7629242
722331485244003	-0.21095276	3.559204	-4.2968445
722331490309921	-0.6921997	3.8189697	-4.8427124
722331495375839	-1.2703857	4.2331696	-5.319168
722331500441757	-1.8952789	4.8963623	-6.0493927
722331505507675	-2.6147308	5.824112	-6.837082
722331510604110	-3.349762	7.0834656	-7.4368286
722331515670028	-4.3445435	8.590622	-7.8737793
722331520735946	-5.409973	10.210297	-8.333466
722331525801864	-6.932678	11.899399	-8.515427
722331530867782	-8.367996	13.590912	-8.302338
722331535933700	-9.888321	15.293182	-8.1922
722331540999618	-11.931778	16.817093	-8.281982
722331546096054	-13.654404	18.105179	-8.11319
722331551161972	-14.201477	19.02095	-8.079681
722331556227890	-13.63884	19.25319	-8.0329895
722331561293808	-12.547089	18.774353	-8.07608
722331566359726	-11.454132	17.659851	-7.7133636
722331571425643	-10.282166	16.165863	-7.271637
722331576491561	-8.925858	14.540207	-6.5749207
722331581557479	-7.899933	12.689484	-6.29599
722331586653915	-7.173294	10.691528	-6.469574
722331591719833	-5.0723877	8.487671	-6.624008
722331596785751	-5.2974396	7.176834	-6.35585
722331601851669	-4.5061493	6.681244	-6.2253723
722331606917587	-2.2184906	5.8935394	-6.1511536
722331611983505	-1.1818085	5.3476715	-6.066147
722331617049423	-0.46115112	5.121414	-5.9380646
722331622115341	-0.18940735	5.2171783	-5.5813293
722331627181259	-0.528183	5.970154	-5.1467743
722331632277694	-0.89331055	7.283386	-4.5218964
722331637343612	-0.87535095	8.56308	-3.485199
722331642409530	-0.27679443	9.675186	-2.3994293
722331647475448	0.86763	10.751389	-1.1137543
722331652541366	2.1305695	11.627655	0.7872467
722331657607284	3.0702972	12.507523	2.4715729
722331662673202	3.2522583	13.649567	3.1192017
722331667769638	2.6932068	14.991516	2.831894
722331672835556	2.1916199	16.085663	2.764862
722331677901474	2.1628876	16.030594	3.413681
722331682967392	2.2478943	14.421692	4.6371307
722331688033309	1.7127838	11.772507	5.4236145
722331693099227	0.3947754	8.998825	4.6598663
722331698165145	-0.73887634	7.2690125	2.4979095
722331703261581	-0.45516968	6.725525	-0.077056885
722331708327499	0.2978058	6.690811	-1.713501
722331713393417	0.29421997	7.0439606	-2.331192
722331718459335	-0.68141174	7.4390106	-2.3479614
722331723525253	-1.8426056	7.646103	-1.7350464
722331728591171	-2.5692444	7.4821014	-0.6277313
722331733657089	-3.579605	7.191208	0.558609
722331738723007	-4.4869995	6.8895416	1.2601013
722331743788925	-4.9718323	6.5531464	1.6264191
722331748885360	-5.0508423	6.290985	1.9436493
722331753951278	-4.7036743	6.25148	2.3195343
722331759017196	-4.129074	6.504074	2.7205658
722331764083114	-3.5807953	6.955368	3.2652435
722331769149032	-2.9044342	7.2726135	3.7165527
722331774214950	-2.1933594	7.7071533	4.1463165
722331779280868	-1.8677521	8.318878	4.408478
722331784377304	-1.8892975	8.990448	4.3988953
722331789443222	-1.879715	9.697937	3.997879
722331794509140	-1.9491425	10.369507	3.4519958
722331799575058	-2.0664673	10.850739	2.713379
722331804640976	-1.9012604	10.881866	1.6635284
722331809706893	-1.5265656	10.641251	0.78126526
722331814772811	-0.98069763	10.199524	0.27249146
722331819838729	-0.43840027	9.677582	0.14920044
722331824904647	-0.0864563	9.2155	0.17314148
722331830001083	-0.08287048	8.766586	0.20785522
722331835067001	-0.21813965	8.358383	0.31559753
722331840132919	-0.53178406	7.954956	0.2677002
722331845198837	-0.9962616	7.4904785	0.05581665
722331850264755	-1.251236	7.1493073	0.00793457
722331855330673	-1.3194733	6.8811493	0.06300354
722331860396591	-1.6091766	6.699188	0.013916016
722331865493026	-2.2603912	6.6560974	-0.055511475
722331870558944	-2.721283	6.8392487	-0.11416626
722331875624862	-3.010971	7.3157043	-0.13212585
722331880690780	-3.287506	7.8232727	-0.084243774
722331885756698	-3.6131134	8.223099	-0.060302734
722331890822616	-3.7866974	8.461334	-0.08303833
722331895888534	-3.6167145	8.660049	-0.10697937
722331900954452	-3.325821	8.715118	0.04864502
722331906050888	-2.9331665	8.569061	0.25453186
722331911116806	-2.532135	8.270996	0.45205688
722331916182724	-2.0868225	8.063889	0.62324524
722331921248642	-1.5684662	7.8939056	0.63401794
722331926314559	-1.2931366	7.710739	0.7585144
722331931380477	-1.42482	7.5251923	0.71302795
722331936476913	-1.1674347	7.6125793	0.5454407
722331941542831	-1.3098907	7.7071533	0.62324524
722331946608749	-1.4523468	7.7514496	0.6136627
722331951674667	-1.6750183	7.8747406	0.7010498
722331956740585	-1.8904877	8.004028	0.6747284
722331961806503	-2.147873	8.099808	0.53704834
722331966872421	-2.4627075	8.157257	0.31559753
722331971938339	-2.88768	8.135712	-0.0471344
722331977034774	-3.2037048	7.998047	-0.3763275
722331982100692	-3.4359436	7.916641	-0.53434753
722331987166610	-3.5783997	7.903473	-0.579834
722331992232528	-3.6286774	7.9178467	-0.49365234
722331997298446	-3.7400055	7.9358063	-0.31648254
722332002364364	-3.6693878	7.963333	-0.048324585
722332007430282	-3.5544586	7.9561462	0.24136353
722332012496200	-3.555664	7.966919	0.4903717
722332017562118	-3.4910126	7.99086	0.6507721
722332022628036	-3.4670715	8.187195	0.66275024
722332027693954	-3.4455261	8.4110565	0.66156006
722332032759872	-3.4838257	8.731873	0.59332275
722332037825790	-3.421585	9.158035	0.563385
722332042891708	-3.2120972	9.590195	0.48797607
722332047957626	-2.951126	9.937347	0.3347473
722332053054061	-2.8828888	10.218674	0.083358765
722332058119979	-2.7823334	10.4748535	-0.17282104
722332063185897	-2.5860138	10.777725	-0.39189148
722332068251815	-2.429184	11.072205	-0.4421692
722332073317733	-2.338211	11.306839	-0.45054626
722332078383651	-2.295105	11.476822	-0.3727417
722332083449569	-2.4279938	11.541473	-0.28056335
722332088546005	-2.587204	11.552246	-0.120147705
722332093611923	-2.666214	11.406189	-0.026779175
722332098677841	-2.7595825	11.230225	-0.098602295
722332103743759	-3.0552673	10.978836	-0.089035034
722332108809677	-3.3904572	10.849548	0.02230835
722332113875595	-3.9650726	10.924957	0.2856598
722332118941513	-4.5851593	11.012344	0.5562134
722332124037948	-4.955063	11.138046	0.6100769
722332129103866	-5.2268066	11.328384	0.46762085
722332134169784	-5.4267273	11.50914	0.22341919
722332139235702	-5.670929	11.675537	0.04145813
722332144301620	-5.7439575	11.879044	-0.15127563
722332149367538	-5.793045	12.108887	-0.23866272
722332154433456	-5.6326294	12.363876	-0.22070313
722332159499374	-5.205261	12.602097	-0.045928955
722332164565292	-4.7156525	12.5578	0.40177917
722332169661727	-4.366089	12.326767	0.8351288
722332174727645	-4.108719	12.032272	1.2589111
722332179793563	-3.9818268	11.713852	1.539032
722332184859481	-3.9028168	11.479218	1.3474884
722332189925399	-3.5879822	11.329575	0.87942505
722332194991317	-2.9403534	11.059036	0.52388
722332200057235	-2.1789856	10.6879425	0.23179626
722332205123153	-1.3051147	10.212692	-0.14529419
722332210219589	-0.47312927	9.836792	-0.5211792
722332215285507	0.23796082	9.76976	-0.76060486
722332220351425	0.80059814	10.0247345	-1.085022
722332225417343	1.3476715	10.320419	-1.7637787
722332230483261	1.7451019	10.770538	-2.4676666
722332235549179	2.1233826	11.522308	-3.0087585
722332240615097	2.6836243	12.389023	-3.1979065
722332245681015	3.2031708	13.267685	-2.9249573
722332250746933	3.7131348	13.973984	-2.4161987
722332255843368	4.2769775	14.369019	-1.5339355
722332260909286	4.7079315	14.524643	-0.33921814
722332265975204	4.797714	14.527039	0.6711273
722332271041122	4.5738525	14.419296	1.6431732
722332276107040	4.3356323	14.154739	2.1423645
722332281172958	3.946579	13.711807	2.0430145
722332286238876	3.322876	13.139603	1.6108551
722332291335311	2.50766	12.63681	0.9285126
722332296401229	1.7762299	12.185501	-0.06388855
722332301467147	1.0316315	11.835953	-0.9473572
722332306533065	0.20562744	11.733002	-1.6703949
722332311598983	-0.52101135	11.914963	-2.453308
722332316664901	-1.5720673	12.110092	-2.9704437
722332321730819	-2.8493652	12.072983	-3.354721
722332326827255	-3.7136688	12.0634	-3.5211182
722332331893173	-3.8453522	12.053833	-3.3247986
722332336959091	-3.9255676	11.515137	-2.808838
722332342025009	-3.2360382	11.01355	-2.140854
722332347090927	-2.1227264	10.628082	-1.7494049
722332352156845	-1.3972778	9.6332855	-1.4273834
722332357222763	-2.3178558	8.95932	-1.7075043
722332362288681	-3.923172	9.092194	-1.8978424
722332367385116	-5.0687866	9.228668	-1.4561157
722332372451034	-4.500168	8.4158325	-1.405838
722332377516952	-3.9519043	7.8388367	-1.1388855
722332382582870	-3.6610107	7.7035675	-1.0981903
722332387648788	-3.6035461	7.4354095	-1.0874176
722332392714706	-3.655014	6.852417	-1.108963
722332397780624	-3.9423218	6.081497	-1.2526093
722332402877059	-4.4474945	5.901932	-0.7198944
722332407942977	-3.607132	5.4123077	-1.3771057
722332413008895	-2.5824127	4.740738	-1.8667297
722332418074813	-2.777542	3.8656616	-2.1576233
722332423140731	-2.705719	3.0899353	-2.1169128
722332428206649	-2.0736542	2.779892	-2.0402985
722332433272567	-1.6343079	2.7391815	-2.3048553
722332438338485	-1.6199493	2.7930603	-2.3371887
722332443434921	-1.5146027	2.824173	-2.042694
722332448500839	-1.3709564	3.0348663	-1.900238
722332453566757	0.37202454	2.2316132	-1.8415833
722332458632675	0.5539856	1.9598694	-2.4006348
722332463698593	-2.1358948	3.2288055	-1.7601776
722332468764511	-1.4391785	3.6058807	-0.74024963
722332473830429	0.041625977	2.73201	-1.1795807
722332478896347	-1.7205048	3.0480347	-0.99523926
722332483992782	-1.1111755	2.9594574	-0.6301117
722332489058700	-0.7628174	2.7655182	-0.6756134
722332494124618	-0.56889343	2.858902	-0.97846985
722332499190536	0.12184143	2.7894592	-1.1209259
722332504256454	0.35047913	2.6685638	-1.2107086
722332509322372	0.41990662	2.630249	-1.2250824
722332514388290	0.51927185	2.6350403	-1.184372
722332519454208	0.6126404	2.669754	-1.1700134
722332524550643	0.47857666	2.7379913	-1.3340149
722332529616561	0.5132904	2.7930603	-1.5542755
722332534682479	0.44984436	2.7870636	-1.7960968
722332539748397	0.08592224	2.788269	-1.9912262
722332544814315	-0.23609924	2.8684692	-2.350357
722332549880233	-0.28398132	3.0169067	-2.9129944
722332554946151	-0.7340851	3.107895	-3.3643036
722332560012069	-1.1578674	3.2599182	-3.9784088
722332565108505	-1.3901062	3.4861755	-4.683502
722332570174423	-1.6797943	3.792633	-5.3862
722332575240341	-1.9084473	4.247528	-6.19664
722332580306259	-2.2304688	5.042404	-6.9065247
722332585372177	-3.2611694	6.0395966	-7.244095
722332590438095	-4.0644226	7.1971893	-7.663086
722332595504013	-5.4315186	8.7211	-7.3243103
722332600600448	-6.489746	10.252197	-7.303955
722332605666366	-6.4430695	11.337967	-8.220932
722332610732284	-7.397156	12.45845	-8.430435
722332615798202	-9.35083	13.634003	-7.949188
722332620864120	-10.946564	14.881378	-7.987503
722332625930038	-12.187958	16.062912	-8.414871
722332630995956	-12.845154	16.977509	-8.560913
722332636092392	-12.368713	17.412048	-8.353821
722332641158309	-11.462509	17.316284	-7.8594055
722332646224227	-10.440186	16.873352	-7.327896
722332651290145	-9.250259	16.108414	-6.9460297
722332656356063	-8.04837	14.941238	-6.562958
722332661421981	-7.172104	13.294022	-6.2265625
722332666487899	-6.337723	11.529495	-6.184662
722332671553817	-5.381241	9.830811	-6.2505035
722332676619735	-4.2703247	8.412247	-6.375
722332681685653	-3.2168732	7.3995056	-6.4324646
722332686782089	-1.9862518	6.389145	-6.1942444
722332691848007	-0.7831726	5.484131	-6.081711
722332696913925	0.020080566	4.8377075	-6.2612762
722332701979843	0.36245728	4.4570313	-6.1523438
722332707045761	-0.018218994	4.495331	-5.6579437
722332712111679	-0.6143799	5.192047	-4.987564
722332717208114	-1.0537109	6.234726	-3.7593384
722332722274032	-0.8298645	7.120575	-2.1240997
722332727339950	0.1194458	7.9046783	-0.63490295
722332732405868	1.5284271	8.809677	0.1013031
722332737471786	3.1696472	9.863129	-0.31887817
722332742537704	4.610962	11.25058	-1.029953
722332747603622	5.3950653	13.335922	-0.638504
722332752669540	5.4309845	15.624786	1.2014465
722332757765976	5.0682526	17.451553	3.7201385
722332762831893	4.7198944	18.080032	5.342224
722332767897811	3.8711548	17.164246	5.24765
722332772963729	2.390335	15.005875	4.0792694
722332778029647	0.83052063	12.649979	2.8187256
722332783095565	-0.6251526	10.345566	1.262497
722332788161483	-1.843811	8.754623	-0.2470398
722332793227401	-2.6602325	7.9358063	-0.9545288
722332798323837	-3.365326	7.4785004	-0.7414551
722332803389755	-4.0560455	7.2761993	-0.1560669
722332808455673	-4.789871	7.1780396	0.39938354
722332813521591	-5.224411	7.0607147	0.9823761
722332818587509	-5.6242523	6.809326	1.6096497
722332823683944	-6.2287903	6.279007	2.045395
722332828749862	-6.592697	5.796585	2.24292
722332833815780	-6.560379	5.5607452	2.3530579
722332838881698	-5.9486694	5.5799103	2.5062866
722332843917099	-5.1274567	5.8217163	2.6355743
722332849013534	-4.156601	6.219162	3.0078735
722332854079452	-3.1498413	6.638138	3.4795227
722332859145370	-2.1861725	7.182831	3.642334
722332864211288	-1.4224243	7.9298096	3.5214233
722332869277206	-0.9902649	8.716309	3.2401123
722332874343124	-0.6574707	9.458511	2.9372406
722332879439559	-0.3390503	10.279724	2.761261
722332884505477	-0.3426361	10.884262	2.3925629
722332889571395	-0.37495422	11.091354	1.6850739
722332894637313	-0.06011963	11.038681	0.84710693
722332899703231	0.36843872	10.695114	0.35987854
722332904769149	0.7993927	10.2222595	0.42692566
722332909835067	1.022049	9.581818	0.46403503
722332914900985	0.80418396	8.855179	0.22460938
722332919997421	0.3947754	8.219513	-0.060302734
722332925063339	0.15655518	7.682022	-0.2853546
722332930129257	-0.39291382	7.167267	-0.31169128
722332935195175	-0.9603424	6.6477203	0.021102905
722332940261093	-1.2093353	6.337677	0.53227234
722332945327011	-1.3805237	6.3041534	0.9273071
722332950392929	-1.8473969	6.5567474	1.1703186
722332955489364	-2.398056	7.034378	1.1224365
722332960555282	-2.745224	7.637726	1.0865173
722332965621200	-3.1151276	8.215927	1.0625763
722332970687118	-3.310257	8.649277	0.91773987
722332975753036	-3.4000397	8.905457	0.8267517
722332980818954	-3.279129	8.97847	0.63760376
722332985884872	-3.1103363	8.979675	0.657959
722332990950790	-2.7799377	8.859955	0.8195648
722332996047226	-2.140686	8.660049	0.90815735
722333001113143	-1.764801	8.492447	0.9057617
722333006179061	-1.7995148	8.0399475	0.8542938
722333011244979	-1.1925812	7.884323	0.6316223
722333016310897	-1.0273743	7.9262238	0.5849457
722333021376815	-1.0393524	7.942978	0.42453003
722333026442733	-1.2081451	7.994461	0.36587524
722333031508651	-1.5576935	8.086639	0.3862152
722333036605087	-1.8318329	8.14769	0.36706543
722333041671005	-2.1550446	8.162048	0.41375732
722333046736923	-2.5034027	8.11058	0.3718567
722333051802841	-2.752411	7.974106	0.35868835
722333056868759	-2.9930267	7.784973	0.30480957
722333061934677	-3.1989288	7.637726	0.19348145
722333067000595	-3.22406	7.5371704	0.045043945
722333072066513	-3.1246948	7.5144196	0.13961792
722333077162948	-3.073227	7.5503387	0.33235168
722333082228866	-2.9918213	7.5611115	0.563385
722333087288235	-2.7990875	7.642517	0.8087921
722333092354153	-2.642273	7.829254	0.87823486
722333097420071	-2.516571	8.06868	0.894989
722333102485989	-2.5057983	8.373932	0.721405
722333107551907	-2.4986115	8.767792	0.4724121
722333112617825	-2.4662933	9.231064	0.23898315
722333117714260	-2.516571	9.684769	0.13124084
722333122780178	-2.6326904	10.209091	0.10369873
722333127846096	-2.7224731	10.711884	0.076171875
722333132912014	-2.8625336	11.0638275	0.0677948
722333137977932	-2.9606934	11.280502	0.052230835
722333143043850	-3.033722	11.359512	0.023498535
722333148109768	-3.042099	11.303238	-0.0184021
722333153175686	-3.1701965	11.25177	-0.067474365
722333158272122	-3.3246155	11.166779	-0.120147705
722333163338040	-3.452713	11.156006	-0.16204834
722333168403958	-3.5664368	11.127274	-0.105789185
722333173469876	-3.678955	11.102127	-0.0040283203
722333178566311	-3.7388153	11.044678	0.15997314
722333183632229	-3.6993103	10.914185	0.13363647
722333188698147	-3.6669922	10.734619	0.04385376
722333193764065	-3.7268372	10.565826	-0.055511475
722333198829983	-3.8417664	10.541885	0.035476685
722333203895901	-3.9506989	10.563431	0.076171875
722333208992337	-4.0835724	10.673569	0.030685425
722333214058255	-4.1853333	10.890244	-0.096206665
722333219124173	-4.2607574	11.073395	-0.22549438
722333224190091	-4.3888397	11.318802	-0.27697754
722333229256009	-4.4487	11.603714	-0.2063446
722333234321927	-4.7515564	11.8311615	-0.08543396
722333239387844	-4.7587433	12.0442505	-0.11895752
722333244484280	-4.6019287	12.292053	-0.18959045
722333249550198	-4.3050385	12.372253	-0.019592285
722333254616116	-3.9914093	12.108887	0.32637024
722333259682034	-3.8668976	11.704269	0.6759186
722333264747952	-3.9016266	11.318802	0.9847717
722333269813870	-3.8142395	11.0793915	0.99554443
722333274879788	-3.5496674	10.853134	0.7621155
722333279945706	-3.06604	10.652023	0.2772827
722333285042141	-2.3717194	10.3168335	-0.31169128
722333290108059	-1.6678314	9.888275	-0.97369385
722333295173977	-0.8801422	9.645264	-1.4633026
722333300239895	-0.17025757	9.61174	-1.7314453
722333305305813	0.45463562	9.761383	-1.9636841
722333310371731	1.1022644	9.96489	-2.2940826
722333315437649	1.5020905	10.278534	-2.638855
722333320503567	1.8193207	10.740601	-2.8459473
722333325600003	2.0731049	11.3211975	-2.7274323
722333330665921	2.3652039	11.881439	-2.4197845
722333335731839	2.7362976	12.330353	-2.042694
722333340797757	3.1828156	12.541046	-1.515976
722333345863675	3.4425964	12.604492	-0.7522278
722333350929593	3.3480225	12.669144	0.2629242
722333355995510	3.049942	12.888214	1.1164551
722333361061428	2.76503	13.1671295	1.3953705
722333366157864	2.4202728	13.225784	1.2780609
722333371223782	1.9450226	13.104889	0.8231659
722333376289700	1.4386444	12.922928	0.26531982
722333381355618	0.85446167	12.782867	-0.46850586
722333386421536	0.39596558	12.590134	-1.2418365
722333391487454	-0.06730652	12.454849	-1.8104553
722333396583889	-0.80352783	12.608078	-2.377884
722333401649807	-1.6630402	12.802017	-2.9453125
722333406715725	-3.1498413	12.895386	-3.2002869
722333411781643	-4.610306	12.882217	-3.2709198
722333416847561	-4.880844	12.867859	-3.0638275
722333421913479	-4.7874756	12.521896	-2.7633514
722333426979397	-4.1434326	11.809616	-2.5658264
722333432045315	-2.9403534	11.297256	-1.8176422
722333437111233	-2.1371002	11.030304	-1.6656036
722333442177151	-2.4782715	10.684341	-1.737442
722333447273587	-3.2348328	10.210297	-1.6799774
722333452339505	-3.1246948	9.3519745	-1.1005859
722333457405423	-2.3477783	8.193176	-0.7486267
722333462471341	-2.3513794	7.6257477	-1.4046478
722333467537259	-3.208496	7.877136	-1.0251617
722333472603177	-4.0716095	8.248245	-0.00642395
722333477699612	-4.057251	7.6652527	-0.07347107
722333482765530	-3.184555	6.7087708	-0.6768036
722333487831448	-2.6925507	5.760666	-1.1819763
722333492897366	-2.7907104	5.1226196	-1.579422
722333497963284	-2.6243134	4.61145	-2.2378235
722333503029202	-2.4399567	4.081131	-2.497589
722333508095120	-2.460312	3.540039	-2.1516266
722333513161038	-2.298706	3.3796387	-1.9349518
722333518257473	-1.6809998	3.2335815	-1.5099945
722333523323391	-1.472702	3.258728	-1.594986
722333528389309	-1.2919464	3.2228088	-1.6332855
722333533455227	-1.0285797	3.1294403	-1.6967316
722333538521145	-0.8705597	3.286255	-1.9409485
722333543587063	-0.7149353	3.2838593	-1.5722351
722333548652981	-0.019424438	2.9055786	-1.4537201
722333553718899	0.9143219	2.1130981	-1.812851
722333558784817	0.060791016	2.254364	-2.2330322
722333563881253	-1.6031799	3.5101166	-1.2705688
722333568947171	-0.3617859	3.1701355	-1.0395203
722333574013089	0.13261414	2.5488434	-1.1951447
722333579079007	-0.5006561	2.8014374	-0.9210205
722333584144925	0.079940796	2.566803	-0.77256775
722333589210843	-0.049346924	2.5320892	-0.6301117
722333594276760	-0.08406067	2.7535553	-0.5774536
722333599373196	-0.16307068	2.9678345	-0.77856445
722333604439114	0.0021209717	3.0779724	-1.1053619
722333609505032	0.50131226	2.9917755	-1.2921143
722333614570950	0.6078644	2.8648834	-1.326828
722333619636868	0.49772644	2.8313599	-1.4573212
722333624702786	0.47138977	2.824173	-1.6536407
722333629768704	0.36006165	2.8086243	-1.9624939
722333634834622	0.18887329	2.9151611	-2.215088
722333639900540	-0.04576111	2.997757	-2.6221008
722333644996975	-0.2528534	3.107895	-3.1380463
722333650062893	-0.50305176	3.3090057	-3.7366028
722333655128811	-0.8562012	3.5639954	-4.3004303
722333660194729	-1.2272949	3.9398804	-4.81279
722333665260647	-1.6762085	4.4821625	-5.346695
722333670326565	-1.9024658	5.2566833	-6.260086
722333675392483	-2.1658173	6.203598	-7.173477
722333680488919	-3.4120026	7.422241	-7.3219147
722333685554837	-3.8058472	8.8815155	-7.7061768
722333690620755	-3.8381805	10.448517	-8.528595
722333695686673	-5.1358337	11.856308	-8.343033
722333700752591	-6.7243805	13.13002	-8.322693
722333705818509	-8.1944275	14.47197	-8.510635
722333710884427	-9.960144	16.05095	-8.564499
722333715950344	-11.776154	17.483871	-8.445984
722333721046780	-12.822418	18.567245	-8.480713
722333726112698	-12.727844	19.089188	-8.62915
722333731178616	-12.430969	18.551697	-8.599213
722333736244534	-11.76059	17.285156	-8.202972
722333741310452	-10.51561	15.75766	-7.5816803
722333746376370	-9.171265	14.078125	-7.378174
722333751442288	-7.8819733	12.547028	-7.370987
722333756508206	-6.512497	11.088959	-7.355438
722333761604641	-5.0125275	9.656036	-7.0214386
722333766670559	-3.9722443	8.679199	-6.473175
722333771736477	-2.6530457	8.014816	-6.3007813
722333776802395	-1.0752716	7.4497833	-5.9691925
722333781868313	-0.013442993	7.053543	-5.844696
722333786934231	0.51568604	6.9757233	-5.8626404
722333792000149	0.41990662	7.369568	-5.8434906
722333797066067	-0.10920715	8.24704	-5.8123627
722333802162503	-0.5748749	9.53273	-5.560974
722333807228421	-0.7628174	11.106918	-4.9049683
722333812294339	-0.5341797	12.61647	-3.8287659
722333817360257	-0.025405884	14.050598	-1.2550049
722333822426175	0.4450531	15.133972	1.978363
722333827492093	0.7814331	15.524216	3.5405731
722333832558010	1.2315521	15.488312	2.8785858
722333837623928	1.7032013	15.224945	1.633606
722333842720364	2.1138153	14.085312	1.8287201
722333847786282	2.784195	11.789261	3.2436981
722333852852200	3.3851318	8.830032	4.0948334
722333857918118	3.3168945	6.188034	3.571701
722333862984036	3.065506	4.5994873	1.4731903
722333868049954	3.1193695	3.8764343	-0.9868622
722333873115872	3.270218	3.792633	-2.1001587
722333878181790	2.9613647	4.2247925	-2.1073456
722333883247708	1.8588257	4.9167175	-1.6284943
722333888344143	0.66412354	5.36084	-0.792923
722333893410061	-0.40968323	5.512863	0.28686523
722333898475979	-1.5888214	5.4613953	1.1092682
722333903541897	-2.5345306	5.558365	1.8837891
722333908607815	-3.4706573	5.9282684	2.629593
722333913673733	-4.302643	6.5375824	3.1263885
722333918739651	-4.7790985	7.2690125	3.6124115
722333923836087	-5.0675964	8.016006	4.061325
722333928902005	-5.228012	8.869537	4.408478
722333933967923	-5.429123	9.616531	4.7149353
722333939033841	-5.650589	10.359924	5.0202026
722333944099759	-5.7918396	11.209869	5.2009583
722333949165677	-5.725998	11.947281	4.9088593
722333954231594	-5.5260925	12.49675	4.3558044
722333959297512	-5.485382	12.6727295	3.4591827
722333964393948	-5.12027	12.374649	2.2369385
722333969459866	-4.287094	11.766525	0.7908325
722333974525784	-3.0612488	10.960876	-0.36795044
722333979591702	-1.6893768	10.142059	-1.1221313
722333984657620	-0.8226776	9.3124695	-1.5147705
722333989723538	-0.47911072	8.554703	-1.2621918
722333994789456	-0.123565674	7.8891144	-0.6648407
722333999855374	0.16612244	7.279785	-0.09022522
722334004951809	0.27626038	6.8141174	0.32157898
722334010017727	0.08950806	6.496887	0.5597992
722334015083645	-0.40608215	6.318512	0.7154236
722334020149563	-0.47192383	6.3352814	0.5849457
722334025215481	-0.11399841	6.5339966	0.24375916
722334030281399	-0.09843445	6.6716614	0.1013031
722334035347317	-0.43122864	6.828476	0.04145813
722334040443753	-0.8621826	7.113388	-0.021987915
722334045509671	-1.2931366	7.47731	-0.074661255
722334050575589	-1.6163483	7.836441	0.14920044
722334055641507	-1.7432404	8.103394	0.44128418
722334060707425	-1.800705	8.2973175	0.7980194
722334065773343	-1.8952789	8.308105	1.0146942
722334070839260	-1.8773193	8.2530365	1.1799011
722334075935696	-1.6450806	8.202759	1.3175659
722334081001614	-1.5684662	8.156067	1.2541199
722334086067532	-1.7312775	8.0794525	1.3343201
722334091133450	-1.50383	8.017197	1.1200409
722334096199368	-1.5971985	8.188385	0.88061523
722334101265286	-1.6259308	8.432602	0.697464
722334106331204	-1.6893768	8.572662	0.48797607
722334111397122	-1.8605652	8.6409	0.3239746
722334116463040	-2.0233765	8.557098	0.2952423
722334121528958	-2.216095	8.389496	0.21742249
722334126625393	-2.4196167	8.236267	0.13961792
722334131691311	-2.5967865	8.030365	0.22102356
722334136757229	-2.6135406	7.7753906	0.22819519
722334141823147	-2.7272644	7.5180054	0.2569275
722334146889065	-2.698532	7.2618256	0.17912292
722334151985501	-2.7799377	7.0679016	0.06539917
722334157051419	-2.8745117	6.969742	-0.021987915
722334162117337	-2.8505707	7.049942	0.15278625
722334167183255	-2.815857	7.2103577	0.4628296
722334172249173	-2.7955017	7.453369	0.7561188
722334177315091	-2.7081146	7.7047577	0.91893005
