gyroscope_timestamp	gyroscope_x_data	gyroscope_y_data	gyroscope_z_data
1443279557333620617	-1.4201813	0.14102173	1.4930267
1443279557338472912	-1.5924377	0.11659241	1.6738281
1443279557343416760	-1.7854767	0.292511	1.8522034
1443279557348543713	-1.980957	0.46110535	2.029358
1443279557354464123	-2.1544342	0.59062195	2.1930695
1443279557358614514	-2.2814941	0.6639252	2.3347778
1443279557363863537	-2.3547974	0.6907959	2.4520874
1443279557369478772	-2.3816833	0.70791626	2.5437012
1443279557373842785	-2.3828888	0.7543335	2.5998993
1443279557377077649	-2.3828888	0.85816956	2.5998993
1443279557383791516	-2.378006	0.85816956	2.5522614
1443279557388796399	-2.3841248	1.2100372	2.4374084
1443279557393892834	-2.3841248	1.3932953	2.2761383
1443279557398897717	-2.390213	1.3932953	2.2761383
1443279557404726574	-2.3804474	1.525238	1.893753
1443279557409151623	-2.3804474	1.5057068	1.893753
1443279557413973401	-2.3401337	1.5057068	1.6945953
1443279557419100354	-2.2680664	1.3407593	1.5052338
1443279557424074719	-2.1752014	1.109848	1.3439636
1443279557427584241	-2.084793	0.85816956	1.2279053
1443279557434176037	-2.0090485	0.62483215	1.1643829
1443279557439180920	-1.9467468	0.43545532	1.1448212
1443279557444216321	-1.8917694	0.30107117	1.163147
1443279557449404309	-1.8343506	0.21556091	1.2181244
1443279557454775403	-1.7769165	0.15324402	1.307312
1443279557459505627	-1.7280579	0.083618164	1.4233704
1443279557464327405	-1.7011719	-6.713867E-4	1.5479889
1443279557470064709	-1.7048492	-0.08131409	1.6603851
1443279557474398205	-1.7415009	-0.13993835	1.7459259
1443279557477938244	-1.7415009	-0.17050171	1.7459259
1443279557484652112	-1.8673248	-0.17050171	1.827774
1443279557489565442	-1.9247437	-0.19126892	1.827774
1443279557494570324	-1.9247437	-0.19859314	1.827774
1443279557499605725	-1.9626312	-0.19859314	1.8057861
1443279557505312512	-1.9699554	-0.19371033	1.7654572
1443279557510622571	-1.9430695	-0.15829468	1.7104797
1443279557514681408	-1.8807678	-0.07763672	1.6384125
1443279557520601819	-1.7928009	0.03842163	1.5479889
1443279557524782727	-1.6877289	0.16790771	1.4429321
1443279557528292248	-1.577774	0.29618835	1.3415222
1443279557535006116	-1.4776001	0.42080688	1.2596588
1443279557539797375	-1.4042969	0.5442047	1.2083588
1443279557545076916	-1.3664246	0.6639252	1.188797
1443279557549959729	-1.355423	0.7812195	1.1937103
1443279557554995129	-1.3566437	0.90704346	1.2144775
1443279557560061047	-1.355423	1.0450897	1.2376862
1443279557565218518	-1.3383179	1.1917114	1.254776
1443279557570620129	-1.3004456	1.3358765	1.2608948
1443279557575289319	-1.2430267	1.4665833	1.2584534
1443279557579073498	-1.2430267	1.5765533	1.2584534
1443279557585360119	-1.1037445	1.5765533	1.2328033
1443279557590242932	-1.1037445	1.7109528	1.2328033
1443279557595430920	-1.0426636	1.7109528	1.2144775
1443279557600313733	-0.9889221	1.7292786	1.20224
1443279557606051037	-0.93759155	1.717041	1.1937103
1443279557610384533	-0.88139343	1.6816254	1.1863556
1443279557615542004	-0.8117676	1.6278687	1.1729126
1443279557620943616	-0.73114014	1.560669	1.1448212
1443279557625643323	-0.64315796	1.4898224	1.102066
1443279557628817151	-0.55152893	1.4250488	1.0470886
1443279557635714123	-0.45991516	1.3737488	0.9823456
1443279557640596936	-0.36094666	1.3346405	0.9102478
1443279557645784924	-0.24610901	1.2919006	0.8345032
1443279557650759289	-0.1129303	1.2356873	0.7587738
1443279557656496594	0.036102295	1.1709442	0.686676
1443279557660708020	0.19004822	1.1159668	0.6182556
1443279557665926526	0.34397888	1.0866394	0.54862976
1443279557671389172	0.49057007	1.0768585	0.47531128
1443279557675814221	0.631073	1.0756531	0.3959198
1443279557679171155	0.631073	1.0707703	0.3959198
1443279557687166760	0.902298	1.0707703	0.23220825
1443279557690950940	0.902298	1.0231171	0.23220825
1443279557696688244	1.1723175	1.0231171	0.061157227
1443279557701143811	1.1723175	0.9326935	0.061157227
1443279557706392834	1.2993622	0.9326935	-0.030456543
1443279557711275647	1.4190979	0.88749695	-0.12574768
1443279557716036389	1.5327148	0.85328674	-0.22348022
1443279557721224377	1.6402283	0.8300781	-0.31878662
1443279557726198742	1.7453003	0.81663513	-0.40919495
1443279557729525158	1.8479156	0.8105316	-0.48614502
1443279557736269543	1.9444275	0.8117523	-0.5496826
1443279557741304944	2.0238495	0.8227539	-0.60343933
1443279557746340344	2.0727234	0.84840393	-0.65231323
1443279557751375744	2.0739288	0.89727783	-0.70118713
1443279557757204602	2.0165253	0.9742279	-0.75128174
1443279557761568616	1.8918915	1.0792999	-0.8013611
1443279557766481946	1.698883	1.201477	-0.8428955
1443279557772280285	1.4423065	1.3297577	-0.8575592
1443279557776522229	1.1417542	1.4446106	-0.823349
1443279557779909680	1.1417542	1.5105896	-0.823349
1443279557786593030	0.82899475	1.5105896	-0.7231598
1443279557791628430	0.53822327	1.4934692	-0.5619049
1443279557796816418	0.28778076	1.3725281	-0.35787964
1443279557801851819	0.07885742	1.1587219	-0.1318512
1443279557807375500	-0.10192871	0.90093994	0.108810425
1443279557811953137	-0.26808167	0.6663666	0.35803223
1443279557816835949	-0.4220276	0.51364136	0.59872437
1443279557822573254	-0.56007385	0.4782257	0.81007385
1443279557826876233	-0.67858887	0.5649719	0.97746277
1443279557830263684	-0.77267456	0.73965454	1.0947266
1443279557837130139	-0.8361969	0.94369507	1.1643829
1443279557843172619	-0.8618469	1.123291	1.1839142
1443279557847170422	-0.8471832	1.2478943	1.1545868
1443279557853212903	-0.78855896	1.3065491	1.0800781
1443279557857119153	-0.6920166	1.3053436	0.97010803
1443279557862551282	-0.56985474	1.2540131	0.84062195
1443279557867312024	-0.43302917	1.1709442	0.70988464
1443279557872408459	-0.29130554	1.0756531	0.59872437
1443279557877413342	-0.1459198	0.9852295	0.51564026
1443279557880617688	-0.1459198	0.90826416	0.51564026
1443279557887545178	0.004333496	0.90826416	0.37513733
1443279557892336438	0.16072083	0.8386383	0.37513733
1443279557897524426	0.32565308	0.7543335	0.2651825
1443279557902437756	0.50401306	0.62361145	0.112472534
1443279557907473157	0.6909332	0.4269104	-0.07444763
1443279557912508557	0.8668823	0.17156982	-0.28089905
1443279557917696545	0.9914856	-0.11428833	-0.48738098
1443279557923433850	1.0146942	-0.39775085	-0.67063904
1443279557927767346	0.88153076	-0.6640625	-0.79281616
1443279557931002209	0.55532837	-0.91696167	-0.80992126
1443279557937838147	0.053207397	-1.1564178	-0.6828613
1443279557942720959	-0.5344238	-1.3408966	-0.38598633
1443279557947908948	-1.0561066	-1.409317	0.06970215
1443279557952791760	-1.3639832	-1.3396912	0.620697
1443279557957888196	-1.3664246	-1.2199554	1.1460571
1443279557962862561	-1.0561066	-1.1857452	1.5235596
1443279557967867444	-0.49777222	-1.305481	1.6860657
1443279557973970959	0.169281	-1.5034027	1.6518555
1443279557978090832	0.7691345	-1.6487732	1.4917908
1443279557981325696	0.7691345	-1.680542	1.4917908
1443279557988222668	1.146637	-1.680542	1.2486725
1443279557993074963	1.2480621	-1.6451263	0.9029236
1443279557998262951	1.1429901	-1.6378021	0.42401123
1443279558003145764	0.9829254	-1.7147522	-0.15141296
1443279558008242199	0.91085815	-1.8650208	-0.7097473
1443279558013186047	1.0037079	-2.0311737	-1.1287842
1443279558019472668	1.2443848	-2.1558075	-1.3560181
1443279558023745129	1.5510406	-2.2388763	-1.4256744
1443279558028841565	1.8271484	-2.3305206	-1.4122314
1443279558031649182	1.9859772	-2.4832306	-1.3816833
1443279558038820813	1.9810791	-2.6762543	-1.3743439
1443279558043428967	1.8198242	-2.808197	-1.4049072
1443279558048433850	1.5632477	-2.7397766	-1.4598846
1443279558053469250	1.304245	-2.4050293	-1.5038605
1443279558059237073	1.1197815	-1.8711395	-1.4879761
1443279558063723157	1.0220337	-1.3201294	-1.3865814
1443279558068605969	0.97195435	-0.9352875	-1.2130737
1443279558073671887	0.9230652	-0.8045654	-1.0066223
1443279558078676770	0.9230652	-0.8901062	-0.8184662
1443279558082186291	0.86076355	-1.086792	-0.8184662
1443279558088747571	0.80944824	-1.086792	-0.67674255
1443279558093752453	0.8033447	-1.3005981	-0.58877563
1443279558098818371	0.85954285	-1.4801788	-0.5350342
1443279558103914807	0.96951294	-1.6084747	-0.49594116
1443279558109346936	1.1051025	-1.6842194	-0.46173096
1443279558114046643	1.2358246	-1.7110901	-0.43606567
1443279558118959973	1.3335724	-1.6988678	-0.43240356
1443279558123934338	1.3897705	-1.6597748	-0.45440674
1443279558129030774	1.4117737	-1.5962372	-0.500824
1443279558132357190	1.4166565	-1.4985199	-0.5704498
1443279558139101574	1.4166565	-1.3665771	-0.65353394
1443279558144106457	1.4166565	-1.2065125	-0.7439575
1443279558149202893	1.4129791	-1.0379181	-0.8306885
1443279558154329846	1.4007721	-0.87786865	-0.9015503
1443279558159853528	1.3836517	-0.7410431	-0.95285034
1443279558164400647	1.3604431	-0.6347656	-0.9858551
1443279558169283459	1.3299103	-0.56266785	-1.0066223
1443279558175051282	1.2895966	-0.53089905	-1.0225067
1443279558179354260	1.2895966	-0.54678345	-1.0225067
1443279558182741711	1.2419434	-0.54678345	-1.0298309
1443279558189608166	1.1906433	-0.60787964	-1.0249481
1443279558195131848	1.1417542	-0.7019501	-1.002945
1443279558199678967	1.0965576	-0.8131256	-0.9650879
1443279558205172131	1.0550232	-0.92796326	-0.9149933
1443279558210421155	1.0183716	-1.0281525	-0.8600006
1443279558214815686	0.99028015	-1.1038818	-0.81114197
1443279558219820569	0.9658356	-1.152771	-0.77571106
1443279558224581311	0.941391	-1.1857452	-0.75372314
1443279558229921887	0.91085815	-1.204071	-0.74760437
1443279558233095715	0.875412	-1.2065125	-0.75616455
1443279558239931653	0.83877563	-1.1857452	-0.7818146
1443279558244875500	0.802124	-1.1442108	-0.8221283
1443279558250063489	0.7654724	-1.0819092	-0.8710022
1443279558254885266	0.7337036	-1.0061646	-0.9198761
1443279558260012219	0.7080536	-0.93040466	-0.96017456
1443279558264986584	0.6897278	-0.87054443	-0.98706055
1443279558270205090	0.67996216	-0.8363342	-1.002945
1443279558275881360	0.6738434	-0.82533264	-1.0066223
1443279558280214856	0.6738434	-0.8351135	-1.0066223
1443279558283419201	0.66651917	-0.8351135	-1.0066223
1443279558290285657	0.6555176	-0.8632202	-1.0053864
1443279558295168469	0.6432953	-0.90475464	-1.0127106
1443279558300386975	0.6371918	-0.95240784	-1.028595
1443279558305239270	0.6396332	-0.99150085	-1.0542603
1443279558310335705	0.644516	-1.0122681	-1.0872498
1443279558315340588	0.64575195	-1.008606	-1.1263428
1443279558320559094	0.6383972	-0.9841614	-1.1715393
1443279558325930188	0.6261902	-0.94384766	-1.2204285
1443279558330599377	0.6151886	-0.894989	-1.2644043
1443279558333803723	0.6151886	-0.84609985	-1.2973785
1443279558340670178	0.631073	-0.802124	-1.3157043
1443279558345552991	0.6591644	-0.7728119	-1.3206024
1443279558350588391	0.6921692	-0.7666931	-1.3096008
1443279558355776379	0.71661377	-0.7862396	-1.2839355
1443279558362124035	0.7214966	-0.83021545	-1.2448425
1443279558365847180	0.7019348	-0.89131165	-1.1996307
1443279558371401379	0.6628418	-0.95240784	-1.1507721
1443279558376436780	0.6103058	-1.0000458	-1.099472
1443279558381197522	0.6103058	-1.0183716	-1.0481567
1443279558384157727	0.54556274	-1.0183716	-1.0481567
1443279558390963147	0.4771576	-0.99760437	-1.0005035
1443279558395815442	0.4111786	-0.94140625	-0.96017456
1443279558401217053	0.3525238	-0.8607788	-0.92596436
1443279558405977795	0.3036499	-0.7691498	-0.8917694
1443279558411379407	0.26455688	-0.6799469	-0.8514557
1443279558416231701	0.23522949	-0.60543823	-0.80381775
1443279558421114514	0.21446228	-0.56022644	-0.75128174
1443279558426180432	0.19737244	-0.54678345	-0.6987457
1443279558431124280	0.18025208	-0.5553436	-0.6462097
1443279558434664319	0.16316223	-0.56755066	-0.5948944
1443279558441195080	0.15827942	-0.56755066	-0.5423584
1443279558446260998	0.17172241	-0.5541229	-0.48861694
1443279558451296399	0.20593262	-0.52845764	-0.433609
1443279558456453869	0.24867249	-0.49546814	-0.38108826
1443279558461885998	0.2853241	-0.45761108	-0.3322296
1443279558466585705	0.30244446	-0.42095947	-0.2906952
1443279558471407483	0.30244446	-0.3855133	-0.26013184
1443279558476503918	0.29632568	-0.3855133	-0.26013184
1443279558481478283	0.27067566	-0.35862732	-0.23571777
1443279558484835217	0.23522949	-0.34397888	-0.21247864
1443279558491701672	0.19613647	-0.34031677	-0.17706299
1443279558496615002	0.15093994	-0.34765625	-0.123306274
1443279558501772473	0.092300415	-0.36598206	-0.04878235
1443279558506685803	0.016555786	-0.39530945	0.04649353
1443279558511721203	-0.07627869	-0.43440247	0.15890503
1443279558516848157	-0.19113159	-0.47103882	0.2810669
1443279558521792004	-0.32795715	-0.48814392	0.40568542
1443279558527742932	-0.48432922	-0.4637146	0.5302887
1443279558531832287	-0.66148376	-0.39530945	0.6585846
1443279558535219739	-0.8606262	-0.29388428	0.79663086
1443279558542055676	-1.0756531	-0.1839447	0.9554596
1443279558547121594	-1.2906799	-0.0861969	1.137497
1443279558552126477	-1.4898071	-0.012893677	1.3329773
1443279558557192395	-1.6645203	0.049423218	1.5272217
1443279558562075207	-1.8160095	0.1300354	1.7019348
1443279558567080090	-1.955307	0.25953674	1.8460999
1443279558572268078	-1.955307	0.44277954	1.9548187
1443279558578096936	-2.2228546	0.44277954	2.0317993
1443279558582369397	-2.2228546	0.8471832	2.0317993
1443279558586428235	-2.3401337	0.8471832	2.0818787
1443279558592440198	-2.4232178	0.99134827	2.111206
1443279558597231457	-2.4659882	1.0903015	2.1283264
1443279558602480481	-2.4720764	1.1770477	2.1356506
1443279558607393811	-2.4598694	1.2857819	2.124649
1443279558612429211	-2.4403076	1.4189453	2.0769958
1443279558617464612	-2.4146576	1.5447998	1.9804993
1443279558622622082	-2.3804474	1.6180878	1.8350983
1443279558628145764	-2.338913	1.6009827	1.6591797
1443279558632753918	-2.2961578	1.484909	1.4783478
1443279558635927746	-2.2961578	1.3041077	1.4783478
1443279558642794201	-2.2362976	1.3041077	1.1912384
1443279558647677014	-2.2155304	0.9302521	1.1118469
1443279558652865002	-2.1898804	0.78974915	1.0776367
1443279558657717297	-2.1495514	0.6859131	1.0800781
1443279558662813733	-2.1006775	0.61383057	1.1081696
1443279558667818616	-2.1006775	0.56617737	1.1619415
1443279558672854016	-2.0493622	0.56617737	1.1619415
1443279558678530285	-1.9577484	0.5234375	1.3549652
1443279558683077405	-1.9577484	0.37193298	1.3549652
1443279558686281750	-1.9198608	0.37193298	1.4917908
1443279558694155285	-1.8868866	0.27297974	1.6347351
1443279558698000500	-1.8575592	0.18745422	1.7581329
1443279558703615735	-1.8355713	0.11781311	1.8338776
1443279558708254407	-1.823349	0.04206848	1.849762
1443279558713320324	-1.8196869	-0.044662476	1.810669
1443279558718325207	-1.8209076	-0.11552429	1.7398071
1443279558723177502	-1.8172455	-0.13017273	1.6542969
1443279558728243420	-1.8050232	-0.0690918	1.5577698
1443279558733278821	-1.7817993	0.049423218	1.446579
1443279558736818860	-1.7817993	0.18379211	1.3183136
1443279558743349621	-1.7292633	0.18379211	1.1778259
1443279558748385022	-1.7011719	0.411026	1.036087
1443279558753389905	-1.6669617	0.5099945	0.905365
1443279558758577893	-1.626648	0.6211548	0.8003082
1443279558764437268	-1.5875549	0.7518921	0.7318878
1443279558768648694	-1.5875549	0.88627625	0.7062378
1443279558773531506	-1.5545654	0.88627625	0.7062378
1443279558779238293	-1.5301361	0.9986725	0.7160034
1443279558783632824	-1.5056915	1.0768585	0.7477722
1443279558786959241	-1.4763641	1.1342926	0.7844238
1443279558793703625	-1.4360657	1.1855927	0.81373596
1443279558798739026	-1.3884125	1.2369232	0.82717896
1443279558803774426	-1.3370972	1.2821045	0.82473755
1443279558808809826	-1.2870026	1.3236542	0.80885315
1443279558814608166	-1.236908	1.3615265	0.78808594
1443279558818880627	-1.1831665	1.3920746	0.76486206
1443279558824038098	-1.1220703	1.407959	0.7428894
1443279558829805920	-1.0487823	1.4055176	0.7245636
1443279558833986828	-0.95835876	1.3896332	0.70988464
1443279558837343762	-0.95835876	1.3627472	0.70988464
1443279558844027112	-0.734787	1.3627472	0.674469
1443279558849062512	-0.6150665	1.2845612	0.6427002
1443279558854250500	-0.49412537	1.2405701	0.5999298
1443279558860628674	-0.3731537	1.2002716	0.555954
1443279558864199231	-0.3731537	1.1672668	0.51564026
1443279558870333264	-0.1312561	1.1672668	0.47531128
1443279558874239514	-0.1312561	1.1147461	0.47531128
1443279558879610608	-0.007873535	1.1147461	0.43133545
1443279558884523938	0.1191864	1.0878601	0.38124084
1443279558887606213	0.24502563	1.0646515	0.3287201
1443279558894564221	0.3647461	1.0512085	0.2786255
1443279558899324963	0.479599	1.0475464	0.22608948
1443279558904635022	0.5907593	1.0512085	0.16743469
1443279558909884045	0.70072937	1.0536499	0.09902954
1443279558915194104	0.81066895	1.0524445	0.022064209
1443279558919588635	0.92674255	1.0450897	-0.06100464
1443279558924776623	1.046463	1.0377655	-0.150177
1443279558930147717	1.1674042	1.0316772	-0.2454834
1443279558934877942	1.2895966	1.0292053	-0.34443665
1443279558938356946	1.2895966	1.0316772	-0.34443665
1443279558944918225	1.5351563	1.0316772	-0.5460205
1443279558949831555	1.6524353	1.0560913	-0.631546
1443279558955019543	1.7550659	1.0756531	-0.69750977
1443279558959841321	1.8332672	1.1000824	-0.74272156
1443279558964937756	1.8332672	1.1342926	-0.74272156
1443279558969942639	1.8845673	1.1342926	-0.76716614
1443279558975100110	1.9016876	1.1782684	-0.770813
1443279558980593274	1.877243	1.2259216	-0.7622833
1443279558985201428	1.8063812	1.2760162	-0.74516296
1443279558988375256	1.6817627	1.3261108	-0.71951294
1443279558995272229	1.5046082	1.3725281	-0.6779785
1443279559000155041	1.2810364	1.394516	-0.6132202
1443279559005343030	1.0305786	1.3688507	-0.5154724
1443279559010195324	0.77767944	1.2772217	-0.37986755
1443279559015291760	0.5394592	1.1257324	-0.20639038
1443279559020266125	0.3170929	0.93759155	-0.007247925
1443279559025393078	0.108184814	0.7543335	0.20043945
1443279559030947278	-0.08239746	0.61994934	0.3983612
1443279559036623547	-0.2412262	0.56617737	0.5803833
1443279559046602795	-0.4476776	0.59672546	0.88827515
1443279559050509045	-0.5197754	0.84228516	1.0092163
1443279559056398938	-0.58695984	1.0218811	1.097168
1443279559060549328	-0.58695984	1.2210388	1.097168
1443279559065584729	-0.65415955	1.2210388	1.1423798
1443279559070772717	-0.7164612	1.4250488	1.1472626
1443279559075686047	-0.7689972	1.6119843	1.1179352
1443279559081820080	-0.8080902	1.7671356	1.0031128
1443279559085726330	-0.8300934	1.8734283	1.0031128
1443279559089113782	-0.8239746	1.9125214	0.9358978
1443279559095797131	-0.77511597	1.8648834	0.87239075
1443279559100832532	-0.6712494	1.7158356	0.81251526
1443279559105867932	-0.5124512	1.4690247	0.7428894
1443279559111055920	-0.31817627	1.1575012	0.6488037
1443279559116884778	-0.12149048	0.8337555	0.52664185
1443279559121157239	0.04586792	0.5490875	0.38124084
1443279559126009533	0.16680908	0.33528137	0.22485352
1443279559131838391	0.23522949	0.19233704	0.061157227
1443279559136080334	0.24867249	0.123916626	-0.09887695
1443279559139620373	0.24867249	0.13491821	-0.09887695
1443279559146303723	0.06297302	0.13491821	-0.30778503
1443279559151217053	-0.13369751	0.3963623	-0.30046082
1443279559156221936	-0.37193298	0.5625305	-0.22103882
1443279559161287854	-0.37193298	0.6517029	-0.22103882
1443279559167238782	-0.8105316	0.6517029	0.033050537
1443279559171511242	-0.8105316	0.3658142	0.033050537
1443279559176394055	-0.91682434	0.3658142	0.17723083
1443279559181459973	-0.8740692	0.015213013	0.3287201
1443279559186464856	-0.65415955	-0.35498047	0.46678162
1443279559189974377	-0.28640747	-0.6408539	0.555954
1443279559196688244	0.1533966	-0.8167877	0.5608368
1443279559202456067	0.5895386	-0.9536133	0.46678162
1443279559206789563	0.97927856	-1.1466522	0.2786255
1443279559212130139	1.3115845	-1.4178772	0.028167725
1443279559216707776	1.5766907	-1.6854401	-0.23571777
1443279559222292492	1.7575073	-1.8308105	-0.4580536
1443279559226900647	1.8393555	-1.7917175	-0.6022186
1443279559231905530	1.8344727	-1.6011505	-0.66574097
1443279559236971448	1.7794952	-1.3408966	-0.6779785
1443279559240175793	1.7794952	-1.0831146	-0.6779785
1443279559246981213	1.6768799	-1.0831146	-0.68530273
1443279559251925061	1.6389923	-0.6225281	-0.6987457
1443279559257113049	1.5791321	-0.4148407	-0.70118713
1443279559261995862	1.5791321	-0.24624634	-0.70118713
1443279559267855237	1.3922119	-0.24624634	-0.631546
1443279559272066662	1.3922119	-0.09840393	-0.631546
1443279559277254651	1.3274689	-0.09840393	-0.58877563
1443279559282930920	1.3128052	-0.13261414	-0.5753479
1443279559287325451	1.3421173	-0.23280334	-0.5997772
1443279559290499280	1.3934479	-0.3830719	-0.64741516
1443279559297396252	1.4374237	-0.56022644	-0.6889496
1443279559302279065	1.4581909	-0.7361603	-0.6963043
1443279559307436535	1.456955	-0.88275146	-0.65841675
1443279559312349866	1.4484253	-0.97561646	-0.5838928
1443279559317354748	1.4520721	-1.0122681	-0.499588
1443279559322390149	1.4752808	-1.0110474	-0.4287262
1443279559327608655	1.5192719	-0.99272156	-0.38842773
1443279559333284924	1.5730286	-0.97317505	-0.37620544
1443279559337496350	1.6219025	-0.95484924	-0.38963318
1443279559340853283	1.6219025	-0.93652344	-0.38963318
1443279559347719739	1.6842041	-0.93652344	-0.460495
1443279559352633069	1.7049713	-0.90963745	-0.5020294
1443279559357851574	1.7049713	-0.9133148	-0.5423584
1443279559362703869	1.7184143	-0.9133148	-0.5423584
1443279559369448254	1.7049713	-0.93652344	-0.6144409
1443279559372774670	1.7049713	-1.0269318	-0.6144409
1443279559378237317	1.6732025	-1.0269318	-0.64253235
1443279559383852551	1.632904	-1.0721283	-0.6645355
1443279559388277600	1.5876923	-1.1100006	-0.67918396
1443279559391146252	1.5412598	-1.1454468	-0.69262695
1443279559398623059	1.4936218	-1.1869812	-0.704834
1443279559402956555	1.4386292	-1.2444	-0.71707153
1443279559408022473	1.3763275	-1.318924	-0.72439575
1443279559413210461	1.3103638	-1.4007874	-0.72683716
1443279559418612073	1.2468262	-1.4679718	-0.72683716
1443279559423281262	1.1906433	-1.5070648	-0.72927856
1443279559428164074	1.1429901	-1.5205078	-0.73295593
1443279559433229992	1.1026611	-1.5180511	-0.73539734
1443279559438234875	1.0660095	-1.5058441	-0.73539734
1443279559441591809	1.0660095	-1.4777374	-0.73539734
1443279559448336194	1.0061493	-1.4777374	-0.73539734
1443279559453249524	1.0061493	-1.3909912	-0.73539734
1443279559458376477	0.9866028	-1.3909912	-0.7341614
1443279559463533948	0.97439575	-1.3494568	-0.7305145
1443279559469057629	0.9645996	-1.3115997	-0.7256317
1443279559473665783	0.95362854	-1.2761536	-0.71951294
1443279559478518078	0.941391	-1.2456207	-0.71095276
1443279559483614514	0.92918396	-1.2236328	-0.70118713
1443279559488588879	0.9206238	-1.2101898	-0.69262695
1443279559492098401	0.91941833	-1.1991882	-0.6865082
1443279559498812268	0.92430115	-1.190628	-0.68162537
1443279559503695080	0.93162537	-1.179657	-0.6779785
1443279559508883069	0.9365082	-1.1613312	-0.6804199
1443279559513735364	0.93530273	-1.1320038	-0.69018555
1443279559518770764	0.9303894	-1.085556	-0.71339417
1443279559523836682	0.92430115	-1.0232544	-0.7463989
1443279559528994153	0.91941833	-0.9536133	-0.7818146
1443279559535463879	0.914505	-0.8876648	-0.8172455
1443279559539095471	0.9096222	-0.82777405	-0.8490143
1443279559542269299	0.9096222	-0.776474	-0.8490143
1443279559549135754	0.902298	-0.776474	-0.90031433
1443279559554262707	0.902298	-0.7251587	-0.91619873
1443279559559237073	0.9010925	-0.7337189	-0.91619873
1443279559564058850	0.8986511	-0.7337189	-0.9247589
1443279559569155285	0.89497375	-0.763031	-0.92352295
1443279559574129651	0.88764954	-0.802124	-0.9113159
1443279559579378674	0.87786865	-0.84121704	-0.8917694
1443279559584719250	0.8546448	-0.8766632	-0.8746643
1443279559589449475	0.8143463	-0.9194031	-0.8661194
1443279559593538830	0.7666931	-0.97561646	-0.8636627
1443279559599520276	0.72514343	-1.0305939	-0.8563385
1443279559604372571	0.69337463	-1.0538025	-0.8355713
1443279559609591076	0.66651917	-1.0244904	-0.80381775
1443279559614473889	0.63475037	-0.9450836	-0.7622833
1443279559619509289	0.5895386	-0.8375702	-0.7158356
1443279559624544690	0.53089905	-0.723938	-0.66329956
1443279559629732678	0.4588318	-0.62132263	-0.60466003
1443279559635103772	0.38305664	-0.5480194	-0.5411377
1443279559639803479	0.3170929	-0.5150299	-0.47517395
1443279559642885754	0.3170929	-0.52845764	-0.47517395
1443279559649874280	0.24623108	-0.52845764	-0.32855225
1443279559654757092	0.24623108	-0.6665039	-0.32855225
1443279559659914563	0.23890686	-0.6665039	-0.24060059
1443279559664797375	0.24378967	-0.7483673	-0.14897156
1443279559670961926	0.25723267	-0.8082428	-0.06100464
1443279559674898694	0.27922058	-0.8326721	0.020843506
1443279559680056164	0.2999878	-0.82533264	0.09414673
1443279559685488293	0.3146515	-0.802124	0.16134644
1443279559690188000	0.3170929	-0.7789154	0.2199707
1443279559693331311	0.30976868	-0.7618103	0.2676239
1443279559700075696	0.2987671	-0.7434845	0.2993927
1443279559705080578	0.28900146	-0.7190552	0.30671692
1443279559711245129	0.27922058	-0.684845	0.28962708
1443279559715334485	0.26455688	-0.6432953	0.2541809
1443279559720858166	0.23768616	-0.60176086	0.21144104
1443279559725252698	0.19981384	-0.571228	0.1723175
1443279559730288098	0.15583801	-0.56022644	0.13812256
1443279559735964367	0.11062622	-0.56755066	0.11125183
1443279559740328381	0.06542969	-0.58587646	0.09170532
1443279559743837903	0.06542969	-0.6115265	0.09170532
1443279559750338147	0.011657715	-0.6115265	0.08192444
1443279559755465100	-0.050628662	-0.63964844	0.080703735
1443279559760531018	-0.12271118	-0.6726227	0.08924866
1443279559765657971	-0.20210266	-0.7117157	0.108810425
1443279559771120617	-0.28884888	-0.7569275	0.14422607
1443279559775759289	-0.38415527	-0.80700684	0.19432068
1443279559780642102	-0.48432922	-0.8522186	0.26029968
1443279559785708020	-0.59062195	-0.88275146	0.33848572
1443279559790712903	-0.7140198	-0.8851929	0.42889404
1443279559794039319	-0.8704071	-0.8534546	0.5302887
1443279559800753186	-1.0658722	-0.789917	0.6390228
1443279559805788586	-1.2992249	-0.70072937	0.7502136
1443279559810823987	-1.5582275	-0.59687805	0.8577118
1443279559816011975	-1.8355713	-0.4857025	0.9603424
1443279559821383069	-2.1226654	-0.3720703	1.0531921
1443279559826113293	-2.4085388	-0.25234985	1.1399384
1443279559830965588	-2.6699982	-0.10574341	1.2254486
1443279559836702893	-2.8752441	0.09214783	1.3158722
1443279559841066907	-2.9937592	0.35116577	1.4123688
1443279559844423840	-2.9937592	0.6565857	1.4123688
1443279559851290295	-3.0084229	0.6565857	1.5052338
1443279559856081555	-2.9400177	0.96813965	1.5907593
1443279559861361096	-2.8385925	1.2308044	1.6628265
1443279559867647717	-2.6944427	1.406723	1.7324829
1443279559871279309	-2.6944427	1.5423584	1.7324829
1443279559877077649	-2.649231	1.5423584	1.7068329
1443279559881472180	-2.5869293	1.577774	1.6371765
1443279559886843274	-2.4916382	1.6058655	1.5296783
1443279559891573498	-2.364563	1.5985413	1.3977203
1443279559894777844	-2.2240753	1.5350037	1.2572174
1443279559901674817	-2.0872345	1.4348297	1.1216125
1443279559907106946	-1.9601898	1.3444214	1.0067749
1443279559911715100	-1.848999	1.3016663	0.9261322
1443279559916567395	-1.7561493	1.2967834	0.89071655
1443279559921633313	-1.6865234	1.2894592	0.9078064
1443279559926668713	-1.6474304	1.2430115	0.9786682
1443279559931856701	-1.6449738	1.148941	1.0947266
1443279559937380383	-1.6804047	1.0121155	1.2401276
1443279559941774914	-1.6804047	0.85328674	1.3965149
1443279559945559094	-1.7378235	0.6956787	1.3965149
1443279559951998303	-1.7952423	0.6956787	1.5443268
1443279559956881116	-1.8392334	0.5649719	1.6616211
1443279559962038586	-1.8722076	0.47943115	1.7202606
1443279559966921399	-1.8966522	0.45011902	1.7092743
1443279559971956799	-1.9100952	0.48677063	1.6432953
1443279559977022717	-1.9088593	0.59428406	1.5614319
1443279559982058117	-1.889328	0.7592163	1.4979095
1443279559987551282	-1.8514404	0.94003296	1.4551392
1443279559992281506	-1.7940216	1.0866394	1.4136047
1443279559995394299	-1.7219391	1.1782684	1.3586273
1443279560002352307	-1.6413116	1.2198029	1.2877655
1443279560007235119	-1.5631256	1.2222443	1.2144775
1443279560012453625	-1.4934845	1.1904755	1.149704
1443279560017275403	-1.4433899	1.1306152	1.1057281
1443279560022219250	-1.412857	1.0585327	1.088623
1443279560027376721	-1.3969727	0.9986725	1.097168
1443279560032564709	-1.3847504	0.96813965	1.1179352
1443279560038027356	-1.3639832	0.9742279	1.1399384
1443279560043581555	-1.3322144	1.0096741	1.1570282
1443279560053743908	-1.2393646	1.0622101	1.2095947
1443279560057589123	-1.2393646	1.1855927	1.2095947
1443279560063173840	-1.1819305	1.1855927	1.2535706
1443279560067781994	-1.1245117	1.2369232	1.3012085
1443279560072878430	-1.0695496	1.2613373	1.3317413
1443279560077883313	-1.0206757	1.2601318	1.3366394
1443279560082796643	-0.9766846	1.2430115	1.3146515
1443279560087801526	-0.93270874	1.2210388	1.2755432
1443279560092836926	-0.88261414	1.197815	1.2328033
1443279560096163342	-0.8190918	1.1697083	1.188797
1443279560102907727	-0.7396698	1.148941	1.1423798
1443279560107943127	-0.6480408	1.1440582	1.0874023
1443279560112978528	-0.55152893	1.1599426	1.0189972
1443279560117983410	-0.4562378	1.1855927	0.9358978
1443279560123903821	-0.35972595	1.2112427	0.84428406
1443279560128237317	-0.25587463	1.2320099	0.752655
1443279560133120129	-0.1434784	1.2503357	0.6683502
1443279560138186047	-0.1434784	1.2723389	0.5877228
1443279560143190930	-0.01763916	1.2979889	0.5877228
1443279560146547864	0.11672974	1.2979889	0.50831604
1443279560153231213	0.25479126	1.3297577	0.43133545
1443279560158297131	0.3855133	1.3700867	0.36047363
1443279560163485119	0.50401306	1.4152832	0.298172
1443279560168490002	0.61154175	1.4641418	0.24319458
1443279560174074719	0.71170044	1.5105896	0.18699646
1443279560178621838	0.8009033	1.5472412	0.124694824
1443279560183474133	0.87908936	1.5618896	0.05381775
1443279560188570569	0.95606995	1.5557709	-0.023117065
1443279560193544934	1.0379181	1.526474	-0.10131836
1443279560197023938	1.1271057	1.4775848	-0.1807251
1443279560203615735	1.2150574	1.406723	-0.256485
1443279560209597180	1.2871552	1.3212128	-0.32733154
1443279560213839123	1.3347931	1.2259216	-0.38719177
1443279560219606946	1.3543396	1.1330719	-0.43484497
1443279560224428723	1.3445587	1.0524445	-0.46661377
1443279560228945324	1.2957001	0.9937897	-0.48493958
1443279560233950207	1.199173	0.9608002	-0.49105835
1443279560239534924	1.0550232	0.95469666	-0.48614502
1443279560243898938	1.0550232	0.97546387	-0.48614502
1443279560247377942	0.87786865	0.97546387	-0.47029114
1443279560254152844	0.69337463	1.0206757	-0.4446106
1443279560259035657	0.5211334	1.0756531	-0.40795898
1443279560264193127	0.3696289	1.1208496	-0.35543823
1443279560269075940	0.24258423	1.1293945	-0.28701782
1443279560274141858	0.1350708	1.0903015	-0.2002716
1443279560279116223	0.0544281	1.0035553	-0.09031677
1443279560284334729	0.004333496	0.88261414	0.040390015
1443279560290133069	-0.011550903	0.7494507	0.18943787
1443279560294405530	-0.005432129	0.6187134	0.3482666
1443279560297609875	0.0067749023	0.5026398	0.49975586
1443279560304476330	0.009216309	0.41835022	0.6292572
1443279560309359143	-0.0029907227	0.38414	0.72821045
1443279560314547131	-0.02986145	0.4073639	0.79663086
1443279560319429944	-0.060394287	0.47698975	0.84184265
1443279560324495862	-0.083602905	0.57473755	0.8711548
1443279560329470227	-0.0970459	0.6798096	0.891922
1443279560334505627	-0.0970459	0.7751007	0.9078064
1443279560340365002	-0.0811615	0.7751007	0.9212494
1443279560344759533	-0.0811615	0.86672974	0.9212494
1443279560347872326	-0.048187256	0.86672974	0.92492676
1443279560354860852	0.008010864	0.84962463	0.9102478
1443279560359713147	0.088638306	0.7995453	0.86138916
1443279560364901135	0.19981384	0.7250061	0.76486206
1443279560369936535	0.34031677	0.6174927	0.6133728
1443279560376436780	0.50157166	0.45622253	0.40689087
1443279560379824231	0.6738434	0.22776794	0.1515503
1443279560386019299	0.83387756	-0.060546875	-0.13919067
1443279560390413830	0.9462738	-0.39039612	-0.43972778
1443279560395693371	0.9597168	-0.72883606	-0.7146301
1443279560398287366	0.8192291	-1.0330353	-0.9137573
1443279560406832287	0.4979248	-1.2651672	-0.98950195
1443279560409975598	0.015335083	-1.395874	-0.90519714
1443279560415041516	-0.5466461	-1.3995514	-0.6437683
1443279560420260022	-1.0597687	-1.27005	-0.2271576
1443279560425905774	-1.3822937	-1.0574646	0.2822876
1443279560430178235	-1.4104156	-0.8742218	0.78074646
1443279560435244153	-1.4104156	-0.82777405	0.78074646
1443279560441073010	-0.6309509	-0.82777405	1.3244171
1443279560445314953	-0.6309509	-1.127121	1.3244171
1443279560448824475	-0.08850098	-1.127121	1.2999878
1443279560455355237	0.3329773	-1.3005981	1.124054
1443279560460421155	0.5565491	-1.4264374	0.84306335
1443279560465426037	0.6237488	-1.541275	0.47898865
1443279560470491955	0.64575195	-1.6976624	0.048934937
1443279560476320813	0.7263794	-1.9139099	-0.40431213
1443279560480684826	0.90597534	-2.1643524	-0.8123627
1443279560485567639	1.1637573	-2.3952637	-1.1141205
1443279560490603039	1.4398651	-2.5589752	-1.2937164
1443279560495668957	1.6719971	-2.6493683	-1.3767853
1443279560498995373	1.6719971	-2.6958008	-1.3767853
1443279560505709241	1.8564758	-2.6958008	-1.4574432
1443279560510775158	1.797821	-2.7226868	-1.5197449
1443279560515810559	1.6524353	-2.6200714	-1.5918274
1443279560520998547	1.4484253	-2.362259	-1.6394653
1443279560526735852	1.2382813	-1.951767	-1.628479
1443279560531099866	1.0770111	-1.463089	-1.5466156
1443279560535921643	1.0770111	-1.0232544	-1.5466156
1443279560541079114	0.9878235	-1.0232544	-1.4073486
1443279560546022961	0.94750977	-0.7398224	-1.2411957
1443279560549349377	0.91085815	-0.6457367	-1.0786896
1443279560556215832	0.85954285	-0.6958313	-0.9430847
1443279560561556408	0.815567	-0.8045654	-0.8428955
1443279560566347668	0.815567	-0.91207886	-0.77693176
1443279560571962903	0.87908936	-0.99760437	-0.72439575
1443279560576265881	0.993927	-1.0660248	-0.67185974
1443279560581270764	1.1295471	-1.1185608	-0.618103
1443279560586428235	1.2590485	-1.1478882	-0.5753479
1443279560591829846	1.3677673	-1.1454468	-0.5619049
1443279560596529553	1.4447479	-1.1112366	-0.5838928
1443279560600771496	1.4887238	-1.046463	-0.63764954
1443279560606569836	1.5046082	-0.9536133	-0.71339417
1443279560611483166	1.5070496	-0.84365845	-0.8001404
1443279560616701672	1.5107269	-0.7251587	-0.8856659
1443279560621523449	1.5253754	-0.6029968	-0.95773315
1443279560626650403	1.5424805	-0.4857025	-1.0151672
1443279560631624768	1.5424805	-0.37451172	-1.0151672
1443279560636782239	1.5522614	-0.37451172	-1.0591431
1443279560642183850	1.5449371	-0.28045654	-1.0921326
1443279560646853039	1.5192719	-0.21691895	-1.1153564
1443279560650087903	1.4777374	-0.19615173	-1.1312256
1443279560656893323	1.4276581	-0.22059631	-1.1385651
1443279560661806653	1.3751221	-0.27555847	-1.1336823
1443279560666964123	1.3250275	-0.34397888	-1.1177979
1443279560671877453	1.2822571	-0.4197235	-1.0933533
1443279560676821301	1.2480621	-0.505249	-1.0615997
1443279560681948254	1.2211761	-0.59931946	-1.0249481
1443279560687197278	1.1979675	-0.69462585	-0.9858551
1443279560692965100	1.1710815	-0.7776947	-0.9467621
1443279560697268078	1.1368713	-0.8351135	-0.91619873
1443279560700441907	1.1368713	-0.8583374	-0.91619873
1443279560707308362	1.0611267	-0.8583374	-0.90031433
1443279560712191174	1.0269165	-0.8265686	-0.9149933
1443279560718416760	0.9988098	-0.80700684	-0.9357605
1443279560722445080	0.97683716	-0.7960205	-0.95773315
1443279560727755139	0.9645996	-0.7935791	-0.9797363
1443279560732332776	0.9645996	-0.7972412	-0.9797363
1443279560737917492	0.9572754	-0.7972412	-1.0322723
1443279560743074963	0.9487152	-0.8082428	-1.0322723
1443279560747683117	0.93530273	-0.82533264	-1.068924
1443279560750795910	0.9120636	-0.84609985	-1.1067963
1443279560757509778	0.88397217	-0.8656616	-1.1422119
1443279560762545178	0.8546448	-0.8851929	-1.1764221
1443279560767580578	0.82655334	-0.90719604	-1.2118683
1443279560772799084	0.802124	-0.93284607	-1.2534027
1443279560778231213	0.7801361	-0.95729065	-1.3010559
1443279560782808850	0.75935364	-0.96585083	-1.3535767
1443279560787722180	0.7385864	-0.94384766	-1.4085541
1443279560792757580	0.72514343	-0.8851929	-1.462326
1443279560797792981	0.723938	-0.7935791	-1.5087433
1443279560801149914	0.723938	-0.67874146	-1.5087433
1443279560807833264	0.7740326	-0.67874146	-1.5576172
1443279560812899182	0.815567	-0.43196106	-1.5502777
1443279560817904065	0.85220337	-0.34275818	-1.5173035
1443279560822969983	0.86564636	-0.30488586	-1.462326
1443279560828463147	0.8509979	-0.32933044	-1.3877869
1443279560833010266	0.8509979	-0.40872192	-1.3877869
1443279560838259289	0.81066895	-0.40872192	-1.3010559
1443279560844271252	0.68240356	-0.5211334	-1.1226807
1443279560848146985	0.68240356	-0.7227173	-1.1226807
1443279560851656506	0.60054016	-0.7227173	-1.0469208
1443279560858370373	0.51379395	-0.7642517	-0.98461914
1443279560863253186	0.43315125	-0.7520447	-0.9308777
1443279560868471692	0.36108398	-0.6933899	-0.8832245
1443279560873323987	0.29632568	-0.60176086	-0.8331299
1443279560878420422	0.23646545	-0.4942627	-0.77937317
1443279560883303235	0.18148804	-0.38430786	-0.71951294
1443279560888399670	0.13383484	-0.29022217	-0.65597534
1443279560894045422	0.09718323	-0.22180176	-0.5948944
1443279560898500989	0.0715332	-0.17662048	-0.5374756
1443279560901857922	0.0715332	-0.1521759	-0.5374756
1443279560908571789	0.048309326	-0.1521759	-0.43240356
1443279560913637707	0.05809021	-0.14849854	-0.38108826
1443279560918795178	0.080078125	-0.16194153	-0.3322296
1443279560923708508	0.080078125	-0.17782593	-0.29190063
1443279560928713391	0.10940552	-0.17782593	-0.29190063
1443279560933718274	0.1350708	-0.19248962	-0.2674713
1443279560938906262	0.14849854	-0.20715332	-0.2589264
1443279560944399426	0.14360046	-0.22424316	-0.2589264
1443279560949007580	0.11795044	-0.24868774	-0.256485
1443279560952822278	0.0715332	-0.28289795	-0.24180603
1443279560959078381	0.004333496	-0.32687378	-0.2112732
1443279560963961194	-0.079956055	-0.3720703	-0.1660614
1443279560968996594	-0.18133545	-0.4148407	-0.107421875
1443279560974001477	-0.30108643	-0.4441681	-0.034118652
1443279560979860852	-0.43547058	-0.45637512	0.056274414
1443279560984102795	-0.5796356	-0.4441681	0.16499329
1443279560989260266	-0.7323456	-0.40872192	0.29083252
1443279560994661877	-0.892395	-0.3537445	0.43501282
1443279560999208996	-1.0573273	-0.28045654	0.5913849
1443279561002565930	-1.0573273	-0.18638611	0.5913849
1443279561009401867	-1.3896332	-0.18638611	0.917572
1443279561014315198	-1.5753326	0.0982666	1.0861816
1443279561019503186	-1.7891388	0.29130554	1.2596588
1443279561024385998	-1.7891388	0.48310852	1.2596588
1443279561029451916	-2.0212708	0.48310852	1.4368134
1443279561034456799	-2.2460632	0.64193726	1.6102905
1443279561039675305	-2.431778	0.75309753	1.775238
1443279561045107434	-2.5514984	0.8300781	1.9206085
1443279561049593518	-2.5991364	0.89849854	2.0403442
1443279561052919934	-2.584488	0.97546387	2.1344147
1443279561060976574	-2.5331726	1.0597687	2.207718
1443279561064638684	-2.4720764	1.150177	2.2590485
1443279561070467541	-2.418335	1.2454529	2.282257
1443279561074709485	-2.3706818	1.3505249	2.2712555
1443279561079805920	-2.3157043	1.4617004	2.2223969
1443279561084810803	-2.2424011	1.565567	2.136856
1443279561089907239	-2.1531982	1.638855	2.0171356
1443279561095522473	-2.0628052	1.652298	1.8754272
1443279561099917004	-1.9944	1.5826569	1.7263641
1443279561103243420	-1.9944	1.4299469	1.7263641
1443279561110018323	-1.9528656	1.4299469	1.4588165
1443279561115023205	-1.9613953	0.9949951	1.3574066
1443279561120058606	-1.9613953	0.7971039	1.3574066
1443279561125246594	-1.9662781	0.7971039	1.2828827
1443279561130953381	-1.9088593	0.6529236	1.2083588
1443279561135164807	-1.9088593	0.60406494	1.2083588
1443279561140169690	-1.8428955	0.60406494	1.2205658
1443279561145693371	-1.7683716	0.6798096	1.2731018
1443279561150240491	-1.6962891	0.76898193	1.3671875
1443279561153780530	-1.6327515	0.8312988	1.4979095
1443279561160311291	-1.5814514	0.84840393	1.6542969
1443279561165377209	-1.5447998	0.8227539	1.814331
1443279561170382092	-1.5276947	0.7640991	1.9523773
1443279561175448010	-1.5240173	0.6810303	2.0476837
1443279561181398938	-1.5215759	0.59184265	2.0965576
1443279561185671399	-1.5118103	0.51976013	2.1002045
1443279561190554211	-1.4898071	0.49043274	2.0660095
1443279561195620129	-1.4580383	0.5148773	2.002472
1443279561200625012	-1.4165039	0.58206177	1.9132843
1443279561203951428	-1.4165039	0.6700287	1.9132843
1443279561210848401	-1.3187714	0.6700287	1.665268
1443279561216860364	-1.2735748	0.8178711	1.517456
1443279561220919201	-1.2735748	0.86795044	1.517456
1443279561226961682	-1.2173767	0.86795044	1.2498932
1443279561230837414	-1.2173767	0.9742279	1.2498932
1443279561236696789	-1.2026978	0.9742279	1.1655884
1443279561240908215	-1.1904907	1.0609741	1.124054
1443279561246370862	-1.1794891	1.1697083	1.1191711
1443279561251162121	-1.1648407	1.2857819	1.1387024
1443279561254213879	-1.1391907	1.3871918	1.1741486
1443279561261141369	-1.0939789	1.4665833	1.2193604
1443279561266054699	-1.0280151	1.5240326	1.2657776
1443279561271273205	-0.95103455	1.564331	1.3085327
1443279561276125500	-0.8740692	1.591217	1.3427429
1443279561281862805	-0.8044281	1.6107635	1.3671875
1443279561286257336	-0.74090576	1.6205292	1.3830719
1443279561291445324	-0.68104553	1.6168671	1.3916016
1443279561296816418	-0.6150665	1.6009827	1.3879547
1443279561301455090	-0.53930664	1.5753326	1.3696289
1443279561304689953	-0.53930664	1.538681	1.3696289
1443279561311556408	-0.34994507	1.538681	1.2877655
1443279561316439221	-0.34994507	1.4238434	1.2877655
1443279561321627209	-0.24243164	1.4238434	1.2328033
1443279561326479504	-0.1312561	1.3493195	1.1704712
1443279561331545422	-0.02130127	1.2833405	1.0996246
1443279561336580823	0.08251953	1.2393646	1.0202026
1443279561341738293	0.18148804	1.2210388	0.9334564
1443279561347231457	0.27922058	1.2124786	0.839386
1443279561351839612	0.3794098	1.1990356	0.74409485
1443279561355013440	0.47592163	1.1807098	0.6524658
1443279561361910412	0.56877136	1.175827	0.56573486
1443279561366793225	0.6555176	1.2002716	0.48143005
1443279561371950696	0.7398224	1.2515717	0.39468384
1443279561376833508	0.82289124	1.3151093	0.30549622
1443279561381899426	0.90353394	1.3700867	0.21388245
1443279561386934826	0.97683716	1.4152832	0.12590027
1443279561393343518	1.0428009	1.4494934	0.03793335
1443279561397829602	1.1014404	1.4714966	-0.051223755
1443279561404177258	1.1576385	1.4788208	-0.14285278
1443279561412508557	1.2627106	1.4665833	-0.31022644
1443279561417147229	1.2627106	1.4018402	-0.31022644
1443279561422365735	1.3054657	1.4018402	-0.37376404
1443279561427340100	1.3323517	1.3542023	-0.41896057
1443279561432161877	1.3335724	1.3016663	-0.45072937
1443279561437441418	1.2981415	1.2540131	-0.473938
1443279561442324231	1.2199402	1.228363	-0.4898224
1443279561447359631	1.1002197	1.241806	-0.500824
1443279561452395032	0.94750977	1.3041077	-0.500824
1443279561455751965	0.77767944	1.4055176	-0.48738098
1443279561462465832	0.605423	1.5215607	-0.45440674
1443279561467470715	0.4478302	1.6071014	-0.39697266
1443279561472536633	0.31221008	1.6205292	-0.3114624
1443279561477694104	0.20225525	1.538681	-0.1953888
1443279561483187268	0.11306763	1.3688507	-0.046340942
1443279561487795422	0.036102295	1.1477203	0.13568115
1443279561492647717	-0.03842163	0.92536926	0.33848572
1443279561498385022	-0.108047485	0.7470093	0.5412903
1443279561502749035	-0.1630249	0.6394806	0.72332764
1443279561506258557	-0.1630249	0.6052704	0.72332764
1443279561512697766	-0.19845581	0.6052704	0.87239075
1443279561517855237	-0.22042847	0.6358185	0.98599243
1443279561523043225	-0.23999023	0.7152405	1.0690765
1443279561527895520	-0.26564026	0.8288574	1.1252899
1443279561532961438	-0.2962036	0.9559021	1.1582642
1443279561537996838	-0.33039856	1.0792999	1.1692657
1443279561543032239	-0.36216736	1.1965942	1.1607056
1443279561548739026	-0.3890381	1.3114319	1.1387024
1443279561553133557	-0.4061432	1.4177246	1.1069489
1443279561556612561	-0.4061432	1.4934692	1.0727386
1443279561563295910	-0.3768158	1.5191193	1.0312042
1443279561568728039	-0.30718994	1.4885864	0.9737854
1443279561573427746	-0.18745422	1.4055176	0.89071655
1443279561578432629	-0.023742676	1.280899	0.77098083
1443279561583345959	0.16316223	1.1220703	0.6072693
1443279561588259289	0.3488617	0.94737244	0.40324402
1443279561593508313	0.5076904	0.78486633	0.17478943
1443279561599306653	0.6225281	0.6517029	-0.051223755
1443279561603609631	0.67996216	0.55152893	-0.24060059
1443279561607882092	0.67996216	0.4782257	-0.24060059
1443279561613680432	0.6652832	0.4782257	-0.37130737
1443279561618563244	0.54922485	0.4256897	-0.42752075
1443279561623751233	0.30854797	0.3816986	-0.40919495
1443279561628603528	-0.05307007	0.30963135	-0.32122803
1443279561633669446	-0.4745636	0.16912842	-0.16362
1443279561638704846	-0.8386383	-0.051986694	0.056274414
1443279561643892834	-1.0267792	-0.32443237	0.3201599
1443279561649263928	-0.979126	-0.6005554	0.5852814
1443279561653963635	-0.721344	-0.8497772	0.78930664
1443279561657137463	-0.33283997	-1.073349	0.89559937
1443279561664034436	0.108184814	-1.2773743	0.8980408
1443279561668917248	0.5406647	-1.436203	0.8173981
1443279561674105237	0.90597534	-1.4972839	0.65979004
1443279561678988049	1.133194	-1.42276	0.40812683
1443279561684023449	1.1649628	-1.2468414	0.044052124
1443279561689058850	1.020813	-1.061142	-0.40919495
1443279561694246838	0.8180084	-0.96217346	-0.8636627
1443279561699587414	0.71417236	-0.99516296	-1.2130737
1443279561704348157	0.81188965	-1.1454468	-1.396347
1443279561707491467	0.81188965	-1.3751068	-1.396347
1443279561714388440	1.0892181	-1.3751068	-1.423233
1443279561719240735	1.4349823	-1.6646576	-1.3499146
1443279561724245617	1.7184143	-2.004303	-1.2338562
1443279561729342053	1.8479156	-2.357376	-1.1214447
1443279561735170910	1.8039398	-2.6408386	-1.0530396
1443279561739412854	1.6304626	-2.7397766	-1.0457153
1443279561744967053	1.4032135	-2.5846252	-1.082367
1443279561750582287	1.1906433	-2.2034454	-1.1177979
1443279561754702160	1.0293579	-1.7049866	-1.108017
1443279561757845471	0.9169769	-1.2223969	-1.0347137
1443279561764498303	0.8351135	-0.8497772	-0.91619873
1443279561769594739	0.7691345	-0.6225281	-0.79281616
1443279561774660657	0.71661377	-0.52845764	-0.6999512
1443279561779818127	0.6897278	-0.54067993	-0.65353394
1443279561785250256	0.7031708	-0.6164398	-0.64497375
1443279561789888928	0.763031	-0.7092743	-0.66085815
1443279561794802258	0.86442566	-0.7728119	-0.6865082
1443279561799807141	0.9841614	-0.789917	-0.71095276
1443279561804842541	0.9841614	-0.7728119	-0.72927856
1443279561808199475	1.1026611	-0.7728119	-0.72927856
1443279561814913342	1.2065277	-0.7508087	-0.74272156
1443279561819948742	1.2908173	-0.73127747	-0.7549286
1443279561824984143	1.3555603	-0.6982727	-0.770813
1443279561830172131	1.4032135	-0.6298523	-0.7964783
1443279561835878918	1.4349823	-0.5150299	-0.8331299
1443279561840212414	1.4545135	-0.35862732	-0.8746643
1443279561845125744	1.4655151	-0.17782593	-0.9113159
1443279561851015637	1.4679565	-0.004348755	-0.93696594
1443279561855196545	1.4655151	0.1324768	-0.95040894
1443279561858583996	1.4606323	0.22044373	-0.9516449
1443279561865358899	1.4533081	0.26686096	-0.9479675
1443279561870302746	1.4435425	0.29006958	-0.9455261
1443279561875460217	1.4288635	0.292511	-0.9467621
1443279561880465100	1.4129791	0.27542114	-0.95040894
1443279561886110852	1.3922119	0.24241638	-0.9516449
1443279561890474866	1.3665619	0.20088196	-0.95285034
1443279561895571301	1.3384552	0.15690613	-0.95529175
1443279561902712414	1.3152466	0.10926819	-0.96017456
1443279561905520032	1.3152466	0.056747437	-0.96017456
1443279561908999035	1.2993622	0.056747437	-0.9650879
1443279561915743420	1.2908173	-6.713867E-4	-0.9675293
1443279561920748303	1.2834778	-0.0544281	-0.9675293
1443279561925814221	1.2712708	-0.09963989	-0.9675293
1443279561930727551	1.252945	-0.12896729	-0.97361755
1443279561935671399	1.226059	-0.13993835	-0.9858551
1443279561940798352	1.1942902	-0.14241028	-1.002945
1443279561945925305	1.1588745	-0.14849854	-1.0176086
1443279561951265881	1.1246643	-0.16438293	-1.0261536
1443279561956026623	1.0928955	-0.18759155	-1.0273895
1443279561960177014	1.0696869	-0.20959473	-1.0249481
1443279561966066907	1.0538025	-0.23158264	-1.0188293
1443279561971010754	1.0440216	-0.26091003	-1.0115051
1443279561976198742	1.0403595	-0.30122375	-1.0078278
1443279561981081555	1.0415802	-0.3537445	-1.0078278
1443279561986086438	1.0428009	-0.41116333	-1.0176086
1443279561991152356	1.0415802	-0.46981812	-1.0359344
1443279561996187756	1.0354767	-0.532135	-1.0628052
1443279562002077649	1.0232544	-0.59931946	-1.0909119
1443279562006411145	1.0232544	-0.6701813	-1.0909119
1443279562009646008	1.00737	-0.6701813	-1.1128998
1443279562016420910	0.9878235	-0.7398224	-1.1287842
1443279562021364758	0.9621582	-0.7972412	-1.14711
1443279562026522229	0.92674255	-0.8314514	-1.1703339
1443279562031527112	0.87908936	-0.8363342	-1.1996307
1443279562037111828	0.8192291	-0.8204498	-1.2277527
1443279562041628430	0.7532654	-0.7996826	-1.2509613
1443279562046602795	0.6909332	-0.78868103	-1.2717285
1443279562052462170	0.6383972	-0.7911377	-1.2924957
1443279562056643078	0.60054016	-0.80336	-1.3083801
1443279562059969494	0.5760956	-0.8131256	-1.3169403
1443279562068056653	0.56755066	-0.8082428	-1.3144836
1443279562071718762	0.5736542	-0.7837982	-1.2986145
1443279562077425549	0.58587646	-0.7471466	-1.2668457
1443279562081789563	0.5944214	-0.7056122	-1.2216339
1443279562087221692	0.59198	-0.6750641	-1.1642151
1443279562091982434	0.5736542	-0.66285706	-1.099472
1443279562097017834	0.54312134	-0.67141724	-1.0347137
1443279562102755139	0.505249	-0.6958313	-0.9724121
1443279562106966565	0.505249	-0.7202759	-0.9724121
1443279562110445569	0.4637146	-0.7202759	-0.9125519
1443279562117037366	0.41726685	-0.723938	-0.8563385
1443279562122072766	0.3696289	-0.69706726	-0.80625916
1443279562127138684	0.32687378	-0.6408539	-0.7622833
1443279562132235119	0.29266357	-0.56510925	-0.72683716
1443279562137880871	0.26455688	-0.47958374	-0.6963043
1443279562142214367	0.24014282	-0.39039612	-0.66941833
1443279562147219250	0.21569824	-0.30366516	-0.64009094
1443279562153261731	0.19493103	-0.22424316	-0.60588074
1443279562157351086	0.17781067	-0.15829468	-0.5643463
1443279562160677502	0.16560364	-0.11064148	-0.5191498
1443279562167391369	0.15216064	-0.088638306	-0.47149658
1443279562172426770	0.13017273	-0.09352112	-0.42507935
1443279562177462170	0.095962524	-0.12284851	-0.37498474
1443279562182619641	0.053207397	-0.16926575	-0.31510925
1443279562188234875	6.713867E-4	-0.22914124	-0.23815918
1443279562192690442	-0.060394287	-0.30366516	-0.13796997
1443279562197603772	-0.060394287	-0.3855133	-0.012130737
1443279562202578137	-0.13491821	-0.3855133	-0.012130737
1443279562207674573	-0.22898865	-0.45637512	0.12957764
1443279562211062024	-0.34262085	-0.4967041	0.2798462
1443279562217897961	-0.477005	-0.49546814	0.43013
1443279562222841809	-0.62483215	-0.45272827	0.5852814
1443279562227968762	-0.7763214	-0.37451172	0.752655
1443279562232790539	-0.9253845	-0.27433777	0.9346924
1443279562238497326	-1.071991	-0.16438293	1.1264954
1443279562243868420	-1.2320251	-0.05810547	1.3170929
1443279562248140881	-1.4213867	0.048187256	1.500351
1443279562253267834	-1.643753	0.16056824	1.6726227
1443279562258211682	-1.8844452	0.28030396	1.8302155
1443279562261385510	-2.1092224	0.3914795	1.9694977
1443279562268282483	-2.2875977	0.46722412	2.0879974
1443279562273165295	-2.403656	0.49043274	2.1869507
1443279562278353283	-2.4659882	0.46966553	2.2663727
1443279562283205578	-2.4953003	0.43669128	2.3286743
1443279562288302014	-2.5124054	0.4391327	2.3616638
1443279562293306897	-2.5282898	0.5148773	2.355545
1443279562298464367	-2.5282898	0.6749115	2.2981262
1443279562303988049	-2.5380554	0.6749115	2.1955109
1443279562308596203	-2.5380554	1.162384	2.1955109
1443279562312075207	-2.5197296	1.162384	2.0672302
1443279562318605969	-2.4769592	1.3993988	1.9328461
1443279562323519299	-2.4085388	1.5496826	1.8057861
1443279562328707287	-2.3120422	1.5570068	1.6823883
1443279562333590100	-2.1972046	1.4018402	1.5577698
1443279562338656018	-2.0823517	1.1135101	1.4392548
1443279562343660901	-1.9895172	0.7518921	1.3415222
1443279562348665783	-1.9357452	0.3792572	1.2792206
1443279562354250500	-1.9174194	0.03718567	1.254776
1443279562358919690	-1.9198608	-0.24012756	1.268219
1443279562362124035	-1.9198608	-0.42460632	1.268219
1443279562368959973	-1.9186554	-0.42460632	1.3952789
1443279562373842785	-1.9076538	-0.4808197	1.4832458
1443279562379061291	-1.8942108	-0.39530945	1.5602112
1443279562383913586	-1.8795471	-0.29266357	1.6249695
1443279562389681408	-1.8685608	-0.21081543	1.6860657
1443279562394014905	-1.8685608	-0.16926575	1.7508087
1443279562399080823	-1.8722076	-0.16926575	1.7508087
1443279562405397961	-1.9137421	-0.17050171	1.849762
1443279562410036633	-1.9210968	-0.24624634	1.849762
1443279562420290539	-1.9003143	-0.26945496	1.8008881
1443279562424135754	-1.8465576	-0.25112915	1.7068329
1443279562429934094	-1.7659302	-0.18515015	1.578537
1443279562434267590	-1.6694031	-0.08375549	1.4331665
1443279562439333508	-1.565567	0.035980225	1.2914276
1443279562444368908	-1.4665985	0.16300964	1.1717072
1443279562449404309	-1.3859711	0.28886414	1.0898438
1443279562455111096	-1.3309937	0.40370178	1.04953
1443279562459475110	-1.3041229	0.51119995	1.0458679
1443279562462954114	-1.3041229	0.62605286	1.0458679
1443279562469515393	-1.2796783	0.62605286	1.1008453
1443279562474581311	-1.2613525	0.91070557	1.1338196
1443279562479616711	-1.2295837	1.0597687	1.1595001
1443279562484621594	-1.1807251	1.2002716	1.1729126
1443279562490175793	-1.1196289	1.3236542	1.1729126
1443279562494875500	-1.1196289	1.4262848	1.163147
1443279562499758313	-1.0512238	1.4262848	1.163147
1443279562504793713	-0.98768616	1.5020294	1.15094
1443279562509829114	-0.93515015	1.5557709	1.136261
1443279562513338635	-0.892395	1.5936584	1.1252899
1443279562519899914	-0.8520813	1.6205292	1.1167297
1443279562524904797	-0.8080902	1.6254272	1.1094055
1443279562529970715	-0.75434875	1.5960999	1.1008453
1443279562535128186	-0.68592834	1.5313568	1.0837402
1443279562540529797	-0.60162354	1.4433746	1.0544128
1443279562545229504	-0.5014496	1.3444214	1.0079956
1443279562550081799	-0.3902588	1.2442474	0.9493408
1443279562555208752	-0.26687622	1.1464996	0.8833771
1443279562560152600	-0.1300354	1.050003	0.8186188
1443279562563662121	-0.1300354	0.9485779	0.8186188
1443279562570253918	0.18148804	0.9485779	0.69644165
1443279562576143811	0.3464203	0.7237854	0.6365814
1443279562580324719	0.51135254	0.61016846	0.5767212
1443279562586550305	0.670166	0.51119995	0.51441956
1443279562591036389	0.8204498	0.43669128	0.44721985
1443279562595583508	0.8204498	0.38414	0.44721985
1443279562600588391	0.95851135	0.38414	0.37269592
1443279562606173108	1.0806732	0.345047	0.2883911
1443279562610689709	1.1906433	0.3108368	0.19432068
1443279562613771985	1.2895966	0.28398132	0.09780884
1443279562620729992	1.3812103	0.26930237	0.0025177002
1443279562625612805	1.470398	0.27174377	-0.09031677
1443279562630800793	1.5547028	0.2949524	-0.1807251
1443279562635683606	1.6365509	0.34016418	-0.26501465
1443279562641542981	1.7122955	0.4061432	-0.34077454
1443279562645784924	1.7782745	0.49043274	-0.40431213
1443279562650942395	1.8271484	0.59062195	-0.45684814
1443279562656466076	1.846695	0.7066803	-0.5032654
1443279562661043713	1.824707	0.8435211	-0.5484772
1443279562664248059	1.824707	1.0035553	-0.5484772
1443279562671114514	1.6145782	1.0035553	-0.6291046
1443279562675997326	1.4142151	1.3822937	-0.65597534
1443279562681185315	1.16008	1.5741119	-0.6572113
1443279562686068127	0.87664795	1.7353668	-0.62054443
1443279562691103528	0.87664795	1.8245544	-0.62054443
1443279562696138928	0.6042023	1.8245544	-0.5362396
1443279562701357434	0.3818512	1.7940216	-0.40919495
1443279562707064221	0.22181702	1.6107635	-0.2503662
1443279562711428235	0.10940552	1.294342	-0.07321167
1443279562714602063	0.0104522705	0.91316223	0.11735535
1443279562721468518	-0.0970459	0.56129456	0.3103943
1443279562726320813	-0.21678162	0.31695557	0.48875427
1443279562731569836	-0.33406067	0.21920776	0.6402588
1443279562736391614	-0.4293518	0.27174377	0.7612152
1443279562741396496	-0.49900818	0.4598999	0.8577118
1443279562746492932	-0.5454254	0.74212646	0.9334564
1443279562752474377	-0.5784149	1.0658722	0.983551
1443279562757418225	-0.5979614	1.3786316	1.0067749
1443279562762270520	-0.60772705	1.6376343	1.0079956
1443279562764956067	-0.60772705	1.8282318	1.0079956
1443279562771975110	-0.59306335	1.8282318	0.9725647
1443279562776674817	-0.56007385	1.9809418	0.9468994
1443279562781710217	-0.5002136	1.9418488	0.92248535
1443279562786898205	-0.4061432	1.8331146	0.89559937
1443279562792330334	-0.2803192	1.6669617	0.86138916
1443279562796969006	-0.2803192	1.4617004	0.86138916
1443279562801912854	-0.1288147	1.4617004	0.8003082
1443279562806917737	0.03366089	1.2381287	0.6903534
1443279562811953137	0.19004822	1.0157928	0.5229645
1443279562815310071	0.3329773	0.8105316	0.3018341
1443279562821993420	0.46247864	0.6211548	0.051376343
1443279562827028821	0.58221436	0.43545532	-0.1953888
1443279562832094739	0.6738434	0.23997498	-0.41529846
1443279562837130139	0.69828796	0.03718567	-0.58877563
1443279562842653821	0.6090851	-0.16926575	-0.7072754
1443279562847353528	0.3708496	-0.3830719	-0.75128174
1443279562852205823	-0.020095825	-0.6066437	-0.69506836
1443279562857271741	-0.5087738	-0.8192291	-0.5154724
1443279562862307141	-0.98280334	-0.96585083	-0.20883179
1443279562865816662	-0.98280334	-1.0061646	-0.20883179
1443279562872377942	-1.3859711	-1.0061646	0.5938263
1443279562877382824	-1.1856079	-0.95240784	0.918808
1443279562882601330	-0.75190735	-1.0318146	1.0947266
1443279562887484143	-0.75190735	-1.191864	1.0947266
1443279562892550061	-0.18501282	-1.191864	1.1142883
1443279562897707532	0.3684082	-1.3408966	1.0092163
1443279562902590344	0.7679138	-1.4044342	0.8015137
1443279562907625744	0.9340668	-1.4019928	0.4777527
1443279562912661145	0.89741516	-1.423996	0.036727905
1443279562916018078	0.7850189	-1.5437164	-0.473938
1443279562922854016	0.7471466	-1.7672882	-0.9455261
1443279562928499768	0.86808777	-2.0372925	-1.2717285
1443279562932802746	1.1295471	-2.2987518	-1.4183197
1443279562938601086	1.4374237	-2.5333252	-1.4256744
1443279562943575451	1.6903229	-2.756897	-1.3767853
1443279562947908948	1.824707	-2.9719086	-1.3413696
1443279562953066418	1.8137054	-3.1295166	-1.3462524
1443279562958773205	1.6744385	-3.1417236	-1.3804626
1443279562963106701	1.4581909	-2.940155	-1.4134369
1443279562967348645	1.4581909	-2.5174408	-1.4109955
1443279562973238537	1.0647888	-1.9554443	-1.3560181
1443279562978090832	0.9731598	-1.4044342	-1.2509613
1443279562983309338	0.93774414	-1.0159302	-1.1153564
1443279562988222668	0.93774414	-0.8607788	-1.1153564
1443279562993227551	0.9169769	-0.8607788	-0.9772949
1443279562998232434	0.888855	-0.90719604	-0.8624573
1443279563003481457	0.86076355	-1.0525818	-0.78793335
1443279563009249280	0.85954285	-1.204071	-0.7500458
1443279563013460705	0.90597534	-1.3030396	-0.7305145
1443279563016695569	1.0061493	-1.3384552	-0.7121887
1443279563023592541	1.1405487	-1.3274689	-0.69018555
1443279563028444836	1.2810364	-1.2993622	-0.66574097
1443279563033632824	1.4032135	-1.2822723	-0.6486511
1443279563038546155	1.4911652	-1.2773743	-0.64741516
1443279563043581555	1.5412598	-1.2639465	-0.6681824
1443279563048616955	1.5583649	-1.2101898	-0.70851135
1443279563053804944	1.553482	-1.1051178	-0.76104736
1443279563059145520	1.5400391	-0.96217346	-0.8184662
1443279563063723157	1.527832	-0.8131256	-0.8771057
1443279563067080090	1.527832	-0.68118286	-0.8771057
1443279563073916028	1.514389	-0.68118286	-0.99438477
1443279563078829358	1.514389	-0.49180603	-1.0457153
1443279563085054944	1.470398	-0.43196106	-1.0909119
1443279563089052746	1.470398	-0.39530945	-1.0909119
1443279563094362805	1.4288635	-0.39530945	-1.1324463
1443279563099123547	1.3824463	-0.38674927	-1.1727753
1443279563104128430	1.3372345	-0.40507507	-1.2106323
1443279563109072278	1.2944794	-0.4478302	-1.2387543
1443279563114260266	1.256607	-0.51379395	-1.2460785
1443279563117434094	1.2272949	-0.59443665	-1.2301941
1443279563124178479	1.2101746	-0.6823883	-1.1935425
1443279563129091809	1.2016144	-0.7691498	-1.1422119
1443279563134218762	1.1955261	-0.8400116	-1.082367
1443279563139376233	1.1832886	-0.8901062	-1.0200653
1443279563144777844	1.1588745	-0.9194031	-0.96629333
1443279563149477551	1.1209869	-0.93284607	-0.9284363
1443279563154360364	1.0770111	-0.9377289	-0.9088745
1443279563159395764	1.0379181	-0.93652344	-0.90031433
1443279563164431164	1.00737	-0.93284607	-0.8978729
1443279563167818616	1.00737	-0.9316406	-0.8978729
1443279563174501965	0.96951294	-0.9316406	-0.90031433
1443279563179445813	0.96951294	-0.94873047	-0.90031433
1443279563184572766	0.9523926	-0.94873047	-0.90275574
1443279563189577649	0.9303894	-0.96217346	-0.9088745
1443279563195253918	0.9010925	-0.9719391	-0.9223175
1443279563199862073	0.86076355	-0.97683716	-0.9455261
1443279563204836438	0.81311035	-0.9829407	-0.97605896
1443279563210512707	0.7666931	-0.99638367	-1.0078278
1443279563214754651	0.7312622	-1.020813	-1.0395966
1443279563218233655	0.71170044	-1.0538025	-1.0738068
1443279563224978039	0.7019348	-1.0879974	-1.1116791
1443279563229860852	0.6909332	-1.112442	-1.1556549
1443279563235018323	0.6762848	-1.1087952	-1.2045441
1443279563239931653	0.6604004	-1.0660248	-1.2607269
1443279563244936535	0.6518402	-0.98172	-1.3181458
1443279563251101086	0.657959	-0.8693085	-1.369461
1443279563255220959	0.68240356	-0.7410431	-1.4061127
1443279563260988782	0.722702	-0.6139679	-1.4244385
1443279563265108655	0.7740326	-0.50891113	-1.4219971
1443279563268496106	0.7740326	-0.44293213	-1.4219971
1443279563275332043	0.86076355	-0.44293213	-1.3645782
1443279563280184338	0.86076355	-0.48692322	-1.3645782
1443279563285463879	0.875412	-0.48692322	-1.3096008
1443279563290285657	0.8668823	-0.5871124	-1.2399597
1443279563295382092	0.83755493	-0.7092743	-1.1568909
1443279563300386975	0.79234314	-0.82777405	-1.0652618
1443279563305574963	0.7337036	-0.9194031	-0.97361755
1443279563310946057	0.6628418	-0.96829224	-0.8929901
1443279563315645764	0.5895386	-0.9694977	-0.8294678
1443279563319368908	0.51501465	-0.92308044	-0.78305054
1443279563325716565	0.4429474	-0.8400116	-0.74884033
1443279563330599377	0.37452698	-0.7398224	-0.718277
1443279563335787366	0.31221008	-0.6457367	-0.68530273
1443279563340670178	0.25723267	-0.57366943	-0.64497375
1443279563346407483	0.21325684	-0.53089905	-0.5985565
1443279563350740979	0.18025208	-0.5064697	-0.55336
1443279563355898449	0.15093994	-0.49058533	-0.513031
1443279563361300061	0.12283325	-0.4759369	-0.48005676
1443279563365999768	0.09718323	-0.46125793	-0.4519348
1443279563369173596	0.09718323	-0.4466095	-0.4519348
1443279563376070569	0.080078125	-0.4466095	-0.39207458
1443279563380953381	0.076416016	-0.43684387	-0.39207458
1443279563386141369	0.083740234	-0.43684387	-0.35910034
1443279563391024182	0.09718323	-0.4478302	-0.33099365
1443279563396059582	0.108184814	-0.4685974	-0.31510925
1443279563401094983	0.111846924	-0.49302673	-0.30900574
1443279563406282971	0.10450745	-0.5162506	-0.30900574
1443279563412111828	0.08251953	-0.5333557	-0.30778503
1443279563416231701	0.04710388	-0.54922485	-0.2980194
1443279563419527600	-0.0017852783	-0.56388855	-0.2748108
1443279563427675793	-0.060394287	-0.58099365	-0.23692322
1443279563431307385	-0.127594	-0.59809875	-0.18318176
1443279563437166760	-0.19845581	-0.60787964	-0.11352539
1443279563441378186	-0.27175903	-0.6042023	-0.032913208
1443279563446444104	-0.34872437	-0.5724335	0.057495117
1443279563451418469	-0.43547058	-0.505249	0.15522766
1443279563456453869	-0.5332184	-0.40263367	0.2651825
1443279563462130139	-0.64071655	-0.27923584	0.39102173
1443279563466524670	-0.7555542	-0.15705872	0.5364075
1443279563469881604	-0.7555542	-0.048324585	0.5364075
1443279563476625989	-0.8728485	-0.048324585	0.6952362
1443279563481630871	-0.99380493	0.040863037	0.8601532
1443279563486696789	-1.1208649	0.11903381	1.0177612
1443279563491854260	-1.263794	0.19967651	1.1607056
1443279563497225354	-1.4275055	0.2973938	1.2902069
1443279563501955578	-1.60466	0.4146881	1.4197235
1443279563506838391	-1.7793579	0.5442047	1.5553284
1443279563512545178	-1.9381866	0.6700287	1.6994781
1443279563516939709	-2.0762482	0.77386475	1.8448639
1443279563520235608	-2.1959686	0.84840393	1.9829407
1443279563526979992	-2.2961578	0.8960571	2.1026459
1443279563531893323	-2.3755646	0.9302521	2.1979523
1443279563537050793	-2.4268646	0.9742279	2.2627106
1443279563542208264	-2.4525452	1.0536499	2.2956848
1443279563547976086	-2.457428	1.1855927	2.2932434
1443279563552156994	-2.4464264	1.3578644	2.2529297
1443279563557314465	-2.418335	1.5337982	2.1808624
1443279563562929699	-2.3706818	1.6571808	2.0806732
1443279563567232678	-2.2973785	1.6803894	1.9511719
1443279563570772717	-2.2973785	1.5863342	1.9511719
1443279563577303479	-2.2032928	1.5863342	1.797226
1443279563582399914	-2.098236	1.3884125	1.6322937
1443279563587526867	-1.9968414	1.1220703	1.4820251
1443279563593752453	-1.8526764	0.826416	1.3146515
1443279563597475598	-1.8526764	0.2472992	1.3146515
1443279563603304455	-1.8074646	0.2472992	1.3012085
1443279563607546399	-1.7683716	0.0017700195	1.320755
1443279563613070080	-1.73172	-0.1815033	1.3635101
1443279563617617199	-1.697525	-0.28167725	1.4246063
1443279563620974133	-1.6779633	-0.30244446	1.4979095
1443279563627810071	-1.6804047	-0.26579285	1.5712128
1443279563632692883	-1.7084961	-0.1998291	1.6322937
1443279563637880871	-1.7561493	-0.12652588	1.6640625
1443279563642794201	-1.8147888	-0.06542969	1.6530609
1443279563647860119	-1.8710022	-0.032440186	1.6066437
1443279563652895520	-1.9161835	-0.031219482	1.5455475
1443279563658052991	-1.9479523	-0.04588318	1.4881439
1443279563663454602	-1.967514	-0.05076599	1.4356079
1443279563668123791	-1.9760742	-0.02999878	1.3732758
1443279563671450207	-1.9760742	0.02130127	1.3732758
1443279563678194592	-1.9711914	0.02130127	1.2926636
1443279563683046887	-1.9467468	0.09338379	1.20224
1443279563688234875	-1.8978729	0.17645264	1.1167297
1443279563693148205	-1.8294525	0.26197815	1.04953
1443279563698153088	-1.7512665	0.34872437	1.0079956
1443279563703219006	-1.670639	0.44033813	0.9921112
1443279563708376477	-1.5960999	0.5283203	1.0006714
1443279563713900158	-1.5313568	0.59550476	1.0275421
1443279563718477795	-1.4751587	0.6321564	1.0690765
1443279563721651623	-1.4213867	0.6480408	1.1203918
1443279563728518078	-1.3615265	0.6700287	1.1790314
1443279563733431408	-1.2906799	0.7152405	1.2364502
1443279563738619397	-1.2063751	0.7836609	1.2841034
1443279563743502209	-1.1135254	0.86795044	1.3195343
1443279563748568127	-1.0231171	0.9534607	1.3427429
1443279563753573010	-0.9473572	1.0292053	1.3574066
1443279563758516858	-0.8862915	1.0890808	1.3647461
1443279563764132092	-0.8386383	1.1379547	1.3635101
1443279563769594739	-0.7958832	1.1831512	1.3525085
1443279563779604504	-0.69692993	1.2246857	1.2987671
1443279563783785412	-0.69692993	1.2466888	1.2987671
1443279563789187024	-0.62971497	1.2466888	1.254776
1443279563794039319	-0.5503082	1.2198029	1.20224
1443279563798922131	-0.46479797	1.1819305	1.1423798
1443279563804110119	-0.3731537	1.1464996	1.0788574
1443279563808962414	-0.27420044	1.1171875	1.0116577
1443279563814058850	-0.1593628	1.084198	0.944458
1443279563819033215	-0.027420044	1.03656	0.8735962
1443279563822390149	0.120391846	0.9693451	0.79907227
1443279563829104016	0.27677917	0.88871765	0.7184448
1443279563834108899	0.4319458	0.8093109	0.6329346
1443279563839205334	0.57855225	0.7457733	0.5400696
1443279563844362805	0.7129364	0.7017975	0.44354248
1443279563849764416	0.83755493	0.6712494	0.3458252
1443279563854433606	0.9572754	0.64315796	0.25053406
1443279563859316418	1.0721283	0.61016846	0.15644836
1443279563864351819	1.0721283	0.5710602	0.059936523
1443279563869387219	1.1820831	0.5710602	0.059936523
1443279563872866223	1.2871552	0.5307617	-0.039001465
1443279563879458020	1.3860931	0.49775696	-0.13674927
1443279563884493420	1.4789581	0.4757843	-0.23327637
1443279563889528821	1.5632477	0.4647827	-0.32489014
1443279563894686291	1.6426697	0.4598999	-0.4128418
1443279563900454114	1.7196503	0.45866394	-0.49838257
1443279563904604504	1.7880554	0.45866394	-0.5802307
1443279563909670422	1.83815	0.46966553	-0.65231323
1443279563915346692	1.8479156	0.50387573	-0.7072754
1443279563919710705	1.8039398	0.57351685	-0.74272156
1443279563923220227	1.6964264	0.6846924	-0.75737
1443279563929934094	1.522934	0.84228516	-0.7524872
1443279563935518811	1.292038	1.0402069	-0.7256317
1443279563940004895	1.0256958	1.2601318	-0.67430115
1443279563945620129	0.75691223	1.4568176	-0.5912323
1443279563949923108	0.5235748	1.5704498	-0.47517395
1443279563954989026	0.3513031	1.538681	-0.34199524
1443279563960177014	0.24014282	1.333435	-0.20150757
1443279563965761731	0.169281	0.98158264	-0.05368042
1443279563970247815	0.169281	0.55641174	-0.05368042
1443279563973421643	0.10450745	0.55641174	0.108810425
1443279563980318616	0.01777649	0.15080261	0.284729
1443279563985201428	-0.08972168	-0.15705872	0.45333862
1443279563990389416	-0.20333862	-0.32565308	0.59872437
1443279563995272229	-0.30841064	-0.3513031	0.713562
1443279564000307629	-0.39393616	-0.24990845	0.79907227
1443279564005343030	-0.45991516	-0.051986694	0.85650635
1443279564010500500	-0.49900818	0.21432495	0.8858185
1443279564015932629	-0.5099945	0.51364136	0.8833771
1443279564020601819	-0.49777222	0.80319214	0.852829
1443279564023806164	-0.4696808	1.0487671	0.80274963
1443279564030672619	-0.43058777	1.2332458	0.7428894
1443279564035555432	-0.3768158	1.3505249	0.68299866
1443279564040743420	-0.30352783	1.3993988	0.6243744
1443279564045595715	-0.2118988	1.3749695	0.5620575
1443279564051333020	-0.104385376	1.2833405	0.48266602
1443279564055880139	0.0104522705	1.1403961	0.37025452
1443279564060854504	0.12895203	0.9644623	0.22241211
1443279564065645764	0.12895203	0.7653351	0.22241211
1443279564070955823	0.25723267	0.7653351	0.04283142
1443279564074068616	0.3952942	0.54541016	-0.1477356
1443279564080996106	0.53211975	0.30718994	-0.33099365
1443279564085909436	0.6396332	0.059188843	-0.49105835
1443279564091066907	0.6762848	-0.18270874	-0.62176514
1443279564095949719	0.59931946	-0.40872192	-0.7121887
1443279564102083752	0.3720703	-0.62864685	-0.74516296
1443279564106051037	-0.007873535	-0.855896	-0.69018555
1443279564111879895	-0.50509644	-1.0819092	-0.5167084
1443279564116732190	-1.0231171	-1.2712708	-0.20639038
1443279564121859143	-1.4226227	-1.383667	0.22120667
1443279564124514172	-1.4226227	-1.4178772	0.6927948
1443279564131258557	-1.3774109	-1.423996	1.1032867
1443279564136263440	-0.8936157	-1.4667511	1.3647461
1443279564141329358	-0.24855042	-1.5608215	1.4526978
1443279564146486828	0.3842926	-1.668335	1.4001617
1443279564151888440	0.85588074	-1.7342987	1.2486725
1443279564156557629	1.0880127	-1.7342987	0.996994
1443279564161409924	1.0880127	-1.6878815	0.996994
1443279564166475842	1.0806732	-1.6878815	0.620697
1443279564171480725	0.92430115	-1.6438904	0.121017456
1443279564174868176	0.7666931	-1.6451263	-0.42140198
1443279564181582043	0.7385864	-1.7062073	-0.88442993
1443279564186617444	0.88520813	-1.8124847	-1.1776581
1443279564191652844	1.1454315	-1.9591064	-1.3010559
1443279564196657727	1.4019775	-2.183899	-1.3181458
1443279564202181408	1.54982	-2.5174408	-1.3071594
1443279564206942151	1.5412598	-2.9120483	-1.3218231
1443279564211794446	1.3934479	-3.2187042	-1.3865814
1443279564218020032	1.1747589	-3.2663422	-1.4867401
1443279564221834729	0.96951294	-2.97435	-1.5722656
1443279564225222180	0.96951294	-2.4294739	-1.5722656
1443279564231905530	0.7837982	-2.4294739	-1.4965363
1443279564236971448	0.7691345	-1.3787842	-1.3108215
1443279564242220471	0.7483673	-1.179657	-1.0762482
1443279564247194836	0.71661377	-1.2089539	-0.850235
1443279564251986096	0.7031708	-1.3739014	-0.67674255
1443279564257265637	0.74102783	-1.5767059	-0.565567
1443279564262148449	0.74102783	-1.7453003	-0.565567
1443279564268801282	0.993927	-1.7453003	-0.45561218
1443279564272341321	0.993927	-1.8870239	-0.45561218
1443279564275545666	1.1576385	-1.8870239	-0.42384338
1443279564282290051	1.3054657	-1.8845825	-0.40551758
1443279564287630627	1.4154205	-1.8748169	-0.40675354
1443279564292513440	1.4862823	-1.8748169	-0.4287262
1443279564297335217	1.5241699	-1.8699036	-0.4653778
1443279564302462170	1.5437164	-1.8283691	-0.51426697
1443279564307467053	1.553482	-1.7257538	-0.5704498
1443279564312655041	1.5547028	-1.5644836	-0.6303253
1443279564318026135	1.5510406	-1.3726654	-0.69262695
1443279564322725842	1.5412598	-1.1833038	-0.7524872
1443279564326845715	1.5253754	-1.0220337	-0.8001404
1443279564332766125	1.5034027	-0.9010773	-0.8319092
1443279564337679455	1.4777374	-0.8314514	-0.8490143
1443279564342867444	1.4484253	-0.8131256	-0.8587799
1443279564347719739	1.4129791	-0.8351135	-0.8697815
1443279564352816174	1.3677673	-0.8766632	-0.8819885
1443279564357821057	1.3677673	-0.9157562	-0.8819885
1443279564363009045	1.3140259	-0.9157562	-0.8881073
1443279564368349621	1.2578278	-0.94996643	-0.8771057
1443279564372927258	1.2028503	-0.99394226	-0.8514557
1443279564376253674	1.1503143	-1.0587006	-0.82458496
1443279564383120129	1.0965576	-1.1405334	-0.8160248
1443279564388033459	1.0379181	-1.2138519	-0.8319092
1443279564393251965	0.9780426	-1.2541656	-0.8685608
1443279564398104260	0.91941833	-1.2553864	-0.9149933
1443279564403048108	0.86564636	-1.2260742	-0.96017456
1443279564408205578	0.8180084	-1.1845398	-1.0017395
1443279564413363049	0.77279663	-1.1478882	-1.0383759
1443279564419130871	0.7312622	-1.1185608	-1.0750275
1443279564423464367	0.6909332	-1.0892334	-1.1104584
1443279564426577160	0.6909332	-1.0525818	-1.1104584
1443279564433321545	0.63230896	-1.0525818	-1.1605377
1443279564438387463	0.6237488	-0.99638367	-1.1666565
1443279564444399426	0.6261902	-0.99638367	-1.1568909
1443279564448458264	0.6359558	-1.0098267	-1.1385651
1443279564454134533	0.6493988	-1.0244904	-1.1141205
1443279564458681653	0.6493988	-1.0391388	-1.1141205
1443279564463930676	0.6628418	-1.0391388	-1.0909119
1443279564469271252	0.6787262	-1.0562439	-1.068924
1443279564473635266	0.69584656	-1.0794678	-1.0530396
1443279564476961682	0.71170044	-1.1051178	-1.0432739
1443279564483706067	0.723938	-1.1295624	-1.0432739
1443279564488710949	0.72514343	-1.1503296	-1.0505981
1443279564493776867	0.7153778	-1.1686554	-1.0652618
1443279564498751233	0.69584656	-1.1845398	-1.086029
1443279564504427502	0.6689606	-1.1967468	-1.1116791
1443279564508974621	0.6396332	-1.1979675	-1.1410065
1443279564513887951	0.6078644	-1.1820984	-1.1739807
1443279564518892834	0.57733154	-1.1430054	-1.2069855
1443279564523989270	0.54800415	-1.0806732	-1.2350769
1443279564527468274	0.54800415	-1.0024872	-1.2350769
1443279564534060071	0.5076904	-1.0024872	-1.2705078
1443279564539095471	0.49668884	-0.8326721	-1.2778473
1443279564544130871	0.49057007	-0.7532654	-1.2754059
1443279564549166272	0.48692322	-0.67874146	-1.2595215
1443279564555025647	0.48080444	-0.6090851	-1.2265167
1443279564559389660	0.48080444	-0.5529022	-1.2265167
1443279564564272473	0.4637146	-0.5529022	-1.1776581
1443279564569307873	0.4319458	-0.5174713	-1.1177979
1443279564574343274	0.386734	-0.5076904	-1.0505981
1443279564577700207	0.3329773	-0.5211334	-0.9797363
1443279564584536145	0.27922058	-0.54678345	-0.9088745
1443279564589418957	0.23034668	-0.57366943	-0.8355713
1443279564594637463	0.19004822	-0.5871124	-0.75737
1443279564599550793	0.16560364	-0.58587646	-0.67430115
1443279564605349133	0.15827942	-0.571228	-0.5900116
1443279564610659192	0.16436768	-0.5504608	-0.50694275
1443279564614748547	0.17536926	-0.52845764	-0.4311676
1443279564619997571	0.18148804	-0.51257324	-0.36642456
1443279564624697278	0.17536926	-0.51013184	-0.3114624
1443279564628206799	0.17536926	-0.5235748	-0.3114624
1443279564634890149	0.15093994	-0.5235748	-0.22836304
1443279564639803479	0.14971924	-0.57366943	-0.19906616
1443279564645021985	0.15460205	-0.5907593	-0.1819458
1443279564649874280	0.15460205	-0.59443665	-0.1819458
1443279564654970715	0.16192627	-0.59443665	-0.17828369
1443279564659914563	0.16680908	-0.5822296	-0.18806458
1443279564665102551	0.17048645	-0.56144714	-0.20515442
1443279564670595715	0.16804504	-0.55166626	-0.22592163
1443279564675173352	0.1533966	-0.56999207	-0.24304199
1443279564679079602	0.12283325	-0.62376404	-0.25280762
1443279564685091565	0.07885742	-0.69950867	-0.24668884
1443279564690126965	0.025100708	-0.7776947	-0.22227478
1443279564695314953	-0.03718567	-0.84121704	-0.17582703
1443279564700197766	-0.104385376	-0.881546	-0.107421875
1443279564706209729	-0.18133545	-0.89375305	-0.024353027
1443279564710268567	-0.26687622	-0.88031006	0.07093811
1443279564715303967	-0.36338806	-0.84365845	0.17599487
1443279564721285412	-0.46723938	-0.78868103	0.28962708
1443279564725557873	-0.57595825	-0.7227173	0.41545105
1443279564728762219	-0.57595825	-0.65185547	0.41545105
1443279564735628674	-0.7897644	-0.65185547	0.7062378
1443279564740480969	-0.89971924	-0.49546814	0.866272
1443279564745699475	-1.0255737	-0.3965149	1.0312042
1443279564750582287	-1.0255737	-0.27311707	1.0312042
1443279564755648205	-1.1819305	-0.27311707	1.1961517
1443279564760653088	-1.3810883	-0.12284851	1.3549652
1443279564765841076	-1.6156616	0.040863037	1.5040131
1443279564771242688	-1.8587799	0.19721985	1.6432953
1443279564777102063	-2.0762482	0.32183838	1.7727966
1443279564787050793	-2.3450317	0.4574585	1.9853821
1443279564790865491	-2.3975677	0.5014343	2.0647888
1443279564796083996	-2.417099	0.55885315	2.1197662
1443279564801088879	-2.4281006	0.64193726	2.1490936
1443279564805880139	-2.442749	0.7433319	2.1466522
1443279564811159680	-2.4635468	0.8594055	2.1136475
1443279564816042492	-2.4757538	0.9852295	2.0476837
1443279564821108410	-2.46109	1.1110687	1.9474945
1443279564826143811	-2.4024506	1.2124786	1.8082275
1443279564829470227	-2.4024506	1.2454529	1.8082275
1443279564836184094	-2.1764374	1.2454529	1.4514923
1443279564841219494	-2.0579224	0.96569824	1.2657776
1443279564846254895	-2.0579224	0.6712494	1.2657776
1443279564851290295	-1.9699554	0.6712494	1.097168
1443279564856813977	-1.9235382	0.34016418	0.9603424
1443279564861513684	-1.9137421	0.022537231	0.8687134
1443279564866396496	-1.9210968	-0.25601196	0.82229614
1443279564871462414	-1.9223022	-0.4844818	0.81985474
1443279564876467297	-1.901535	-0.6542969	0.8577118
1443279564879946301	-1.8551178	-0.7605896	0.9346924
1443279564886538098	-1.7879181	-0.8045654	1.0458679
1443279564891573498	-1.7133789	-0.80700684	1.1814728
1443279564896608899	-1.6535187	-0.7996826	1.3244171
1443279564901766369	-1.6229858	-0.80336	1.4539337
1443279564907198498	-1.626648	-0.8326721	1.5492249
1443279564911898205	-1.6547546	-0.89375305	1.6029663
1443279564916719983	-1.6901703	-0.9719391	1.6164093
1443279564921846936	-1.7158508	-1.0244904	1.5980835
1443279564926821301	-1.7207336	-1.008606	1.552887
1443279564930178235	-1.7207336	-0.9108734	1.552887
1443279564937014172	-1.6718445	-0.9108734	1.3793945
1443279564942995617	-1.631546	-0.59809875	1.2572174
1443279564946962903	-1.631546	-0.45516968	1.2572174
1443279564953341076	-1.5337982	-0.45516968	1.0031128
1443279564957674573	-1.5337982	-0.17538452	1.0031128
1443279564962832043	-1.4739227	-0.17538452	0.89315796
1443279564967073987	-1.412857	-0.02267456	0.80397034
1443279564972170422	-1.3615265	0.11781311	0.73677063
1443279564977358410	-1.3285522	0.23388672	0.69644165
1443279564980440686	-1.3114471	0.3291626	0.6769104
1443279564987398694	-1.3053284	0.41712952	0.6707916
1443279564992281506	-1.2992249	0.5014343	0.6659088
1443279564997469494	-1.2870026	0.5845032	0.65734863
1443279565002382824	-1.2662354	0.6712494	0.647583
1443279565007448742	-1.2393646	0.7653351	0.6427002
1443279565012423108	-1.2088165	0.85572815	0.6451416
1443279565017580578	-1.1770477	0.92048645	0.6537018
1443279565023104260	-1.1403961	0.9534607	0.66467285
1443279565027681897	-1.0939789	0.95713806	0.674469
1443279565030947278	-1.0939789	0.93881226	0.674469
1443279565037752698	-0.95103455	0.93881226	0.68055725
1443279565042635510	-0.95103455	0.82151794	0.68055725
1443279565047823498	-0.8520813	0.82151794	0.6707916
1443279565052706311	-0.74090576	0.721344	0.6451416
1443279565057741711	-0.62605286	0.60894775	0.6023712
1443279565062746594	-0.5099945	0.49775696	0.5461731
1443279565067934582	-0.3927002	0.3939209	0.4777527
1443279565073427746	-0.27297974	0.28762817	0.40200806
1443279565078066418	-0.15324402	0.17034912	0.3177185
1443279565081240246	-0.03718567	0.051864624	0.22608948
1443279565088106701	0.0703125	-0.043441772	0.12957764
1443279565092989514	0.17048645	-0.0874176	0.03060913
1443279565098177502	0.26091003	-0.07763672	-0.067108154
1443279565103029797	0.34397888	-0.025115967	-0.16485596
1443279565108095715	0.42338562	0.05307007	-0.26013184
1443279565113131116	0.49913025	0.14224243	-0.34809875
1443279565119265149	0.57733154	0.23265076	-0.42507935
1443279565124025891	0.656723	0.31451416	-0.49105835
1443279565129122326	0.7385864	0.38781738	-0.5509186
1443279565138826916	0.89985657	0.45378113	-0.66329956
1443279565143313000	0.89985657	0.57962036	-0.66329956
1443279565148409436	0.98172	0.57962036	-0.71707153
1443279565153536389	1.0684509	0.6370392	-0.76716614
1443279565158968518	1.1576385	0.682251	-0.80992126
1443279565163637707	1.2419434	0.7127991	-0.8453522
1443279565168520520	1.317688	0.7298889	-0.8661194
1443279565173555920	1.3763275	0.7360077	-0.8673401
1443279565178591321	1.4178619	0.7347717	-0.8453522
1443279565182131360	1.4361877	0.7298889	-0.8050232
1443279565188692639	1.4325409	0.7176819	-0.7524872
1443279565193697522	1.4032135	0.6956787	-0.69262695
1443279565198702405	1.3531189	0.655365	-0.631546
1443279565203768323	1.2859192	0.58573914	-0.5765686
1443279565209292004	1.2052917	0.4806671	-0.5240326
1443279565213991711	1.1161041	0.331604	-0.46905518
1443279565218844006	1.0146942	0.14468384	-0.39941406
1443279565224581311	0.8986511	-0.06665039	-0.30412292
1443279565228914807	0.7605896	-0.28167725	-0.1807251
1443279565232302258	0.7605896	-0.47225952	-0.1807251
1443279565239016125	0.6066437	-0.47225952	-0.03656006
1443279565244051526	0.44415283	-0.60787964	0.11979675
1443279565249239514	0.29022217	-0.66041565	0.27618408
1443279565254091809	0.15704346	-0.61764526	0.42645264
1443279565259157727	0.053207397	-0.48936462	0.56817627
1443279565264193127	-0.031066895	-0.29388428	0.69888306
1443279565269381116	-0.10926819	-0.049545288	0.81495667
1443279565274843762	-0.19233704	0.22532654	0.90660095
1443279565279299328	-0.2778778	0.5026398	0.9664612
1443279565282656262	-0.35850525	0.7518921	0.98843384
1443279565289522717	-0.4269104	0.9510193	0.9799042
1443279565295137951	-0.48312378	1.0915375	0.9493408
1443279565299440930	-0.5185394	1.175827	0.9102478
1443279565305117199	-0.5197754	1.2039185	0.86260986
1443279565310183117	-0.4745636	1.1746063	0.80641174
1443279565315340588	-0.37805176	1.0866394	0.73309326
1443279565319582532	-0.2436676	0.94737244	0.6329346
1443279565324617932	-0.09338379	0.77386475	0.4960785
1443279565329805920	0.055648804	0.58940125	0.32260132
1443279565333010266	0.055648804	0.41957092	0.32260132
1443279565339876721	0.19004822	0.41957092	0.121017456
1443279565344667981	0.31098938	0.27786255	-0.09397888
1443279565349917004	0.42462158	0.15934753	-0.30290222
1443279565354830334	0.52845764	0.05307007	-0.49105835
1443279565360689709	0.6042023	-0.05076599	-0.64741516
1443279565364901135	0.6151886	-0.15829468	-0.75982666
1443279565370058606	0.52723694	-0.27923584	-0.8135834
1443279565375460217	0.320755	-0.42340088	-0.7915802
1443279565380007336	0.005569458	-0.5907593	-0.68530273
1443279565383333752	-0.37193298	-0.7569275	-0.4922638
1443279565390230725	-0.73846436	-0.881546	-0.22592163
1443279565395083020	-1.0072479	-0.94018555	0.08558655
1443279565400301526	-1.1086426	-0.96461487	0.3959198
1443279565405153821	-1.0157776	-1.0318146	0.65734863
1443279565410280774	-0.746994	-1.2114105	0.83206177
1443279565415255139	-0.34994507	-1.5082855	0.90904236
1443279565420412610	0.099624634	-1.8491364	0.891922
1443279565425936291	0.52845764	-2.1301575	0.78930664
1443279565430483410	0.87908936	-2.27919	0.5962677
1443279565433687756	0.87908936	-2.2963104	0.5962677
1443279565440584729	1.1112213	-2.2963104	0.30915833
1443279565445467541	1.2114105	-2.2217712	-0.05732727
1443279565450655530	1.1967316	-2.087387	-0.45561218
1443279565455538342	1.1161041	-1.899231	-0.8209076
1443279565461611340	1.0403595	-1.6695557	-1.094574
1443279565465578625	1.0183716	-1.4533081	-1.2619629
1443279565471163342	1.0538025	-1.3286896	-1.3389282
1443279565476473401	1.1038971	-1.3494568	-1.3548126
1443279565481386731	1.1148834	-1.5095062	-1.330368
1443279565484041760	1.0647888	-1.7391968	-1.2876129
1443279565491091321	0.9707184	-1.943222	-1.2460785
1443279565495821545	0.87908936	-2.0372925	-1.2216339
1443279565500826428	0.82655334	-1.9896393	-1.2118683
1443279565506014416	0.82289124	-1.8320465	-1.1947479
1443279565511721203	0.84609985	-1.6365662	-1.14711
1443279565515963147	0.86564636	-1.4691925	-1.0615997
1443279565520998547	0.8668823	-1.3616638	-0.94429016
1443279565526522229	0.8509979	-1.3225708	-0.8160248
1443279565531038830	0.8509979	-1.343338	-0.69262695
1443279565534426282	0.8351135	-1.343338	-0.69262695
1443279565541140149	0.84121704	-1.410553	-0.58755493
1443279565546145032	0.88153076	-1.4985199	-0.5057068
1443279565551180432	0.95606995	-1.5803528	-0.45072937
1443279565556398938	1.0489044	-1.6378021	-0.42140198
1443279565562197278	1.1405487	-1.667099	-0.41773987
1443279565566439221	1.2162933	-1.6744537	-0.43606567
1443279565571322033	1.2688293	-1.668335	-0.47517395
1443279565577456067	1.2993622	-1.6390076	-0.53015137
1443279565581423352	1.3103638	-1.5779114	-0.592453
1443279565584749768	1.3067017	-1.4814148	-0.65597534
1443279565591646741	1.2908173	-1.3555756	-0.71339417
1443279565596499035	1.2700348	-1.2150726	-0.76472473
1443279565601717541	1.2443848	-1.0819092	-0.8074646
1443279565606600354	1.2114105	-0.97927856	-0.8404541
1443279565611635754	1.1686401	-0.9194031	-0.8685608
1443279565616671155	1.1209869	-0.908432	-0.8905487
1443279565621859143	1.0745697	-0.9316406	-0.9088745
1443279565627871106	1.0318146	-0.9694977	-0.92596436
1443279565631746838	1.0318146	-1.0061646	-0.92596436
1443279565635256360	0.9914856	-1.0061646	-0.9382019
1443279565642000744	0.9487152	-1.0354767	-0.9430847
1443279565647402356	0.90597534	-1.0660248	-0.9357605
1443279565652102063	0.86442566	-1.1112366	-0.91864014
1443279565657137463	0.82533264	-1.166214	-0.9015503
1443279565662050793	0.78868103	-1.2150726	-0.8929901
1443279565667147229	0.7532654	-1.2444	-0.8966675
1443279565672030041	0.7190552	-1.2505035	-0.9137573
1443279565677828381	0.683609	-1.2407227	-0.94184875
1443279565682283948	0.64819336	-1.2199554	-0.97605896
1443279565685488293	0.6151886	-1.190628	-1.0115051
1443279565692324231	0.58587646	-1.152771	-1.0481567
1443279565697207043	0.56144714	-1.1063232	-1.0848083
1443279565702395032	0.5406647	-1.0574646	-1.1177979
1443279565707308362	0.518692	-1.0098267	-1.1422119
1443279565712984631	0.4979248	-0.96461487	-1.1568909
1443279565717348645	0.48080444	-0.9267578	-1.1617737
1443279565722567151	0.47470093	-0.90231323	-1.1593323
1443279565727907727	0.479599	-0.8925476	-1.1507721
1443279565732637951	0.479599	-0.89375305	-1.1507721
1443279565735720227	0.49668884	-0.89375305	-1.1373291
1443279565742708752	0.51623535	-0.89619446	-1.1214447
1443279565747591565	0.53700256	-0.894989	-1.1055756
1443279565752749035	0.5577698	-0.8901062	-1.0921326
1443279565757662366	0.5748749	-0.8851929	-1.082367
1443279565762667248	0.58465576	-0.88275146	-1.0750275
1443279565767733166	0.5883179	-0.881546	-1.0750275
1443279565772890637	0.58587646	-0.87786865	-1.0835876
1443279565778261731	0.57977295	-0.87298584	-1.099472
1443279565782930920	0.56877136	-0.8656616	-1.1239014
1443279565786165783	0.55410767	-0.85466003	-1.1556549
1443279565793062756	0.53822327	-0.8351135	-1.1971893
1443279565797915051	0.53089905	-0.7984619	-1.2460785
1443279565803011487	0.53700256	-0.7434845	-1.2961731
1443279565807985852	0.55288696	-0.6726227	-1.343811
1443279565814089367	0.57733154	-0.59443665	-1.3841248
1443279565818087170	0.6042023	-0.5223541	-1.4171143
1443279565823549817	0.62742615	-0.47103882	-1.4403229
1443279565828951428	0.6420746	-0.4478302	-1.4476471
1443279565833895276	0.6408539	-0.4490509	-1.4342041
1443279565836580823	0.6408539	-0.46981812	-1.4342041
1443279565843416760	0.6151886	-0.46981812	-1.3975525
1443279565848269055	0.56632996	-0.5040283	-1.3413696
1443279565853334973	0.49913025	-0.54556274	-1.2717285
1443279565858522961	0.42582703	-0.58343506	-1.1959839
1443279565863924573	0.3525238	-0.6115265	-1.1202393
1443279565868593762	0.28778076	-0.6249695	-1.0432739
1443279565873446057	0.23034668	-0.6225281	-0.9614105
1443279565878511975	0.18392944	-0.6042023	-0.8722229
1443279565883577893	0.14727783	-0.57733154	-0.7805939
1443279565887056897	0.11672974	-0.5480194	-0.69262695
1443279565893648694	0.09107971	-0.5162506	-0.6132202
1443279565898653576	0.06663513	-0.47714233	-0.5460205
1443279565903719494	0.0385437	-0.4356079	-0.4947052
1443279565908846448	0.005569458	-0.39530945	-0.45561218
1443279565914766858	-0.024978638	-0.36354065	-0.42384338
1443279565918917248	-0.040863037	-0.34275818	-0.39331055
1443279565923861096	-0.040863037	-0.3329773	-0.36276245
1443279565928865979	-0.03842163	-0.3329773	-0.36276245
1443279565933901379	-0.020095825	-0.3305359	-0.3322296
1443279565937227795	0.0067749023	-0.33421326	-0.30534363
1443279565944124768	0.032424927	-0.34031677	-0.282135
1443279565948977063	0.04710388	-0.35009766	-0.26257324
1443279565954042981	0.044662476	-0.3623047	-0.2454834
1443279565959230969	0.023895264	-0.3781891	-0.22348022
1443279565964724133	-0.011550903	-0.39163208	-0.19050598
1443279565969332287	-0.060394287	-0.39530945	-0.14163208
1443279565974184582	-0.120269775	-0.37942505	-0.07809448
1443279565980471203	-0.19113159	-0.3378601	-0.001159668
1443279565984224866	-0.26687622	-0.26701355	0.08558655
1443279565987764905	-0.34872437	-0.17294312	0.18455505
1443279565994448254	-0.43423462	-0.060546875	0.2993927
1443279566000032971	-0.5222168	0.05795288	0.4325714
1443279566004549573	-0.61138916	0.16546631	0.58406067
1443279566009432385	-0.7054596	0.25221252	0.7477722
1443279566014467785	-0.8117676	0.31451416	0.91148376
1443279566019594739	-0.93515015	0.36216736	1.0580902
1443279566024691174	-0.93515015	0.4085846	1.1802673
1443279566030153821	-1.250351	0.4085846	1.2755432
1443279566034761975	-1.250351	0.52464294	1.2755432
1443279566038942883	-1.4372711	0.52464294	1.3574066
1443279566044802258	-1.6351929	0.58940125	1.4429321
1443279566049715588	-1.8294525	0.6492615	1.5382233
1443279566054903576	-2.0090485	0.6956787	1.6432953
1443279566059725354	-2.1641998	0.7298889	1.7434692
1443279566064855113	-2.2949371	0.75798035	1.8314362
1443279566069890513	-2.3987732	0.7958679	1.8998413
1443279566075078502	-2.4733124	0.85206604	1.9450531
1443279566080480113	-2.518509	0.92414856	1.9658203
1443279566085149302	-2.5392761	1.0072327	1.9646149
1443279566088231578	-2.5392761	1.0927429	1.9646149
1443279566095189586	-2.5380554	1.0927429	1.9084015
1443279566100041880	-2.509964	1.2381287	1.8619843
1443279566105260386	-2.4513092	1.2772217	1.8008881
1443279566110112681	-2.3572388	1.2723389	1.7239227
1443279566115941539	-2.2338562	1.201477	1.6249695
1443279566120214000	-2.2338562	1.0536499	1.6249695
1443279566125401988	-2.0957947	1.0536499	1.5101166
1443279566131108775	-1.8404541	0.8410797	1.293869
1443279566135320201	-1.8404541	0.33528137	1.293869
1443279566138646617	-1.7475891	0.33528137	1.229126
1443279566145543589	-1.6779633	0.10926819	1.1961517
1443279566150395884	-1.6242065	-0.049545288	1.1875916
1443279566155461802	-1.5838928	-0.113082886	1.1875916
1443279566160497203	-1.560669	-0.0874176	1.1912384
1443279566167089000	-1.552124	-0.01777649	1.2095947
1443279566170537486	-1.5460205	0.048187256	1.2621155
1443279566175786509	-1.5276947	0.0970459	1.3635101
1443279566181584849	-1.5008087	0.13491821	1.5089111
1443279566185613170	-1.4812775	0.16423035	1.6677399
1443279566189153209	-1.4812775	0.16668701	1.6677399
1443279566195714488	-1.4898071	0.16668701	1.8778687
1443279566200749888	-1.5008087	0.07017517	1.8900757
1443279566205846324	-1.4983673	0.012771606	1.849762
1443279566211003795	-1.4727173	-0.009231567	1.7801208
1443279566216405406	-1.4226227	0.023757935	1.6958313
1443279566221074595	-1.4226227	0.10682678	1.6958313
1443279566225926890	-1.3493195	0.10682678	1.6066437
1443279566230992808	-1.2613525	0.21676636	1.5162354
1443279566236028209	-1.1734009	0.32795715	1.434372
1443279566239507213	-1.0964203	0.41957092	1.3745117
1443279566246068492	-1.0341034	0.49287415	1.3427429
1443279566251134410	-0.9840088	0.56373596	1.3378601
1443279566256169810	-0.94003296	0.64559937	1.3464203
1443279566261327281	-0.89727783	0.74212646	1.3610687
1443279566266728892	-0.8569641	0.84962463	1.3720703
1443279566271428599	-0.8166504	0.9669037	1.3793945
1443279566276280894	-0.77267456	1.0866394	1.3830719
1443279566282018199	-0.7262268	1.2039185	1.3806305
1443279566286382213	-0.67858887	1.3102264	1.3732758
1443279566289739146	-0.67858887	1.3969574	1.3732758
1443279566296453013	-0.60284424	1.3969574	1.3500671
1443279566301396861	-0.56863403	1.5057068	1.3366394
1443279566306645884	-0.529541	1.5350037	1.320755
1443279566311559214	-0.48188782	1.5484467	1.2963257
1443279566316533580	-0.48188782	1.5460052	1.2963257
1443279566322728648	-0.36827087	1.5460052	1.2328033
1443279566326665416	-0.36827087	1.5032349	1.2328033
1443279566332677379	-0.23631287	1.5032349	1.137497
1443279566336858287	-0.23631287	1.4409332	1.137497
1443279566340062632	-0.15324402	1.4409332	1.0764008
1443279566346929088	-0.056732178	1.3993988	1.0092163
1443279566351903453	0.048309326	1.3493195	0.94325256
1443279566356999888	0.15583801	1.2955475	0.878479
1443279566361882701	0.25967407	1.2442474	0.81373596
1443279566366948619	0.36108398	1.1965942	0.74409485
1443279566371984019	0.4685974	1.136734	0.6695862
1443279566377172007	0.58221436	1.0548859	0.5901642
1443279566382543101	0.6994934	0.9510193	0.5070801
1443279566387242808	0.81188965	0.83740234	0.42645264
1443279566391179576	0.91574097	0.7360077	0.34336853
1443279566397283091	1.0110474	0.6529236	0.2566223
1443279566402867808	1.0953369	0.58818054	0.16499329
1443279566407231822	1.1723175	0.53564453	0.07093811
1443279566412236705	1.1723175	0.49775696	-0.019470215
1443279566417821422	1.304245	0.47454834	-0.107421875
1443279566422338023	1.304245	0.4647827	-0.107421875
1443279566427342906	1.3567963	0.4647827	-0.19415283
1443279566432866588	1.3995361	0.46600342	-0.282135
1443279566437596812	1.4349823	0.4733429	-0.37254333
1443279566440679088	1.4655151	0.48554993	-0.4629364
1443279566447667613	1.4887238	0.5014343	-0.5484772
1443279566452550425	1.4997253	0.5283203	-0.6278839
1443279566457738414	1.4887238	0.56985474	-0.69750977
1443279566462621226	1.4508667	0.6345978	-0.75737
1443279566468450084	1.3812103	0.7286835	-0.8025818
1443279566472692027	1.2834778	0.8545227	-0.8282471
1443279566477880015	1.1588745	1.0096741	-0.8343506
1443279566483342662	1.0146942	1.1855927	-0.8221283
1443279566487950816	0.86564636	1.3639679	-0.79525757
1443279566491124644	0.86564636	1.5191193	-0.79525757
1443279566497807994	0.605423	1.5191193	-0.70606995
1443279566502843394	0.51623535	1.6071014	-0.6413269
1443279566508946910	0.45391846	1.484909	-0.55336
1443279566513127818	0.45391846	1.2576904	-0.4287262
1443279566518651500	0.34275818	0.9717865	-0.2613678
1443279566523015513	0.34275818	0.69447327	-0.2613678
1443279566528081431	0.25601196	0.69447327	-0.06100464
1443279566534215464	0.15093994	0.48310852	0.14910889
1443279566538091197	0.04586792	0.3743744	0.350708
1443279566541661754	-0.039627075	0.36827087	0.53518677
1443279566548131480	-0.10072327	0.44277954	0.7037964
1443279566553258433	-0.1471405	0.56617737	0.85894775
1443279566558263316	-0.19233704	0.7127991	0.99823
1443279566563298716	-0.2436676	0.85816956	1.1130524
1443279566569127574	-0.2962036	0.9766693	1.1997986
1443279566573552623	-0.34017944	1.0548859	1.2608948
1443279566578404918	-0.37193298	1.0915375	1.2999878
1443279566583440318	-0.3890381	1.0915375	1.320755
1443279566588506236	-0.38415527	1.0573273	1.3231964
1443279566591863170	-0.38415527	0.9876709	1.3231964
1443279566598546519	-0.28520203	0.9876709	1.254776
1443279566603612437	-0.18623352	0.75798035	1.1704712
1443279566608647838	-0.18623352	0.62605286	1.0409851
1443279566613805308	-0.064071655	0.62605286	1.0409851
1443279566619206920	0.067871094	0.50387573	0.6365814
1443279566623876109	0.19369507	0.4073639	0.6365814
1443279566628789439	0.30854797	0.34016418	0.37635803
1443279566633855357	0.4185028	0.30107117	0.10391235
1443279566638829722	0.53211975	0.27418518	-0.15873718
1443279566642369761	0.644516	0.24241638	-0.39453125
1443279566648931041	0.73249817	0.20332336	-0.5973358
1443279566653966441	0.75691223	0.15690613	-0.76348877
1443279566659154429	0.6921692	0.09338379	-0.88442993
1443279566664159312	0.52967834	-0.011672974	-0.9479675
1443279566669744029	0.28044128	-0.1815033	-0.9406433
1443279566674962535	-0.03718567	-0.40263367	-0.8465729
1443279566679296031	-0.38415527	-0.62132263	-0.6498718
1443279566684636607	-0.694458	-0.776474	-0.35299683
1443279566689397349	-0.8936157	-0.85710144	0.017166138
1443279566692571177	-0.8936157	-0.9291992	0.017166138
1443279566699468150	-0.8019867	-0.9291992	0.7111206
1443279566704320445	-0.5319824	-1.3787842	0.9102478
1443279566709508433	-0.5319824	-1.7575226	0.98599243
1443279566714360728	-0.1642456	-2.1105957	0.98599243
1443279566719426646	0.26211548	-2.1105957	0.9554596
1443279566724431529	0.69584656	-2.3354034	0.8332825
1443279566729650035	1.0721283	-2.402588	0.6316986
1443279566734990611	1.3225708	-2.3549347	0.36047363
1443279566739720836	1.4142151	-2.2474213	0.041610718
1443279566743413463	1.3616791	-2.0947113	-0.29190063
1443279566749822154	1.2223969	-1.8772583	-0.5985565
1443279566754674449	1.0672302	-1.5913544	-0.8538971
1443279566759831920	0.9499512	-1.2883759	-1.0469208
1443279566764745250	0.8827667	-1.0574646	-1.1886597
1443279566769811168	0.84365845	-0.97561646	-1.2900543
1443279566774846568	0.80578613	-1.0574646	-1.3609161
1443279566780004039	0.75691223	-1.2505035	-1.4085541
1443279566785375132	0.710495	-1.4667511	-1.4440002
1443279566790105357	0.683609	-1.6219177	-1.4818573
1443279566793187632	0.683609	-1.6732178	-1.4818573
1443279566800145640	0.6872864	-1.6732178	-1.5405121
1443279566805028453	0.6872864	-1.4924011	-1.509964
1443279566810216441	0.6884918	-1.4924011	-1.509964
1443279566815221324	0.6750488	-1.3103638	-1.40979
1443279566820958629	0.6518402	-1.1075592	-1.0542603
1443279566825170054	0.6335144	-0.93408203	-1.0542603
1443279566830358043	0.6396332	-0.83877563	-0.8575592
1443279566835759654	0.683609	-0.842453	-0.67674255
1443279566840306773	0.7703552	-0.93040466	-0.526474
1443279566843633189	0.88397217	-1.0672302	-0.4104004
1443279566851689830	1.0049286	-1.2089539	-0.33711243
1443279566855290904	1.1136627	-1.3213654	-0.30656433
1443279566861119761	1.1967316	-1.384903	-0.3163452
1443279566865422740	1.2480621	-1.3934326	-0.35421753
1443279566870915904	1.2737122	-1.3494568	-0.4104004
1443279566875676646	1.2798157	-1.27005	-0.48005676
1443279566880712047	1.2712708	-1.1698608	-0.5594635
1443279566885625377	1.2431641	-1.0623474	-0.64741516
1443279566890630259	1.1967316	-0.95240784	-0.7341614
1443279566894170298	1.1967316	-0.84121704	-0.7341614
1443279566900701060	1.0684509	-0.84121704	-0.8685608
1443279566905736461	1.0684509	-0.66041565	-0.8685608
1443279566910771861	1.0049286	-0.66041565	-0.91619873
1443279566915959849	0.9487152	-0.61276245	-0.9540863
1443279566921361461	0.902298	-0.6005554	-0.9858551
1443279566926030650	0.85710144	-0.62008667	-1.0115051
1443279566930882945	0.80700684	-0.66773987	-1.028595
1443279566935979380	0.7532654	-0.7361603	-1.0298309
1443279566940984263	0.70072937	-0.8106842	-1.0176086
1443279566944341197	0.6591644	-0.88031006	-0.9956207
1443279566951055064	0.6286316	-0.9377289	-0.9748535
1443279566956059947	0.6042023	-0.97805786	-0.9626465
1443279566961125865	0.58099365	-1.0000458	-0.9626465
1443279566966283336	0.5577698	-1.0024872	-0.97361755
1443279566971715464	0.53456116	-0.9841614	-0.9907379
1443279566976384654	0.51745605	-0.94628906	-1.0102692
1443279566981236949	0.5076904	-0.89375305	-1.0298309
1443279566986302867	0.50891113	-0.8375702	-1.0493774
1443279566991307750	0.518692	-0.7862396	-1.0664825
1443279566994695201	0.518692	-0.7483673	-1.0664825
1443279567001561656	0.55410767	-0.7483673	-1.0933533
1443279567006444468	0.55410767	-0.69462585	-1.0933533
1443279567011632457	0.5736542	-0.69462585	-1.099472
1443279567018071666	0.6225281	-0.6750641	-1.0811462
1443279567022313609	0.6225281	-0.67874146	-1.0811462
1443279567027440562	0.64575195	-0.67874146	-1.0579224
1443279567031774058	0.6591644	-0.70072937	-1.0371552
1443279567036748423	0.6591644	-0.7202759	-1.0261536
1443279567041875377	0.6469574	-0.72883606	-1.0273895
1443279567045018687	0.631073	-0.7276001	-1.0408325
1443279567051854625	0.61886597	-0.723938	-1.0628052
1443279567056767955	0.6078644	-0.71539307	-1.0896912
1443279567061955943	0.59931946	-0.6982727	-1.1202393
1443279567066838755	0.5944214	-0.66285706	-1.1495667
1443279567071813121	0.59809875	-0.6139679	-1.1776581
1443279567076909556	0.61154175	-0.56022644	-1.2057495
1443279567082067027	0.62986755	-0.5064697	-1.2338562
1443279567087438121	0.6493988	-0.45761108	-1.2607269
1443279567092137828	0.66651917	-0.41116333	-1.2827301
1443279567096044078	0.66651917	-0.3720703	-1.2827301
1443279567102208629	0.683609	-0.3720703	-1.2949371
1443279567107121959	0.7019348	-0.3488617	-1.29982
1443279567112309947	0.71661377	-0.3513031	-1.2973785
1443279567117192759	0.7214966	-0.37942505	-1.2851715
1443279567122167125	0.710495	-0.42460632	-1.2644043
1443279567127263560	0.683609	-0.47103882	-1.2363129
1443279567132329478	0.6396332	-0.5015869	-1.2045441
1443279567138280406	0.58343506	-0.51257324	-1.1739807
1443279567142552867	0.51379395	-0.5040283	-1.1422119
1443279567145757213	0.43559265	-0.4783783	-1.1067963
1443279567152593150	0.3549652	-0.43684387	-1.0652618
1443279567157506480	0.27799988	-0.38430786	-1.0163879
1443279567162694468	0.21325684	-0.33177185	-0.9589691
1443279567167546763	0.16192627	-0.29144287	-0.889328
1443279567173223033	0.120391846	-0.26701355	-0.80870056
1443279567177831187	0.0874176	-0.26091003	-0.7158356
1443279567182714000	0.06175232	-0.26579285	-0.6168823
1443279567187596812	0.044662476	-0.27555847	-0.5191498
1443279567193913951	0.036102295	-0.28411865	-0.42752075
1443279567203954234	0.03488159	-0.29144287	-0.2638092
1443279567207738414	0.03488159	-0.29512024	-0.2638092
1443279567213567271	0.039764404	-0.29512024	-0.19415283
1443279567217931285	0.05076599	-0.29144287	-0.1306305
1443279567223119273	0.0690918	-0.28533936	-0.07321167
1443279567228124156	0.09352112	-0.27923584	-0.023117065
1443279567233068004	0.120391846	-0.27433777	0.0184021
1443279567238072886	0.13871765	-0.26823425	0.04283142
1443279567243108287	0.14727783	-0.25845337	0.051376343
1443279567246465220	0.14727783	-0.24990845	0.045272827
1443279567253179088	0.14239502	-0.25112915	0.035491943
1443279567258183970	0.13139343	-0.26457214	0.026947021
1443279567263280406	0.10940552	-0.28900146	0.022064209
1443279567268376841	0.072753906	-0.32199097	0.015960693
1443279567273808970	0.027542114	-0.3623047	0.0049591064
1443279567278356089	-0.028625488	-0.4038391	-0.007247925
1443279567283360972	-0.099487305	-0.43440247	-0.009689331
1443279567289250865	-0.18745422	-0.4356079	0.0037231445
1443279567293462291	-0.29252625	-0.4013977	0.036727905
1443279567296971812	-0.29252625	-0.34031677	0.036727905
1443279567303502574	-0.411026	-0.34031677	0.08680725
1443279567308537974	-0.53930664	-0.27311707	0.15400696
1443279567313573375	-0.67492676	-0.21691895	0.23953247
1443279567318639293	-0.8080902	-0.17662048	0.34336853
1443279567324346080	-0.9363861	-0.1497345	0.46922302
1443279567328832164	-1.0561066	-0.12896729	0.6145935
1443279567333745494	-1.1721649	-0.1020813	0.77098083
1443279567338780894	-1.2931213	-0.056869507	0.9261322
1443279567343816295	-1.4250641	0.018859863	1.0690765
1443279567347173228	-1.5692291	0.1324768	1.2010345
1443279567354009166	-1.7182922	0.2815094	1.3329773
1443279567359960093	-1.8636627	0.44277954	1.4722595
1443279567364110484	-1.9980469	0.5832977	1.6225281
1443279567370214000	-2.120224	0.67370605	1.7776794
1443279567374822154	-2.2277374	0.7054596	1.9267273
1443279567379613414	-2.3181458	0.6981201	2.0611115
1443279567384252086	-2.3853302	0.6749115	2.1723022
1443279567389104380	-2.4207764	0.65782166	2.2529297
1443279567394170298	-2.4207764	0.6541443	2.2529297
1443279567397679820	-2.4244232	0.6541443	2.2993622
1443279567404241099	-2.4060974	0.668808	2.3115692
1443279567410161509	-2.3816833	0.7017975	2.243164
1443279567414495005	-2.3719025	0.7457733	2.243164
1443279567419347300	-2.3853302	0.78730774	2.1686249
1443279567424443736	-2.4097748	0.8129883	2.0660095
1443279567429418101	-2.4146576	0.8093109	1.9316101
1443279567434575572	-2.3804474	0.7702179	1.7630157
1443279567439977183	-2.303482	0.69203186	1.5724335
1443279567444707408	-2.19841	0.58206177	1.3855133
1443279567447789683	-2.0799103	0.4574585	1.2315674
1443279567454747691	-1.9528656	0.34140015	1.124054
1443279567459630504	-1.8184662	0.2472992	1.0641937
1443279567464787974	-1.684082	0.16790771	1.04953
1443279567469701304	-1.5570068	0.099487305	1.0800781
1443279567474736705	-1.4482727	0.04574585	1.1533813
1443279567479772105	-1.3676453	0.013977051	1.2608948
1443279567484990611	-1.3224487	0.0017700195	1.3879547
1443279567490758433	-1.3090057	-0.005569458	1.5235596
1443279567495030894	-1.3090057	-0.021438599	1.5235596
1443279567498113170	-1.3151093	-0.021438599	1.6530609
1443279567505101695	-1.3273315	-0.051986694	1.7532501
1443279567509984507	-1.3358765	-0.09719849	1.8057861
1443279567515203013	-1.3309937	-0.14729309	1.8070068
1443279567520024791	-1.3065643	-0.1815033	1.7740173
1443279567525151744	-1.2601471	-0.17170715	1.722702
1443279567530126109	-1.2026978	-0.103302	1.6603851
1443279567536656871	-1.1416321	0.012771606	1.5895233
1443279567540685191	-1.0866547	0.14346313	1.5150146
1443279567546147838	-1.03656	0.26441956	1.4453735
1443279567555852427	-0.9437103	0.47210693	1.3586273
1443279567560246959	-0.90093994	0.5808563	1.3488617
1443279567565434947	-0.86428833	0.6981201	1.3561859
1443279567570531382	-0.8361969	0.8251953	1.3696289
1443279567575994029	-0.8154297	0.95469666	1.3781738
1443279567580480113	-0.7922058	1.0756531	1.3769531
1443279567585515513	-0.761673	1.1721497	1.3696289
1443279567591374888	-0.72013855	1.2369232	1.3586273
1443279567595586314	-0.72013855	1.267456	1.3586273
1443279567599095836	-0.67004395	1.267456	1.3415222
1443279567605626597	-0.61628723	1.2723389	1.3158722
1443279567610723033	-0.5637512	1.2625732	1.281662
1443279567615727916	-0.5112152	1.2515717	1.241333
1443279567620763316	-0.4586792	1.2454529	1.1949158
1443279567626409068	-0.4049225	1.2466888	1.1460571
1443279567630956187	-0.35238647	1.2491302	1.0959625
1443279567635869517	-0.30229187	1.2491302	1.0434265
1443279567640904918	-0.24855042	1.2442474	0.9896698
1443279567645940318	-0.18501282	1.2332458	0.932251
1443279567649449839	-0.10926819	1.21492	0.87239075
1443279567656163707	-0.023742676	1.1917114	0.81129456
1443279567661046519	0.06663513	1.1685028	0.7477722
1443279567666081920	0.16192627	1.1513824	0.6793518
1443279567671086802	0.26455688	1.1355133	0.6048279
1443279567676824107	0.3794098	1.1123047	0.52420044
1443279567681340709	0.505249	1.0744171	0.44110107
1443279567686193004	0.505249	1.0243225	0.35925293
1443279567691289439	0.63475037	0.9717865	0.35925293
1443279567696294322	0.76179504	0.9717865	0.27494812
1443279567699620738	0.87908936	0.92170715	0.18455505
1443279567706517711	0.9853821	0.87039185	0.08924866
1443279567712071910	1.0806732	0.8129883	-0.009689331
1443279567716405406	1.1661987	0.7470093	-0.11230469
1443279567721990123	1.2431641	0.67614746	-0.216156
1443279567726995005	1.3128052	0.61016846	-0.32122803
1443279567731786265	1.3726654	0.55397034	-0.42384338
1443279567736730113	1.4227448	0.51364136	-0.5228119
1443279567741551890	1.4655151	0.49043274	-0.6168823
1443279567746800914	1.5034027	0.48431396	-0.70606995
1443279567750005259	1.5375977	0.49531555	-0.79403687
1443279567756810679	1.5644836	0.52708435	-0.8807831
1443279567761632457	1.5742493	0.58573914	-0.9626465
1443279567766942515	1.5571442	0.6773529	-1.0359344
1443279567771855845	1.5070496	0.8105316	-1.094574
1443279567776860728	1.4215393	0.98646545	-1.1361237
1443279567781865611	1.3005829	1.197815	-1.1629791
1443279567787084117	1.3005829	1.4250488	-1.1739807
1443279567792882457	0.9853821	1.6400757	-1.1642151
1443279567797154918	0.9853821	1.8074646	-1.1642151
1443279567800359263	0.8192291	1.8074646	-1.1275635
1443279567807256236	0.67996216	1.8856506	-1.0505981
1443279567812108531	0.58587646	1.8404388	-0.92596436
1443279567817296519	0.5406647	1.6535187	-0.7549286
1443279567822179332	0.51501465	1.3480835	-0.5435791
1443279567827214732	0.46980286	0.99134827	-0.30534363
1443279567832250132	0.3794098	0.6675873	-0.05368042
1443279567837438121	0.24746704	0.4476776	0.19555664
1443279567843144908	0.103302	0.35238647	0.42401123
1443279567847508922	-0.024978638	0.36705017	0.6194916
1443279567850713267	-0.024978638	0.46110535	0.78074646
1443279567857610240	-0.21554565	0.46110535	0.9163666
1443279567862462535	-0.29740906	0.7836609	1.0251007
1443279567867650523	-0.38293457	0.9742279	1.0996246
1443279567872533336	-0.46723938	1.1562805	1.1338196
1443279567878545298	-0.542984	1.3138733	1.137497
1443279567882573619	-0.542984	1.4311676	1.124054
1443279567888158336	-0.61994934	1.4311676	1.1057281
1443279567893529429	-0.60040283	1.498352	1.0837402
1443279567898351207	-0.60040283	1.4323883	1.0837402
1443279567901067271	-0.5381012	1.4323883	1.0470886
1443279567908910289	-0.43667603	1.302887	0.9786682
1443279567912786021	-0.30841064	1.123291	0.86383057
1443279567917851939	-0.17156982	0.92048645	0.69155884
1443279567923039927	-0.044509888	0.7274475	0.47042847
1443279567928502574	0.06663513	0.57351685	0.22485352
1443279567933080211	0.16072083	0.46722412	-0.01335144
1443279567938024058	0.23646545	0.3963623	-0.216156
1443279567943028941	0.28411865	0.34140015	-0.37130737
1443279567948064341	0.27799988	0.29006958	-0.4788208
1443279567951573863	0.27799988	0.24121094	-0.5386963
1443279567958135142	0.027542114	0.24121094	-0.552124
1443279567963170543	-0.2118988	0.10803223	-0.5179138
1443279567968175425	-0.4928894	-0.021438599	-0.43240356
1443279567973241343	-0.7812195	-0.20227051	-0.28945923
1443279567979070201	-1.0292206	-0.40507507	-0.100097656
1443279567983434214	-1.0292206	-0.60176086	0.10757446
1443279567988317027	-1.1709442	-0.60176086	0.10757446
1443279567993382945	-1.1611633	-0.78868103	0.29328918
1443279567998418345	-0.9998932	-0.99272156	0.42033386
1443279568001897349	-0.73846436	-1.2358398	0.4777527
1443279568008641734	-0.42814636	-1.5156097	0.47410583
1443279568013524547	-0.095825195	-1.8051605	0.42156982
1443279568018682017	0.25479126	-2.0678253	0.3177185
1443279568023595347	0.61398315	-2.2633057	0.1515503
1443279568029424205	0.93530273	-2.3598175	-0.079330444
1443279568033849254	1.1613159	-2.3414917	-0.34077454
1443279568038701548	1.2675934	-2.214447	-0.5802307
1443279568043828502	1.2822571	-2.0030823	-0.75737
1443279568048772349	1.2602692	-1.7453003	-0.8636627
1443279568052129283	1.2602692	-1.4985199	-0.8636627
1443279568058995738	1.1955261	-1.4985199	-0.9699707
1443279568064305797	1.1112213	-1.2517242	-1.002945
1443279568069066539	0.97195435	-1.2688293	-1.0212708
1443279568074742808	0.80944824	-1.3115997	-1.0310516
1443279568078984752	0.80944824	-1.3115997	-1.042038
1443279568084172740	0.6750488	-1.3115997	-1.042038
1443279568089208140	0.61398315	-1.2419586	-1.055481
1443279568094762339	0.62742615	-1.1185608	-1.0603638
1443279568099309459	0.684845	-0.9878235	-1.0383759
1443279568103581920	0.7483673	-0.88275146	-0.9834137
1443279568109349742	0.79356384	-0.80944824	-0.90519714
1443279568114110484	0.8192291	-0.763031	-0.8123627
1443279568119420543	0.83877563	-0.7398224	-0.7121887
1443279568124303355	0.86808777	-0.7483673	-0.6119995
1443279568129338755	0.92185974	-0.7935791	-0.5191498
1443279568134374156	1.0012665	-0.8656616	-0.44096375
1443279568139592662	1.0928955	-0.9511719	-0.38475037
1443279568145024791	1.1820831	-1.0256958	-0.35910034
1443279568149602427	1.252945	-1.0684662	-0.36886597
1443279568152806773	1.252945	-1.0647888	-0.36886597
1443279568159703746	1.3140259	-1.0647888	-0.4653778
1443279568164586558	1.3054657	-0.9291992	-0.5337982
1443279568169774547	1.2749329	-0.82289124	-0.6107788
1443279568174657359	1.2309418	-0.7141571	-0.69262695
1443279568179692759	1.2309418	-0.6115265	-0.69262695
1443279568184728160	1.1796417	-0.6115265	-0.77449036
1443279568189916148	1.1295471	-0.5211334	-0.8416748
1443279568195745005	1.0831146	-0.44049072	-0.9064331
1443279568199986949	1.0428009	-0.37330627	-0.9064331
1443279568203160777	1.0061493	-0.32809448	-0.91864014
1443279568210057750	0.9707184	-0.30976868	-0.93208313
1443279568214910045	0.93530273	-0.31588745	-0.9467621
1443279568219945445	0.89985657	-0.34521484	-0.95773315
1443279568225011363	0.86076355	-0.39283752	-0.96017456
1443279568230870738	0.8192291	-0.4502716	-0.96017456
1443279568235082164	0.7801361	-0.5076904	-0.9626465
1443279568240788951	0.7459259	-0.5529022	-0.9675293
1443279568245641246	0.7178192	-0.5871124	-0.97361755
1443279568250554576	0.6921692	-0.6139679	-0.97605896
1443279568253514781	0.6921692	-0.63352966	-0.97605896
1443279568260350718	0.6493988	-0.63352966	-0.97117615
1443279568265264048	0.63230896	-0.6481781	-0.9650879
1443279568270299449	0.61886597	-0.6432953	-0.95773315
1443279568275517955	0.60298157	-0.63108826	-0.9516449
1443279568280980601	0.58343506	-0.60787964	-0.9479675
1443279568285558238	0.58343506	-0.57489014	-0.9479675
1443279568290502086	0.56266785	-0.57489014	-0.9467621
1443279568296300425	0.54922485	-0.5382385	-0.9430847
1443279568300542369	0.54312134	-0.5040283	-0.93452454
1443279568303929820	0.54312134	-0.47470093	-0.9198761
1443279568310613170	0.54678345	-0.45393372	-0.8991089
1443279568315618052	0.55410767	-0.44293213	-0.8710022
1443279568320653453	0.56266785	-0.43684387	-0.8355713
1443279568325780406	0.57121277	-0.43196106	-0.797699
1443279568331578746	0.58099365	-0.4258423	-0.7622833
1443279568335912242	0.5895386	-0.4197235	-0.7366028
1443279568340764537	0.59931946	-0.41363525	-0.7231598
1443279568346776500	0.6090851	-0.41363525	-0.718277
1443279568350865855	0.6225281	-0.4172821	-0.72439575
1443279568354344859	0.6225281	-0.4258423	-0.72439575
1443279568361058726	0.6469574	-0.4258423	-0.76348877
1443279568365972056	0.6518402	-0.44537354	-0.79281616
1443279568371129527	0.6493988	-0.4514923	-0.8257904
1443279568376042857	0.6493988	-0.4502716	-0.8257904
1443279568381749644	0.6225281	-0.4502716	-0.8905487
1443279568386144175	0.6225281	-0.42704773	-0.8905487
1443279568391301646	0.6042023	-0.42704773	-0.92352295
1443279568397771373	0.5760956	-0.40872192	-0.98461914
1443279568401219859	0.5760956	-0.3879547	-0.98461914
1443279568404607310	0.56877136	-0.3879547	-1.0102692
1443279568411321177	0.56388855	-0.3940735	-1.0347137
1443279568416509166	0.56388855	-0.41363525	-1.0615997
1443279568421483531	0.56755066	-0.4490509	-1.0872498
1443279568426396861	0.5736542	-0.4979248	-1.108017
1443279568432103648	0.57855225	-0.55166626	-1.1190033
1443279568436498179	0.57733154	-0.6029968	-1.1202393
1443279568441625132	0.56755066	-0.6457367	-1.1165619
1443279568446996226	0.54800415	-0.67141724	-1.1128998
1443279568451695933	0.518692	-0.67630005	-1.1067963
1443279568455754771	0.518692	-0.65797424	-1.1067963
1443279568461766734	0.42338562	-0.65797424	-1.082367
1443279568466680064	0.35984802	-0.5687866	-1.0628052
1443279568471807017	0.35984802	-0.5028076	-1.0347137
1443279568476750865	0.29632568	-0.4307251	-1.0347137
1443279568482335582	0.23768616	-0.4307251	-0.9956207
1443279568486852183	0.18881226	-0.36354065	-0.9406433
1443279568491979136	0.15583801	-0.30854797	-0.8710022
1443279568497655406	0.1375122	-0.26579285	-0.79281616
1443279568501927867	0.13139343	-0.23158264	-0.71339417
1443279568505284800	0.1350708	-0.20835876	-0.63887024
1443279568512120738	0.14239502	-0.19859314	-0.5716858
1443279568517034068	0.15093994	-0.20347595	-0.51426697
1443279568522161021	0.15948486	-0.21447754	-0.46417236
1443279568527104869	0.17172241	-0.22914124	-0.42019653
1443279568532933726	0.18513489	-0.24136353	-0.37986755
1443279568537206187	0.19857788	-0.25479126	-0.34443665
1443279568542302623	0.20593262	-0.27067566	-0.31510925
1443279568547826304	0.21081543	-0.29022217	-0.29678345
1443279568552434459	0.21081543	-0.3170929	-0.28945923
1443279568555638804	0.21081543	-0.35498047	-0.28945923
1443279568562505259	0.19369507	-0.35498047	-0.29434204
1443279568567388072	0.17048645	-0.4649353	-0.2980194
1443279568573644175	0.13627625	-0.52723694	-0.30534363
1443279568577580943	0.13627625	-0.57733154	-0.30534363
1443279568583257213	0.0874176	-0.57733154	-0.32489014
1443279568587529673	0.020217896	-0.59809875	-0.32489014
1443279568592931285	-0.06163025	-0.57366943	-0.32244873
1443279568598424449	-0.14958191	-0.49546814	-0.29678345
1443279568602574839	-0.23754883	-0.37330627	-0.24424744
1443279568606114879	-0.32185364	-0.22303772	-0.16362
1443279568612706675	-0.39881897	-0.067871094	-0.054885864
1443279568617742076	-0.45991516	0.07382202	0.07948303
1443279568622807994	-0.5136566	0.18499756	0.23220825
1443279568627873912	-0.57595825	0.2607422	0.39224243
1443279568633611216	-0.66516113	0.2998352	0.542511
1443279568638005748	-0.7824402	0.3108368	0.67567444
1443279568642919078	-0.92414856	0.30963135	0.79296875
1443279568648656382	-1.0817566	0.31451416	0.9016876
1443279568652989879	-1.2515869	0.33528137	1.010437
1443279568656377330	-1.2515869	0.37193298	1.010437
1443279568663060679	-1.6058807	0.37193298	1.2498932
1443279568668004527	-1.6058807	0.4550171	1.2498932
1443279568673131480	-1.7720337	0.4550171	1.3806305
1443279568678288951	-1.9198608	0.48310852	1.513794
1443279568683934703	-2.0432587	0.5026398	1.6408539
1443279568688390269	-2.1434326	0.5124359	1.7544708
1443279568693303599	-2.2191772	0.51364136	1.8485413
1443279568698247447	-2.2753906	0.50875854	1.9206085
1443279568703343882	-2.3108215	0.5014343	1.9719391
1443279568706700816	-2.32547	0.49899292	2.00737
1443279568713536754	-2.3218079	0.50387573	2.0269165
1443279568718358531	-2.3010406	0.5209961	2.0305786
1443279568723577037	-2.2656097	0.55029297	2.0134735
1443279568728520884	-2.213089	0.59184265	1.9731598
1443279568734319224	-2.1397858	0.6370392	1.9059601
1443279568738652720	-2.0432587	0.6651459	1.8094482
1443279568743627086	-1.9345093	0.64315796	1.6823883
1443279568749608531	-1.8221283	0.5490875	1.5370026
1443279568753728404	-1.7170563	0.38781738	1.394043
1443279568757237925	-1.7170563	0.20822144	1.394043
1443279568763921275	-1.5399017	0.20822144	1.1814728
1443279568768895640	-1.5399017	0.027420044	1.1814728
1443279568773992076	-1.4763641	0.027420044	1.1203918
1443279568778783336	-1.4263	0.06893921	1.0837402
1443279568783910289	-1.3774109	0.15812683	1.0739594
1443279568789006724	-1.3212128	0.26441956	1.102066
1443279568794133677	-1.2564697	0.3804779	1.175354
1443279568799565806	-1.1990509	0.5014343	1.2865448
1443279568804234996	-1.1587219	0.61016846	1.4172821
1443279568808293834	-1.1342926	0.6700287	1.5443268
1443279568814275279	-1.1147461	0.66148376	1.6469421
1443279568819158091	-1.0927582	0.59306335	1.7214813
1443279568824376597	-1.058548	0.4916687	1.7691345
1443279568829289927	-1.0072479	0.3890381	1.7947845
1443279568834325328	-0.94003296	0.3108368	1.7996674
1443279568839330211	-0.86428833	0.26930237	1.7862244
1443279568844518199	-0.7836609	0.26441956	1.7569122
1443279568849889293	-0.70669556	0.28762817	1.7165985
1443279568854558482	-0.63949585	0.3291626	1.6750641
1443279568857671275	-0.63949585	0.38537598	1.6750641
1443279568864659800	-0.542984	0.38537598	1.6261749
1443279568869542613	-0.542984	0.54296875	1.6261749
1443279568874700084	-0.5136566	0.54296875	1.6249695
1443279568879613414	-0.49777222	0.64682007	1.6286163
1443279568884618297	-0.49412537	0.7628937	1.6249695
1443279568889684214	-0.49900818	0.88261414	1.6078491
1443279568894872203	-0.50753784	0.9962311	1.5846405
1443279568900212779	-0.517334	1.0976257	1.5589905
1443279568904973521	-0.5222168	1.1855927	1.5357819
