accelerometer_timestamp	accelerometer_x_data	accelerometer_y_data	accelerometer_z_data
1442567892306091646	0.6967163	9.223343	1.8852997
1442567892381622652	-5.335846	11.342499	-0.12548828
1442567892390014986	-4.5953674	10.346649	-0.20950317
1442567892398407320	-3.6038055	9.601944	-0.18670654
1442567892406799654	-2.7883453	9.111649	-0.29338074
1442567892415191988	-1.304657	8.448807	-0.06896973
1442567892423584322	0.21720886	7.7781677	0.36643982
1442567892431976656	1.453064	7.357544	1.1130676
1442567892440368990	1.7476807	7.1516113	1.3048401
1442567892448761323	1.9450684	6.9905243	1.4300232
1442567892457153657	1.7079163	7.3166046	1.2271271
1442567892465545991	1.1967163	7.9839935	0.82806396
1442567892473938325	0.3612976	8.457947	0.59091187
1442567892482330659	-0.38668823	8.7561035	0.7457886
1442567892490722993	-1.2321777	9.081451	0.8700104
1442567892499115327	-1.9685974	9.383636	0.72473145
1442567892507507661	-2.4408417	9.495789	0.5268402
1442567892515899995	-2.674759	9.443817	0.52342224
1442567892524292329	-2.7640839	9.353226	0.5452728
1442567892532684663	-2.4182587	8.993515	0.7067871
1442567892541076997	-1.9019928	8.675629	0.7642975
1442567892549469331	-1.4631805	8.539719	0.9078827
1442567892557861665	-1.1874542	8.563202	0.8645325
1442567892566253999	-0.90437317	8.610321	0.8343353
1442567892574646333	-0.55511475	8.803329	0.9450989
1442567892583038667	-0.43676758	8.91272	0.91574097
1442567892591431001	-0.47187805	8.959061	0.86987305
1442567892599823335	-0.5644226	8.988617	0.83903503
1442567892608215669	-0.7653198	8.971817	0.8139801
1442567892616608003	-0.935791	8.903244	0.8888855
1442567892625000337	-1.0063171	8.867752	0.9677582
1442567892633392671	-1.051651	8.844711	1.0116119
1442567892641785005	-1.0657959	8.817734	1.0668793
1442567892650177339	-1.1126709	8.75798	1.1344147
1442567892658569673	-1.1746063	8.716553	1.1706238
1442567892666962007	-1.1571503	8.694916	1.284256
1442567892675354341	-1.1436615	8.677567	1.3800049
1442567892683746675	-1.1275177	8.652649	1.4904327
1442567892692139009	-1.0956573	8.594971	1.6421967
1442567892700531343	-1.0511322	8.604691	1.6470795
1442567892708923677	-0.9750519	8.6418915	1.7068329
1442567892717316011	-0.9056549	8.64061	1.7222595
1442567892725708345	-0.88383484	8.716354	1.7902832
1442567892734100679	-0.86564636	8.958939	1.9029388
1442567892742493013	-0.8095856	9.378479	2.0544739
1442567892750885347	-0.7963104	9.679565	2.2031555
1442567892759277681	-0.8020935	9.899979	2.3381042
1442567892767670015	-0.8854828	10.309296	2.4238281
1442567892776062349	-1.2718658	10.582687	2.3327484
1442567892784454683	-1.6509552	10.641602	2.151184
1442567892792847017	-1.6117554	10.673096	1.968689
1442567892801239351	-1.57724	10.768127	1.8058777
1442567892809631685	-1.5917206	11.141312	1.6048737
1442567892818024019	-1.6987457	11.452377	1.2213287
1442567892826416353	-1.8346558	11.624374	1.281601
1442567892834808687	-1.984375	11.632095	1.3253021
1442567892843201021	-2.194336	11.4991455	1.2868958
1442567892851593355	-2.5924072	11.175781	1.0899963
1442567892859985689	-3.0846252	11.03064	0.9886322
1442567892868378023	-3.3141785	11.176056	1.019516
1442567892876770357	-3.4465637	11.386826	1.070282
1442567892885162691	-3.3488464	11.970673	0.9272461
1442567892893555025	-2.6532288	12.6716	0.6994934
1442567892901947359	-1.6052246	13.099838	0.6181946
1442567892910339693	-0.9703369	13.15831	0.5018921
1442567892918732027	-0.18157959	13.066376	0.3145752
1442567892927124361	1.1449432	12.306763	-0.12283325
1442567892935516695	2.3770905	11.325043	-0.4728241
1442567892943909029	3.1379852	10.776276	-0.71073914
1442567892952301363	3.3282013	10.636185	-0.9523468
1442567892960693697	3.5623016	10.902008	-1.4134827
1442567892969086031	3.8535614	11.721252	-1.5231781
1442567892977478365	4.1105957	12.42569	-0.7963562
1442567892985870698	4.1020203	12.719482	-0.22602844
1442567892994263032	4.0191345	12.9219055	0.22764587
1442567893002655366	3.5702515	12.38829	0.6580658
1442567893011047700	2.4337463	11.260788	0.37861633
1442567893019440034	1.3519745	10.367798	-0.4369812
1442567893027832368	0.94070435	10.306091	-0.6214142
1442567893036224702	0.4381714	10.420792	-0.95047
1442567893044617036	-0.19573975	10.907486	-1.773407
1442567893053009370	-0.6884155	10.941544	-2.3967743
1442567893061401704	-1.3381195	10.801498	-2.2758179
1442567893069794038	-1.8791962	10.685837	-1.8902588
1442567893078186372	-2.4647064	10.229095	-1.3123322
1442567893086578706	-2.4654083	9.391846	-1.0625916
1442567893094971040	-2.333496	8.73613	-0.7015686
1442567893103363374	-1.9859924	8.466019	-0.51657104
1442567893111755708	-1.5702362	8.267456	-0.40475464
1442567893120148042	-0.8781128	7.937256	-0.2423706
1442567893128540376	-0.30767822	7.575897	-0.33700562
1442567893136932710	0.11412048	7.290283	-0.58695984
1442567893145325044	0.20729065	7.112915	-0.6569977
1442567893153717378	0.31837463	6.889038	-0.70544434
1442567893162109712	0.39648438	6.578583	-0.7919159
1442567893170502046	0.2691803	6.466263	-0.9973297
1442567893178894380	0.24839783	6.5412292	-1.1860657
1442567893187286714	0.42704773	6.606125	-1.4219055
1442567893195679048	0.15679932	6.4925385	-1.2857056
1442567893204071382	-0.30543518	6.269928	-0.9155121
1442567893212463716	-0.63352966	6.0598907	-0.9785614
1442567893220856050	-0.6972351	5.924423	-1.14888
1442567893229248384	-0.71650696	5.8023224	-1.3146667
1442567893237640718	-0.8125305	5.4895477	-1.4911957
1442567893246033052	-0.77674866	5.167511	-1.6069183
1442567893254425386	-0.8778534	4.9777374	-1.7121277
1442567893262817720	-1.0166626	4.9648895	-1.7262726
1442567893271210054	-1.2503052	5.0123444	-1.8019714
1442567893279602388	-1.707367	5.2923584	-2.0406342
1442567893287994722	-2.269333	5.82724	-2.3513794
1442567893296387056	-2.817337	6.320923	-2.5522156
1442567893304779390	-3.285141	6.685272	-2.6363983
1442567893313171724	-4.1915283	7.3785553	-2.7769012
1442567893321564058	-5.2474365	8.110214	-3.1293182
1442567893329956392	-6.3302917	8.712723	-3.7275238
1442567893338348726	-6.8289185	9.012787	-4.0957184
1442567893346741060	-7.243881	9.274063	-4.423767
1442567893355133394	-7.6304016	9.6002655	-4.602371
1442567893363525728	-7.218216	9.907654	-4.3365784
1442567893371918062	-6.1335297	10.333817	-4.098831
1442567893380310396	-5.283371	10.672455	-4.1046143
1442567893388702730	-4.116974	11.184845	-4.2549896
1442567893397095064	-2.8659363	11.984039	-4.8609314
1442567893405487398	-3.0858612	12.200684	-5.7201233
1442567893413879732	-3.9414825	11.587433	-6.3110046
1442567893422272066	-4.6399994	10.76619	-6.7055664
1442567893430664400	-5.3190155	9.031937	-6.808182
1442567893439056734	-5.350815	7.346527	-6.164749
1442567893447449068	-4.1047516	7.1817017	-5.0523224
1442567893455841402	-3.2891846	7.9406433	-4.158188
1442567893464233736	-2.4801788	8.847122	-3.2201233
1442567893472626070	-0.46142578	11.462921	-1.039032
1442567893481018404	3.0293121	15.111099	0.27189636
1442567893489410738	5.3500366	17.755768	-0.35301208
1442567893497803072	4.6084747	17.840591	-1.2667847
1442567893506195406	2.618866	16.489899	-2.0094147
1442567893514587740	-0.10017395	12.579132	-2.3507843
1442567893522980073	-0.41333008	8.731567	-2.3191223
1442567893531372407	0.029571533	6.992508	-2.3243103
1442567893539764741	0.36244202	6.3563385	-2.4746704
1442567893548157075	0.42741394	5.5037384	-1.7736664
1442567893556549409	1.0525818	4.3548737	0.45863342
1442567893564941743	1.4275055	4.2051697	2.9823303
1442567893573334077	1.4919739	5.0416107	3.734146
1442567893581726411	1.5282135	6.1158447	4.269409
1442567893590118745	1.3034363	9.2391815	3.3961945
1442567893598511079	0.3171997	12.250381	2.008484
1442567893606903413	-1.0857239	13.724274	1.5198364
1442567893615295747	-2.065689	13.990952	1.289154
1442567893623688081	-3.4063263	13.788528	0.80513
1442567893632080415	-4.854721	12.691238	0.1786499
1442567893640472749	-5.168091	11.4253845	0.028747559
1442567893648865083	-4.588211	10.543167	0.024017334
1442567893657257417	-3.8325043	9.830521	-0.020980835
1442567893665649751	-2.3667297	8.620316	-0.20396423
1442567893674042085	-0.7290039	7.582962	-0.12031555
1442567893682434419	0.48039246	6.740158	0.9312134
1442567893690826753	1.0819244	6.5596313	1.3314667
1442567893699219087	1.6657562	6.4079285	1.7181854
1442567893707611421	1.9632416	6.4710236	1.9619141
1442567893716003755	1.2949524	6.924591	1.7225494
1442567893724396089	0.6189728	7.4326935	1.605011
1442567893732788423	0.16914368	7.700012	1.5304565
1442567893741180757	-0.43501282	8.176529	1.385376
1442567893749573091	-1.259491	8.6996155	1.2600708
1442567893757965425	-1.7196503	9.115662	0.95721436
1442567893766357759	-1.8693085	9.339447	0.7385254
1442567893774750093	-1.9952698	9.453827	0.64149475
1442567893783142427	-2.214386	9.402817	0.7752838
1442567893791534761	-1.9936371	9.295959	0.6754608
1442567893799927095	-1.2574463	9.115829	0.57966614
1442567893808319429	-1.080719	8.993088	0.54496765
1442567893816711763	-0.87161255	8.901718	0.53822327
1442567893825104097	-0.5596161	8.9734955	0.72158813
1442567893833496431	-0.48883057	9.087479	1.0509949
1442567893841888765	-0.5209198	9.261642	1.2625885
1442567893850281099	-0.66807556	9.348389	1.2696533
1442567893858673433	-0.92274475	9.313339	1.2328644
1442567893867065767	-1.3121338	9.054993	1.1155243
1442567893875458101	-1.667984	8.733627	1.0712128
1442567893883850435	-1.7962036	8.5798645	1.0502625
1442567893892242769	-1.8450317	8.49054	1.0162048
1442567893900635103	-1.8162384	8.450989	1.0450287
1442567893909027437	-1.7111664	8.686188	1.1948395
1442567893917419771	-1.4112854	8.874924	1.2621918
1442567893925812105	-1.1722412	8.924408	1.4234772
1442567893934204439	-1.0230408	9.05275	1.6467285
1442567893942596773	-1.0781097	9.298828	2.1020508
1442567893950989107	-0.79577637	9.063507	2.341385
1442567893959381441	-0.7584076	9.052155	2.2621613
1442567893967773775	-0.74554443	9.119003	2.1721954
1442567893976166109	-0.6296387	9.361313	1.9833374
1442567893984558443	-0.5380707	9.962433	1.9377899
1442567893992950777	-0.57780457	10.607544	2.0664673
1442567894001343111	-0.710907	10.853134	2.192276
1442567894009735445	-0.86576843	10.97908	2.312439
1442567894018127779	-1.1226959	10.646622	2.2472992
1442567894026520113	-1.7040863	10.258606	2.1101837
1442567894034912447	-2.096344	10.141403	1.7356873
1442567894043304781	-2.1464539	10.280212	1.5409698
1442567894051697115	-2.197174	10.466568	1.3535919
1442567894060089448	-2.2863312	10.751144	1.3024902
1442567894068481782	-2.5036926	10.872101	1.3595734
1442567894076874116	-2.7572784	10.909164	1.1937408
1442567894085266450	-2.962265	10.900162	1.070343
1442567894093658784	-3.3325806	11.102951	0.8258362
1442567894102051118	-3.7112427	11.5733795	0.7625122
1442567894110443452	-3.7147217	12.064026	0.7944946
1442567894118835786	-3.46167	12.384811	0.7803192
1442567894127228120	-3.1725159	12.663712	0.7591095
1442567894135620454	-2.3574677	12.897491	0.5093994
1442567894144012788	-1.1847382	12.730667	0.123184204
1442567894152405122	0.15063477	12.298874	-0.32250977
1442567894160797456	0.9744568	12.191559	-0.49343872
1442567894169189790	1.8487701	12.065399	-0.72109985
1442567894177582124	2.7498322	12.035812	-1.1945038
1442567894185974458	3.4071045	12.625183	-1.8520966
1442567894194366792	3.843399	13.383469	-2.0589142
1442567894202759126	4.0811615	13.799881	-1.76268
1442567894211151460	4.3600006	14.039368	-0.8128662
1442567894219543794	4.149719	13.317383	0.2059784
1442567894227936128	3.1575012	11.588486	0.460495
1442567894236328462	2.4619598	10.634567	0.40803528
1442567894244720796	1.8694916	9.8923645	0.3321991
1442567894253113130	0.5133209	9.52832	-0.21070862
1442567894261505464	-0.4768982	10.20932	-1.5301056
1442567894269897798	-1.125885	10.495392	-2.5835724
1442567894278290132	-1.2820435	10.64447	-2.630478
1442567894286682466	-1.6205597	10.681686	-2.3619385
1442567894295074800	-2.2210846	10.220428	-1.3468323
1442567894303467134	-2.2549286	9.368149	-0.60653687
1442567894311859468	-1.9866028	8.830856	-0.32641602
1442567894320251802	-1.8028107	8.573166	-0.09764099
1442567894328644136	-1.2952881	8.203796	-0.035354614
1442567894337036470	-0.59931946	7.987381	-0.3436432
1442567894345428804	-0.05883789	7.7644653	-0.23094177
1442567894353821138	0.3028717	7.4978485	-0.34320068
1442567894362213472	0.64216614	7.2279663	-0.51605225
1442567894370605806	0.8811035	6.92099	-0.9165039
1442567894378998140	0.81552124	6.8803864	-1.1158447
1442567894387390474	0.7207489	6.8206177	-1.2793884
1442567894395782808	0.64234924	6.8990173	-1.4291077
1442567894404175142	0.37373352	6.9782867	-1.291748
1442567894412567476	-0.025100708	6.925644	-0.98287964
1442567894420959810	-0.21875	6.679611	-1.0664215
1442567894429352144	-0.4480896	6.4703674	-1.0481567
1442567894437744478	-0.5881653	6.2930145	-1.0834961
1442567894446136812	-0.51361084	5.9805145	-1.1978912
1442567894454529146	-0.46777344	5.597763	-1.5300446
1442567894462921480	-0.51779175	5.224945	-1.79982
1442567894471313814	-0.5904083	5.0634613	-1.9008636
1442567894479706148	-0.6710968	4.9265747	-1.9838104
1442567894488098482	-0.97572327	4.8023987	-2.0383148
1442567894496490816	-1.4985046	4.82782	-2.198944
1442567894504883150	-2.023178	5.003586	-2.4707947
1442567894513275484	-2.3412628	5.166168	-2.581955
1442567894521667818	-2.977951	5.477234	-2.8216858
1442567894530060152	-4.2287445	6.1100464	-3.2549744
1442567894538452486	-5.533325	6.9356384	-3.6503143
1442567894546844820	-6.425308	7.6300354	-3.9498596
1442567894555237154	-7.0634003	8.167252	-4.1921234
1442567894563629488	-7.9642487	9.134125	-4.5101776
1442567894572021822	-8.373489	10.077652	-4.533188
1442567894580414156	-7.787277	10.670883	-4.367386
1442567894588806490	-7.0914	10.90535	-4.370331
1442567894597198823	-6.34935	11.131912	-4.4031067
1442567894605591157	-4.987381	11.55072	-4.687958
1442567894613983491	-4.0552063	11.762726	-5.254013
1442567894622375825	-4.2411194	11.382996	-5.922531
1442567894630768159	-4.7590637	10.793091	-6.2618103
1442567894639160493	-5.085205	9.876587	-6.5355835
1442567894647552827	-4.706604	8.666046	-6.3457184
1442567894655945161	-3.4847565	8.301773	-5.557205
1442567894664337495	-2.54953	8.71199	-4.766693
1442567894672729829	-1.9756775	9.264633	-4.0746155
1442567894681122163	-1.0995331	10.66803	-2.3330078
1442567894689514497	1.5055695	12.765244	-0.6925812
1442567894697906831	4.079178	15.182114	-0.9640503
1442567894706299165	3.7598877	15.756226	-1.4477386
1442567894714691499	3.0263672	16.045715	-1.919632
1442567894723083833	-0.059799194	14.10231	-2.273178
1442567894731476167	-0.9134064	10.521927	-2.420761
1442567894739868501	-0.096221924	7.9191284	-2.2241669
1442567894748260835	0.22058105	7.1826935	-2.140625
1442567894756653169	0.33195496	6.431778	-1.9417572
1442567894765045503	0.4945526	5.538254	-0.7076111
1442567894773437837	0.9588623	4.747406	1.5963745
1442567894781830171	1.2398987	4.9253845	2.893753
1442567894790222505	1.4172516	5.5274963	3.5800476
1442567894798614839	1.5004425	7.363434	3.4414063
1442567894807007173	0.6842041	10.207825	2.3966522
1442567894815399507	-0.7671509	12.459946	1.6674042
1442567894823791841	-1.7451935	13.077484	1.5125275
1442567894832184175	-2.802887	13.621658	1.26297
1442567894840576509	-4.2861786	13.51915	0.48651123
1442567894848968843	-5.2238617	12.640427	0.019577026
1442567894857361177	-5.0461426	11.833466	-0.08113098
1442567894865753511	-4.3932495	11.244843	-0.15631104
1442567894874145845	-3.3865356	10.103867	-0.26750183
1442567894882538179	-1.9967957	8.614075	-0.17990112
1442567894890930513	-0.46022034	7.744461	0.31585693
1442567894899322847	0.533844	7.398163	0.6016083
1442567894907715181	1.2529297	7.167465	0.7371979
1442567894916107515	2.0003662	6.9993744	0.8562012
1442567894924499849	1.9491272	6.875168	0.8594513
1442567894932892183	1.4674835	6.9243317	0.96006775
1442567894941284517	1.0427246	7.2244263	0.96969604
1442567894949676851	0.41448975	7.62471	0.9425812
1442567894958069185	-0.91477966	8.442596	0.82159424
1442567894966461519	-1.6157379	9.057144	0.9381561
1442567894974853853	-2.1938019	9.362213	0.95932007
1442567894983246187	-2.2509918	9.407837	0.8031616
1442567894991638521	-2.317276	9.484756	0.6931
1442567895000030855	-2.3110657	9.393616	0.6950836
1442567895008423189	-2.2689362	9.109573	0.65164185
1442567895016815523	-2.0916748	8.963654	0.5679016
1442567895025207857	-1.8609924	8.879486	0.48692322
1442567895033600191	-1.5615845	8.820419	0.5165405
1442567895041992525	-1.2515259	8.817505	0.5108185
1442567895050384859	-1.073349	8.72464	0.6430359
1442567895058777193	-1.0720673	8.689941	0.7265625
1442567895067169527	-1.0779572	8.658813	0.78060913
1442567895075561861	-1.1388855	8.66124	0.697464
1442567895083954195	-1.2326508	8.710678	0.56651306
1442567895092346529	-1.2423706	8.738251	0.5502014
1442567895100738863	-1.2372437	8.747253	0.62602234
1442567895109131197	-1.1896362	8.77713	0.794693
1442567895117523531	-1.1199799	8.854111	0.928772
1442567895125915865	-1.0381622	8.947418	1.0326538
1442567895134308198	-0.9738312	8.962555	1.0725098
1442567895142700532	-0.9172821	8.954193	1.0885773
1442567895151092866	-0.8258209	8.891724	1.0982361
1442567895159485200	-0.75582886	8.776321	1.1216583
1442567895167877534	-0.60672	8.7973175	1.3616333
1442567895176269868	-0.46748352	8.771194	1.467453
1442567895184662202	-0.32826233	8.745056	1.5732727
1442567895193054536	-0.21383667	8.771698	1.6661987
1442567895201446870	-0.16564941	8.990509	1.7407532
1442567895209839204	-0.122177124	9.263107	1.7985077
1442567895218231538	-0.059188843	9.450745	1.8197174
1442567895226623872	-0.09509277	9.865265	1.9593353
1442567895235016206	-0.283432	10.285355	2.0739136
1442567895243408540	-0.6997986	10.473419	1.9996643
1442567895251800874	-0.9325714	10.511047	1.8649292
1442567895260193208	-1.1041412	10.525818	1.7274017
1442567895268585542	-1.4473419	10.936905	1.4191742
1442567895276977876	-1.7415009	11.143677	1.1212616
1442567895285370210	-2.2413025	11.334518	1.1291504
1442567895293762544	-2.6596375	11.360214	1.2628174
1442567895302154878	-3.2048035	11.319458	1.2561798
1442567895310547212	-4.0691833	11.038712	1.0713806
1442567895318939546	-4.7597504	10.595505	1.1502838
1442567895327331880	-4.998825	10.292511	1.1562347
1442567895335724214	-5.0277405	10.169769	1.147232
1442567895344116548	-4.826126	10.261307	1.1504364
1442567895352508882	-4.3039703	10.700012	1.0714111
1442567895360901216	-3.3646393	11.450348	0.9505005
1442567895369293550	-2.7216492	11.949936	0.84135437
1442567895377685884	-2.1542358	12.389481	0.73469543
1442567895386078218	-0.8400879	12.906952	0.4361725
1442567895394470552	0.67570496	12.8993225	-0.1456604
1442567895402862886	2.152237	12.757309	-0.55548096
1442567895411255220	2.753067	12.708466	-0.69363403
1442567895419647554	3.4264832	12.504486	-0.901474
1442567895428039888	4.032028	12.080246	-1.144867
1442567895436432222	4.1769867	12.015015	-1.3107147
1442567895444824556	4.240204	12.192749	-1.326889
1442567895453216890	4.3558655	12.381027	-1.1154633
1442567895461609224	4.368347	12.491501	-0.13140869
1442567895470001558	3.9939423	12.171646	0.71487427
1442567895478393892	3.131073	11.450333	0.75216675
1442567895486786226	2.4328766	11.02002	0.34413147
1442567895495178560	1.761673	10.639282	-0.106155396
1442567895503570894	0.5548401	10.307953	-0.63272095
1442567895511963228	-0.07649231	10.795929	-1.6270294
1442567895520355562	-0.62187195	11.364395	-2.2794647
1442567895528747896	-0.83522034	11.397827	-2.1412964
1442567895537140230	-1.1063995	11.3081665	-1.8747559
1442567895545532564	-1.6645813	10.852478	-1.3584442
1442567895553924898	-1.9447479	9.973572	-1.0081482
1442567895562317232	-1.6283569	9.250305	-0.8200226
1442567895570709566	-1.2588654	8.820404	-0.6060333
1442567895579101900	-1.083847	8.496124	-0.14137268
1442567895587494234	-0.6037903	8.287628	-0.014984131
1442567895595886568	-0.27043152	7.922165	-0.17152405
1442567895604278902	-0.14875793	7.7167206	-0.26626587
1442567895612671236	-0.04989624	7.5211945	-0.35316467
1442567895621063570	-0.046661377	7.1459656	-0.45376587
1442567895629455904	0.1694336	6.6482544	-0.6146698
1442567895637848238	0.082107544	6.3493805	-1.0082855
1442567895646240572	-0.07147217	6.277405	-1.2441254
1442567895654632906	-0.1621399	6.2854156	-1.4287567
1442567895663025240	-0.14144897	6.382324	-1.6347351
1442567895671417573	-0.18533325	6.3294525	-1.3927765
1442567895679809907	-0.29634094	6.18956	-0.9760895
1442567895688202241	-0.40431213	6.056534	-0.7659607
1442567895696594575	-0.33016968	5.98024	-1.0701752
1442567895704986909	-0.18327332	5.824692	-1.5409088
1442567895713379243	-0.010437012	5.5883636	-1.70224
1442567895721771577	-0.040512085	5.5057983	-1.7083282
1442567895730163911	-0.09251404	5.436447	-1.7157288
1442567895738556245	-0.29689026	5.4250336	-1.8170319
1442567895746948579	-0.7691345	5.5042114	-2.043167
1442567895755340913	-1.3618317	5.6910095	-2.3643494
1442567895763733247	-1.7518921	5.854233	-2.6175385
1442567895772125581	-2.4353027	6.2549286	-2.8718262
1442567895780517915	-3.600708	7.0378723	-3.0527802
1442567895788910249	-4.8671875	7.8875732	-3.155777
1442567895797302583	-5.674286	8.48819	-3.193512
1442567895805694917	-6.2211456	8.950226	-3.1960754
1442567895814087251	-7.047531	9.710785	-3.3806763
1442567895822479585	-7.6051483	10.374603	-3.661789
1442567895830871919	-7.520523	10.903183	-3.7436829
1442567895839264253	-7.172119	11.234329	-3.7053528
1442567895847656587	-6.730133	11.604736	-3.7300262
1442567895856048921	-5.61203	12.26561	-4.2957
1442567895864441255	-4.637039	12.718704	-5.262863
1442567895872833589	-4.6973114	12.40239	-6.094925
1442567895881225923	-5.206894	11.53743	-6.3641663
1442567895889618257	-5.827713	9.750687	-6.42453
1442567895898010591	-5.6337433	7.276184	-6.0865936
1442567895906402925	-4.1978455	5.9832306	-5.392044
1442567895914795259	-3.0623474	5.867752	-4.7865753
1442567895923187593	-2.2051086	6.044464	-4.2911224
1442567895931579927	-0.7040558	6.836212	-3.1900787
1442567895939972261	0.9696808	8.204071	-2.0135956
1442567895948364595	2.3807983	10.474548	-1.0348663
1442567895956756929	2.8293304	11.978241	-1.0952606
1442567895965149263	2.9782715	13.709778	-1.2619781
1442567895973541597	1.1199799	16.164337	-1.9394379
1442567895981933931	-1.9628906	16.106964	-2.298706
1442567895990326265	-3.47229	14.040604	-2.2402039
1442567895998718599	-3.2313232	12.2425995	-2.1052551
1442567896007110933	-2.0954895	9.853439	-1.8657227
1442567896015503267	-0.00881958	7.588867	-2.2504578
1442567896023895601	1.3097229	6.4023743	-2.7298584
1442567896032287935	1.5615692	5.7833557	-2.0729523
1442567896040680269	1.5673523	5.268631	-1.0569916
1442567896049072603	1.5168152	4.764282	1.7366028
1442567896057464937	1.3393707	5.2738953	3.567047
1442567896065857271	0.8353119	7.6378326	3.5448608
1442567896074249605	0.473526	9.352951	3.1085358
1442567896082641939	-0.022903442	11.191849	2.6695557
1442567896091034273	-1.2777863	13.179123	2.1723175
1442567896099426607	-3.0683594	13.76799	1.3370361
1442567896107818941	-4.2204895	13.339172	0.4428711
1442567896116211275	-4.541794	12.603394	0.06951904
1442567896124603609	-4.429962	11.372162	-0.06881714
1442567896132995943	-3.4446716	10.035233	0.012802124
1442567896141388277	-2.0716553	9.013168	-0.1359253
1442567896149780611	-1.2429657	8.568649	-0.088912964
1442567896158172945	-0.606781	8.299408	0.06210327
1442567896166565279	0.31446838	7.939499	0.76446533
1442567896174957613	1.1051483	7.5414734	1.02742
1442567896183349947	1.1794434	7.414688	0.88900757
1442567896191742281	1.0914001	7.4892273	0.9513397
1442567896200134615	0.84588623	7.5990753	1.041336
1442567896208526948	-0.025100708	7.8916016	1.1783295
1442567896216919282	-0.9469757	8.360916	1.2321014
1442567896225311616	-1.4510803	8.636032	1.3182068
1442567896233703950	-1.8443604	8.613541	1.4043121
1442567896242096284	-1.9634247	8.758621	1.1240845
1442567896250488618	-2.1295319	9.0142975	0.7621002
1442567896258880952	-1.9091644	9.145782	0.65586853
1442567896267273286	-1.7732086	9.096344	0.76078796
1442567896275665620	-1.7166595	9.010223	0.906662
1442567896284057954	-0.9775543	8.848145	0.51301575
1442567896292450288	-0.43107605	8.693649	0.3090973
1442567896300842622	-0.11981201	8.576416	0.49465942
1442567896309234956	-0.17378235	8.465897	0.5981293
1442567896317627290	-0.3097229	8.44632	0.66163635
1442567896326019624	-0.7234955	8.729874	0.58665466
1442567896334411958	-1.2918854	8.984955	0.57025146
1442567896342804292	-1.7098083	8.9513855	0.6834564
1442567896351196626	-1.8878021	8.821579	0.75157166
1442567896359588960	-2.0551453	8.73996	0.8844452
1442567896367981294	-2.1525269	8.704361	0.90771484
1442567896376373628	-2.0813293	8.683823	0.8556366
1442567896384765962	-2.0039825	8.708084	0.87031555
1442567896393158296	-1.9352264	8.741501	0.8998718
1442567896401550630	-1.733841	8.693008	0.9743042
1442567896409942964	-1.4058075	8.6298065	1.1953583
1442567896418335298	-1.118103	8.620621	1.4516754
1442567896426727632	-0.9272461	8.655319	1.5891876
1442567896435119966	-0.6749573	8.682571	1.6650696
1442567896443512300	-0.37635803	8.819931	1.7413788
1442567896451904634	-0.3009796	9.217407	1.9668732
1442567896460296968	-0.29119873	9.596512	2.0356903
1442567896468689302	-0.26356506	9.901108	2.057541
1442567896477081636	-0.23216248	10.482605	2.1237335
1442567896485473970	-0.49023438	10.8989105	2.196106
1442567896493866304	-1.1425781	10.783508	2.147049
1442567896502258638	-1.4442596	10.606583	2.0056
1442567896510650972	-1.6755981	10.437576	1.8539581
1442567896519043306	-2.0310059	10.517441	1.6092834
1442567896527435640	-2.1849823	10.752106	1.2526855
1442567896535827974	-2.2409668	11.321396	1.0029907
1442567896544220308	-2.3399353	11.563644	0.92781067
1442567896552612642	-2.5175323	11.763504	0.8998413
1442567896561004976	-2.8961792	11.6008	0.8487549
1442567896569397310	-3.4120026	11.12352	0.6507721
1442567896577789644	-3.8331604	11.010696	0.5809326
1442567896586181978	-4.1178284	11.118652	0.60150146
1442567896594574312	-4.161804	11.470398	0.72717285
1442567896602966646	-3.7608948	11.794052	0.79959106
1442567896611358980	-3.0588684	12.049606	0.90945435
1442567896619751314	-2.4631805	12.019714	0.9111023
1442567896628143648	-1.8613739	11.947189	0.883728
1442567896636535982	-0.5656128	11.623871	0.40078735
1442567896644928316	0.6374512	11.648987	-0.24395752
1442567896653320650	1.3796539	12.020416	-0.53118896
1442567896661712984	2.288498	12.450638	-0.9310608
1442567896670105318	3.3443298	12.93985	-1.565155
1442567896678497652	4.049469	13.398514	-1.7899475
1442567896686889986	4.7456207	13.792694	-1.081253
1442567896695282320	4.9751587	13.692596	-0.33636475
1442567896703674654	4.896759	13.357788	0.12695313
1442567896712066988	4.3626556	12.212479	0.6818695
1442567896720459322	3.1695404	10.920639	1.022171
1442567896728851656	2.3164978	10.441772	0.83477783
1442567896737243990	1.5383148	10.0864105	0.5732269
1442567896745636323	0.26097107	10.274872	-0.8383179
1442567896754028657	-0.55155945	10.6510315	-1.9657593
1442567896762420991	-1.5024872	10.837311	-2.5788116
1442567896770813325	-1.6953583	10.9552	-2.253479
1442567896779205659	-2.0667725	10.843399	-1.6719208
1442567896787597993	-2.2202911	10.278717	-0.9925995
1442567896795990327	-1.9821472	9.12793	-0.4797821
1442567896804382661	-1.7474823	8.351044	-0.38235474
1442567896812774995	-1.5661469	8.132614	-0.3251648
1442567896821167329	-1.3714294	8.097916	-0.24804688
1442567896829559663	-1.0775757	7.8893585	-0.15238953
1442567896837951997	-0.6693115	7.3179474	-0.1872406
1442567896846344331	-0.5815582	7.0253143	-0.23579407
1442567896854736665	-0.5319061	6.770996	-0.282547
1442567896863128999	-0.46003723	6.518997	-0.33822632
1442567896871521333	-0.22766113	6.3713226	-0.5983429
1442567896879913667	-0.08604431	6.1534424	-1.0257263
1442567896888306001	-0.35466003	6.093048	-0.6253967
1442567896896698335	-0.36073303	5.8834534	-0.5246277
1442567896905090669	-0.060562134	5.5667877	-0.9036865
1442567896913483003	0.103637695	5.504074	-1.1581116
1442567896921875337	0.32505798	5.4353027	-1.3071289
1442567896930267671	0.45224	5.3359375	-1.3771515
1442567896938660005	0.51264954	5.2530365	-1.4047852
1442567896947052339	0.47583008	5.0662537	-1.5639343
1442567896955444673	0.25064087	4.8762665	-1.6610565
1442567896963837007	0.027633667	4.8142242	-1.7967529
1442567896972229341	-0.22203064	4.7710266	-1.9481201
1442567896980621675	-0.84783936	4.89032	-2.2632751
1442567896989014009	-1.6106262	5.2553253	-2.6184082
1442567896997406343	-2.5001678	5.7485657	-2.8081055
1442567897005798677	-3.0662994	6.138626	-2.8775024
1442567897014191011	-3.914322	6.870224	-3.0200043
1442567897022583345	-5.1157227	8.154694	-3.3143005
1442567897030975679	-6.4114075	9.5351715	-3.6226807
1442567897039368013	-7.753769	10.768692	-3.9380646
1442567897047760347	-8.2883	11.402161	-4.116745
1442567897056152681	-8.483658	11.813431	-4.225342
1442567897064545015	-8.111771	12.341354	-4.5581512
1442567897072937349	-7.177429	12.823151	-5.1724396
1442567897081329683	-5.6370544	13.031769	-5.9196167
1442567897089722017	-5.170517	12.9071045	-6.217148
1442567897098114351	-4.904129	12.452896	-6.492798
1442567897106506685	-5.4207306	10.285919	-6.5894012
1442567897114899019	-5.325485	8.069641	-6.3445587
1442567897123291353	-4.8300323	7.0157776	-5.8760986
1442567897131683687	-3.7518616	6.2960663	-4.987915
1442567897140076021	-1.8526154	6.6987762	-3.4136505
1442567897148468355	-0.04975891	8.253693	-1.6041565
1442567897156860689	2.4494019	10.6588745	-0.34753418
1442567897165253023	3.9051056	12.459702	-0.34230042
1442567897173645357	4.8188934	13.942184	-0.68481445
1442567897182037691	4.286209	16.10881	-2.1549072
1442567897190430025	1.3720856	16.631622	-2.6799774
1442567897198822359	-0.7739868	15.098267	-1.7778625
1442567897207214693	-1.1608276	13.501389	-1.6075745
1442567897215607027	-1.4602661	11.562744	-1.579422
1442567897223999361	-1.1305847	8.673965	-1.6444244
1442567897232391695	-0.27493286	6.949814	-0.5812073
1442567897240784029	0.113204956	5.96727	0.57225037
1442567897249176363	0.79408264	5.0525513	2.0516052
1442567897257568697	1.4258881	5.0667877	3.187317
1442567897265961031	1.6334534	6.2965546	3.4600525
1442567897274353365	1.5178223	7.721405	3.280426
1442567897282745698	1.2999878	9.092712	2.988678
1442567897291138032	0.36035156	10.912262	2.514206
1442567897299530366	-1.3500824	12.334259	1.7270203
1442567897307922700	-2.9188538	12.795044	0.7524109
1442567897316315034	-3.6167297	12.684509	0.30708313
1442567897324707368	-4.2199554	12.459244	-0.0897522
1442567897333099702	-4.0809784	11.57515	-0.27870178
1442567897341492036	-3.020584	10.286087	-0.46928406
1442567897349884370	-2.1718903	9.351776	-0.44429016
1442567897358276704	-1.5787659	8.9058075	-0.17825317
1442567897366669038	-0.64715576	8.101349	0.40493774
1442567897375061372	0.64541626	7.2529755	0.9589691
1442567897383453706	1.2533569	6.760849	1.2041931
1442567897391846040	1.5910034	6.668747	1.3536224
1442567897400238374	1.4222412	6.719528	1.3816833
1442567897408630708	1.1215057	6.777359	1.3842621
1442567897417023042	0.48579407	7.2311707	1.47789
1442567897425415376	-0.846405	7.742157	1.4633331
1442567897433807710	-1.417038	8.409241	1.1591339
1442567897442200044	-1.8115845	8.819855	1.0845947
1442567897450592378	-2.2172241	9.289001	1.0244598
1442567897458984712	-2.5257568	9.701813	0.96614075
1442567897467377046	-2.4950104	9.635284	0.86875916
1442567897475769380	-2.3099518	9.412933	0.8012848
1442567897484161714	-1.9872437	8.961685	0.5762634
1442567897492554048	-1.285553	8.408844	0.36262512
1442567897500946382	-0.57910156	8.078506	0.38963318
1442567897509338716	-0.2672119	8.074692	0.48057556
1442567897517731050	-0.053222656	8.1453705	0.5699005
1442567897526123384	0.09358215	8.400665	0.7965088
1442567897534515718	-0.08306885	8.602707	1.0759888
1442567897542908052	-0.4736023	8.712173	1.1756287
1442567897551300386	-0.71650696	8.716034	1.2218933
1442567897559692720	-1.0143738	8.731674	1.2720947
1442567897568085054	-1.4578094	8.819641	1.295105
1442567897576477388	-1.7630768	8.993286	1.2367706
1442567897584869722	-1.7810059	9.134918	1.1948547
1442567897593262056	-1.6550446	9.227463	1.1730042
1442567897601654390	-1.3478851	9.454163	1.3362274
1442567897610046724	-0.84594727	9.4917145	1.5471497
1442567897618439058	-0.3890381	9.512909	1.7519684
1442567897626831392	-0.13691711	9.588577	1.7536316
1442567897635223726	0.07321167	9.666977	1.7041473
1442567897643616060	-0.0018310547	10.047714	1.6569519
1442567897652008394	-0.20913696	10.350494	1.659378
1442567897660400728	-0.61135864	10.612839	1.8802643
1442567897668793062	-0.9572449	10.557816	2.0981293
1442567897677185396	-1.2316437	10.336746	2.1334686
1442567897685577730	-1.5506744	10.0060425	1.9742584
1442567897693970064	-1.8570099	9.754471	1.3963776
1442567897702362398	-2.0234985	10.172974	1.0270538
1442567897710754732	-2.1415863	10.741287	0.9737396
1442567897719147066	-2.2360535	11.189178	0.9268341
1442567897727539400	-2.3481903	11.756302	1.1061401
1442567897735931734	-2.6279907	11.791855	1.0782623
1442567897744324068	-2.914322	11.688004	0.8330231
1442567897752716402	-3.1932068	11.589691	0.5637665
1442567897761108736	-3.9794464	11.637375	0.5125427
1442567897769501070	-4.193924	11.809738	0.77697754
1442567897777893404	-3.9037628	12.083511	0.96917725
1442567897786285738	-3.515625	12.059738	0.8612213
1442567897794678072	-2.9680634	11.995361	0.5555725
1442567897803070406	-1.887558	12.029938	-0.023468018
1442567897811462740	-0.2868042	12.442749	-0.31748962
1442567897819855073	1.0480652	12.866882	-0.5455475
1442567897828247407	1.9438477	13.200378	-0.7987366
1442567897836639741	2.958084	13.6441345	-1.4202423
1442567897845032075	3.9384308	14.405594	-1.755661
1442567897853424409	4.729538	14.911926	-0.91304016
1442567897861816743	4.824585	14.687027	0.6358948
1442567897870209077	4.588211	14.026398	1.1504211
1442567897878601411	4.265869	13.261414	1.5417023
1442567897886993745	3.1670074	11.703537	1.1641846
1442567897895386079	2.155365	10.926727	0.36167908
1442567897903778413	1.6817627	10.90744	-0.120269775
1442567897912170747	1.0434265	10.98584	-0.89056396
1442567897920563081	0.22746277	11.234619	-1.8446045
1442567897928955415	-0.33570862	11.116333	-2.139328
1442567897937347749	-0.7567444	10.632919	-2.1025085
1442567897945740083	-1.1512909	10.148392	-1.9945679
1442567897954132417	-1.2979736	9.690292	-0.83218384
1442567897962524751	-1.4659729	8.835999	-0.18235779
1442567897970917085	-1.7430725	8.149872	-0.64694214
1442567897979309419	-1.6955261	7.975479	-0.42825317
1442567897987701753	-1.5923157	7.843872	-0.13656616
1442567897996094087	-1.1228333	7.7127533	0.054779053
1442567898004486421	-1.0506439	7.420059	-0.07044983
1442567898012878755	-0.7704468	6.9069214	-0.19110107
1442567898021271089	-0.55903625	6.6029663	-0.23158264
1442567898029663423	-0.19210815	6.2648315	-0.26306152
1442567898038055757	0.32489014	5.9164124	-0.38475037
1442567898046448091	0.6930847	5.6808014	-0.60928345
1442567898054840425	0.98394775	5.627411	-0.97898865
1442567898063232759	1.255127	5.6550446	-1.4506683
1442567898071625093	0.71577454	5.6065063	-0.62416077
1442567898080017427	0.44404602	5.506836	-0.031707764
1442567898088409761	0.43025208	5.5967865	-0.21237183
1442567898096802095	0.45858765	5.5416565	-0.45251465
1442567898105194429	0.49691772	5.4652405	-0.70628357
1442567898113586763	0.59552	5.260681	-1.0834198
1442567898121979097	0.53611755	5.0624084	-1.3485718
1442567898130371431	0.39961243	4.9377594	-1.6100159
1442567898138763765	0.19589233	4.928131	-1.7578125
1442567898147156099	-0.26382446	5.011307	-1.9583282
1442567898155548433	-1.0438385	5.342987	-2.274353
1442567898163940767	-1.9753876	6.036072	-2.5599976
1442567898172333101	-2.7628021	6.707535	-2.640274
1442567898180725435	-3.4041138	7.270462	-2.6383514
1442567898189117769	-4.608124	8.304642	-2.9353485
1442567898197510103	-5.763565	9.292053	-3.5377655
1442567898205902437	-6.9338226	10.057892	-4.329254
1442567898214294771	-7.396637	10.292969	-4.675537
1442567898222687105	-7.8417816	10.5460205	-4.970871
1442567898231079439	-8.040207	10.943726	-4.8630066
1442567898239471773	-7.282181	11.305649	-4.462906
1442567898247864107	-6.081772	11.706848	-4.3785095
1442567898256256441	-5.2239075	11.9908905	-4.535309
1442567898264648775	-4.528534	12.248184	-5.1842194
1442567898273041109	-4.9593964	11.714554	-6.416855
1442567898281433443	-5.950653	9.765503	-7.0351105
1442567898289825777	-6.124832	8.197968	-6.9623413
1442567898298218111	-5.986023	7.041275	-6.7573547
1442567898306610445	-5.441345	5.699524	-5.620178
1442567898315002779	-4.2408447	5.315567	-3.8368225
1442567898323395113	-2.6077728	5.9725037	-1.7985077
1442567898331787447	-1.3585358	7.2165833	-0.59425354
1442567898340179781	0.27702332	8.953415	0.6122894
1442567898348572115	3.7400055	13.373245	1.2976685
1442567898356964448	5.550247	17.771042	0.045043945
1442567898365356782	4.2818146	19.501083	-1.0906372
1442567898373749116	2.3726501	18.920822	-1.3187561
1442567898382141450	0.32640076	16.66394	-1.9338989
1442567898390533784	-0.55236816	13.053375	-2.890274
1442567898398926118	-0.36401367	10.091415	-3.2701263
1442567898407318452	-0.13798523	8.378204	-2.5677948
1442567898415710786	0.07728577	7.0608673	-1.5563354
1442567898424103120	0.97402954	5.1339874	1.4594574
1442567898432495454	2.2811737	4.10524	4.165909
1442567898440887788	2.8270264	4.7000427	4.7810364
1442567898449280122	2.7332153	5.9948883	4.3556366
1442567898457672456	2.4072723	7.6368713	3.8027344
1442567898466064790	0.93193054	10.366867	2.8571167
1442567898474457124	-1.2436523	12.042358	2.2095032
1442567898482849458	-3.1712494	12.85289	1.5609131
1442567898491241792	-4.453247	13.0829315	0.9690857
1442567898499634126	-5.588379	13.117401	0.42315674
1442567898508026460	-5.4274445	12.578964	0.26538086
1442567898516418794	-3.9856415	11.287888	0.038894653
1442567898524811128	-2.9698792	10.260864	-0.038970947
1442567898533203462	-2.1769104	9.39592	-0.02418518
1442567898541595796	-0.7072296	7.8382416	0.23963928
1442567898549988130	1.0289307	6.732559	0.8973541
1442567898558380464	2.3214264	5.7438354	1.763443
1442567898566772798	2.1697693	5.589615	1.5539551
1442567898575165132	1.9479523	5.6079254	1.4197998
1442567898583557466	1.4083405	6.217087	1.5785065
1442567898591949800	0.5817261	7.017624	1.7755585
1442567898600342134	-0.13658142	7.7425385	1.7105408
1442567898608734468	-0.55171204	8.130676	1.4721375
1442567898617126802	-1.1911469	8.998871	1.0456696
1442567898625519136	-1.935791	9.960297	0.8320465
1442567898633911470	-2.375534	10.3415985	0.84947205
1442567898642303804	-2.363083	10.292206	0.8283844
1442567898650696138	-2.2583466	10.173965	0.7924042
1442567898659088472	-2.0099945	9.440796	0.7671356
1442567898667480806	-1.103302	8.623917	0.58654785
1442567898675873140	-0.54222107	8.155106	0.4641266
1442567898684265474	-0.2575531	8.12619	0.4801941
1442567898692657808	0.065841675	8.116379	0.58862305
1442567898701050142	0.33306885	8.269516	0.894577
1442567898709442476	0.12211609	8.601929	1.1050568
1442567898717834810	-0.25794983	8.803146	1.2302856
1442567898726227144	-0.55548096	8.918808	1.265625
1442567898734619478	-0.943161	8.943909	1.321228
1442567898743011812	-1.3141327	8.769089	1.3557892
1442567898751404146	-1.471344	8.623047	1.3235321
1442567898759796480	-1.4875488	8.642105	1.2784119
1442567898768188814	-1.4862671	8.6896515	1.2340698
1442567898776581148	-1.3504333	8.937729	1.3468628
1442567898784973482	-1.1215515	9.306305	1.6381836
1442567898793365816	-0.7049866	9.406097	1.733139
1442567898801758150	-0.59317017	9.478714	1.8835144
1442567898810150484	-0.5139313	9.5503235	2.0203705
1442567898818542818	-0.45550537	9.665421	2.0764923
1442567898826935152	-0.4242401	9.925766	2.1340027
1442567898835327486	-0.509964	10.198105	2.222931
1442567898843719820	-0.5748596	10.400528	2.2434998
1442567898852112154	-0.8446045	10.625229	2.3582916
1442567898860504488	-1.492157	10.664551	2.279129
1442567898868896822	-2.1438904	10.274017	1.9133301
1442567898877289156	-2.4735107	10.185638	1.7040558
1442567898885681490	-2.7556	10.1605835	1.5279694
1442567898894073823	-3.0037231	10.593689	1.3549652
1442567898902466157	-3.0471497	11.187958	0.9433594
1442567898910858491	-3.1032562	11.318527	0.78915405
1442567898919250825	-3.1527405	11.196426	0.86112976
1442567898927643159	-3.2534943	11.041916	0.7830353
1442567898936035493	-3.409317	10.913925	0.49891663
1442567898944427827	-3.3596497	11.022568	0.3801117
1442567898952820161	-3.224701	11.168579	0.31828308
1442567898961212495	-3.1469421	11.24762	0.25531006
1442567898969604829	-2.9337616	11.492264	0.4187622
1442567898977997163	-2.5017853	11.587311	0.594635
1442567898986389497	-1.6351624	11.605347	0.22244263
1442567898994781831	-0.98246765	11.67746	0.0818634
1442567899003174165	-0.32995605	11.768341	-0.027023315
1442567899011566499	1.178772	12.222275	-0.34220886
1442567899019958833	2.4537964	12.938202	-0.89775085
1442567899028351167	3.3098755	13.589127	-1.3910065
1442567899036743501	3.883072	14.225937	-1.723877
1442567899045135835	4.5190887	14.980286	-1.7834167
1442567899053528169	5.092209	15.384232	-0.9107361
1442567899061920503	5.115402	14.644562	0.3657837
1442567899070312837	4.812912	13.589142	0.8426819
1442567899078705171	4.5083313	12.625885	0.8857269
1442567899087097505	3.317627	11.259308	0.40768433
1442567899095489839	1.8018341	10.263458	-0.44180298
1442567899103882173	0.47583008	10.462189	-0.9814911
1442567899112274507	-0.04083252	10.640945	-1.7927094
1442567899120666841	-0.51823425	10.796829	-2.578949
1442567899129059175	-1.2020874	10.774994	-2.5122375
1442567899137451509	-1.8693695	10.391708	-1.1035461
1442567899145843843	-2.2092743	9.87323	-0.39935303
1442567899154236177	-2.471466	9.492172	-0.2836914
1442567899162628511	-2.67453	8.995285	-0.230896
1442567899171020845	-2.4139557	8.413025	-0.03640747
1442567899179413179	-1.8385925	8.059235	0.04319763
1442567899187805513	-1.5219269	7.863434	-0.092422485
1442567899196197847	-1.3188629	7.691208	-0.18687439
1442567899204590181	-0.905777	7.2775574	-0.37702942
1442567899212982515	-0.15370178	6.8459167	-0.47372437
1442567899221374849	0.68006897	6.5392456	-0.64190674
1442567899229767183	1.0063782	6.4152527	-0.76501465
1442567899238159517	1.3183746	6.3026123	-0.89004517
1442567899246551851	1.4845123	6.1948853	-0.9194641
1442567899254944185	1.0088806	5.916504	-0.50450134
1442567899263336519	0.7414856	5.7691193	-0.4703827
1442567899271728853	0.4767456	5.630951	-0.39582825
1442567899280121187	0.38490295	5.372162	-0.5806732
1442567899288513521	0.51672363	4.9638977	-1.0585938
1442567899296905855	0.57411194	4.5437317	-1.5489197
1442567899305298189	0.48860168	4.2518616	-1.836731
1442567899313690523	0.36135864	4.028244	-2.0108795
1442567899322082857	-0.025985718	3.8693848	-2.2040405
1442567899330475191	-0.7520447	4.051758	-2.3215485
1442567899338867525	-1.457489	4.5421906	-2.40065
1442567899347259859	-1.9490814	4.8634796	-2.5098877
1442567899355652193	-2.5431976	5.276581	-2.6279144
1442567899364044527	-3.8122559	6.2694397	-2.8105164
1442567899372436861	-5.301956	7.4500732	-3.0719147
1442567899380829195	-6.4954987	8.518677	-3.3735046
1442567899389221529	-7.353363	9.199188	-3.6035614
1442567899397613863	-8.348465	10.050369	-4.235504
1442567899406006197	-9.002945	10.774811	-5.1374207
1442567899414398531	-8.77832	11.21373	-5.543976
1442567899422790865	-8.205261	11.446426	-5.582901
1442567899431183198	-7.6089325	11.601944	-5.5597687
1442567899439575532	-6.122574	11.909012	-5.3753815
1442567899447967866	-3.9884644	12.262024	-5.270035
1442567899456360200	-2.392105	12.294067	-5.6951447
1442567899464752534	-2.7532501	11.75235	-6.0331573
1442567899473144868	-3.2155762	11.024521	-6.354355
1442567899481537202	-3.8304138	9.59877	-6.409561
1442567899489929536	-3.2759857	9.057083	-5.697708
1442567899498321870	-2.474884	9.547699	-4.6523895
1442567899506714204	-2.1715698	10.100327	-3.747589
1442567899515106538	-1.395935	10.927429	-2.316269
1442567899523498872	0.86317444	12.169968	-1.3234253
1442567899531891206	2.993866	13.097809	-1.4069824
1442567899540283540	3.172348	13.182495	-1.4985809
1442567899548675874	2.798996	13.040466	-1.5095062
1442567899557068208	1.7442474	11.624847	-1.6185913
1442567899565460542	1.0449066	9.552887	-1.3623657
1442567899573852876	0.6870117	7.806137	-1.2377472
1442567899582245210	0.4993744	7.3286743	-1.1432953
1442567899590637544	0.35098267	6.8519287	-0.7654724
1442567899599029878	0.44996643	6.4157104	0.8089752
1442567899607422212	0.81643677	6.472763	2.5908966
1442567899615814546	1.1061249	7.2590637	3.3832397
1442567899624206880	1.2854004	8.057175	3.4301453
1442567899632599214	1.1108246	9.671677	3.0348053
1442567899640991548	0.10850525	11.896271	2.3833008
1442567899649383882	-1.3776245	13.24852	1.9081116
1442567899657776216	-2.4244537	13.3111725	1.476654
1442567899666168550	-3.3202362	13.099106	1.0422516
1442567899674560884	-4.7639923	11.982727	0.5599365
1442567899682953218	-4.700287	10.892731	0.35653687
1442567899691345552	-3.7783203	9.954498	0.2170105
1442567899699737886	-3.07724	9.396713	0.0036621094
1442567899708130220	-2.2670593	8.719864	-0.072280884
1442567899716522554	-0.99967957	7.7978363	0.3294525
1442567899724914888	0.53523254	7.2063293	0.70124817
1442567899733307222	1.4338226	6.9226685	0.7205963
1442567899741699556	1.627243	6.792221	0.6666107
1442567899750091890	1.8387909	6.74852	0.9565582
1442567899758484224	1.2188416	6.9716187	1.2461853
1442567899766876558	0.4046173	7.4593506	1.2970276
1442567899775268892	-0.14065552	7.854355	1.3216095
1442567899783661226	-0.6405945	8.213562	1.3505249
1442567899792053560	-1.8300629	8.616058	1.0377655
1442567899800445894	-2.210968	9.254089	0.38597107
1442567899808838228	-2.725769	9.576279	0.4407196
1442567899817230562	-2.781021	9.596848	0.3642578
1442567899825622896	-2.7544098	9.610672	0.24871826
1442567899834015230	-2.481018	9.552597	0.12214661
1442567899842407564	-2.0801697	9.321899	0.12652588
1442567899850799898	-1.741394	9.067154	0.19145203
1442567899859192232	-1.5235596	8.887222	0.342453
1442567899867584566	-1.3110199	8.6197815	0.5527649
1442567899875976900	-1.204895	8.470978	0.6364746
1442567899884369234	-1.329071	8.472214	0.551651
1442567899892761568	-1.4296417	8.506393	0.5462189
1442567899901153902	-1.5157623	8.542389	0.56100464
1442567899909546236	-1.5789795	8.501617	0.7826843
1442567899917938570	-1.5870514	8.34996	0.92967224
1442567899926330904	-1.4015808	8.246155	1.0845032
1442567899934723238	-1.2640686	8.226227	1.1371918
1442567899943115572	-1.0836487	8.266235	1.2205963
1442567899951507906	-0.81555176	8.449326	1.3599701
1442567899959900240	-0.5260925	8.636963	1.542923
1442567899968292573	-0.29916382	8.726334	1.6571808
1442567899976684907	-0.14878845	8.75589	1.6571808
1442567899985077241	0.023208618	8.889206	1.7306824
1442567899993469575	0.08747864	9.180725	1.9266815
1442567900001861909	0.14082336	9.234589	1.9923859
1442567900010254243	0.053085327	9.309708	2.1224518
1442567900018646577	-0.057754517	9.400574	2.2651978
1442567900027038911	-0.33580017	9.745468	2.3478546
1442567900035431245	-0.74276733	10.375015	2.4592133
1442567900043823579	-1.1199188	10.699966	2.4685364
1442567900052215913	-1.3313446	10.768082	2.421646
1442567900060608247	-1.5714874	10.825455	2.181488
1442567900069000581	-1.7946625	10.949661	1.7366028
1442567900077392915	-1.8289948	11.2512665	1.596344
1442567900085785249	-1.8415985	11.501984	1.6398163
1442567900094177583	-1.9129333	11.665848	1.7246246
1442567900102569917	-2.113205	11.947739	1.5005188
1442567900110962251	-2.307373	11.994003	0.9076233
1442567900119354585	-2.7667694	11.381073	0.46788025
1442567900127746919	-3.0573578	10.981918	0.2601471
1442567900136139253	-3.3517609	10.612198	0.07043457
1442567900144531587	-3.9958801	10.305542	-0.07740784
1442567900152923921	-4.10112	10.408829	-0.015975952
1442567900161316255	-3.835205	10.55838	-0.03501892
1442567900169708589	-3.5261078	10.665695	0.040802002
1442567900178100923	-3.0039368	10.78508	0.35464478
1442567900186493257	-1.8962402	10.884613	0.85913086
1442567900194885591	-0.43647766	11.070511	0.5444946
1442567900203277925	0.7066345	11.572662	-0.10307312
1442567900211670259	1.6165619	12.20755	-0.61587524
1442567900220062593	2.7353516	13.427826	-1.2896271
1442567900228454927	3.5046234	14.264877	-1.91156
1442567900236847261	4.1190033	14.977127	-2.153717
1442567900245239595	4.39563	15.141235	-1.6290894
1442567900253631929	4.647995	15.195206	-1.01651
1442567900262024263	4.7053223	14.291306	2.89917E-4
1442567900270416597	4.090271	12.673706	0.30673218
1442567900278808931	3.3649902	11.273697	0.3252716
1442567900287201265	2.8746948	10.677353	0.38438416
1442567900295593599	2.0005035	10.11467	0.13336182
1442567900303985933	0.73376465	9.9592285	-0.74624634
1442567900312378267	-0.25323486	9.911621	-1.8858795
1442567900320770601	-0.71621704	9.8767395	-2.28685
1442567900329162935	-0.96232605	9.950638	-2.2637024
1442567900337555269	-1.4460754	10.055176	-1.8788452
1442567900345947603	-2.0836334	9.608353	-1.5417633
1442567900354339937	-1.9691467	8.805664	-1.3442688
1442567900362732271	-1.8343353	8.574219	-0.91955566
1442567900371124605	-1.6750793	8.356018	-0.50701904
1442567900379516939	-1.2895203	8.21434	-0.20507813
1442567900387909273	-0.6828766	8.043762	0.008834839
1442567900396301607	-0.25013733	7.5948944	-0.002380371
1442567900404693941	-0.13510132	7.439392	-0.18167114
1442567900413086275	0.06285095	7.246826	-0.3242035
1442567900421478609	0.39160156	6.9885406	-0.43966675
1442567900429870943	0.73861694	6.717499	-0.7624054
1442567900438263277	0.7480316	6.563751	-0.86750793
1442567900446655611	0.60279846	6.4628754	-0.81159973
1442567900455047945	0.3282318	6.2016296	-0.64476013
1442567900463440279	0.0990448	5.984558	-0.70983887
1442567900471832613	-0.15449524	5.79628	-0.9857178
1442567900480224947	-0.19691467	5.663254	-1.1283875
1442567900488617281	-0.21029663	5.499008	-1.2893372
1442567900496989032	-0.09030151	5.198761	-1.560257
1442567900505381365	-0.039001465	5.0109406	-1.8757324
1442567900513773699	-0.09765625	4.9580536	-2.1032104
1442567900522166033	-0.2666626	4.998535	-2.219513
1442567900530558367	-0.5184326	5.1440277	-2.328949
1442567900538950701	-0.93844604	5.4881287	-2.4429169
1442567900547343035	-1.556076	6.026367	-2.5616913
1442567900555735369	-2.1182556	6.3808136	-2.6036072
1442567900564127703	-2.6297607	6.6359406	-2.6158142
1442567900572520037	-3.9166565	7.207901	-2.9942932
1442567900580912371	-5.28685	7.9798126	-3.6238708
1442567900589304705	-6.6924744	8.89183	-4.092148
1442567900597697039	-7.322876	9.347443	-4.314499
1442567900606089373	-8.004303	9.852005	-4.5915833
1442567900614481707	-8.692337	10.5299835	-4.966629
1442567900622874041	-8.499329	11.08255	-4.9450836
1442567900631266375	-7.6742096	11.422089	-4.909424
1442567900639658709	-6.910797	11.634781	-5.046295
1442567900648051043	-5.4743958	12.028702	-5.332138
1442567900656443377	-3.8049622	12.421982	-5.972748
1442567900664835711	-4.016617	11.587631	-6.5225525
1442567900673228045	-4.694092	10.217545	-6.455475
1442567900681620379	-5.269867	8.843658	-6.221573
1442567900690012713	-5.0899353	6.1759186	-5.283493
1442567900698405047	-3.613327	4.9241486	-4.12442
1442567900706797381	-1.7825165	4.8565216	-3.271469
1442567900715189715	-0.9252777	5.2183075	-2.7175598
1442567900723582049	0.23329163	5.8372345	-2.069458
1442567900731974383	2.5169983	7.5617523	-1.2368469
1442567900740366717	4.753891	10.4021	-0.99131775
1442567900748759051	5.4720306	13.4066925	-1.3892365
1442567900757151385	5.1051025	15.588974	-1.9347992
1442567900765543719	3.3335266	18.48088	-2.242218
1442567900773936053	0.3557434	20.412994	-0.9947815
1442567900782328387	-1.7873077	18.65863	-0.22767639
1442567900790720721	-2.3639984	16.031235	-0.6630707
1442567900799113055	-2.6197662	13.471756	-1.2928314
1442567900807505389	-1.2368774	9.308792	-1.3648529
1442567900815897723	0.42582703	5.9289856	-0.12889099
1442567900824290057	0.86468506	4.1305695	1.3708954
1442567900832682391	1.0510254	3.56958	1.919693
1442567900841074725	1.2678833	3.2061005	2.5049286
1442567900849467059	1.3868103	4.2681274	2.960678
1442567900857859393	1.1373749	7.06987	2.7476044
1442567900866251727	0.7269287	9.0933075	2.3401947
1442567900874644061	0.17816162	10.259628	2.0831451
1442567900883036395	-1.00383	11.837112	1.5480347
1442567900891428729	-2.5336456	13.177414	0.83410645
1442567900899821063	-4.042801	13.475769	0.1587677
1442567900908213397	-4.4589233	12.967285	-0.09786987
1442567900916605731	-4.643982	12.343964	-0.26879883
1442567900924998065	-3.8255615	10.859024	-0.07763672
1442567900933390399	-2.4144745	9.246414	0.21842957
1442567900941782733	-1.1558533	7.8741455	0.50260925
1442567900950175067	-0.4689026	7.4885864	0.54437256
1442567900958567401	0.30999756	7.0660706	0.7011566
1442567900966959735	1.2235107	6.7592926	1.0858307
1442567900975352069	1.648407	6.7147675	1.295517
1442567900983744403	1.4647217	6.782181	1.2748718
1442567900992136737	1.1414948	7.028305	1.1855621
1442567901000529071	0.42414856	7.3412933	1.1109467
1442567901008921405	-0.34681702	8.032761	0.7344208
1442567901017313739	-1.1291199	8.9266205	0.5167389
1442567901025706073	-1.4319305	9.319641	0.3836975
1442567901034098407	-1.6549072	9.629379	0.252594
1442567901042490740	-2.0600128	9.93161	0.101623535
1442567901050883074	-2.1337433	9.843613	0.09864807
1442567901059275408	-1.9503479	9.484238	0.19572449
1442567901067667742	-1.7537079	9.205338	0.25613403
1442567901076060076	-1.4425354	8.865173	0.3809204
1442567901084452410	-1.0357819	8.520813	0.5871887
1442567901092844744	-0.93795776	8.36554	0.7449646
1442567901101237078	-1.0457458	8.310944	0.8626709
1442567901109629412	-1.2012634	8.310944	0.9404297
1442567901118021746	-1.507721	8.298508	0.883667
1442567901126414080	-1.7889252	8.344971	0.8565674
1442567901134806414	-1.9172211	8.424591	0.856781
1442567901143198748	-1.8601685	8.517807	0.8995056
1442567901151591082	-1.7773895	8.617065	0.9483185
1442567901159983416	-1.4750519	8.838516	1.0285339
1442567901168375750	-1.0356903	8.990128	1.1190948
1442567901176768084	-0.73236084	8.979446	1.3113556
1442567901185160418	-0.5845642	8.89978	1.4141693
1442567901193552752	-0.46376038	8.845123	1.5901031
1442567901201945086	-0.32289124	8.764908	1.6943359
1442567901210337420	-0.32896423	8.7827	1.7328491
1442567901218729754	-0.46469116	9.01857	1.7918396
1442567901227122088	-0.5463104	9.291687	1.7584229
1442567901235514422	-0.6218567	9.869034	1.8596039
1442567901243906756	-0.50779724	10.396713	1.9457703
1442567901252299090	-0.5049286	10.661179	2.0462952
1442567901260691424	-0.6498871	10.620987	2.14328
1442567901269083758	-0.82736206	10.556351	2.2210693
1442567901277476092	-1.279602	10.4431	2.0369263
1442567901285868426	-1.5626221	10.500671	1.7138824
1442567901294260760	-1.8351898	10.674454	1.5015106
1442567901302653094	-1.9791412	10.766342	1.4668121
1442567901311045428	-2.1182404	10.967606	1.3649292
1442567901319437762	-2.2305756	11.150696	1.1063232
1442567901327830096	-2.40477	11.048019	0.87841797
1442567901336222430	-2.6523438	10.928696	0.7561798
1442567901344614764	-2.9042358	10.850296	0.65078735
1442567901353007098	-3.2690125	11.157608	0.4305725
1442567901361399432	-3.7436218	11.522232	0.31394958
1442567901369791766	-3.73143	11.884796	0.4848938
1442567901378184100	-3.5447998	12.207962	0.46510315
1442567901386576434	-3.2884216	12.489883	0.4393921
1442567901394968768	-2.4455566	12.364273	0.4403534
1442567901403361102	-1.3096924	11.977188	0.4541626
1442567901411753436	-0.14541626	11.990219	0.15827942
1442567901420145770	0.5492401	12.142517	-0.23820496
1442567901428538104	1.5602264	12.446411	-0.820755
1442567901436930438	2.7428741	12.940964	-1.6393738
1442567901445322772	3.4979095	13.695633	-2.2547913
1442567901453715106	3.918991	14.204636	-2.0493774
1442567901462107440	4.2531433	14.499588	-1.4999542
1442567901470499774	4.665436	14.356049	-0.30844116
1442567901478892108	4.309799	13.127747	0.5666504
1442567901487284442	3.4852142	11.469391	1.0060425
1442567901495676776	2.8740997	10.803009	0.8023529
1442567901504069110	2.1582031	10.126816	0.5346222
1442567901512461444	0.9306793	9.551239	-0.22341919
1442567901520853778	0.069503784	9.795685	-1.3428955
1442567901529246112	-0.6417084	10.393005	-2.052185
1442567901537638446	-1.0118408	10.522827	-2.2706604
1442567901546030780	-1.2804108	10.485428	-2.1724243
1442567901554423114	-1.744461	10.094727	-1.3606873
1442567901562815448	-2.201538	9.286957	-0.7719574
1442567901571207782	-2.2055511	8.786804	-0.6016388
1442567901579600115	-2.07576	8.489914	-0.47825623
1442567901587992449	-1.7191467	8.0694275	-0.36024475
1442567901596384783	-1.2634583	7.9773407	-0.355011
1442567901604777117	-1.0613556	7.5825195	-0.26698303
1442567901613169451	-1.0035248	7.3402557	-0.27468872
1442567901621561785	-0.88375854	7.0618896	-0.28707886
1442567901629954119	-0.464386	6.660721	-0.35273743
1442567901638346453	-0.009170532	6.373459	-0.5866394
1442567901646738787	0.15896606	6.156082	-0.7334595
1442567901655131121	-0.034454346	6.0635376	-0.50341797
1442567901663523455	0.042160034	5.947296	-0.5593262
1442567901671915789	0.23826599	5.8549957	-0.8969269
1442567901680308123	0.2521515	5.837784	-1.102829
1442567901688700457	0.19917297	5.844818	-1.0800323
1442567901697092791	0.14006042	5.852524	-1.0016327
1442567901705485125	0.18635559	5.7200317	-1.0421448
1442567901713877459	0.349823	5.3533325	-1.4246216
1442567901722269793	0.3018036	5.135208	-1.6210175
1442567901730662127	0.1745758	5.009903	-1.6961975
1442567901739054461	-0.03678894	4.905487	-1.8029327
1442567901747446795	-0.5499573	4.936096	-2.0621948
1442567901755839129	-1.1304474	5.1893005	-2.4139862
1442567901764231463	-1.743393	5.555191	-2.6557922
1442567901772623797	-2.2381897	5.8944855	-2.7624664
1442567901781016131	-3.1864777	6.6618958	-2.916214
1442567901789408465	-4.488266	7.9437103	-3.0259247
1442567901797800799	-5.769806	9.439972	-3.2332306
1442567901806193133	-6.5571747	10.325333	-3.4849854
1442567901814585467	-7.200424	11.015488	-3.7317352
1442567901822977801	-8.102463	11.8517	-4.2565765
1442567901831370135	-8.362976	12.15419	-4.738144
1442567901839762469	-7.81546	12.250931	-4.941757
1442567901848154803	-7.1799164	12.252853	-5.071579
1442567901856547137	-6.348587	12.209152	-5.248825
1442567901864939471	-5.1863403	11.862091	-5.604492
1442567901873331805	-4.9261017	10.820175	-6.004898
1442567901881724139	-5.064789	9.490234	-6.097183
1442567901890116473	-4.9561768	8.437653	-5.8986206
1442567901898508807	-4.3135834	7.0673523	-5.1999817
1442567901906901141	-3.0054016	6.745056	-4.158493
1442567901915293475	-1.7025452	8.139664	-2.7660522
1442567901923685809	-0.9217377	9.480774	-1.7451782
1442567901932078143	-0.2521515	10.716507	-0.8423157
1442567901940470477	2.0699463	13.340561	-0.20703125
1442567901948862811	3.50766	15.2960205	-1.3744354
1442567901957255145	2.3895416	15.1875	-2.4180756
1442567901965647479	1.4924622	14.448502	-2.6706238
1442567901974039813	0.8010254	13.158051	-2.9555054
1442567901982432147	0.70381165	10.526611	-3.2109375
1442567901990824481	0.4774475	8.278687	-3.1343994
1442567901999216815	0.2363739	7.111206	-2.537674
1442567902007609149	0.3751831	6.5258026	-1.6039734
1442567902016001483	0.5188751	5.6782684	0.5446625
1442567902024393817	1.0026703	5.629303	3.2424622
1442567902032786151	1.5794983	6.988693	4.1834564
1442567902041178485	1.7417908	8.178146	3.8457184
1442567902049570819	1.829834	9.281509	3.3624878
1442567902057963153	0.8860321	11.4449005	2.3097382
1442567902066355487	-0.6264496	12.694641	1.9090729
1442567902074747821	-2.4536896	13.063965	1.4009247
1442567902083140155	-3.292923	12.834549	0.7859497
1442567902091532489	-4.089264	12.272232	0.19474792
1442567902099924823	-4.489731	11.231384	-0.18052673
1442567902108317157	-3.9233093	10.35141	-0.2648468
1442567902116709490	-3.0896454	9.521927	-0.30793762
1442567902125101824	-2.521576	8.888962	-0.3516388
1442567902133494158	-1.5073853	8.099075	0.053390503
1442567902141886492	-0.5507355	7.349167	0.7596588
1442567902150278826	0.47502136	7.0461884	1.2415466
1442567902158671160	0.87301636	6.9731293	1.3296051
1442567902167063494	1.1685181	6.922119	1.3702087
1442567902175455828	0.8129425	7.0888367	1.2995758
1442567902183848162	0.21081543	7.5025177	1.08638
1442567902192240496	-0.44844055	7.9166718	0.8564911
1442567902200632830	-0.88668823	8.168579	0.7331085
1442567902209025164	-1.40065	8.556015	0.5868225
1442567902217417498	-2.2312012	8.991531	0.66130066
1442567902225809832	-2.4756012	9.168854	0.78749084
1442567902234202166	-2.256607	9.220734	0.7180023
1442567902242594500	-2.3067322	9.186035	0.7180023
1442567902250986834	-1.9996185	8.968155	0.7416992
1442567902259379168	-1.4889374	8.622116	0.62309265
1442567902267771502	-0.7823181	8.391647	0.20960999
1442567902276163836	-0.42962646	8.366684	0.03993225
1442567902284556170	-0.102371216	8.364609	-0.0896759
1442567902292948504	0.36306763	8.481293	0.044204712
1442567902301340838	0.5206299	8.67363	0.35816956
1442567902309733172	0.3499756	8.834213	0.6244812
1442567902318125506	0.2163086	8.84964	0.79733276
1442567902326517840	-0.036102295	8.876892	1.0331726
1442567902334910174	-0.3997345	8.923676	1.2555542
1442567902343302508	-0.62397766	8.922012	1.351654
1442567902351694842	-0.75460815	8.903961	1.3829193
1442567902360087176	-0.85998535	8.90332	1.3745728
1442567902368479510	-0.98931885	9.015244	1.4069366
1442567902376871844	-1.0368195	9.093384	1.4961243
1442567902385264178	-0.9434204	9.136902	1.5859985
1442567902393656512	-0.86294556	9.179871	1.6808014
1442567902402048846	-0.7665558	9.216782	1.7620087
1442567902410441180	-0.5468445	9.257355	1.7399445
1442567902418833514	-0.6117401	9.654663	1.8583374
1442567902427225848	-0.75257874	10.019989	1.8440399
1442567902435618182	-0.90423584	10.186417	1.8928833
1442567902444010516	-1.1125183	10.362656	1.988266
1442567902452402850	-1.4570007	10.543793	2.1151886
1442567902460795184	-1.8985748	10.501678	2.1307068
1442567902469187518	-2.2212067	10.348709	1.9930267
1442567902477579852	-2.4634705	10.222748	1.8047485
1442567902485972186	-2.831833	10.096802	1.5275421
1442567902494364520	-3.0505676	10.49469	1.1620941
1442567902502756854	-3.1305084	10.909866	1.0586548
1442567902511149188	-3.1757813	11.108185	1.0933838
1442567902519541522	-3.2166748	11.277756	1.0640869
1442567902527933856	-3.2880707	11.190475	0.64482117
1442567902536326190	-3.6379852	10.833954	0.43478394
1442567902544718524	-3.9921112	10.689301	0.256073
1442567902553110858	-4.1405487	10.74263	0.28434753
1442567902561503192	-4.113098	10.803574	0.41529846
1442567902569895526	-3.7209625	11.074905	0.71510315
1442567902578287860	-3.0669708	11.2956085	0.96424866
1442567902586680194	-2.4776917	11.248993	1.0601196
1442567902595072528	-1.9546051	11.142975	1.1128235
1442567902603464862	-0.9583435	11.269867	0.6365814
1442567902611857196	0.69158936	12.507858	-0.6824341
1442567902620249530	2.6615906	14.19281	-1.7284546
1442567902628641864	3.4076538	14.628494	-2.049759
1442567902637034198	4.217972	15.107712	-2.3340454
1442567902645426532	5.2893677	15.741837	-2.1058197
1442567902653818865	5.8948975	15.798187	-0.5885773
1442567902662211199	5.7656097	14.946487	0.8165741
1442567902670603533	5.3472595	13.947235	1.1565094
1442567902678995867	4.5373383	12.418991	1.1951447
1442567902687388201	3.145462	10.780441	0.8652191
1442567902695780535	1.541275	9.909378	0.11401367
1442567902704172869	0.62075806	9.879028	-0.72480774
1442567902712565203	-0.015411377	10.078873	-1.5197144
1442567902720957537	-0.74824524	10.359451	-2.6797943
1442567902729349871	-1.6079102	10.527924	-3.208786
1442567902737742205	-1.8603058	10.596359	-2.1491547
1442567902746134539	-2.125061	10.21402	-1.6549988
1442567902754526873	-2.2857056	9.68811	-1.243988
1442567902762919207	-2.0845947	8.696564	-1.0566406
1442567902771311541	-1.8975983	8.099091	-0.46821594
1442567902779703875	-1.5064087	7.8413086	0.010925293
1442567902788096209	-1.200531	7.795685	0.03149414
1442567902796488543	-0.82102966	7.636841	0.12005615
1442567902804880877	-0.33914185	7.218582	-0.040374756
1442567902813273211	-0.04411316	6.7679443	-0.24580383
1442567902821665545	0.1254425	6.563095	-0.28753662
1442567902830057879	0.28608704	6.4281464	-0.29782104
1442567902838450213	0.6700134	6.2348022	-0.5096283
1442567902846842547	1.0126343	6.05632	-1.0792999
1442567902855234881	0.82728577	5.988159	-0.94392395
1442567902863627215	0.5920868	5.8487244	-0.6040039
1442567902872019549	0.4313202	5.7343445	-0.4072876
1442567902880411883	0.5647888	5.667557	-0.7506714
1442567902888804217	0.7377472	5.5253754	-1.1586914
1442567902897196551	0.7368164	5.4256287	-1.3425446
1442567902905588885	0.6911926	5.3780823	-1.4781342
1442567902913981219	0.43058777	5.271454	-1.7337494
1442567902922373553	0.03804016	5.2520294	-2.0011444
1442567902930765887	-0.44508362	5.4409485	-2.1712646
1442567902939158221	-0.92759705	5.6427917	-2.3094177
1442567902947550555	-1.3992615	5.8336487	-2.4450073
1442567902955942889	-2.3440552	6.239609	-2.6050415
1442567902964335223	-3.4465027	6.767578	-2.7355804
1442567902972727557	-4.4731903	7.3822784	-2.9877777
1442567902981119891	-4.994339	7.83403	-3.1426392
1442567902989512225	-5.728424	8.449997	-3.378296
1442567902997904559	-6.953018	9.430954	-3.9098053
1442567903006296893	-7.816971	10.202286	-4.5242767
1442567903014689227	-8.09108	10.669022	-4.8072357
1442567903023081561	-8.0550995	10.913208	-4.842575
1442567903031473895	-7.5122223	11.285309	-4.857666
1442567903039866229	-6.129837	11.800018	-4.9556274
1442567903048258563	-4.299881	12.1618805	-5.146591
1442567903056650897	-3.767212	12.0620575	-5.399124
1442567903065043231	-3.5230103	11.876999	-5.6613007
1442567903073435565	-4.8236084	10.147476	-6.0940857
1442567903081827899	-5.2338867	7.954117	-6.0149536
1442567903090220233	-4.3109894	6.309067	-5.614105
1442567903098612567	-3.6182709	5.8174744	-5.114151
1442567903107004901	-2.679245	5.51915	-4.5061493
1442567903115397235	-1.4088898	5.9765015	-3.44812
1442567903123789569	-0.13624573	7.378845	-1.9909058
1442567903132181903	1.3321228	9.10376	-0.9415741
1442567903140574237	2.5639954	10.653076	-0.33944702
1442567903148966571	4.232895	13.81041	-0.15332031
1442567903157358905	4.1654205	17.131897	-1.0460815
1442567903165751239	1.6239166	18.53334	-1.1147308
1442567903174143573	0.22193909	17.794815	-1.0078278
1442567903182535907	-0.9250946	16.78273	-0.92108154
1442567903190928240	-1.3132782	12.9279785	-2.0799866
1442567903199320574	-0.889328	9.739639	-2.440155
1442567903207712908	0.055358887	7.474579	-1.0972137
1442567903216105242	0.5430908	6.3429565	0.2059784
1442567903224497576	1.3045502	5.0881195	1.8128662
1442567903232889910	2.345932	4.3324127	3.3989716
1442567903241282244	2.7562103	5.171982	3.6104126
1442567903249674578	2.4714966	6.6097717	3.3912964
1442567903258066912	1.8783722	8.047272	3.2839813
1442567903266459246	0.51405334	10.144974	3.0812073
1442567903274851580	-1.4931793	11.750763	2.530014
1442567903283243914	-3.5913086	12.732864	1.5487518
1442567903291636248	-4.4940033	12.961777	0.992218
1442567903300028582	-5.2346344	13.084015	0.49595642
1442567903308420916	-5.1648407	12.346252	0.13172913
1442567903316813250	-4.1548157	10.97789	-0.035736084
1442567903325205584	-2.9783173	9.411118	0.06636047
1442567903333597918	-2.0754547	8.638062	0.2938385
1442567903341990252	-0.9765625	7.680252	0.5728302
1442567903350382586	0.49595642	6.7003326	0.8025665
1442567903358774920	1.6092072	6.1686707	1.0116882
1442567903367167254	1.9006195	6.0312805	1.0697174
1442567903375559588	1.8941956	6.097458	0.93156433
1442567903383951922	1.2923737	6.604355	1.091095
1442567903392344256	0.5133209	7.2662964	1.2845001
1442567903400736590	-0.18832397	8.037949	0.8951874
1442567903409128924	-0.68878174	8.604263	0.67059326
1442567903417521258	-1.2033539	9.181198	0.46881104
1442567903425913592	-2.031128	10.039368	0.3670349
1442567903434305926	-2.515976	10.471405	0.45555115
1442567903442698260	-2.5092926	10.429352	0.4690857
1442567903451090594	-2.3730621	10.180023	0.46458435
1442567903459482928	-2.0342102	9.721085	0.48239136
1442567903467875262	-1.4360046	9.006226	0.5049286
1442567903476267596	-0.9308624	8.46048	0.59632874
1442567903484659930	-0.7937317	8.231476	0.6951599
1442567903493052264	-0.8438568	8.129303	0.75234985
1442567903501444598	-0.993103	8.163055	0.71580505
1442567903509836932	-1.2286987	8.277405	0.72732544
1442567903518229266	-1.4557495	8.3728485	0.8725281
1442567903526621600	-1.4766388	8.439804	0.9382782
1442567903535013934	-1.4816742	8.508728	0.99760437
1442567903543406268	-1.3725586	8.595398	1.0395203
1442567903551798602	-1.1017151	8.663803	1.1610565
1442567903560190936	-0.85176086	8.7248535	1.32341
1442567903568583270	-0.66156006	8.751205	1.4255829
1442567903576975604	-0.35917664	8.78952	1.5140381
1442567903585367938	-0.027191162	8.840195	1.6485901
1442567903593760272	0.21537781	8.818954	1.7753448
1442567903602152606	0.28224182	8.839706	1.9035187
1442567903610544940	0.2571869	8.90654	2.0551758
1442567903618937274	0.08869934	9.124512	2.0906372
1442567903627329608	-0.12794495	9.451752	2.3148804
1442567903635721942	-0.051834106	9.974823	2.3937836
1442567903644114276	-0.06855774	10.262085	2.5030212
1442567903652506610	-0.12750244	10.545502	2.6092682
1442567903660898944	-0.49423218	10.731674	2.6532745
1442567903669291278	-1.0429077	10.607819	2.488556
1442567903677683612	-1.4308624	10.503418	2.2608948
1442567903686075946	-1.6911011	10.603668	2.1272278
1442567903694468280	-1.870285	10.817474	1.8875732
1442567903702860614	-1.9387665	11.299484	1.743103
1442567903711252948	-1.9960327	11.888367	1.6660309
1442567903719645282	-2.0984802	12.236359	1.4425812
1442567903728037615	-2.2180023	12.4831085	1.1797638
1442567903736429949	-2.614853	12.515961	0.7196808
1442567903744822283	-3.197464	12.389435	0.4747162
1442567903753214617	-3.8503723	12.338394	0.46128845
1442567903761606951	-3.9339142	12.3461	0.44587708
1442567903769999285	-3.9391785	12.378586	0.40055847
1442567903778391619	-3.5337982	12.463516	0.25576782
1442567903786783953	-2.8402557	12.233261	0.3121643
1442567903795176287	-2.0634003	11.737106	0.44178772
1442567903803568621	-1.5358124	11.287277	0.36532593
1442567903811960955	-0.6128235	10.548782	0.15434265
1442567903820353289	0.69763184	10.034332	-0.29144287
1442567903828745623	1.7849426	10.394043	-0.91716003
1442567903837137957	2.2470856	10.9066925	-1.4462433
1442567903845530291	2.527893	11.375137	-1.9217682
1442567903853922625	3.2141876	12.7582855	-2.1314697
1442567903862314959	4.001892	13.811066	-1.5016632
1442567903870707293	4.401947	14.192749	-0.27928162
1442567903879099627	4.1853943	13.687668	0.20588684
1442567903887491961	3.8256836	12.895447	0.7021332
1442567903895884295	2.913147	11.235275	0.9777832
1442567903904276629	1.906723	10.275406	0.4056549
1442567903912668963	1.1352234	10.09494	-0.3426056
1442567903921061297	0.6687012	10.233093	-0.83613586
1442567903929453631	-0.022384644	10.470871	-1.3876038
1442567903937845965	-0.6718292	10.820709	-1.9912567
1442567903946238299	-1.6201324	11.014954	-1.6538849
1442567903954630633	-2.041626	10.674759	-1.2537231
1442567903963022967	-2.2530365	10.197937	-0.95428467
1442567903971415301	-2.0841522	9.169662	-0.81256104
1442567903979807635	-1.8001862	8.275772	-0.31056213
1442567903988199969	-1.5171814	7.8411255	-0.32054138
1442567903996592303	-1.310257	7.6387024	-0.26979065
1442567904004984637	-1.054596	7.3729706	-0.35855103
1442567904013376971	-0.7027588	6.9651184	-0.70617676
1442567904021769305	-0.34632874	6.6476746	-0.80296326
1442567904030161639	-0.028411865	6.4447784	-0.92718506
1442567904038553973	0.060913086	6.3753815	-0.9715271
1442567904046946307	-0.092285156	6.265106	-0.7170563
1442567904055338641	-0.012466431	6.046753	-0.73461914
1442567904063730975	0.07093811	5.8055115	-0.8884735
1442567904072123309	0.0821991	5.641388	-1.0297852
1442567904080515643	0.09248352	5.494232	-1.1763
1442567904088907977	0.23088074	5.1278534	-1.3383484
1442567904097300311	0.47724915	4.674286	-1.7173309
1442567904105692645	0.50309753	4.2659607	-1.920929
1442567904114084979	0.3443756	4.1020966	-1.9421387
1442567904122477313	0.11331177	3.9212189	-1.9829712
1442567904130869647	-0.3658142	3.7724457	-2.1257782
1442567904139261981	-1.0540466	3.8906708	-2.3863373
1442567904147654315	-1.6680756	4.197174	-2.6367645
1442567904156046649	-2.0979767	4.5107574	-2.8481903
1442567904164438983	-2.9723816	5.198929	-3.0453033
1442567904172831317	-4.2549286	6.2407684	-3.342102
1442567904181223651	-5.5012817	7.518097	-3.7646027
1442567904189615985	-6.3166656	8.419266	-3.8825836
1442567904198008319	-7.057602	9.24115	-3.9397736
1442567904206400653	-8.329025	10.676498	-4.2005157
1442567904214792987	-8.819458	11.704025	-4.3755646
1442567904223185321	-8.619263	12.254456	-4.798935
1442567904231577655	-8.100693	12.59697	-5.2686768
1442567904239969989	-7.2315216	13.070923	-5.9245453
1442567904248362323	-5.568878	13.672424	-6.841751
1442567904256754657	-4.4174194	13.429779	-7.2279663
1442567904265146990	-4.350052	12.223953	-7.113678
1442567904273539324	-4.6045227	10.806366	-6.9099884
1442567904281931658	-4.4336243	8.442062	-6.3418427
1442567904290323992	-3.0957031	6.954773	-5.3838196
1442567904298716326	-1.3465271	7.6474304	-4.116272
1442567904307108660	-0.604599	8.804321	-3.1743622
1442567904315500994	0.033721924	10.0017395	-2.276291
1442567904323893328	2.5882263	12.896805	-1.0533905
1442567904332285662	4.440735	15.365265	-1.1215973
1442567904340677996	4.299652	16.05214	-1.763916
1442567904349070330	2.7554626	15.438446	-1.9946136
1442567904357462664	1.080658	14.104813	-2.1960907
1442567904365854998	0.09602356	11.234863	-2.3358917
1442567904374247332	0.0907135	8.322464	-2.2670746
1442567904382639666	0.12461853	6.82016	-1.9186859
1442567904391032000	0.35595703	6.1389923	-1.5054932
1442567904399424334	0.3886261	5.271927	0.2077179
1442567904407816668	0.54681396	4.977661	2.7863007
1442567904416209002	1.1473083	5.9802094	3.8827667
1442567904424601336	1.4429779	7.0854034	3.6556854
1442567904432993670	1.654007	8.285095	3.272873
1442567904441386004	0.8986664	11.180923	1.925766
1442567904449778338	-0.6148529	13.180588	1.3114777
1442567904458170672	-2.3164368	13.933624	1.0264282
1442567904466563006	-3.202591	13.708084	0.6369934
1442567904474955340	-4.1285706	13.014969	0.18537903
1442567904483347674	-4.779129	11.629562	-0.22270203
1442567904491740008	-4.372467	10.356064	-0.3278656
1442567904500132342	-3.6635437	9.509323	-0.36299133
1442567904508524676	-3.1353302	8.882141	-0.43496704
1442567904516917010	-2.4068756	8.071014	-0.059524536
1442567904525309344	-1.7042694	7.326889	0.56710815
1442567904533701678	-0.71647644	7.0472565	0.8470459
1442567904542094012	-0.29992676	6.938797	0.7728882
1442567904550486346	0.048477173	6.8532715	0.70803833
1442567904558878680	-0.007797241	6.943756	0.8470459
1442567904567271014	-0.24655151	7.097824	0.7806549
1442567904575663348	-0.6411438	7.351059	0.75476074
1442567904584055682	-1.0691223	7.4622345	0.74961853
1442567904592448016	-1.4645691	7.7043457	0.7108307
1442567904600840350	-2.0687408	8.072739	0.82670593
1442567904609232684	-2.0070648	8.491486	0.73991394
1442567904617625018	-1.7591095	8.806519	0.53279114
1442567904626017352	-1.7816162	9.026291	0.4216156
1442567904634409686	-1.368515	9.262131	0.29789734
1442567904642802020	-0.7573242	9.277191	0.09957886
1442567904651194354	-0.2450409	9.000931	-0.030792236
1442567904659586688	0.040740967	8.800629	0.008529663
1442567904667979022	0.33746338	8.581467	0.08728027
1442567904676371356	0.5930939	8.269379	0.43536377
1442567904684763690	0.26931763	8.197388	0.7801056
1442567904693156024	-0.11351013	8.297241	0.9246826
1442567904701548358	-0.40911865	8.406479	0.94525146
1442567904709940692	-0.8742218	8.5776825	0.97735596
1442567904718333026	-1.4190674	8.798523	1.0007477
1442567904726725360	-1.7010803	8.93692	1.0710602
1442567904735117694	-1.7684021	8.973007	1.1924744
1442567904743510028	-1.7857513	8.980728	1.3184357
1442567904751902362	-1.6669312	8.829636	1.4759369
1442567904760294696	-1.4699554	8.654694	1.721405
1442567904768687030	-1.2948761	8.6008	1.9174042
1442567904777079364	-1.1573639	8.614304	1.9880981
1442567904785471698	-0.98999023	8.646835	2.0444794
1442567904793864032	-0.67355347	8.842133	2.023285
1442567904802256365	-0.36236572	9.284439	1.9826508
1442567904810648699	-0.15986633	9.776108	1.9974976
1442567904819041033	-0.16757202	10.229797	2.1247406
1442567904827433367	-0.20800781	10.791428	2.248703
1442567904835825701	-0.51924133	11.093048	2.3687744
1442567904844218035	-1.0982208	10.678986	2.2653503
1442567904852610369	-1.5198975	10.392548	1.9879608
1442567904861002703	-1.8591919	10.253754	1.6897888
1442567904869395037	-2.1567535	10.259918	1.2027283
1442567904877787371	-2.2442322	10.877182	1.3209534
1442567904886179705	-2.1855927	11.63797	1.1728668
1442567904894572039	-2.2350616	11.712509	1.2152863
1442567904902964373	-2.3258057	11.69632	1.2546082
1442567904911356707	-2.679428	11.342438	1.134964
1442567904919749041	-3.3423615	11.168808	0.69091797
1442567904928141375	-3.8372803	11.275558	0.50531006
1442567904936533709	-3.9638672	11.4721985	0.48538208
1442567904944926043	-3.857376	11.899475	0.473526
1442567904953318377	-3.3417969	12.510254	0.4849701
1442567904961710711	-2.3549805	12.825653	0.4453125
1442567904970103045	-1.5776215	12.796448	0.32496643
1442567904978495379	-0.9202423	12.69812	0.18745422
1442567904986887713	0.7075348	12.615265	-0.46417236
1442567904995280047	2.5095062	13.028976	-1.0637054
1442567905003672381	3.5324097	13.370544	-1.7587891
1442567905012064715	3.8460083	13.638504	-1.95607
1442567905020457049	4.227646	13.93335	-1.9441986
1442567905028849383	4.6563873	14.234589	-1.0081177
1442567905037241717	4.4627533	14.025497	0.3736267
1442567905045634051	3.9173431	13.248703	1.0713806
1442567905054026385	3.4116058	12.445435	1.1613464
1442567905062418719	2.445633	11.372253	0.7076874
1442567905070811053	1.3094788	10.355164	-0.23791504
1442567905079203387	0.17526245	10.185669	-1.1434326
1442567905087595721	-0.2965088	10.392502	-1.7835388
1442567905095988055	-0.58247375	10.625778	-2.3625183
1442567905104380389	-1.0382538	11.157562	-2.9861908
1442567905112772723	-1.1271667	10.718277	-2.4633636
1442567905121165057	-1.3306274	10.418671	-0.8941498
1442567905129557391	-1.5613098	9.820404	-0.50730896
1442567905137949725	-1.7003479	9.105255	-0.3892975
1442567905146342059	-1.4666901	8.215424	-0.61039734
1442567905154734393	-0.9707031	7.7870483	-0.17216492
1442567905163126727	-0.57954407	7.6498413	-0.012008667
1442567905171519061	-0.32569885	7.5213165	-0.04736328
1442567905179911395	-0.14297485	7.1226654	-0.11567688
1442567905188303729	0.10005188	6.54393	-0.3580475
1442567905196696063	0.39730835	6.1428833	-0.6664734
1442567905205088397	0.569458	5.9400024	-0.7736511
1442567905213480731	0.7146759	5.7664948	-0.838562
1442567905221873065	0.74324036	5.6247864	-1.2343597
1442567905230265399	0.84625244	5.522705	-1.4422913
1442567905238657733	0.21231079	5.266754	-0.7772827
1442567905247050067	0.119125366	5.2217712	-0.838974
1442567905255442401	0.061904907	5.1811676	-0.9936218
1442567905263834735	0.072891235	5.163925	-1.2272491
1442567905272227069	-0.007385254	5.107544	-1.319809
1442567905280619403	-0.13626099	4.9791565	-1.466217
1442567905289011737	-0.22814941	4.854492	-1.5812378
1442567905297404071	-0.5131073	4.5548553	-1.7580872
1442567905305796405	-0.7967224	4.467911	-2.0196686
1442567905314188739	-1.0174713	4.810257	-2.2654724
1442567905322581073	-1.2708588	5.165146	-2.3867493
1442567905330973407	-1.5304718	5.5089417	-2.4895782
1442567905339365740	-2.4354858	6.3314056	-2.7306824
1442567905347758074	-3.6033173	7.334503	-3.1348267
1442567905356150408	-4.754425	8.286438	-3.68013
1442567905364542742	-5.4220734	8.843567	-4.015564
1442567905372935076	-6.494873	9.609604	-4.3545685
1442567905381327410	-8.114197	10.5785675	-4.523941
1442567905389719744	-8.986145	11.253387	-4.61084
1442567905398112078	-8.992203	11.735565	-4.9256744
1442567905406504412	-8.673477	12.080643	-5.2810364
1442567905414896746	-7.4641113	12.740509	-6.0000153
1442567905423289080	-5.4509735	13.347794	-6.874817
1442567905431681414	-4.2379	12.925415	-7.2765045
1442567905440073748	-4.432846	11.593445	-6.964096
1442567905448466082	-4.757721	10.112778	-6.554016
1442567905456858416	-4.6944885	6.941971	-5.4636536
1442567905465250750	-3.1142273	5.083908	-4.804779
1442567905473643084	-1.6805573	4.851471	-4.090622
1442567905482035418	-1.0148163	5.0943756	-3.6889954
1442567905490427752	-0.15376282	5.7362213	-2.910736
1442567905498820086	1.5189667	7.6545105	-1.5007019
1442567905507212420	3.832489	11.264206	-0.64793396
1442567905515604754	5.172104	14.657028	-0.844635
1442567905523997088	5.8082886	17.30391	-1.3972778
1442567905532389422	4.3881226	20.856995	-1.6695099
1442567905540781756	0.72506714	21.192215	-0.88371277
1442567905549174090	-2.3955994	16.230865	-1.660614
1442567905557566424	-2.5845032	13.089386	-2.086563
1442567905565958758	-2.4229126	10.099182	-2.4142456
1442567905574351092	-0.54003906	6.9304047	-1.8744965
1442567905582743426	-0.1355896	4.6062164	-0.060028076
1442567905591135760	0.46803284	3.0789032	2.0561676
1442567905599528094	0.84588623	2.8392181	3.0836792
1442567905607920428	1.3844299	3.1055298	3.7766418
1442567905616312762	1.6818848	5.2350464	3.5832977
1442567905624705096	1.1800537	8.6050415	2.9456787
1442567905633097430	0.33714294	10.71225	2.5830536
1442567905641489764	-0.56185913	12.05336	2.3857727
1442567905649882098	-2.0374603	13.590271	1.5265198
1442567905658274432	-4.0842896	14.301651	0.457016
1442567905666666766	-5.636307	13.735092	-0.5138855
1442567905675059100	-5.297806	12.864731	-0.53182983
1442567905683451434	-4.7834015	11.892059	-0.4862213
1442567905691843768	-3.2677917	10.104477	-0.17060852
1442567905700236102	-1.6944122	8.292969	0.14619446
1442567905708628436	-0.44389343	7.084259	0.6118469
1442567905717020770	0.09011841	6.599106	0.82839966
1442567905725413104	1.0140533	6.1440277	1.167923
1442567905733805438	1.674408	5.945099	1.210846
1442567905742197772	1.4986267	6.285385	1.1704254
1442567905750590106	1.0716248	6.5847015	1.2971954
1442567905758982440	0.5761719	6.7440643	1.3967896
1442567905767374774	-0.016433716	7.2221527	1.2408905
1442567905775767108	-0.9494324	8.069229	0.9619293
1442567905784159442	-1.6552734	9.035065	0.6204834
1442567905792551776	-1.8699036	9.405853	0.5356598
1442567905800944110	-2.1006165	9.810562	0.45606995
1442567905809336444	-2.3016815	10.291626	0.432312
1442567905817728778	-2.0062103	10.146774	0.4836731
1442567905826121112	-1.6349945	9.612991	0.5151062
1442567905834513446	-1.3207703	9.179886	0.5877228
1442567905842905780	-0.87939453	8.635727	0.7571869
1442567905851298114	-0.463089	8.223999	0.8953705
1442567905859690448	-0.25416565	8.162033	0.89367676
1442567905868082782	-0.28501892	8.227936	0.86112976
1442567905876475115	-0.39811707	8.30954	0.8244934
1442567905884867449	-0.65740967	8.542175	0.7346649
1442567905893259783	-0.9220123	8.6519165	0.7635956
1442567905901652117	-0.9977722	8.730621	0.91148376
1442567905910044451	-1.0183411	8.834732	1.0406494
1442567905918436785	-1.0419464	8.962891	1.1507721
1442567905926829119	-1.0443878	9.200348	1.1903381
1442567905935221453	-0.9449158	9.347733	1.3162842
1442567905943613787	-0.8453064	9.276108	1.5143738
1442567905952006121	-0.7386322	9.170715	1.6885223
1442567905960398455	-0.505249	8.93251	1.7572937
1442567905968790789	-0.29389954	8.753799	1.8825836
1442567905977183123	-0.283844	8.928604	1.9749451
1442567905985575457	-0.3382721	9.183533	1.9578247
1442567905993967791	-0.3961029	9.42514	1.9256897
1442567906002360125	-0.4494629	9.90567	1.859909
1442567906010752459	-0.6701813	10.442902	2.225647
1442567906019144793	-0.98916626	10.530914	2.4423828
1442567906027537127	-1.2815552	10.404327	2.4616547
1442567906035929461	-1.6164093	10.256271	2.4097137
1442567906044321795	-2.101303	10.122177	2.0213318
1442567906052714129	-2.551834	10.285339	1.4872894
1442567906061106463	-2.8154602	10.592041	1.2570343
1442567906069498797	-2.8970642	10.917206	1.3007355
1442567906077891131	-3.0239563	11.241638	1.2589569
1442567906086283465	-3.0606537	11.453293	1.0469055
1442567906094675799	-3.0860138	11.317474	0.8583374
1442567906103068133	-3.2112274	11.0959015	0.7435303
1442567906111460467	-3.3583832	10.884491	0.6400757
1442567906119852801	-3.7176056	10.778809	0.3782959
1442567906128245135	-3.878357	10.883591	0.2364502
1442567906136637469	-3.5148163	11.347794	0.28671265
1442567906145029803	-3.1915894	11.433258	0.24043274
1442567906153422137	-2.6771393	11.440704	0.19546509
1442567906161814471	-1.5644379	11.378128	-0.0070343018
1442567906170206805	-0.2268982	12.078278	-0.62202454
1442567906178599139	0.9713898	13.071518	-1.235199
1442567906186991473	1.7463684	13.628647	-1.7107239
1442567906195383807	2.9007416	14.198517	-2.159256
1442567906203776141	3.9726715	14.893814	-2.2406769
1442567906212168475	4.705124	15.7152405	-1.4644623
1442567906220560809	4.9718933	15.800415	-0.51272583
1442567906228953143	5.1421814	15.704025	0.4229126
1442567906237345477	4.262619	13.977371	1.0098267
1442567906245737811	3.0951385	11.934601	0.49494934
1442567906254130145	1.7888947	10.930008	-0.14291382
1442567906262522479	0.99334717	10.797623	-0.6332245
1442567906270914813	0.1312561	10.7834015	-1.366745
1442567906279307147	-0.7227936	10.979416	-2.5991516
1442567906287699481	-1.3568573	11.171799	-3.1103668
1442567906296091815	-1.6685028	11.269516	-2.62677
1442567906304484149	-1.5444794	11.091507	-1.8839264
1442567906312876483	-1.5247345	10.200745	-1.2081451
1442567906321268817	-1.5010986	8.985199	-1.0820313
1442567906329661151	-1.2120819	8.055939	-0.46066284
1442567906338053485	-1.0985413	7.7843933	-0.1214447
1442567906346445819	-1.030426	7.62117	0.12724304
1442567906354838153	-0.4196167	7.5269165	0.31419373
1442567906363230487	-0.15943909	7.0587463	0.24705505
1442567906371622821	0.15513611	6.5487823	0.13301086
1442567906380015155	0.2810974	6.3155212	0.07003784
1442567906388407489	0.47140503	6.074051	-0.09262085
1442567906396799823	0.8062134	5.870743	-0.5014496
1442567906405192157	1.2278442	5.789505	-1.0269623
1442567906413584490	1.2420807	5.7209625	-1.0609283
1442567906421976824	0.833374	5.6252136	-0.61302185
1442567906430369158	0.6736908	5.4079895	-0.7033386
1442567906438761492	0.61987305	5.2527466	-1.0335541
1442567906447153826	0.6107788	5.0760803	-1.1758423
1442567906455546160	0.56359863	4.91626	-1.2834473
1442567906463938494	0.50679016	4.758011	-1.3946075
1442567906472330828	0.26835632	4.446747	-1.6537933
1442567906480723162	-0.2729187	4.136444	-2.0296936
1442567906489115496	-0.75631714	4.174576	-2.41362
1442567906497507830	-1.0371246	4.3480835	-2.5755615
1442567906505900164	-1.5037079	4.659439	-2.730011
1442567906514292498	-2.4539032	5.2938385	-2.8374481
1442567906522684832	-3.6009216	6.153427	-3.0171661
1442567906531077166	-4.3694305	6.877777	-3.2566376
1442567906539469500	-4.861664	7.41243	-3.4539185
1442567906547861834	-6.1121216	8.620544	-3.8612518
1442567906556254168	-7.6996613	10.282974	-4.299759
1442567906564646502	-8.93634	11.70433	-4.7226105
1442567906573038836	-9.252243	12.211578	-5.1990204
1442567906581431170	-9.452301	12.664902	-5.704834
1442567906589823504	-8.890732	13.520493	-6.587982
1442567906598215838	-7.393738	14.055893	-7.021042
1442567906606608172	-5.5786133	13.829437	-6.941284
1442567906615000506	-4.8820343	13.0550995	-6.7671356
1442567906623392840	-4.601349	11.252853	-6.551605
1442567906631785174	-4.6086884	7.9575806	-6.2456665
1442567906640177508	-3.6079407	5.1118164	-5.6572723
1442567906648569842	-2.4448395	3.9686432	-5.0175323
1442567906656962176	-1.5252838	3.7077484	-4.483536
1442567906665354510	-0.50177	3.6068573	-3.579239
1442567906673746844	0.6713562	4.160431	-2.5830536
1442567906682139178	2.7437897	5.7034607	-1.2949066
1442567906690531512	3.9608307	7.2902374	-0.6566467
1442567906698923846	5.154663	9.120728	-0.11114502
1442567906707316180	6.232544	13.668259	-0.2305603
1442567906715708514	4.8473206	19.484283	-0.45155334
1442567906724100848	1.947815	23.646286	0.15222168
1442567906732493182	-0.20169067	24.094818	0.19268799
1442567906740885516	-3.0121307	21.841904	-0.7546997
1442567906749277850	-4.438339	15.41684	-2.0673523
1442567906757670184	-2.6093903	9.570221	-1.2151337
1442567906766062518	-1.0295715	6.783676	0.014907837
1442567906774454852	-0.024536133	5.1803894	0.9319
1442567906782847186	1.3261414	2.881256	2.7748108
1442567906791239520	2.3172607	1.7221375	3.950943
1442567906799631854	2.5781555	3.0409698	4.168045
1442567906808024188	2.0598297	4.772949	3.9446564
1442567906816416522	1.3577728	6.6489105	3.6366882
1442567906824808856	-0.5174103	9.440384	2.751648
1442567906833201190	-2.328659	11.899551	1.6681519
1442567906841593524	-3.8971863	13.536713	0.6626282
1442567906849985858	-4.6130524	14.122757	0.3361969
1442567906858378192	-5.201935	14.1371	0.18655396
1442567906866770526	-4.847687	12.580673	0.29049683
1442567906875162860	-3.284912	10.206909	0.42723083
1442567906883555194	-2.0364838	8.772095	0.5959778
1442567906891947528	-1.0950623	7.787628	0.78427124
1442567906900339862	0.43467712	6.729553	0.9226074
1442567906908732196	1.193161	6.12265	0.95062256
1442567906917124530	1.8851166	6.0458374	0.9044037
1442567906925516864	1.7855225	6.3163757	0.8009491
1442567906933909198	1.6183014	6.5994263	0.80485535
1442567906942301532	1.0349121	7.06308	1.2010498
1442567906950693865	0.1171875	8.012161	1.0000763
1442567906959086199	-0.8051605	8.910919	0.70622253
1442567906967478533	-1.3365936	9.328613	0.5744934
1442567906975870867	-1.9023743	9.739761	0.4136505
1442567906984263201	-2.315506	9.900879	0.27970886
1442567906992655535	-2.2320862	9.696991	0.179245
1442567907001047869	-2.0329285	9.47168	0.19021606
1442567907009440203	-1.8658447	9.278244	0.24676514
1442567907017832537	-1.6109161	8.959076	0.4845276
1442567907026224871	-1.3564453	8.655289	0.68904114
1442567907034617205	-1.3118896	8.329071	0.8526764
1442567907043009539	-1.3562317	8.158142	0.8636017
1442567907051401873	-1.3981323	7.994919	0.8543396
1442567907059794207	-1.4364777	7.9099274	0.80693054
1442567907068186541	-1.4369812	8.011002	0.8911133
1442567907076578875	-1.3491516	8.202362	0.982193
1442567907084971209	-1.2887573	8.361725	1.0374451
1442567907093363543	-1.0930481	8.61853	1.0723877
1442567907101755877	-0.7601166	8.915466	1.2357025
1442567907110148211	-0.3002472	9.06012	1.448883
1442567907118540545	-0.026229858	9.067398	1.5761871
1442567907126932879	0.16976929	9.048767	1.6815796
1442567907135325213	0.42243958	9.090225	1.8991852
1442567907143717547	0.61961365	9.048859	1.8440094
1442567907152109881	0.50239563	9.138016	1.889801
1442567907160502215	0.39442444	9.373199	1.9193573
1442567907168894549	0.25730896	9.703171	1.9461823
1442567907177286883	-0.023880005	10.279297	2.0352325
1442567907185679217	-0.49835205	10.573944	2.3050995
1442567907194071551	-0.9842377	10.506897	2.441208
1442567907202463885	-1.3171082	10.289703	2.3692474
1442567907210856219	-1.7097931	10.062027	2.0273285
1442567907219248553	-2.068512	10.120468	1.4788513
1442567907227640887	-2.2064514	10.550125	0.84591675
1442567907236033221	-2.3186798	10.870239	0.77601624
1442567907244425555	-2.442688	11.138855	0.8647003
1442567907252817889	-2.7818298	11.860321	0.90571594
1442567907261210223	-3.1560822	11.965515	0.82347107
1442567907269602557	-3.6003723	11.674881	0.73895264
1442567907277994891	-3.8766937	11.440964	0.68110657
1442567907286387225	-4.1614075	11.223526	0.57315063
1442567907294779559	-4.3530426	11.131744	0.42114258
1442567907303171893	-4.095642	11.353607	0.5404663
1442567907311564227	-3.6013489	11.638565	0.66625977
1442567907319956561	-3.2022858	11.7491	0.6456909
1442567907328348895	-2.2609863	11.667358	0.5393219
1442567907336741229	-0.84169006	11.61171	0.16619873
1442567907345133563	0.61161804	12.156647	-0.5209503
1442567907353525897	1.4544525	12.662674	-0.94641113
1442567907361918231	2.1703186	13.124069	-1.3017731
1442567907370310565	3.287033	13.312653	-1.7820282
1442567907378702899	4.1051483	13.695435	-1.8152161
1442567907387095233	4.7581787	14.27356	-0.99658203
1442567907395487567	5.0190735	14.432938	-0.29037476
1442567907403879901	5.0273285	14.266159	0.49272156
1442567907412272235	4.222946	13.156998	1.1059418
1442567907420664569	2.9552307	11.781509	1.0521545
1442567907429056903	1.9315186	10.983276	0.7027893
1442567907437449237	1.200882	10.627914	0.198349
1442567907445841571	0.26034546	10.449631	-0.90715027
1442567907454233905	-0.5026398	10.857712	-2.1634064
1442567907462626239	-1.2339783	11.330765	-2.8476868
1442567907471018573	-1.3904724	11.381165	-2.7355804
1442567907479410907	-1.4515076	11.368973	-2.517105
1442567907487803240	-1.6876068	10.6723175	-1.0721588
1442567907496195574	-1.6556091	9.245087	-0.9130249
1442567907504587908	-1.507843	8.45488	-0.74809265
1442567907512980242	-1.4043884	8.093109	-0.34068298
1442567907521372576	-1.1799316	7.7404175	-0.047821045
1442567907529764910	-1.002243	7.4502563	-0.09719849
1442567907538157244	-1.0309296	7.06929	-0.14562988
1442567907546549578	-0.9149933	6.690735	-0.060012817
1442567907554941912	-0.8404541	6.44783	-0.01953125
1442567907563334246	-0.6620331	6.1205597	0.023162842
1442567907571726580	-0.09135437	5.7711945	-0.3648529
1442567907580118914	0.6652374	5.610031	-1.3314362
1442567907588511248	0.6036377	5.4566345	-1.082428
1442567907596903582	0.44970703	5.300461	-0.69844055
1442567907605295916	0.375885	5.1909943	-0.71177673
1442567907613688250	0.4549713	5.3083954	-1.0780945
1442567907622080584	0.4267273	5.257782	-1.1316833
1442567907630472918	0.4704132	5.169739	-1.1760254
1442567907638865252	0.4881134	5.0083466	-1.3540802
1442567907647257586	0.3912506	4.7826385	-1.7017059
1442567907655649920	0.14135742	4.6272736	-1.9513855
1442567907664042254	-0.20585632	4.5676117	-2.1006012
1442567907672434588	-0.5792084	4.572113	-2.2059937
1442567907680826922	-1.2913818	4.8715057	-2.425415
1442567907689219256	-2.4049225	5.4053345	-2.7244415
1442567907697611590	-3.825531	6.26001	-2.9550323
1442567907706003924	-4.4866333	6.946472	-3.0071716
1442567907714396258	-5.139633	7.684601	-3.0552673
1442567907722788592	-6.3911133	9.253601	-3.241516
1442567907731180926	-7.514267	10.649689	-3.7436676
1442567907739573260	-8.173309	11.60965	-4.397354
1442567907747965594	-8.332687	12.050461	-4.7886963
1442567907756357928	-8.279221	12.556854	-5.3082275
1442567907764750262	-7.5745544	13.024841	-5.8207245
1442567907773142596	-6.0908356	13.096878	-5.973007
1442567907781534930	-4.982773	12.840546	-5.9927673
1442567907789927264	-4.2932587	12.511536	-6.012039
1442567907798319598	-4.25296	11.042099	-5.9999084
1442567907806711932	-4.2391663	8.871841	-5.990906
1442567907815104266	-3.2492065	7.053604	-5.301819
1442567907823496600	-2.4911957	6.6938477	-4.643219
1442567907831888934	-1.6616058	6.460663	-3.9054565
1442567907840281268	-0.2485199	7.059204	-2.4887238
1442567907848673602	1.1689758	8.4897	-1.1759796
1442567907857065936	3.2492676	10.24733	-0.5650177
1442567907865458270	4.2176666	11.595505	-0.57788086
1442567907873850604	4.633728	13.647049	-1.1649933
1442567907882242938	3.3815308	15.984039	-2.1336365
1442567907890635272	0.91148376	16.514053	-2.126236
1442567907899027606	-0.7381134	15.36528	-1.9300537
1442567907907419940	-1.86203	13.814682	-1.8818665
1442567907915812274	-1.721817	10.675034	-1.7745514
1442567907924204608	-1.0432892	8.003784	-0.43496704
1442567907932596942	-0.12554932	6.1236267	1.3571777
1442567907940989276	0.41680908	5.5947723	2.2176208
1442567907949381610	0.9397278	5.2099457	3.0639496
1442567907957773944	1.3594666	5.826309	3.6191711
1442567907966166278	1.5395966	7.3584747	3.3583221
1442567907974558612	0.96710205	9.30455	2.994049
1442567907982950946	0.31100464	10.39505	2.690094
1442567907991343280	-0.87979126	11.50354	2.149231
1442567907999735614	-2.5257874	12.358612	1.3195038
1442567908008127948	-3.8237	12.49057	0.48736572
1442567908016520282	-4.253067	12.145874	0.13191223
1442567908024912615	-4.3757935	11.72496	-0.025527954
1442567908033304949	-3.492981	10.636017	-0.04698181
1442567908041697283	-2.458786	9.319763	0.09313965
1442567908050089617	-1.2778931	8.1931	0.39474487
1442567908058481951	-0.5890198	7.7959747	0.55410767
1442567908066874285	0.15522766	7.3871613	0.69828796
1442567908075266619	1.005188	6.9315796	0.84376526
1442567908083658953	1.2782745	6.673874	1.0207825
1442567908092051287	1.1276093	6.810318	0.9406128
1442567908100443621	0.8069458	6.963257	1.0453644
1442567908108835955	0.27790833	7.1148376	1.2744446
1442567908117228289	-0.45864868	7.6001587	1.1383057
1442567908125620623	-1.3451996	8.427628	0.96513367
1442567908134012957	-1.9121094	8.926071	0.93792725
1442567908142405291	-2.338791	9.284637	0.9115906
1442567908150797625	-2.5748138	9.793518	0.7175598
1442567908159189959	-2.6259613	9.801636	0.4971161
1442567908167582293	-2.2639923	9.474472	0.12208557
1442567908175974627	-1.981247	9.18338	0.016052246
1442567908184366961	-1.6071014	8.836914	-0.041610718
1442567908192759295	-0.95521545	8.378006	0.14753723
1442567908201151629	-0.5057678	8.249313	0.50660706
1442567908209543963	-0.29319763	8.316544	0.7979431
1442567908217936297	-0.20837402	8.363449	1.0279999
1442567908226328631	-0.30247498	8.449112	1.2174835
1442567908234720965	-0.58958435	8.58754	1.2486877
1442567908243113299	-0.8857727	8.634567	1.2351532
1442567908251505633	-0.99154663	8.59404	1.2343597
1442567908259897967	-1.0435944	8.540695	1.2337189
1442567908268290301	-1.1137695	8.498459	1.2453461
1442567908276682635	-1.0526123	8.739029	1.0816956
1442567908285074969	-0.87597656	9.164505	1.1433258
1442567908293467303	-0.7828064	9.395187	1.2924194
1442567908301859637	-0.60440063	9.580902	1.4483643
1442567908310251971	-0.2654419	9.616165	1.6876526
1442567908318644305	-0.10946655	9.596161	1.89151
1442567908327036639	-0.057434082	9.623886	1.8855133
1442567908335428973	-0.13197327	9.736343	1.9369202
1442567908343821307	-0.27052307	9.967163	1.9906464
1442567908352213641	-0.50590515	10.325912	2.0209808
1442567908360605975	-0.8117218	10.544769	2.0939941
1442567908368998309	-1.1548157	10.499481	2.0936737
1442567908377390643	-1.5030975	10.405014	2.0711823
1442567908385782977	-2.0725098	9.951584	1.6939545
1442567908394175311	-2.390747	10.025116	1.4465332
1442567908402567645	-2.5447998	10.584274	1.4238434
1442567908410959979	-2.5981445	10.929993	1.3608704
1442567908419352313	-2.6841888	11.316086	1.3023834
1442567908427744647	-2.9082947	11.643768	1.1891327
1442567908436136981	-3.3099213	11.637451	0.92985535
1442567908444529315	-3.7176666	11.600983	0.69026184
1442567908452921649	-4.032547	11.608063	0.50968933
1442567908461313983	-4.374405	11.752121	0.39904785
1442567908469706317	-4.2892303	12.04155	0.40179443
1442567908478098651	-3.7008057	12.01857	0.3087921
1442567908486490985	-3.124817	11.864487	0.27656555
1442567908494883319	-2.5683289	11.704468	0.26242065
1442567908503275653	-1.4143677	11.52417	-0.23291016
1442567908511667987	0.29481506	12.056763	-0.77175903
1442567908520060321	1.7812958	12.826263	-1.280838
1442567908528452655	2.5601196	13.1809845	-1.5700073
1442567908536844989	3.484497	13.712357	-1.7788544
1442567908545237323	4.5979767	14.553375	-1.431839
1442567908553629657	5.1670227	15.07605	-0.13085938
1442567908562021990	5.055588	14.893158	0.9482269
1442567908570414324	4.7285156	14.332809	1.475174
1442567908578806658	3.8649445	12.852524	1.3112946
1442567908587198992	2.6021576	11.409042	0.42712402
1442567908595591326	1.3214569	10.646866	-0.7147827
1442567908603983660	0.6992645	10.716217	-1.382309
1442567908612375994	0.16705322	10.889557	-1.9857788
1442567908620768328	-0.27597046	11.374084	-2.7770844
1442567908629160662	-0.4866333	11.221664	-2.7322998
1442567908637552996	-0.9213562	11.042282	-1.5978546
1442567908645945330	-1.1276398	10.617523	-0.9327545
1442567908654337664	-1.3322754	9.862122	-0.6389618
1442567908662729998	-1.4400635	8.691574	-0.78196716
1442567908671122332	-1.5084839	7.917267	-0.5606079
1442567908679514666	-1.5111847	7.5993805	-0.33067322
1442567908687907000	-1.401947	7.488846	-0.1578064
1442567908696299334	-1.2717438	7.313614	0.07292175
1442567908704691668	-0.8009033	6.7227936	0.021362305
1442567908713084002	-0.33450317	6.1168976	-0.0934906
1442567908721476336	-0.15507507	5.8598022	-0.13452148
1442567908729868670	0.02003479	5.632721	-0.19818115
1442567908738261004	0.54393005	5.420273	-0.7546234
1442567908746653338	1.0103607	5.36467	-1.2599792
1442567908755045672	1.1355286	5.3860016	-1.5164795
1442567908763438006	0.8309479	5.3551636	-0.9162903
1442567908771830340	0.65075684	5.2173767	-0.5088806
1442567908780222674	0.71203613	5.0325623	-0.6179199
1442567908788615008	0.72750854	4.906845	-0.9876709
1442567908797007342	0.63790894	4.781479	-1.2440796
1442567908805399676	0.5402374	4.6947327	-1.4253082
1442567908813792010	0.28831482	4.480072	-1.6697388
1442567908822184344	-0.026748657	4.36203	-1.9755554
1442567908830576678	-0.450943	4.5371246	-2.20755
1442567908838969012	-0.81022644	4.809662	-2.377777
1442567908847361346	-1.2149506	5.1472015	-2.554428
1442567908855753680	-2.1706696	6.1601563	-2.8408203
1442567908864146014	-3.4473267	7.486679	-3.2240906
1442567908872538348	-4.577484	8.676971	-3.5102386
1442567908880930682	-5.206604	9.423019	-3.6471252
1442567908889323016	-6.2078094	10.526611	-3.8941956
1442567908897715350	-7.4220276	11.886063	-4.388199
1442567908906107684	-8.200104	12.637909	-4.939499
1442567908914500018	-8.386307	12.953766	-5.2965546
1442567908922892352	-8.316254	13.194748	-5.564514
1442567908931284686	-7.3414	13.554794	-5.9555664
1442567908939677020	-5.5639496	13.36409	-6.350342
1442567908948069354	-4.438568	12.149979	-6.3389435
1442567908956461688	-4.5941467	10.82399	-6.06131
1442567908964854022	-4.7704315	9.291229	-5.769516
1442567908973246356	-4.675873	6.515579	-5.448822
1442567908981638690	-3.2296753	4.853409	-5.1610413
1442567908990031024	-2.0056458	4.57782	-4.457428
1442567908998423358	-1.4375763	4.8200836	-3.8880768
1442567909006815692	-0.69636536	5.551117	-2.9578552
1442567909015208026	0.6355896	7.2597656	-1.9140778
1442567909023600360	2.7010803	9.823227	-1.3557129
1442567909031992694	3.817047	11.997772	-1.3218536
1442567909040385028	4.367111	13.842697	-1.4626007
1442567909048777362	3.557541	16.728104	-2.2084808
1442567909057169696	1.1960449	18.754562	-2.0203552
1442567909065562030	-0.9484558	17.18274	-1.8420868
1442567909073954364	-1.1611633	14.990173	-2.303482
1442567909082346698	-1.2858582	12.518951	-2.7099762
1442567909090739032	-0.90415955	8.804443	-2.3056183
1442567909099131365	-0.24493408	5.9499207	-0.02178955
1442567909107523699	0.46401978	4.372757	1.9446716
1442567909115916033	0.899704	3.928711	2.8584595
1442567909124308367	1.4897919	3.9351501	3.580536
1442567909132700701	1.8357086	5.46756	3.68602
1442567909141093035	1.4514313	8.297989	3.2444305
1442567909149485369	0.7127533	10.041	2.870163
1442567909157877703	-0.0705719	11.245239	2.572647
1442567909166270037	-1.8648834	12.99202	1.6793213
1442567909174662371	-3.6270752	13.9171295	0.7451019
1442567909183054705	-5.3015594	13.721252	0.0043945313
1442567909191447039	-5.2238007	13.104355	-0.17875671
1442567909199839373	-4.8803864	12.29364	-0.2574005
1442567909208231707	-3.5103302	10.647186	0.09710693
1442567909216624041	-2.1749573	8.887604	0.48773193
1442567909225016375	-1.0295258	7.688507	0.83073425
1442567909233408709	-0.3400116	7.1589966	1.1192627
1442567909241801043	0.74383545	6.673645	1.2328796
1442567909250193377	1.924057	6.451782	1.0735931
1442567909258585711	2.2030487	6.498642	0.75897217
1442567909266978045	1.7724915	6.665451	0.7939453
1442567909275370379	1.2237091	6.8524475	0.955246
1442567909283762713	0.48828125	7.445343	1.1445923
1442567909292155047	-0.4586029	8.127319	1.0381622
1442567909300547381	-1.280899	8.844391	0.79803467
1442567909308939715	-1.6876678	9.147705	0.77233887
1442567909317332049	-2.1553345	9.482605	0.77215576
1442567909325724383	-2.5928802	9.761765	0.78334045
1442567909334116717	-2.4933014	9.501572	0.61756897
1442567909342509051	-2.2822418	9.066788	0.42977905
1442567909350901385	-1.975708	8.791122	0.24664307
1442567909359293719	-1.4467316	8.4305725	0.0287323
1442567909367686053	-0.8741455	8.253296	0.14888
1442567909376078387	-0.38519287	8.397659	0.39620972
1442567909384470721	-0.17886353	8.491913	0.66593933
1442567909392863055	-0.045837402	8.552963	0.9486847
1442567909401255389	-0.1839447	8.663452	1.134903
1442567909409647723	-0.45199585	8.692001	1.1508026
1442567909418040057	-0.8339386	8.680847	1.0566559
1442567909426432391	-1.0190125	8.655777	1.0926361
1442567909434824725	-1.193924	8.623184	1.0970612
1442567909443217059	-1.2859344	8.621887	1.0621948
1442567909451609393	-1.1495667	8.778702	1.1569061
1442567909460001727	-0.905838	8.981766	1.3331299
1442567909468394061	-0.7336273	9.143066	1.5304108
1442567909476786395	-0.3500824	9.281708	1.6756592
1442567909485178729	-0.0789032	9.500015	1.8231964
1442567909493571063	0.19354248	9.811462	1.7725677
1442567909501963397	0.12113953	9.989075	1.7681427
1442567909510355731	-0.031799316	10.134949	1.7880707
1442567909518748065	-0.4186554	10.511032	1.9116058
1442567909527140399	-0.86299133	10.656937	2.214157
1442567909535532733	-1.3973694	10.4943695	2.3239594
1442567909543925067	-1.6685486	10.291306	2.0810394
1442567909552317401	-2.0072632	10.106918	1.7165833
1442567909560709735	-2.407486	10.152847	1.123169
1442567909569102069	-2.5698547	10.569778	0.94384766
1442567909577494403	-2.6534882	10.946533	1.0954285
1442567909585886737	-2.768509	11.215149	1.1590424
1442567909594279071	-2.8940582	11.413101	0.94799805
1442567909602671405	-3.0930328	11.3198395	0.7584686
1442567909611063739	-3.5359802	11.173447	0.64372253
1442567909619456073	-3.797226	11.153137	0.6360321
1442567909627848407	-4.0202026	11.151215	0.64501953
1442567909636240740	-4.185837	11.303909	0.71972656
1442567909644633074	-4.00972	11.646896	0.6719513
1442567909653025408	-3.3546448	11.653259	0.52497864
1442567909661417742	-2.769867	11.541443	0.49412537
1442567909669810076	-1.8565521	11.486465	0.40068054
1442567909678202410	-0.12147522	11.824188	-0.043136597
1442567909686594744	1.8017731	12.728561	-0.91496277
1442567909694987078	2.999649	13.4384	-1.5071411
1442567909703379412	3.6910858	13.84903	-1.786026
1442567909711771746	4.609848	14.498947	-1.9379425
1442567909720164080	5.4603424	15.078171	-1.255539
1442567909728556414	5.5976105	15.266663	0.45343018
1442567909736948748	5.257202	14.819977	1.0744019
1442567909745341082	4.85054	14.258987	1.5217285
1442567909753733416	3.6966553	12.443466	1.0920715
1442567909762125750	2.3847656	11.346222	0.37612915
1442567909770518084	1.2498474	10.8641815	-0.5486603
1442567909778910418	0.7730408	10.928436	-1.3281403
1442567909787302752	0.11515808	11.215973	-2.0887299
1442567909795695086	-0.6348114	11.460495	-2.65242
1442567909804087420	-1.1091461	11.25589	-2.2784271
1442567909812479754	-1.5183868	10.954361	-1.4086761
1442567909820872088	-1.9020386	10.557236	-0.66645813
1442567909829264422	-2.0318909	9.548813	-0.74913025
1442567909837656756	-1.9867554	8.580322	-0.82588196
1442567909846049090	-1.9245453	8.027725	-0.070129395
1442567909854441424	-1.7445526	7.9686584	0.033233643
1442567909862833758	-1.5458527	7.921875	0.089782715
1442567909871226092	-1.1530304	7.562393	0.2000122
1442567909879618426	-0.4356842	6.7713776	0.09864807
1442567909888010760	0.02520752	6.2274017	0.042144775
1442567909896403094	0.2700348	6.003128	0.025436401
1442567909904795428	0.59521484	5.7173157	-0.17024231
1442567909913187762	1.096695	5.4166565	-0.74079895
1442567909921580096	1.4808502	5.2769775	-0.96258545
1442567909929972430	1.4162903	5.1432037	-0.6623993
1442567909938364764	1.1714478	4.9716187	-0.2794037
1442567909946757098	1.147934	4.910446	-0.43226624
1442567909955149432	1.1683044	4.7978516	-0.7360077
1442567909963541766	0.99365234	4.583435	-1.0066223
1442567909971934100	0.8843994	4.5307617	-1.2096863
1442567909980326434	0.7599182	4.4763336	-1.421402
1442567909988718768	0.46002197	4.365814	-1.7213898
1442567909997111102	-0.029403687	4.3267975	-2.0196838
1442567910005503436	-0.5875702	4.5218964	-2.2501984
1442567910013895770	-0.95770264	4.752594	-2.4012146
1442567910022288104	-1.5609283	5.334671	-2.5846558
1442567910030680438	-2.5656738	6.449463	-2.9012146
1442567910039072772	-3.8290253	7.7338257	-3.2692108
1442567910047465106	-4.704422	8.643417	-3.5596313
1442567910055857440	-5.329666	9.337433	-3.822464
1442567910064249774	-6.8345184	10.651428	-4.177307
1442567910072642108	-8.282242	11.624496	-4.565201
1442567910081034442	-8.979019	12.047195	-4.9342346
1442567910089426776	-8.934677	12.359497	-5.15271
1442567910097819110	-8.735077	12.736679	-5.434387
1442567910106211444	-7.4513245	13.455795	-6.1175995
1442567910114603778	-5.8234406	13.66449	-6.8404083
1442567910122996112	-5.356186	12.657059	-7.1595154
1442567910131388446	-5.6941986	11.119308	-7.0689087
1442567910139780780	-5.731262	8.494171	-6.5710297
1442567910148173114	-4.6292877	5.486267	-5.7609406
1442567910156565448	-2.8055725	4.3208923	-4.835251
1442567910164957782	-1.6631317	4.365616	-3.9828491
1442567910173350115	-0.8335266	4.6130066	-3.2136383
1442567910181742449	0.48138428	5.80365	-1.5958252
1442567910190134783	2.767517	7.928238	-0.15988159
1442567910198527117	5.124695	11.380707	-0.06958008
1442567910206919451	5.498047	13.624039	-0.6806946
1442567910215311785	5.296219	16.167526	-1.3720856
1442567910223704119	2.2586823	19.43805	-1.9715881
1442567910232096453	-1.1031036	19.564713	-1.399826
1442567910240488787	-2.6922302	17.021057	-1.4407501
1442567910248881121	-2.8798676	14.561813	-1.8385162
1442567910257273455	-2.6582031	11.22467	-2.583603
1442567910265665789	-1.7377014	7.578705	-1.8059235
1442567910274058123	-0.49679565	4.675522	1.0119324
1442567910282450457	0.26124573	3.5302887	2.5977173
1442567910290842791	0.82736206	2.9442444	3.5931091
1442567910299235125	1.7283173	3.296997	3.9564667
1442567910307627459	1.9273071	5.859146	3.2636414
1442567910316019793	1.2780762	8.955933	2.8281097
1442567910324412127	0.5525818	10.183945	2.7786255
1442567910332804461	-0.45794678	11.503525	2.5540314
1442567910341196795	-2.4806366	12.99646	1.6362305
1442567910349589129	-4.208374	13.732773	0.6602478
1442567910357981463	-4.8607635	13.566101	0.18263245
1442567910366373797	-4.724533	13.089279	0.12223816
1442567910374766131	-3.9247437	12.005432	0.041549683
1442567910383158465	-2.5535278	10.1783905	0.14926147
1442567910391550799	-1.346344	8.359619	0.37905884
1442567910399943133	-0.32661438	7.546036	0.6891632
1442567910408335467	0.6623535	7.0101013	1.0226746
1442567910416727801	1.5572662	6.2556763	0.91630554
1442567910425120135	1.9176025	6.014328	0.9951019
1442567910433512469	1.6979675	6.2410736	1.0872498
1442567910441904803	1.3425903	6.5694275	1.1862183
1442567910450297137	0.7374573	6.935257	1.3162537
1442567910458689471	-0.36372375	7.5829926	1.269867
1442567910467081805	-1.1152649	8.56636	0.7119751
1442567910475474139	-1.7823944	9.215805	0.44200134
1442567910483866473	-2.094696	9.51976	0.42208862
1442567910492258807	-2.3414612	9.757004	0.4202881
1442567910500658132	-2.1506653	9.682358	0.3927307
1442567910509050466	-1.6503143	9.251541	0.36828613
1442567910517442800	-1.2275238	8.908356	0.3344574
1442567910525835134	-0.83296204	8.6050415	0.2965393
1442567910534227468	-0.1726532	8.199905	0.58200073
1442567910542619802	0.21875	7.986191	0.90444946
1442567910551012136	0.40867615	7.9512024	0.86958313
1442567910559404470	0.2975006	7.9145813	0.8123932
1442567910567796804	0.059387207	7.9573975	0.76698303
1442567910576189138	-0.49551392	8.236435	0.77156067
1442567910584581472	-1.0084229	8.57074	0.8432007
1442567910592973806	-1.2898102	8.738342	0.970047
1442567910601366140	-1.411911	8.76532	1.1133423
1442567910609758474	-1.5029144	8.794769	1.2758636
1442567910618150808	-1.4256744	8.802948	1.395874
1442567910626543142	-1.196991	8.781754	1.6070404
1442567910634935476	-1.008667	8.781876	1.7194977
1442567910643327810	-0.83258057	8.787003	1.8075409
1442567910651720144	-0.6559143	8.900757	1.8162994
1442567910660112478	-0.49990845	9.278366	1.8644104
1442567910668504812	-0.5656433	9.946472	2.06221
1442567910676897146	-0.58813477	10.332687	2.1161957
1442567910685289480	-0.5691986	10.770401	2.229477
1442567910693681814	-0.61231995	11.154602	2.56044
1442567910702074148	-0.922699	11.035156	2.8057404
1442567910710466481	-1.210434	10.738464	2.6491547
1442567910718858815	-1.4353485	10.548248	2.374115
1442567910727251149	-1.7743835	10.551712	1.8933105
1442567910735643483	-2.0316467	10.882965	1.406784
1442567910744035817	-2.1327515	11.539398	0.9812317
1442567910752428151	-2.2227173	11.876068	0.93717957
1442567910760820485	-2.3190765	12.156342	0.94688416
1442567910769212819	-2.6786194	12.125458	1.0599518
1442567910777605153	-3.3148346	11.754166	0.7588501
1442567910785997487	-4.0933075	11.75766	0.46401978
1442567910794389821	-4.406891	11.879105	0.38819885
1442567910802782155	-4.5545807	12.072296	0.36517334
1442567910811174489	-4.244522	12.383804	0.5079956
1442567910819566823	-3.4976654	12.455582	0.567749
1442567910827959157	-2.765808	12.2034	0.4509735
1442567910836351491	-2.2073975	11.879532	0.3353119
1442567910844743825	-0.90031433	11.408936	0.004562378
1442567910853136159	1.0169525	11.388214	-0.7624512
1442567910861528493	2.566513	12.017044	-1.5099945
1442567910869920827	3.183899	12.558914	-1.9581909
1442567910878313161	3.7425385	13.126282	-2.341217
1442567910886705495	4.609787	14.358795	-1.8751526
1442567910895097829	5.1760864	14.952957	-0.31225586
1442567910903490163	4.9472046	14.45929	0.8191223
1442567910911882497	4.500595	13.595627	1.081955
1442567910920274831	3.6733093	12.375702	1.1121521
1442567910928667165	2.3262482	10.910187	0.5582886
1442567910937059499	1.1962738	10.26535	-0.17658997
1442567910945451833	0.55870056	10.377167	-0.7686157
1442567910953844167	0.1512909	10.704239	-1.3154755
1442567910962236501	-0.3902588	11.094086	-2.1904755
1442567910970628835	-1.0948486	11.001816	-2.322235
1442567910979021169	-1.2264862	10.73584	-1.0418243
1442567910987413503	-1.5008087	10.159653	-0.55496216
1442567910995805837	-1.7848511	9.516113	-0.19592285
1442567911004198171	-2.0432892	8.46553	-0.5347595
1442567911012590505	-2.09375	8.06456	-0.31584167
1442567911020982839	-1.7305603	7.847412	-0.17599487
1442567911029375173	-1.510788	7.7574615	-0.18499756
1442567911037767507	-1.1838989	7.488037	-0.2147522
1442567911046159841	-0.7621765	7.0017395	-0.22647095
1442567911054552175	-0.25604248	6.4377594	-0.33021545
1442567911062944509	0.16134644	6.109436	-0.4609375
1442567911071336843	0.47750854	5.949417	-0.5509033
1442567911079729177	1.0297852	5.810013	-0.907135
1442567911088121511	0.9207306	5.6927643	-0.29986572
1442567911096513845	1.1808624	5.5996704	-0.48266602
1442567911104906179	1.2362823	5.556076	-0.56884766
1442567911113298513	1.2224121	5.498703	-0.6264496
1442567911121690847	0.84213257	5.3391724	-0.5691681
1442567911130083181	0.81759644	5.1531982	-0.83950806
1442567911138475515	0.7341919	4.951889	-1.1826172
1442567911146867849	0.60502625	4.774536	-1.3850403
1442567911155260183	0.41540527	4.5163727	-1.5999146
1442567911163652517	0.039978027	4.2196045	-1.9393921
1442567911172044851	-0.614563	4.116379	-2.3497467
1442567911180437185	-1.1292267	4.2441406	-2.593521
1442567911188829519	-1.5244293	4.4356384	-2.7657318
1442567911197221853	-2.3460388	5.282242	-3.1135712
1442567911205614187	-3.3878174	6.6507263	-3.4228668
1442567911214006521	-4.627411	8.174637	-3.8508759
1442567911222398855	-5.450592	9.165543	-3.983902
1442567911230791189	-6.397522	10.290604	-4.1498413
1442567911239183523	-8.016815	11.900467	-4.440628
1442567911247575856	-9.482956	12.638199	-4.6419525
1442567911255968190	-9.881866	12.840378	-4.960678
1442567911264360524	-9.586273	12.956039	-5.2684784
1442567911272752858	-8.365509	12.96376	-5.8141174
1442567911281145192	-6.242218	12.606552	-6.5749817
1442567911289537526	-4.9914856	11.312851	-7.0518646
1442567911297929860	-4.774597	9.897018	-7.101074
1442567911306322194	-4.777176	8.593811	-7.040024
1442567911314714528	-3.7978973	6.496567	-6.306305
1442567911323106862	-2.3001099	5.4429016	-4.825348
1442567911331499196	-0.8488617	5.9096375	-3.1342468
1442567911339891530	-0.25445557	6.60495	-2.260315
1442567911348283864	0.526947	7.677582	-1.2465515
1442567911356676198	2.2655792	10.584991	0.025680542
1442567911365068532	4.0557404	14.462845	-0.15522766
1442567911373460866	3.9392395	17.333557	-1.2667236
1442567911381853200	2.5197296	18.492172	-1.9215393
1442567911390245534	0.23620605	18.467804	-2.2051697
1442567911398637868	-1.373291	15.612625	-2.587799
1442567911407030202	-1.5742188	11.524643	-3.0121613
1442567911415422536	-1.3422089	9.4743805	-2.9566498
1442567911423814870	-1.0491791	8.104996	-2.776062
1442567911432207204	-0.65312195	5.8167267	-0.3427124
1442567911440599538	0.4837494	3.9198456	2.6532745
1442567911448991872	1.4286194	3.9344482	4.235962
1442567911457384206	1.7736969	4.54364	4.2777405
1442567911465776540	1.9898224	5.8153687	4.081192
1442567911474168874	1.5329895	9.047394	3.120224
1442567911482561208	0.32092285	11.44899	2.489914
1442567911490953542	-1.0178375	12.616364	2.179428
1442567911499345876	-2.154602	13.116943	1.603653
1442567911507738210	-3.6723633	13.232819	0.6607361
1442567911516130544	-4.4985504	12.722488	0.22355652
1442567911524522878	-4.068573	11.796051	0.1149292
1442567911532915212	-3.3661346	11.048981	0.028823853
1442567911541307546	-2.667633	10.373611	-0.042510986
1442567911549699880	-1.5383148	9.0195465	0.07862854
1442567911558092214	-0.325531	7.676422	0.5866852
1442567911566484548	1.2338562	6.978897	1.1556854
1442567911574876882	1.6387024	6.65567	1.2430725
1442567911583269216	1.9937592	6.433563	1.1979828
1442567911591661550	2.0364227	6.5610657	0.9291687
1442567911600053884	1.6681671	6.9022064	1.0239563
1442567911608446218	1.1077728	7.216324	1.2647095
1442567911616838552	0.440094	7.4084625	1.4864044
1442567911625230886	-0.2629242	7.915619	1.2683411
1442567911633623220	-1.1105499	8.694183	0.7221527
1442567911642015554	-1.7865906	9.306503	0.4962921
1442567911650407888	-2.1002655	9.5177	0.51982117
1442567911658800222	-2.3528137	9.657791	0.572525
1442567911667192556	-2.4467468	9.554916	0.41773987
1442567911675584890	-2.1926575	9.100601	0.14993286
1442567911683977224	-1.7052002	8.647873	0.11413574
1442567911692369558	-1.3344269	8.505203	0.17904663
1442567911700761892	-0.9189453	8.399094	0.35139465
1442567911709154226	-0.4886322	8.434952	0.7420807
1442567911717546560	-0.26428223	8.483658	1.022644
1442567911725938894	-0.29019165	8.420517	1.1199951
1442567911734331228	-0.47398376	8.352417	1.1315613
1442567911742723562	-0.7528229	8.247284	1.003479
1442567911751115896	-1.0929871	8.1393585	0.9486389
1442567911759508230	-1.3885193	8.297623	0.9998474
1442567911767900564	-1.5078888	8.513855	1.0032043
1442567911776292898	-1.601059	8.728485	0.99676514
1442567911784685231	-1.6368256	9.193558	1.2155914
1442567911793077565	-1.2606506	9.436661	1.34375
1442567911801469899	-0.7510834	9.643036	1.6599884
1442567911809862233	-0.3963623	9.582001	1.661911
1442567911818254567	-0.0047912598	9.559357	1.7319794
1442567911826646901	0.32073975	9.664352	1.7782898
1442567911835039235	0.26669312	9.871094	1.540268
1442567911843431569	0.032821655	10.019531	1.4203339
1442567911851823903	-0.1843872	10.0998535	1.4550476
1442567911860216237	-0.56585693	10.173538	1.6504669
1442567911868608571	-0.9768677	10.323334	1.8904266
1442567911877000905	-1.4347382	10.269028	2.0077515
1442567911885393239	-1.6413422	10.164032	1.8470459
1442567911893785573	-1.8174744	10.068558	1.6495514
1442567911902177907	-1.9752808	10.295395	1.2602997
1442567911910570241	-2.1181488	11.053253	1.0316162
1442567911918962575	-2.2918243	11.788574	0.9174652
1442567911927354909	-2.4261322	12.101517	1.063324
1442567911935747243	-2.7500916	12.2140045	1.0843048
1442567911944139577	-3.4118347	11.937042	0.90830994
1442567911952531911	-4.1751404	11.830994	0.7700653
1442567911960924245	-4.560074	11.90834	0.7391815
1442567911969316579	-4.6397552	11.9526825	0.76297
1442567911977708913	-4.250229	12.176941	0.9451752
1442567911986101247	-3.4687805	12.24762	0.95036316
1442567911994493581	-2.2561493	12.171646	0.5391693
1442567912002885915	-1.552597	12.06308	0.33506775
1442567912011278249	-0.81658936	11.945679	0.11668396
1442567912019670583	0.8358612	11.799393	-0.5260315
1442567912028062917	2.3783722	12.094513	-1.1806793
1442567912036455251	3.3730621	12.51889	-1.6117859
1442567912044847585	3.772766	12.934021	-1.8097229
1442567912053239919	4.3111267	13.464691	-1.6303406
1442567912061632253	4.8188324	13.9814	-0.46888733
1442567912070024587	4.818863	13.849503	0.9927063
1442567912078416921	4.415573	13.225601	1.4061279
1442567912086809255	3.9008484	12.529022	1.278244
1442567912095201589	2.841919	11.550766	0.8210907
1442567912103593923	1.7215729	10.747543	-0.16499329
1442567912111986257	0.7362976	10.822205	-1.365509
1442567912120378591	0.40852356	11.154541	-1.839447
1442567912128770925	0.07987976	11.476837	-2.2803345
1442567912137163259	-0.37446594	11.55719	-2.5317078
1442567912145555593	-0.76135254	11.17041	-1.9347992
1442567912153947927	-1.265976	10.879684	-0.6276245
1442567912162340261	-1.2807465	10.263428	-0.30888367
