gyroscope_timestamp	gyroscope_x_data	gyroscope_y_data	gyroscope_z_data
1176175617809717	0.16560364	-0.0054626465	0.086868286
1176175625042383	0.21081543	-0.009140015	0.08564758
1176175628643457	0.24867249	-0.01524353	0.08564758
1176175635082666	0.27555847	-0.032348633	0.086868286
1176175640148584	0.29266357	-0.054336548	0.08320618
1176175645214502	0.3012085	-0.07510376	0.0758667
1176175650249902	0.3024292	-0.09098816	0.066101074
1176175655682031	0.29632568	-0.09831238	0.053878784
1176175660290186	0.27922058	-0.09587097	0.04043579
1176175665325586	0.25601196	-0.08731079	0.025787354
1176175670635645	0.22790527	-0.07388306	0.014785767
1176175675396387	0.19493103	-0.060440063	0.009902954
1176175679027979	0.19493103	-0.048217773	0.008666992
1176175685467188	0.11428833	-0.048217773	0.009902954
1176175690533106	0.0715332	-0.037231445	0.011108398
1176175695537988	0.031219482	-0.03967285	0.01234436
1176175700603906	-0.0042266846	-0.049453735	0.01600647
1176175706097070	-0.028640747	-0.065338135	0.022109985
1176175710644190	-0.03843689	-0.084869385	0.030670166
1176175715679590	-0.024993896	-0.101989746	0.03677368
1176175721142236	0.011657715	-0.1056366	0.04043579
1176175725750391	0.011657715	-0.09098816	0.04043579
1176175729931299	0.0703125	-0.09098816	0.039215088
1176175735851709	0.14360046	-0.06289673	0.03555298
1176175740856592	0.21446228	-0.033569336	0.03677368
1176175745891992	0.26945496	-0.01524353	0.04411316
1176175750927393	0.30366516	-0.016464233	0.057540894
1176175756451074	0.31954956	-0.03845215	0.07220459
1176175760998193	0.3231964	-0.07266235	0.08564758
1176175766064111	0.31954956	-0.1056366	0.09541321
1176175771465723	0.3134308	-0.12763977	0.10151672
1176175776104395	0.30366516	-0.13619995	0.10151672
1176175780193750	0.29144287	-0.13008118	0.097854614
1176175786175195	0.26945496	-0.11543274	0.08930969
1176175791210596	0.23768616	-0.100753784	0.0770874
1176175796276514	0.19613647	-0.093429565	0.06364441
1176175801281397	0.14971924	-0.0897522	0.051437378
1176175806988184	0.108184814	-0.08366394	0.04043579
1176175811413233	0.072753906	-0.07144165	0.03189087
1176175816387598	0.04220581	-0.054336548	0.025787354
1176175822094385	0.01411438	-0.03845215	0.022109985
1176175826458399	-0.009109497	-0.025009155	0.01966858
1176175830608789	-0.02619934	-0.016464233	0.018447876
1176175836529199	-0.032318115	-0.009140015	0.017227173
1176175841595117	-0.028640747	-5.79834E-4	0.014785767
1176175846600000	-0.01399231	0.011627197	0.009902954
1176175851696436	0.004333496	0.027511597	0.0050201416
1176175857128565	0.022659302	0.045837402	0.0025787354
1176175861736719	0.036102295	0.060516357	0.0025787354
1176175866711084	0.036102295	0.06539917	0.0025787354
1176175872082178	0.04586792	0.06539917	0.01234436
1176175876842920	0.053207397	0.0617218	0.01234436
1176175880962793	0.059310913	0.050720215	0.024551392
1176175886913721	0.060531616	0.03729248	0.039215088
1176175891918604	0.056869507	0.018966675	0.055099487
1176175896954004	0.047088623	-0.007904053	0.066101074
1176175901989404	0.037322998	-0.03845215	0.06732178
1176175907482568	0.032440186	-0.06289673	0.062438965
1176175912060205	0.03366089	-0.07632446	0.053878784
1176175917095606	0.0385437	-0.08242798	0.046554565
1176175922466699	0.040985107	-0.0897522	0.042877197
1176175927166406	0.0385437	-0.1056366	0.041671753
1176175931774561	0.03366089	-0.13008118	0.04043579
1176175937267725	0.026321411	-0.15452576	0.039215088
1176175942242090	0.021438599	-0.16796875	0.04043579
1176175947308008	0.020217896	-0.16552734	0.042877197
1176175952404443	0.022659302	-0.14964294	0.045318604
1176175958111231	0.02998352	-0.1239624	0.04777527
1176175962475244	0.043426514	-0.09220886	0.04899597
1176175967449609	0.06541443	-0.053115845	0.046554565
1176175972881738	0.10206604	-0.0042419434	0.04043579
1176175977520410	0.15948486	0.055618286	0.033111572
1176175981853906	0.24012756	0.12890625	0.026992798
1176175987652246	0.34275818	0.21565247	0.023345947
1176175992626611	0.45391846	0.3097229	0.022109985
1176175997692529	0.54922485	0.39891052	0.018447876
1176176002758447	0.59321594	0.46121216	0.009902954
1176176008037988	0.55532837	0.4721985	-0.0059814453
1176176012768213	0.55532837	0.41967773	-0.0059814453
1176176017803613	0.42582703	0.41967773	-0.024291992
1176176023083154	0.22302246	0.3146057	-0.036499023
1176176027904932	-0.007873535	0.18388367	-0.037734985
1176176032268945	-0.21554565	0.0617218	-0.030410767
1176176037975733	-0.3572693	-0.022567749	-0.020629883
1176176043041650	-0.40370178	-0.053115845	-0.01574707
1176176048016016	-0.34506226	-0.025009155	-0.01574707
1176176053112451	-0.19477844	0.050720215	-0.019424438
1176176058483545	0.01411438	0.15455627	-0.018188477
1176176063122217	0.23278809	0.2571869	-0.0096588135
1176176068157617	0.41970825	0.3280487	0.0050201416
1176176073589746	0.55288696	0.35369873	0.029434204
1176176078228418	0.62986755	0.33416748	0.0599823
1176176081585352	0.656723	0.28407288	0.094192505
1176176088329736	0.6396332	0.22175598	0.127182
1176176093334619	0.58587646	0.15945435	0.1552887
1176176098370020	0.50035095	0.10935974	0.17605591
1176176103405420	0.39405823	0.07148743	0.19070435
1176176108898584	0.27799988	0.045837402	0.19682312
1176176113445703	0.14971924	0.031188965	0.19070435
1176176118511621	-0.021316528	0.011627197	0.1711731
1176176123791162	-0.25831604	-0.044555664	0.1418457
1176176128551904	-0.52830505	-0.16429138	0.11619568
1176176133099024	-0.74823	-0.31700134	0.1076355
1176176138653223	-0.8435211	-0.42207336	0.11619568
1176176143688623	-0.8093262	-0.41474915	0.1235199
1176176148724024	-0.69081116	-0.2999115	0.1088562
1176176153728906	-0.69081116	-0.14108276	0.1088562
1176176159038965	-0.542984	-0.14108276	0.014785767
1176176163860742	-0.39637756	-5.79834E-4	0.014785767
1176176168865625	-0.26075745	0.09715271	-0.032852173
1176176174480859	-0.13737488	0.15455627	-0.065826416
1176176179027979	-0.024993896	0.18388367	-0.08415222
1176176182262842	0.0715332	0.1960907	-0.0927124
1176176189007227	0.14971924	0.19488525	-0.09515381
1176176194042627	0.21446228	0.19120789	-0.0914917
1176176199078027	0.27433777	0.19120789	-0.08415222
1176176204143945	0.32687378	0.19854736	-0.0756073
1176176209515039	0.36228943	0.2119751	-0.06706238
1176176214153711	0.37208557	0.22175598	-0.062179565
1176176219219629	0.3500824	0.22053528	-0.05606079
1176176224407617	0.29144287	0.20953369	-0.052383423
1176176229290430	0.19248962	0.18876648	-0.048736572
1176176232647363	0.05809021	0.15577698	-0.04750061
1176176241589014	-0.09828186	0.11302185	-0.046295166
1176176244518701	-0.259552	0.067840576	-0.04750061
1176176249432031	-0.411026	0.027511597	-0.049942017
1176176254436914	-0.542984	-0.0054626465	-0.052383423
1176176260387842	-0.64559937	-0.03479004	-0.053619385
1176176264538233	-0.7127991	-0.061660767	-0.05606079
1176176269543115	-0.734787	-0.07878113	-0.0597229
1176176274914209	-0.7054596	-0.07998657	-0.06338501
1176176279613916	-0.62605286	-0.06289673	-0.06462097
1176176283001367	-0.62605286	-0.023788452	-0.06462097
1176176289715234	-0.37071228	-0.023788452	-0.05606079
1176176294720117	-0.23387146	0.09347534	-0.04750061
1176176299755518	-0.23387146	0.14356995	-0.04750061
1176176304790918	-0.115371704	0.14356995	-0.04017639
1176176310223047	-0.024993896	0.16677856	-0.03529358
1176176314892236	0.031219482	0.15821838	-0.030410767
1176176319927637	0.053207397	0.12524414	-0.025527954
1176176325390283	0.049545288	0.08003235	-0.018188477
1176176329967920	0.032440186	0.031188965	-0.010864258
1176176333385889	0.0104522705	-0.010345459	-0.0059814453
1176176340099756	-0.007873535	-0.037231445	-0.002319336
1176176345074121	-0.016433716	-0.04701233	-0.0010986328
1176176350140039	-0.015213013	-0.03967285	0.0013427734
1176176355205957	-0.0042266846	-0.020126343	0.0037841797
1176176360454981	0.0104522705	0.0055236816	0.0037841797
1176176365276758	0.023880005	0.03239441	-0.004776001
1176176370312158	0.032440186	0.05316162	-0.023086548
1176176375530664	0.031219482	0.06416321	-0.048736572
1176176380321924	0.022659302	0.06539917	-0.078048706
1176176383678858	0.0104522705	0.05683899	-0.1073761
1176176390423242	0.0018920898	0.047073364	-0.13180542
1176176395428125	-5.493164E-4	0.043395996	-0.14768982
1176176400524561	0.004333496	0.04827881	-0.15501404
1176176405559961	0.015335083	0.06295776	-0.15501404
1176176411266748	0.031219482	0.082473755	-0.15013123
1176176415569727	0.05076599	0.10568237	-0.13912964
1176176420635645	0.0703125	0.12524414	-0.122024536
1176176425854150	0.08985901	0.14356995	-0.101257324
1176176430706445	0.10694885	0.15701294	-0.081710815
1176176434063379	0.10694885	0.15577698	-0.081710815
1176176440777246	0.120391846	0.15577698	-0.057281494
1176176445812647	0.13139343	0.10447693	-0.057281494
1176176450817529	0.13871765	0.10447693	-0.052383423
1176176455852930	0.14483643	0.07028198	-0.05117798
1176176461315576	0.14848328	0.04827881	-0.048736572
1176176465954248	0.15460205	0.04095459	-0.046295166
1176176470989649	0.15948486	0.044631958	-0.04385376
1176176476452295	0.16072083	0.05316162	-0.042617798
1176176481060449	0.15827942	0.0617218	-0.042617798
1176176484417383	0.1533966	0.066604614	-0.04017639
1176176491161768	0.1509552	0.07028198	-0.036499023
1176176496166650	0.15704346	0.07272339	-0.032852173
1176176501232568	0.169281	0.0763855	-0.03161621
1176176506237451	0.18637085	0.08126831	-0.034057617
1176176511486475	0.20103455	0.08491516	-0.042617798
1176176516369287	0.20837402	0.08491516	-0.05606079
1176176521374170	0.20593262	0.082473755	-0.07070923
1176176526897852	0.18881226	0.075149536	-0.08294678
1176176531414453	0.16072083	0.0617218	-0.0927124
1176176534801904	0.12651062	0.04219055	-0.10003662
1176176541454736	0.08862305	0.021408081	-0.1085968
1176176546520654	0.05076599	0.007980347	-0.122024536
1176176551556055	0.018997192	0.0043029785	-0.13546753
1176176556744043	-0.0017700195	0.016525269	-0.15013123
1176176561840479	-0.010314941	0.04219055	-0.16235352
1176176566662256	-0.011550903	0.08003235	-0.17089844
1176176571697656	-0.010314941	0.12768555	-0.17456055
1176176576946680	-0.009109497	0.17900085	-0.16845703
1176176581768457	-0.005432129	0.23153687	-0.14646912
1176176585094873	-0.005432129	0.2803955	-0.14646912
1176176591839258	-0.0017700195	0.2803955	-0.101257324
1176176596844141	0.0018920898	0.3207245	-0.03529358
1176176601940576	0.009216309	0.3475952	0.041671753
1176176606914941	0.022659302	0.3549347	0.110076904
1176176612713281	0.04586792	0.3439331	0.1552887
1176176617077295	0.08618164	0.31828308	0.1736145
1176176622051660	0.14239502	0.29016113	0.17237854
1176176627544824	0.21081543	0.26818848	0.16505432
1176176632122461	0.2828827	0.25474548	0.16017151
1176176635448877	0.35620117	0.24862671	0.15893555
1176176642193262	0.42338562	0.24008179	0.15893555
1176176647228662	0.48324585	0.22541809	0.15893555
1176176652264063	0.53334045	0.20098877	0.15649414
1176176657268945	0.56999207	0.16799927	0.15161133
1176176662731592	0.5944214	0.13256836	0.14672852
1176176667644922	0.6042023	0.098358154	0.14428711
1176176672405664	0.59809875	0.0763855	0.14428711
1176176678387109	0.57733154	0.07392883	0.14550781
1176176682476465	0.54434204	0.09591675	0.14305115
1176176685833399	0.54434204	0.13989258	0.14305115
1176176692547266	0.46247864	0.13989258	0.122283936
1176176697582666	0.4209442	0.26818848	0.106414795
1176176702587549	0.38305664	0.3463745	0.08808899
1176176707775537	0.347641	0.44044495	0.07098389
1176176712871973	0.3183136	0.5565033	0.05632019
1176176718059961	0.2987671	0.689682	0.046554565
1176176722759668	0.29388428	0.8350525	0.042877197
1176176728619043	0.30366516	0.98287964	0.05265808
1176176732830469	0.30366516	1.1282806	0.05265808
1176176736156885	0.32443237	1.1282806	0.0770874
1176176742901270	0.3513031	1.2663422	0.11740112
1176176748089258	0.3794098	1.388504	0.1736145
1176176752972070	0.40629578	1.4825897	0.24324036
1176176758373682	0.43070984	1.5351257	0.32388306
1176176763378565	0.45391846	1.5436554	0.41183472
1176176768322412	0.47836304	1.5118866	0.5022583
1176176773144190	0.5028076	1.449585	0.58776855
1176176778942529	0.5235748	1.3652954	0.66108704
1176176783184473	0.54190063	1.2639008	0.7197113
1176176786510889	0.55900574	1.1575928	0.7624817
1176176793255274	0.57977295	1.0500946	0.7942505
1176176798473779	0.605423	0.9523468	0.8186798
1176176803326074	0.6335144	0.87416077	0.8370056
1176176808575098	0.65919495	0.8277283	0.85165405
1176176813824121	0.6738434	0.8118439	0.8638916
1176176819103662	0.6738434	0.81552124	0.8748779
1176176823498193	0.66163635	0.8277283	0.8846588
1176176829052393	0.6420746	0.8460541	0.8907471
1176176833538477	0.61763	0.87538147	0.88830566
1176176836895410	0.61763	0.9266968	0.88830566
1176176843639795	0.54678345	0.9266968	0.8736572
1176176848888818	0.49668884	1.105072	0.87731934
1176176853680078	0.4368286	1.2247772	0.8956604
1176176858990137	0.37329102	1.3481903	0.92619324
1176176864056055	0.3158722	1.4569092	0.95796204
1176176869732324	0.27677917	1.5375671	0.98483276
1176176873852197	0.27311707	1.5888672	0.99827576
1176176879558984	0.31098938	1.6059723	0.99705505
1176176883922998	0.31098938	1.5852051	0.99705505
1176176887279932	0.39041138	1.5852051	0.98117065
1176176893963281	0.5028076	1.5204468	0.95428467
1176176899334375	0.64819336	1.4263763	0.918869
1176176904034082	0.82899475	1.3506317	0.8712158
1176176909985010	1.0379181	1.3542938	0.8015747
1176176914410059	1.252945	1.4434814	0.7075043
1176176920177881	1.4423065	1.5448914	0.59999084
1176176924175684	1.5876923	1.5607758	0.49613953
1176176929760400	1.6915283	1.4642487	0.4069519
1176176934246484	1.7624054	1.3066406	0.33364868
1176176937603418	1.8039398	1.15271	0.26890564
1176176944347803	1.8125	1.0219727	0.2053833
1176176949993555	1.7843933	0.9095917	0.1394043
1176176954388086	1.7220764	0.8118439	0.06976318
1176176960277979	1.6341095	0.73609924	-0.0096588135
1176176964825098	1.5253906	0.6811218	-0.09637451
1176176970287744	1.3934479	0.6444702	-0.18556213
1176176974529688	1.2382813	0.6298065	-0.2735138
1176176980114404	1.0635681	0.6322479	-0.36149597
1176176984600488	0.8986511	0.6139221	-0.44702148
1176176987957422	0.8986511	0.5308533	-0.44702148
1176176994671289	0.6872864	0.5308533	-0.57406616
1176177000164453	0.6261902	0.31704712	-0.61683655
1176177004742090	0.56632996	0.28651428	-0.6632538
1176177010479395	0.51379395	0.25839233	-0.7231293
1176177015240137	0.49058533	0.17410278	-0.789093
1176177020702783	0.5028076	0.07272339	-0.8404083
1176177024883691	0.5028076	0.044631958	-0.8404083
1176177030651514	0.53089905	0.044631958	-0.86239624
1176177034954492	0.53089905	0.26086426	-0.86239624
1176177038311426	0.49790955	0.26086426	-0.84895325
1176177045025293	0.43927002	0.39646912	-0.8379669
1176177050762598	0.3794098	0.5112915	-0.8367462
1176177055096094	0.34396362	0.6249237	-0.85017395
1176177060802881	0.3500824	0.75930786	-0.86849976
1176177065380518	0.4050598	0.90715027	-0.86483765
1176177071270410	0.51013184	1.0293274	-0.81352234
1176177075207178	0.6542816	1.0794067	-0.7035675
1176177081127588	0.81799316	1.0561829	-0.55574036
1176177085277979	0.96339417	1.0048828	-0.4054718
1176177088695947	1.059906	0.9816742	-0.28086853
1176177095379297	1.0904541	1.0	-0.18922424
1176177101360742	1.0647888	1.0183258	-0.11958313
1176177105450098	1.0147095	0.9889984	-0.045059204
1176177111797754	0.99760437	0.9193573	0.066101074
1176177115734522	1.0647888	0.8875885	0.2371521
1176177121441309	1.2236176	0.9547882	0.4497223
1176177125622217	1.4325409	1.0965118	0.64520264
1176177131237451	1.632904	1.218689	0.7661438
1176177135662500	1.797821	1.2504578	0.8088989
1176177139049951	1.797821	1.1905823	0.8088989
1176177145763818	2.0727234	1.1905823	0.8565521
1176177151684229	2.2193298	0.9242554	0.9273987
1176177155804102	2.3695984	0.75198364	1.0080566
1176177161938135	2.5003204	0.6359253	1.0825806
1176177166302149	2.5736084	0.662796	1.1570892
1176177172008936	2.560196	0.8277283	1.227951
1176177175945703	2.560196	1.0183258	1.227951
1176177185131494	2.2938538	1.0183258	1.2218628
1176177189312402	2.108139	1.1588135	1.0911255
1176177196117822	1.9285431	1.1893616	0.9005432
1176177202068750	1.7611694	1.2773132	0.6916199
1176177206188623	1.6035767	1.4117126	0.490036
1176177212353174	1.4569702	1.5607758	0.31410217
1176177216503565	1.3286743	1.693924	0.17481995
1176177222546045	1.2272797	1.8002319	0.07952881
1176177226330225	1.1490784	1.891861	0.026992798
1176177232433740	1.0916595	1.9847107	0.011108398
1176177236370508	1.0525665	2.0922241	0.025787354
1176177239727441	1.0317993	2.2107239	0.06364441
1176177246441309	1.0305786	2.32312	0.12840271
1176177252483789	1.0452423	2.4062042	0.22003174
1176177256512109	1.0635681	2.4269714	0.32998657
1176177261547510	1.0684509	2.3561096	0.44239807
1176177266827051	1.046463	2.209488	0.54623413
1176177271618311	1.00737	2.0653381	0.6561737
1176177276653711	0.9756012	2.0066833	0.7930145
1176177281933252	0.9621582	2.045807	0.95184326
1176177286724512	0.9572754	2.122757	1.1118927
1176177290111963	0.9572754	2.1850739	1.1118927
1176177296825830	0.88520813	2.1850739	1.380661
1176177303204004	0.80700684	2.2913513	1.4967346
1176177306866113	0.7068176	2.368332	1.59935
1176177311901514	0.7068176	2.4587402	1.59935
1176177317455713	0.49180603	2.4587402	1.7142029
1176177322033350	0.49180603	2.668869	1.7142029
1176177327007715	0.400177	2.668869	1.7068634
1176177332470361	0.3354187	2.7837067	1.6470032
1176177337078516	0.30366516	2.901001	1.5333862
1176177340435449	0.31221008	3.019516	1.3660126
1176177347210352	0.35620117	3.1355743	1.1570892
1176177352276270	0.4343872	3.2406464	0.9298706
1176177357250635	0.54678345	3.3151703	0.72094727
1176177362286035	0.6994934	3.333496	0.56333923
1176177368175928	0.89497375	3.2736206	0.48269653
1176177372356836	1.1234283	3.1245728	0.4839325
1176177377422754	1.3592377	2.8985596	0.56333923
1176177382976953	1.5718079	2.629776	0.71118164
1176177387493555	1.7306366	2.3573303	0.91519165
1176177390758936	1.8198242	2.1166534	1.163208
1176177397533838	1.8344727	1.9199524	1.4429932
1176177402538721	1.7868347	1.7635803	1.7386322
1176177407604639	1.6952057	1.6377411	2.031845
1176177412640039	1.5730286	1.5265656	2.30307
1176177417950098	1.4300995	1.4251556	2.5364227
1176177422710840	1.2737122	1.3323059	2.7135773
1176177427715723	1.1185455	1.2516632	2.8149872
1176177433178369	0.98172	1.1832428	2.8308716
1176177437817041	0.8705292	1.1221619	2.757553
1176177441143457	0.8705292	1.0623016	2.757553
1176177447887842	0.7263794	1.0623016	2.373932
1176177452892725	0.7263794	0.9230194	2.0868225
1176177457928125	0.6811676	0.84973145	2.0868225
1176177462963525	0.6396332	0.84973145	1.756958
1176177468212549	0.5944214	0.7800751	1.4063416
1176177473034326	0.54067993	0.7141113	1.0593567
1176177478069727	0.47836304	0.6420288	0.7417145
1176177483349268	0.41362	0.5516205	0.46925354
1176177488171045	0.3513031	0.44288635	0.25180054
1176177491497461	0.2975464	0.31828308	0.08564758
1176177498211328	0.25723267	0.18998718	-0.032852173
1176177503246729	0.23158264	0.07272339	-0.10247803
1176177508282129	0.22302246	-0.012802124	-0.11592102
1176177513317529	0.23402405	-0.048217773	-0.06826782
1176177518780176	0.26945496	-0.026229858	0.039215088
1176177523388330	0.3354187	0.04095459	0.20170593
1176177528454248	0.42826843	0.12890625	0.41551208
1176177533855859	0.54556274	0.20709229	0.67697144
1176177538494531	0.6726074	0.24862671	0.98117065
1176177541881983	0.78868103	0.23518372	1.3037109
1176177548595850	0.8705292	0.16921997	1.6079102
1176177553600733	0.8986511	0.08370972	1.8656921
1176177558666650	0.8778534	0.03239441	2.0746155
1176177563671533	0.8302307	0.04951477	2.2480927
1176177569134180	0.7874603	0.12036133	2.3800507
1176177573772852	0.7715759	0.19364929	2.435028
1176177578777734	0.7862396	0.22419739	2.3873749
1176177584270899	0.81799316	0.19976807	2.2395477
1176177588879053	0.85343933	0.13745117	2.019638
1176177592205469	0.85343933	0.06295776	2.019638
1176177598919336	0.8827667	0.06295776	1.4820862
1176177603954736	0.90353394	-5.79834E-4	1.4820862
1176177609020654	0.9145355	-0.03479004	1.2047424
1176177614025537	0.91329956	-0.032348633	0.95184326
1176177619366113	0.89497375	-5.79834E-4	0.75027466
1176177624126856	0.8570862	0.047073364	0.62197876
1176177629162256	0.79356384	0.08979797	0.56944275
1176177635052149	0.7056122	0.11791992	0.58044434
1176177639233057	0.60054016	0.12646484	0.63175964
1176177642559473	0.48812866	0.10568237	0.6989441
1176177649273340	0.37452698	0.044631958	0.7588043
1176177654339258	0.26579285	-0.049453735	0.7930145
1176177659344141	0.16072083	-0.1532898	0.7930145
1176177664379541	0.06297302	-0.2351532	0.75271606
1176177669689600	-0.024993896	-0.28279114	0.6720581
1176177674480859	-0.0970459	-0.30111694	0.55111694
1176177679485742	-0.14958191	-0.3023529	0.39839172
1176177684856836	-0.18257141	-0.29135132	0.23469543
1176177689556543	-0.19845581	-0.266922	0.08198547
1176177692913477	-0.1960144	-0.22415161	-0.036499023
1176177699688379	-0.17524719	-0.16429138	-0.11103821
1176177704723779	-0.13613892	-0.09587097	-0.13668823
1176177709728662	-0.08239746	-0.026229858	-0.11836243
1176177714764063	-0.01399231	0.028747559	-0.06338501
1176177720257227	0.0690918	0.05683899	0.007461548
1176177724804346	0.16192627	0.05807495	0.06488037
1176177729839746	0.25479126	0.04219055	0.07952881
1176177735332910	0.33787537	0.031188965	0.034332275
1176177739910547	0.40138245	0.04095459	-0.07194519
1176177743267481	0.40138245	0.07272339	-0.07194519
1176177750011865	0.44415283	0.07272339	-0.22097778
1176177755016748	0.466156	0.12036133	-0.39569092
1176177760082666	0.46980286	0.17166138	-0.57528687
1176177765118066	0.452713	0.21931458	-0.7426605
1176177770611231	0.41482544	0.2571869	-0.88316345
1176177775188867	0.35740662	0.28651428	-0.98947144
1176177780224268	0.28656006	0.30848694	-1.0615387
1176177786053125	0.20349121	0.3256073	-1.1030731
1176177790295068	0.11062622	0.3390503	-1.1116333
1176177793669101	0.008010864	0.34513855	-1.0798645
1176177800321933	-0.0970459	0.34513855	-1.0041199
1176177805357333	-0.19477844	0.34025574	-0.89538574
1176177810392733	-0.28152466	0.33416748	-0.7671051
1176177815489169	-0.35482788	0.32681274	-0.6327057
1176177820799228	-0.41592407	0.31948853	-0.4971161
1176177825529452	-0.4611206	0.30848694	-0.36149597
1176177830564853	-0.48312378	0.2913971	-0.23077393
1176177836241122	-0.477005	0.2669525	-0.11225891
1176177840605136	-0.4440155	0.23641968	-0.004776001
1176177844023105	-0.4440155	0.20587158	-0.004776001
1176177850706454	-0.31941223	0.20587158	0.20050049
1176177855680819	-0.23631287	0.14723206	0.29945374
1176177860777255	-0.14103699	0.110580444	0.3727417
1176177865782138	-0.03843689	0.07272339	0.40083313
1176177871305819	0.06665039	0.044631958	0.3751831
1176177875883456	0.17048645	0.03729248	0.30065918
1176177880888339	0.2669983	0.04827881	0.19070435
1176177886656161	0.3500824	0.066604614	0.057540894
1176177890959140	0.3500824	0.082473755	0.057540894
1176177894316073	0.41362	0.082473755	-0.08538818
1176177901090976	0.452713	0.091033936	-0.22953796
1176177906095858	0.466156	0.10203552	-0.36393738
1176177911131259	0.45515442	0.12400818	-0.4836731
1176177916166659	0.42218018	0.15945435	-0.58262634
1176177922026034	0.37573242	0.20098877	-0.6620331
1176177926206942	0.320755	0.23886108	-0.7231293
1176177931242343	0.26579285	0.2669525	-0.7695465
1176177936766024	0.21202087	0.2889557	-0.802536
1176177941343661	0.16192627	0.31092834	-0.8196411
1176177944639560	0.116744995	0.33537292	-0.8208618
1176177951383944	0.080078125	0.35858154	-0.8049774
1176177956449862	0.05809021	0.37080383	-0.7695465
1176177961485263	0.053207397	0.3634796	-0.7121277
1176177966520663	0.060531616	0.3304901	-0.6278229
1176177971861239	0.07763672	0.27427673	-0.51664734
1176177976591464	0.095962524	0.20220947	-0.3932495
1176177981626864	0.10939026	0.12524414	-0.26863098
1176177987486239	0.11428833	0.050720215	-0.1574707
1176177991667147	0.111846924	-0.012802124	-0.06462097
1176177995054599	0.111846924	-0.065338135	-0.06462097
1176178001737948	0.0874176	-0.065338135	0.03555298
1176178006773349	0.06297302	-0.14472961	0.034332275
1176178011808749	0.025100708	-0.17285156	0.0025787354
1176178016874667	-0.024993896	-0.1850586	-0.054840088
1176178022215243	-0.0811615	-0.17285156	-0.13058472
1176178026945468	-0.13613892	-0.13496399	-0.21853638
1176178031980868	-0.18745422	-0.07878113	-0.30651855
1176178037718173	-0.23266602	-0.01524353	-0.387146
1176178042021151	-0.23266602	0.04219055	-0.387146
1176178045408603	-0.26808167	0.04219055	-0.4519043
1176178052122470	-0.29129028	0.08735657	-0.50076294
1176178057157870	-0.30229187	0.11791992	-0.53497314
1176178062193271	-0.30108643	0.13745117	-0.5569763
1176178067228671	-0.2937622	0.14356995	-0.57040405
1176178072721835	-0.28276062	0.14234924	-0.58018494
1176178077299472	-0.26687622	0.13745117	-0.58872986
1176178082334872	-0.24731445	0.13745117	-0.5948334
1176178088194247	-0.22410583	0.13868713	-0.5936127
1176178092375155	-0.20211792	0.13256836	-0.58384705
1176178095762606	-0.18257141	0.110580444	-0.56185913
1176178102445956	-0.1642456	0.075149536	-0.52885437
1176178107542392	-0.1471405	0.03239441	-0.48487854
1176178112516757	-0.1300354	-0.007904053	-0.43722534
1176178117552157	-0.114151	-0.042114258	-0.39569092
1176178123075839	-0.10682678	-0.065338135	-0.3675995
1176178127683993	-0.108047485	-0.07144165	-0.3541565
1176178132688876	-0.12025452	-0.05921936	-0.3529358
1176178138609286	-0.13981628	-0.029907227	-0.36027527
1176178142759677	-0.1642456	0.0043029785	-0.36515808
1176178146147128	-0.1642456	0.036071777	-0.36515808
1176178152830478	-0.22044373	0.036071777	-0.34561157
1176178157835360	-0.24855042	0.08003235	-0.321167
1176178162870761	-0.27420044	0.08735657	-0.29063416
1176178167936679	-0.29740906	0.082473755	-0.25154114
1176178173277255	-0.31697083	0.07028198	-0.19776917
1176178178007480	-0.31697083	0.050720215	-0.1269226
1176178183073397	-0.33161926	0.050720215	-0.1269226
1176178188780185	-0.33650208	0.02507019	0.03189087
1176178193144198	-0.33650208	-0.037231445	0.03189087
1176178196440097	-0.3255005	-0.037231445	0.09663391
1176178203214999	-0.30841064	-0.06410217	0.14305115
1176178208189364	-0.28640747	-0.08242798	0.16629028
1176178213285800	-0.25587463	-0.09220886	0.16873169
1176178218321200	-0.21554565	-0.09465027	0.1552887
1176178224211093	-0.16668701	-0.093429565	0.12840271
1176178228392001	-0.10926819	-0.093429565	0.0917511
1176178233396884	-0.044525146	-0.100753784	0.04899597
1176178239164706	0.021438599	-0.11419678	0.0037841797
1176178243498202	0.0849762	-0.13008118	-0.04017639
1176178246763583	0.1509552	-0.14108276	-0.081710815
1176178253569003	0.23646545	-0.14228821	-0.1244812
1176178258543368	0.3684082	-0.12884521	-0.17579651
1176178263578769	0.56144714	-0.09954834	-0.24909973
1176178268614169	0.8009033	-0.06289673	-0.34561157
1176178274107333	1.0440216	-0.03112793	-0.44702148
1176178278715487	1.2358398	-0.01524353	-0.5252075
1176178283750888	1.3409119	-0.014022827	-0.5630646
1176178289579745	1.3567963	-0.025009155	-0.56062317
1176178293821689	1.2981415	-0.049453735	-0.5362091
1176178297178622	1.2981415	-0.08610535	-0.5362091
1176178303892489	1.0366974	-0.08610535	-0.4836731
1176178308897372	0.8827667	-0.13131714	-0.4702301
1176178313932772	0.7520294	-0.11419678	-0.4567871
1176178318998690	0.66407776	-0.081222534	-0.4250183
1176178324278231	0.6127472	-0.056777954	-0.3529358
1176178329069491	0.6127472	-0.060440063	-0.3529358
1176178334104892	0.57977295	-0.060440063	-0.23809814
1176178339964267	0.5064697	-0.09098816	0.033111572
1176178344145175	0.5064697	-0.14840698	0.033111572
1176178347532626	0.45391846	-0.14840698	0.13572693
1176178354215976	0.386734	-0.13375854	0.20050049
1176178359281894	0.30976868	-0.08731079	0.2395935
1176178364317294	0.24134827	-0.021347046	0.26400757
1176178369322177	0.20103455	0.051956177	0.28601074
1176178374693271	0.18881226	0.11668396	0.30921936
1176178379423495	0.18025208	0.16067505	0.32998657
1176178384458896	0.15216064	0.17655945	0.34098816
1176178389829989	0.10206604	0.16433716	0.3360901
1176178394529696	0.051986694	0.13378906	0.30921936
1176178397886630	0.020217896	0.09591675	0.26036072
1176178404631015	0.0104522705	0.060516357	0.19438171
1176178409574862	0.016555786	0.038513184	0.11740112
1176178414640780	0.032440186	0.03363037	0.037994385
1176178419706698	0.053207397	0.04951477	-0.036499023
1176178425169345	0.072753906	0.08126831	-0.097595215
1176178429777499	0.080078125	0.119125366	-0.14891052
1176178434782382	0.072753906	0.15211487	-0.19044495
1176178440672274	0.05076599	0.17655945	-0.23077393
1176178444883700	0.020217896	0.19488525	-0.26986694
1176178448210116	0.020217896	0.2144165	-0.26986694
1176178454923983	-0.03475952	0.2144165	-0.33338928
1176178459989901	-0.053085327	0.27062988	-0.3675995
1176178464994784	-0.06651306	0.30604553	-0.4152527
1176178470060702	-0.06651306	0.3439331	-0.4152527
1176178475523349	-0.08483887	0.3439331	-0.54719543
1176178480100985	-0.08483887	0.39768982	-0.54719543
1176178485166903	-0.09094238	0.39768982	-0.6143799
1176178490660067	-0.092163086	0.40501404	-0.6693573
1176178495237704	-0.08604431	0.40135193	-0.7121277
1176178498533603	-0.07015991	0.38058472	-0.7438965
1176178505277987	-0.040878296	0.3292694	-0.7695465
1176178510313388	0.0018920898	0.24742126	-0.789093
1176178515379306	0.047088623	0.17532349	-0.7988739
1176178520414706	0.07519531	0.15945435	-0.7988739
1176178526152011	0.0715332	0.20831299	-0.7964325
1176178530485507	0.03488159	0.2913971	-0.802536
1176178535520907	-0.023757935	0.3757019	-0.8257446
1176178541349765	-0.09460449	0.45022583	-0.86727905
1176178545561190	-0.16546631	0.52108765	-0.92349243
1176178548948642	-0.22898865	0.5870514	-0.98947144
1176178555631991	-0.27908325	0.6481323	-1.0627594
1176178560667392	-0.31329346	0.703125	-1.1397247
1176178565702792	-0.33406067	0.74710083	-1.2142487
1176178570738192	-0.34262085	0.77763367	-1.2729034
1176178576048251	-0.33650208	0.79107666	-1.3083191
1176178580808993	-0.31452942	0.79351807	-1.3229828
1176178585844394	-0.27908325	0.79351807	-1.3205414
1176178591215487	-0.23266602	0.794754	-1.3046722
1176178595976230	-0.18013	0.79351807	-1.2777863
1176178599241610	-0.18013	0.7849579	-1.2777863
1176178605985995	-0.07383728	0.7849579	-1.2215729
1176178611021396	-0.07383728	0.77030945	-1.2118073
1176178616056796	-0.018875122	0.77030945	-1.2118073
1176178621092196	0.03488159	0.76786804	-1.2215729
1176178626524325	0.080078125	0.7397766	-1.2509003
1176178631162997	0.108184814	0.6713562	-1.3009949
1176178636198397	0.13015747	0.57118225	-1.3779602
1176178641600009	0.17416382	0.43434143	-1.4915924
1176178646238681	0.26579285	0.22665405	-1.654068
1176178649626132	0.4111786	-0.057998657	-1.8593292
1176178656339999	0.59809875	-0.34509277	-2.0706787
1176178661405917	0.7996826	-0.5198059	-2.2417297
1176178666380282	0.993927	-0.5418091	-2.3394623
1176178671446200	1.1613159	-0.484375	-2.362671
1176178676725741	1.2969208	-0.44651794	-2.318695
1176178681517001	1.4056549	-0.45628357	-2.2258453
1176178686552401	1.4924011	-0.4807129	-2.113449
1176178691984530	1.5522614	-0.48316956	-2.0108185
1176178696623202	1.5815735	-0.46484375	-1.9338531
1176178699949618	1.5876923	-0.43795776	-1.872757
1176178706694003	1.5779266	-0.41230774	-1.8006744
1176178711729403	1.5473633	-0.3866577	-1.6980438
1176178716764804	1.4887238	-0.36465454	-1.5563354
1176178721800204	1.4032135	-0.35609436	-1.3755188
1176178727079745	1.2944794	-0.36709595	-1.1556091
1176178731840487	1.1637573	-0.38909912	-0.90760803
1176178736906405	1.0134735	-0.41107178	-0.64982605
1176178742155429	0.85832214	-0.42207336	-0.4079132
1176178746946689	0.7190552	-0.42086792	-0.20632935
1176178750334140	0.7190552	-0.41841125	-0.20632935
1176178757048007	0.61154175	-0.41841125	-0.05606079
1176178762052890	0.53944397	-0.42207336	0.03555298
1176178767118808	0.49913025	-0.4342804	0.06854248
1176178772154208	0.49180603	-0.45506287	0.04899597
1176178777433749	0.51379395	-0.4794922	-0.014541626
1176178782255526	0.56388855	-0.5014801	-0.11103821
1176178787229892	0.6286316	-0.511261	-0.23077393
1176178792570468	0.70072937	-0.5014801	-0.36271667
1176178797331210	0.77401733	-0.47338867	-0.50320435
1176178800657626	0.84365845	-0.43917847	-0.6473694
1176178807432528	0.90597534	-0.41107178	-0.7878723
1176178812467929	0.954834	-0.39274597	-0.91737366
1176178817442294	0.9853821	-0.3842163	-1.0310059
1176178822508212	1.0037079	-0.3866577	-1.126297
1176178827909823	1.0122528	-0.4025421	-1.2020416
1176178832609530	1.0147095	-0.431839	-1.2594604
1176178837614413	1.0159302	-0.4684906	-1.2948914
1176178843077060	1.0195923	-0.5075989	-1.3144379
1176178847685214	1.0305786	-0.5479126	-1.3229828
1176178851042147	1.0305786	-0.5784607	-1.3229828
1176178857725497	1.0721283	-0.5906677	-1.3144379
1176178862791415	1.094101	-0.5747833	-1.2924347
1176178867826815	1.1148682	-0.5344696	-1.2545776
1176178872862216	1.1429901	-0.49415588	-1.2008057
1176178878172274	1.1906433	-0.48316956	-1.1324005
1176178882933017	1.252945	-0.50393677	-1.0566559
1176178887968417	1.3042603	-0.5259247	-0.98947144
1176178893431064	1.3201447	-0.5332489	-0.9479065
1176178898039218	1.2981415	-0.5515747	-0.95158386
1176178901396151	1.2981415	-0.6065521	-0.95158386
1176178908110019	1.2590485	-0.6065521	-1.0138855
1176178913114901	1.2187347	-0.67497253	-1.1348419
1176178918211337	1.1845245	-0.71040344	-1.3071136
1176178923246737	1.1613159	-0.71284485	-1.5001526
1176178928526278	1.1564331	-0.72872925	-1.6760712
1176178933287021	1.1747589	-0.7861481	-1.8031311
1176178938291903	1.2077332	-0.8570099	-1.8678741
1176178943571444	1.2468262	-0.8912201	-1.8715515
1176178948393222	1.2846985	-0.8826599	-1.8202362
1176178951750155	1.3201447	-0.8545685	-1.7188416
1176178958464022	1.3457947	-0.8350067	-1.5746613
1176178963468905	1.3543549	-0.82891846	-1.3999634
1176178968534823	1.3470001	-0.8374481	-1.2166901
1176178973539706	1.3274689	-0.8667755	-1.0444336
1176178978971835	1.3018036	-0.9168701	-0.89416504
1176178983641024	1.2712708	-0.9779663	-0.76586914
1176178988706942	1.2431641	-1.0353699	-0.65226746
1176178993986483	1.2223969	-1.0867004	-0.54473877
1176178998747226	1.2089691	-1.1319122	-0.44578552
1176179002104159	1.2089691	-1.1661072	-0.44578552
1176179008818026	1.1796417	-1.1661072	-0.27719116
1176179013853427	1.146637	-1.1636505	-0.22709656
1176179018888827	1.094101	-1.123352	-0.22221375
1176179023924228	1.0256958	-1.0634918	-0.2710724
1176179029173251	0.9511719	-0.9950714	-0.3688202
1176179033995028	0.875412	-0.9156647	-0.48731995
1176179039030429	0.802124	-0.8240204	-0.5948334
1176179044493075	0.7349243	-0.73361206	-0.6717987
1176179049101230	0.7349243	-0.67497253	-0.6717987
1176179052427646	0.684845	-0.67497253	-0.71333313
1176179059172030	0.6677246	-0.6810913	-0.7243347
1176179064176913	0.7031708	-0.75315857	-0.7108917
1176179069273349	0.79112244	-0.8594513	-0.6828003
1176179074278231	0.91329956	-0.96084595	-0.6461487
1176179079588290	1.0403595	-1.0329285	-0.60095215
1176179084349032	1.1527557	-1.070816	-0.54841614
1176179089353915	1.2346191	-1.0879059	-0.4812317
1176179094816562	1.2712708	-1.109909	-0.39569092
1176179099485751	1.2480469	-1.1514435	-0.28330994
1176179102812167	1.1649628	-1.2039795	-0.1415863
1176179109587069	1.0354767	-1.250412	0.024551392
1176179114561435	0.8778534	-1.2870636	0.19194031
1176179119596835	0.697052	-1.3163757	0.32998657
1176179124632235	0.50157166	-1.3310394	0.41671753
1176179129911776	0.30366516	-1.328598	0.45092773
1176179134703036	0.12283325	-1.3237152	0.4521637
1176179139768954	-0.02619934	-1.3383636	0.44360352
1176179145079013	-0.13613892	-1.3786926	0.43995667
1176179149870272	-0.20701599	-1.4214478	0.44728088
1176179153166171	-0.20701599	-1.447113	0.44728088
1176179159941073	-0.24731445	-1.447113	0.49247742
1176179164945956	-0.23510742	-1.4373322	0.5108032
1176179169920321	-0.21310425	-1.420227	0.5132446
1176179174986239	-0.18379211	-1.403122	0.50102234
1176179180296298	-0.13737488	-1.3835754	0.48757935
1176179185087558	-0.07872009	-1.355484	0.49493408
1176179190153476	-0.07872009	-1.3102722	0.5364685
1176179195555087	-0.043319702	-1.2345276	0.61587524
1176179200163241	-0.043319702	-1.1160278	0.61587524
1176179203520175	-0.15324402	-1.1160278	0.71606445
1176179210234042	-0.37805176	-0.97184753	0.8040161
1176179215299960	-0.68348694	-0.90586853	0.86509705
1176179220304843	-0.98280334	-1.0488129	0.90663147
1176179225340243	-1.1648407	-1.3957825	0.9408417
1176179230619784	-1.1623993	-1.7403107	0.9726105
1176179235411044	-0.9840088	-1.8539276	0.99827576
1176179240446444	-0.7005768	-1.6902161	1.0166016
1176179245909091	-0.40370178	-1.3872528	1.0202637
1176179250517245	-0.17156982	-1.0879059	0.99949646
1176179253874179	-0.04576111	-0.8240204	0.9530792
1176179260588046	-0.029876709	-0.5699005	0.90419006
1176179265623446	-0.09460449	-0.31333923	0.8736572
1176179270658847	-0.20211792	-0.05555725	0.8712158
1176179275663730	-0.32061768	0.19854736	0.8895416
1176179280943271	-0.42814636	0.44778442	0.91519165
1176179285765048	-0.50997925	0.68844604	0.93963623
1176179290800448	-0.5503082	0.90715027	0.9530792
1176179296110507	-0.5405426	1.078186	0.9530792
1176179300840731	-0.48068237	1.1771545	0.94207764
1176179304258700	-0.48068237	1.1954803	0.94207764
1176179310972567	-0.24731445	1.1954803	0.91030884
1176179315977450	-0.10926819	1.0549774	0.89930725
1176179321012851	0.022659302	0.9291382	0.9005432
1176179326078769	0.14115906	0.77519226	0.9139862
1176179331541415	0.24502563	0.5931549	0.9371948
1176179336119052	0.24502563	0.39035034	0.9371948
1176179341215487	0.3317566	0.39035034	0.9591675
1176179346525546	0.39894104	0.18266296	0.9726105
1176179351286288	0.43927002	-0.0042419434	0.9726105
1176179354582187	0.452713	-0.15452576	0.9616089
1176179361357089	0.44415283	-0.2657013	0.94207764
1176179366392489	0.42338562	-0.34509277	0.91030884
1176179371366855	0.3977356	-0.4000702	0.86753845
1176179376402255	0.36717224	-0.4342804	0.8150177
1176179381803866	0.32809448	-0.44284058	0.7539215
1176179386503573	0.27677917	-0.42819214	0.6855011
1176179391569491	0.20957947	-0.39030457	0.61099243
1176179397367831	0.12895203	-0.3365631	0.5401306
1176179401609774	0.040985107	-0.28034973	0.4814911
1176179404966708	-0.04576111	-0.2375946	0.4362793
1176179411650058	-0.12271118	-0.2217102	0.40083313
1176179416685458	-0.18501282	-0.23149109	0.37153625
1176179421781894	-0.23266602	-0.26324463	0.34220886
1176179426786776	-0.2644348	-0.31700134	0.31532288
1176179432188388	-0.28764343	-0.38909912	0.28967285
1176179436827060	-0.30596924	-0.47583008	0.26768494
1176179441862460	-0.32429504	-0.5674591	0.24691772
1176179447752353	-0.34506226	-0.65541077	0.22859192
1176179451963778	-0.37193298	-0.72994995	0.2078247
1176179455320712	-0.37193298	-0.78370667	0.2078247
1176179462034579	-0.4415741	-0.78370667	0.15405273
1176179467039462	-0.4794464	-0.8142395	0.11740112
1176179472135897	-0.5124512	-0.79714966	0.0770874
1176179477110263	-0.530777	-0.76538086	0.03555298
1176179482878085	-0.5332184	-0.72384644	-0.007217407
1176179487181064	-0.5332184	-0.6676483	-0.007217407
1176179492216464	-0.5197754	-0.6676483	-0.048736572
1176179497557040	-0.5002136	-0.5943451	-0.090270996
1176179502317782	-0.48188782	-0.5063782	-0.13058472
1176179505674716	-0.4696808	-0.41841125	-0.16355896
1176179512419101	-0.4611206	-0.35121155	-0.18556213
1176179517423983	-0.4476776	-0.32188416	-0.19288635
1176179522428866	-0.42814636	-0.3341217	-0.19044495
1176179527494784	-0.40003967	-0.38053894	-0.18067932
1176179532957431	-0.36582947	-0.44528198	-0.16601563
1176179537535067	-0.33161926	-0.5161438	-0.14891052
1176179542631503	-0.30352783	-0.57966614	-0.13180542
1176179547941562	-0.28520203	-0.6285553	-0.11958313
1176179552641269	-0.27296448	-0.65908813	-0.11470032
1176179555998202	-0.26564026	-0.6676483	-0.12080383
1176179562712069	-0.26319885	-0.6566467	-0.13546753
1176179567777987	-0.26931763	-0.6285553	-0.15991211
1176179572782870	-0.28764343	-0.5906677	-0.19288635
1176179577848788	-0.312088	-0.5479126	-0.23321533
1176179583280917	-0.33039856	-0.5124817	-0.27842712
1176179587919589	-0.33406067	-0.48805237	-0.32484436
1176179592954989	-0.32185364	-0.46484375	-0.3675995
1176179598814364	-0.30473328	-0.42575073	-0.4018097
1176179602995272	-0.29740906	-0.36221313	-0.426239
1176179606352206	-0.29740906	-0.27912903	-0.426239
1176179613066073	-0.33894348	-0.27912903	-0.44456482
1176179618101474	-0.37927246	-0.12031555	-0.44456482
1176179623197909	-0.37927246	-0.05555725	-0.44334412
1176179628202792	-0.41836548	0.0055236816	-0.44334412
1176179633940097	-0.46844482	0.0055236816	-0.4543457
1176179638243075	-0.46844482	0.14723206	-0.4543457
1176179643308993	-0.48068237	0.14723206	-0.47143555
1176179648832675	-0.4855652	0.2303009	-0.49343872
1176179653349276	-0.48312378	0.31704712	-0.51908875
1176179656736728	-0.4721222	0.39891052	-0.5435333
1176179663481112	-0.45011902	0.47099304	-0.56185913
1176179668455478	-0.41714478	0.5296173	-0.57406616
1176179673521396	-0.3755951	0.56874084	-0.58506775
1176179678526278	-0.33529663	0.5797119	-0.5972748
1176179683866855	-0.29864502	0.5589447	-0.60827637
1176179688627597	-0.26808167	0.50764465	-0.61683655
1176179693693515	-0.24243164	0.43556213	-0.62049866
1176179699003573	-0.22166443	0.3549347	-0.62049866
1176179703733798	-0.20822144	0.27671814	-0.62294006
1176179707090731	-0.20211792	0.20831299	-0.6290436
1176179713804599	-0.20333862	0.15333557	-0.63638306
1176179718870517	-0.20578003	0.11302185	-0.64004517
1176179723844882	-0.20701599	0.08370972	-0.63760376
1176179728910800	-0.20333862	0.05807495	-0.63394165
1176179734678622	-0.1960144	0.036071777	-0.6302643
1176179738981601	-0.19233704	0.018966675	-0.63394165
1176179744078036	-0.19845581	0.011627197	-0.644928
1176179749906894	-0.21434021	0.020187378	-0.6632538
1176179754087802	-0.23754883	0.054397583	-0.6876831
1176179757383700	-0.23754883	0.11668396	-0.6876831
1176179764128085	-0.30717468	0.11668396	-0.7426605
1176179769163485	-0.30717468	0.31584167	-0.7426605
1176179774351474	-0.34628296	0.31584167	-0.7646637
1176179779295321	-0.38659668	0.42822266	-0.77931213
1176179784422274	-0.4256897	0.53697205	-0.7829895
1176179789335605	-0.46479797	0.6383667	-0.7805481
1176179794340487	-0.49900818	0.728775	-0.7719879
1176179800260897	-0.52342224	0.8032837	-0.7597809
1176179804411288	-0.53686523	0.85461426	-0.7463379
1176179807798739	-0.54418945	0.8802643	-0.73413086
1176179814695712	-0.5503082	0.88638306	-0.7292175
1176179819548007	-0.5637512	0.88638306	-0.7328949
1176179824827548	-0.58940125	0.88638306	-0.7463379
1176179829618808	-0.62605286	0.8875885	-0.76586914
1176179835478183	-0.67126465	0.8851471	-0.789093
1176179839689608	-0.7189026	0.87538147	-0.81108093
1176179844725009	-0.760437	0.8533783	-0.8355255
1176179850492831	-0.78611755	0.8118439	-0.86239624
1176179855039950	-0.7922058	0.74342346	-0.89538574
1176179858122226	-0.7824402	0.6554718	-0.93325806
1176179865110751	-0.7665558	0.5650635	-0.97358704
1176179869871493	-0.74823	0.49176025	-1.0114441
1176179875059481	-0.7054596	0.43800354	-1.0407715
1176179879942294	-0.59672546	0.39157104	-1.0505371
1176179885984774	-0.40248108	0.3304901	-1.0370941
1176179890043612	-0.15324402	0.22665405	-1.0090027
1176179895414706	0.07763672	0.07392883	-0.97846985
1176179900816317	0.22546387	-0.109313965	-0.95158386
1176179905149814	0.27555847	-0.2840271	-0.921051
1176179908445712	0.27555847	-0.41841125	-0.921051
1176179915556308	0.24012756	-0.41841125	-0.8098602
1176179920286532	0.24012756	-0.5747833	-0.8098602
1176179925474521	0.23524475	-0.5747833	-0.72068787
1176179930326815	0.25234985	-0.6383209	-0.61683655
1176179936460849	0.29632568	-0.7018585	-0.3847046
1176179940397616	0.29632568	-0.8032532	-0.3847046
1176179945860263	0.30366516	-0.8032532	-0.26498413
1176179950895663	0.2975464	-0.821579	-0.13912964
1176179955747958	0.2841034	-0.81547546	-0.008422852
1176179958799716	0.26823425	-0.78248596	0.122283936
1176179965879794	0.25234985	-0.71284485	0.24324036
1176179970610019	0.23402405	-0.5967865	0.3519745
1176179976133700	0.20713806	-0.43551636	0.44483948
1176179980680819	0.17172241	-0.24369812	0.5242462
1176179986967440	0.1350708	-0.040893555	0.59632874
1176179990721103	0.10694885	0.15821838	0.67085266
1176179995878573	0.0874176	0.3463745	0.7575989
1176180001646396	0.0715332	0.5198517	0.8504486
1176180006193515	0.044647217	0.6750183	0.93963623
1176180009214755	0.044647217	0.808197	1.010498
1176180016752597	-0.053085327	0.808197	1.0654602
1176180020902987	-0.10926819	0.9914398	1.1082306
1176180026853915	-0.1434784	1.0402985	1.1338806
1176180031004306	-0.123931885	1.0439758	1.136322
1176180036222812	-0.028640747	0.9706726	1.1265564
1176180041136142	0.120391846	0.7959595	1.1204376
1176180046995517	0.25112915	0.5381775	1.1167908
1176180051878329	0.27555847	0.2669525	1.085022
1176180057127353	0.17292786	0.06904602	0.9958191
1176180067198153	-0.05064392	-0.022567749	0.7905731
1176180071348544	-0.05064392	-0.09831238	0.7905731
1176180077146884	0.12651062	-0.09831238	0.85899353
1176180081388827	0.12651062	-0.41230774	0.85899353
1176180087065097	0.22790527	-0.41230774	0.91275024
1176180091490146	0.24746704	-0.6309967	0.89930725
1176180097441073	0.19248962	-0.8301239	0.8247833
1176180102415439	0.11306763	-0.9840698	0.7282715
1176180107389804	0.04586792	-1.084259	0.64152527
1176180109892245	-0.007873535	-1.123352	0.57310486
1176180117399569	-0.06651306	-1.0964661	0.5181427
1176180121641513	-0.13737488	-1.0097198	0.46681213
1176180127714511	-0.2094574	-0.8887787	0.4203949
1176180131742831	-0.26931763	-0.76538086	0.37641907
1176180137510653	-0.312088	-0.6517639	0.33120728
1176180141813632	-0.33529663	-0.5430298	0.28479004
1176180147581454	-0.33529663	-0.43063354	0.24203491
1176180152708407	-0.32185364	-0.32432556	0.2188263
1176180157652255	-0.31085205	-0.23271179	0.2188263
1176180160276767	-0.31085205	-0.15696716	0.2188263
1176180167967196	-0.33529663	-0.15696716	0.26890564
1176180171995517	-0.36460876	-0.044555664	0.29945374
1176180178160067	-0.40003967	-0.007904053	0.32022095
1176180182096835	-0.43423462	0.012863159	0.3385315
1176180190061923	-0.44891357	0.016525269	0.38130188
1176180198057528	-0.38537598	-0.016464233	0.58166504
1176180202940341	-0.31817627	-0.016464233	0.7123871
1176180208311435	-0.2436676	0.012863159	0.85165405
1176180218504306	-0.108047485	0.05683899	1.124115
1176180222380038	-0.108047485	0.11424255	1.124115
1176180228239413	-0.059188843	0.11424255	1.2243042
1176180232450839	-0.023757935	0.11302185	1.3037109
1176180237974521	6.713867E-4	0.08859253	1.3916626
1176180242521640	0.016555786	0.03729248	1.5187225
1176180248991366	0.028778076	-0.044555664	1.6983337
1176180252897616	0.047088623	-0.14108276	1.9035797
1176180258848544	0.06665039	-0.23027039	2.0538483
1176180268949862	0.05076599	-0.27424622	1.8486023
1176180272764560	0.004333496	-0.22293091	1.5248413
1176180278868075	-0.048202515	-0.15084839	1.2071838
1176180282804843	-0.09094238	-0.07998657	0.98605347
1176180288847323	-0.115371704	-0.03112793	0.8712158
1176180292875644	-0.108047485	-0.01890564	0.8125763
1176180299467440	-0.055511475	-0.06410217	0.7624817
1176180303800937	0.039764404	-0.1850586	0.71118164
1176180308927890	0.15827942	-0.38174438	0.67697144
1176180319242831	0.36473083	-0.6334381	0.68673706
1176180323088046	0.44171143	-1.1319122	0.6879425
1176180329466220	0.5028076	-1.2919464	0.6598511
1176180333128329	0.54434204	-1.3640137	0.61099243
1176180339262362	0.56388855	-1.3591309	0.56455994
1176180343199130	0.56877136	-1.2980499	0.53157043
1176180349180575	0.5724335	-1.2027588	0.5095825
1176180353788730	0.5883179	-1.0915833	0.49247742
1176180359587069	0.62498474	-0.9816284	0.4753723
1176180369810458	0.7508087	-0.8826599	0.43751526
1176180373411532	0.7508087	-0.73117065	0.43751526
1176180379942294	0.87664795	-0.73117065	0.40574646
1176180383482333	0.87664795	-0.6309967	0.40574646
1176180389555331	0.9145355	-0.6309967	0.4032898
1176180393583651	0.93530273	-0.6041107	0.4203949
1176180398619052	0.9511719	-0.5967865	0.4570465
1176180404356356	0.97439575	-0.6041107	0.5083618
1176180408689853	1.0061493	-0.6261139	0.5608978
1176180412046786	1.0220337	-0.64320374	0.61343384
1176180418730136	0.9866028	-0.61387634	0.6647339
1176180423796054	0.90353394	-0.48683167	0.71850586
1176180429991122	0.82655334	-0.2693634	0.7685852
1176180433836337	0.80822754	-0.042114258	0.8101196
1176180438932772	0.85220337	0.10079956	0.839447
1176180443937655	0.9120636	0.13378906	0.8553314
1176180448973056	0.9499512	0.10079956	0.8565521
1176180454740878	0.95851135	0.050720215	0.8382263
1176180460234042	0.95362854	6.4086914E-4	0.8064575
1176180469114657	0.9597168	-0.045776367	0.75271606
1176180474150058	0.97439575	-0.10687256	0.7429352
1176180479215976	0.9853821	-0.1532898	0.72950745
1176180484220858	0.9878235	-0.27546692	0.70506287
1176180489805575	0.9853821	-0.49171448	0.68185425
1176180494261142	0.9853821	-0.7568207	0.68185425
1176180499357577	0.9853821	-0.7568207	0.6720581
1176180504850741	0.98172	-0.97673035	0.67329407
1176180509428378	0.954834	-1.079361	0.67329407
1176180512724276	0.8912964	-1.04393	0.65740967
1176180519529696	0.79234314	-0.8936615	0.6305237
1176180524504062	0.66651917	-0.6676483	0.59877014
1176180529569980	0.52723694	-0.40618896	0.56578064
1176180534605380	0.386734	-0.14964294	0.5279083
1176180540129062	0.26455688	0.06904602	0.4973755
1176180544615146	0.1851654	0.22909546	0.50346375
1176180551298495	0.15583801	0.3280487	0.58776855
1176180554991122	0.16804504	0.36714172	0.761261
1176180559782382	0.20713806	0.35614014	0.99705505
1176180563139315	0.25723267	0.30848694	1.2365112
1176180569853183	0.3134308	0.25595093	1.447876
1176180574858065	0.3708496	0.22541809	1.6421204
1176180579893466	0.427063	0.24130249	1.8510437
1176180584898349	0.48812866	0.31584167	2.0904999
1176180590269442	0.55044556	0.46121216	2.3360596
1176180594999667	0.6066437	0.66767883	2.5535278
1176180600035067	0.6542816	0.8778229	2.728241
1176180605375644	0.7031708	1.0048828	2.8687286
1176180610166903	0.77645874	0.9926758	2.9884644
1176180613462802	0.77645874	0.87538147	2.9884644
1176180620207187	1.0110321	0.87538147	3.1387482
1176180625212069	1.1087799	0.5797119	3.1057434
1176180630247470	1.1368713	0.39768982	2.9542542
1176180635252353	1.1368713	0.17655945	2.680603
1176180640776034	0.8827667	0.17655945	2.3201752
1176180645353671	0.8827667	-0.057998657	2.3201752
1176180650389071	0.5895386	-0.057998657	1.9292297
1176180656309481	-0.19967651	0.055618286	1.2316284
1176180660459872	-0.19967651	0.53208923	1.2316284
1176180663755771	-0.5808563	0.53208923	0.9616089
1176180670561190	-0.8740692	0.75686646	0.7355957
1176180675596591	-1.0475464	0.9193573	0.5437927
1176180680631991	-1.1025238	1.0036469	0.38130188
1176180685636874	-1.058548	1.0158844	0.25302124
1176180691496249	-0.9449158	0.9767914	0.16261292
1176180695707675	-0.79100037	0.908371	0.10151672
1176180700743075	-0.61628723	0.82040405	0.062438965
1176180706205722	-0.4403534	0.7116699	0.03555298
1176180710813876	-0.2803192	0.5821533	0.0135650635
1176180714109774	-0.1459198	0.44044495	-0.008422852
1176180720915194	-0.040878296	0.2938385	-0.036499023
1176180725889560	0.036102295	0.14601135	-0.065826416
1176180730955478	0.0874176	0.0055236816	-0.08659363
1176180736021396	0.11306763	-0.11299133	-0.093933105
1176180741697665	0.116744995	-0.19606018	-0.09637451
1176180746031161	0.10574341	-0.24003601	-0.109817505
1176180751127597	0.0849762	-0.2546997	-0.13668823
1176180756529208	0.060531616	-0.2546997	-0.17700195
1176180761198397	0.044647217	-0.2510376	-0.22465515
1176180764524814	0.044647217	-0.24125671	-0.22465515
1176180771238681	0.103302	-0.24125671	-0.2576294
1176180776274081	0.17781067	-0.18261719	-0.17823792
1176180781278964	0.17781067	-0.16552734	-0.17823792
1176180786314364	0.23890686	-0.16552734	-0.054840088
1176180791715976	0.24867249	-0.19606018	0.04411316
1176180796415683	0.20837402	-0.2730255	0.06364441
1176180801420565	0.15704346	-0.34999084	0.01234436
1176180807157870	0.13871765	-0.37930298	-0.065826416
1176180811521884	0.16316223	-0.35488892	-0.1269226
1176180814909335	0.21325684	-0.2999115	-0.15501404
1176180821592685	0.26579285	-0.24369812	-0.14768982
1176180826628085	0.30732727	-0.19361877	-0.11958313
1176180831663485	0.3317566	-0.14964294	-0.08294678
1176180836698886	0.34031677	-0.10687256	-0.042617798
1176180842558261	0.33787537	-0.07266235	-0.008422852
1176180846769687	0.3390808	-0.048217773	0.014785767
1176180851774569	0.3549652	-0.03479004	0.01966858
1176180857298251	0.39161682	-0.028686523	0.007461548
1176180861875888	0.4453888	-0.026229858	-0.010864258
1176180865171786	0.50891113	-0.025009155	-0.016983032
1176180872007724	0.5736542	-0.021347046	0.0013427734
1176180876951571	0.62986755	-0.017684937	0.045318604
1176180882048007	0.6677246	-0.017684937	0.10031128
1176180887052890	0.6811676	-0.01890564	0.14672852
1176180892881747	0.6677246	-0.01524353	0.16749573
1176180897093173	0.62986755	-0.0018005371	0.1577301
1176180902159091	0.5736542	0.016525269	0.13084412
1176180907560702	0.5076904	0.03239441	0.10151672
1176180912199374	0.4453888	0.047073364	0.08074951
1176180915617343	0.4453888	0.07028198	0.08074951
1176180922270175	0.3794098	0.07028198	0.08074951
1176180927305575	0.3794098	0.119125366	0.08074951
1176180932371493	0.3818512	0.119125366	0.10151672
1176180937376376	0.400177	0.12524414	0.13572693
1176180942716952	0.43070984	0.12156677	0.17970276
1176180947477694	0.47836304	0.10813904	0.23103333
1176180952513095	0.54556274	0.07392883	0.28967285
1176180957823153	0.6261902	-5.79834E-4	0.35321045
1176180962553378	0.7080536	-0.12031555	0.41551208
1176180965940829	0.7789154	-0.2718048	0.46437073
1176180972624179	0.83143616	-0.41963196	0.490036
1176180977629062	0.86564636	-0.5185852	0.49369812
1176180982694980	0.8962097	-0.5405731	0.48757935
1176180987760897	0.9389496	-0.49049377	0.48757935
1176180993162509	1.0085907	-0.39518738	0.5083618
1176180997801181	1.1112213	-0.2730255	0.5608978
1176181002806064	1.2456055	-0.11419678	0.6647339
1176181008116122	1.3958893	0.10203552	0.8333435
1176181012937899	1.5424805	0.37690735	1.0569153
1176181016264315	1.6561127	0.6737976	1.2866058
1176181022978183	1.7098541	0.9425812	1.461319
1176181028044101	1.6878815	1.139267	1.5480499
1176181033048983	1.5962524	1.2382202	1.5578156
1176181038084384	1.461853	1.2150116	1.5297241
1176181043608065	1.322586	1.0610962	1.5016174
1176181048185702	1.1967316	0.8106384	1.4930725
1176181053190585	1.0794525	0.55041504	1.5101776
1176181058653231	0.9523926	0.38790894	1.5394897
1176181063261386	0.8167877	0.38180542	1.5627136
1176181066618319	0.8167877	0.4905243	1.5627136
1176181073332187	0.6897278	0.4905243	1.560257
1176181078367587	0.5968628	0.6139221	1.5199432
1176181083402987	0.54922485	0.6615753	1.4527588
1176181088438388	0.53944397	0.6139221	1.3733368
1176181093778964	0.54312134	0.51008606	1.3000336
1176181098539706	0.53578186	0.40379333	1.2377319
1176181103575106	0.5028076	0.3280487	1.1852112
1176181109068271	0.4429474	0.2828369	1.1387634
1176181113645907	0.36473083	0.24862671	1.097229
1176181117002841	0.27555847	0.20587158	1.0617981
1176181123716708	0.18025208	0.15211487	1.0312653
1176181128721591	0.0849762	0.08979797	1.0007172
1176181133756991	-0.009109497	0.027511597	0.96528625
1176181138822909	-0.10072327	-0.028686523	0.92007446
1176181144163485	-0.18623352	-0.07388306	0.8638916
1176181148863192	-0.25708008	-0.109313965	0.7954712
1176181153929110	-0.30352783	-0.1398468	0.7123871
1176181159239169	-0.3255005	-0.17529297	0.61831665
1176181163999911	-0.33039856	-0.21560669	0.51934814
1176181167356845	-0.33039856	-0.26080322	0.4252777
1176181174070712	-0.35606384	-0.26080322	0.34587097
1176181179533358	-0.3890381	-0.33900452	0.29577637
1176181184110995	-0.424469	-0.35853577	0.28601074
1176181189176913	-0.45135498	-0.36465454	0.31044006
1176181194639560	-0.46479797	-0.35853577	0.35075378
1176181199247714	-0.4721222	-0.3365631	0.384964
1176181204252597	-0.4745636	-0.30111694	0.4032898
1176181209806796	-0.47576904	-0.26080322	0.41551208
1176181214323397	-0.47576904	-0.2217102	0.42651367
1176181217680331	-0.477005	-0.2217102	0.42651367
1176181224424716	-0.48068237	-0.1875	0.44483948
1176181229460116	-0.49165344	-0.16305542	0.46925354
1176181234464999	-0.50997925	-0.14840698	0.49247742
1176181239530917	-0.52830505	-0.13496399	0.5059204
1176181245054599	-0.54174805	-0.11051941	0.5046997
1176181253904696	-0.54418945	-0.06777954	0.45948792
1176181259672519	-0.53686523	0.039733887	0.41551208
1176181264677401	-0.52586365	0.07272339	0.3568573
1176181268064853	-0.5124512	0.08370972	0.28723145
1176181274748202	-0.5014496	0.078826904	0.21759033
1176181279814120	-0.49409485	0.06539917	0.15649414
1176181284849521	-0.4855652	0.04951477	0.110076904
1176181289884921	-0.47332764	0.03729248	0.0770874
1176181295591708	-0.45011902	0.039733887	0.057540894
1176181299925204	-0.42080688	0.060516357	0.051437378
1176181304991122	-0.38781738	0.09715271	0.055099487
1176181310331698	-0.35482788	0.13256836	0.06976318
1176181315092440	-0.32429504	0.15701294	0.097854614
1176181318418856	-0.32429504	0.16677856	0.097854614
1176181325163241	-0.29008484	0.16677856	0.1711731
1176181330168124	-0.28764343	0.14479065	0.1870575
1176181335173007	-0.29129028	0.11424255	0.17481995
1176181340238925	-0.29985046	0.06904602	0.13452148
1176181345579501	-0.312088	0.0043029785	0.07952881
1176181350309726	-0.32673645	-0.081222534	0.025787354
1176181355375644	-0.34017944	-0.18139648	-0.018188477
1176181361112948	-0.34628296	-0.2876892	-0.049942017
1176181365415927	-0.34628296	-0.39154053	-0.049942017
1176181368772860	-0.34750366	-0.39154053	-0.07070923
1176181375456210	-0.34506226	-0.4807129	-0.08049011
1176181380522128	-0.33894348	-0.5442505	-0.08049011
1176181385557528	-0.33039856	-0.57722473	-0.0743866
1176181390592929	-0.32185364	-0.5809021	-0.06706238
1176181396086093	-0.31697083	-0.5588989	-0.0597229
1176181400633212	-0.31941223	-0.5161438	-0.05606079
1176181405668612	-0.32795715	-0.45994568	-0.058502197
1176181411131259	-0.3413849	-0.39642334	-0.065826416
1176181415739413	-0.35482788	-0.3341217	-0.07926941
1176181419096347	-0.36460876	-0.2730255	-0.09881592
1176181425871249	-0.37193298	-0.21315002	-0.1232605
1176181430845614	-0.37805176	-0.15940857	-0.15013123
1176181435881015	-0.38049316	-0.117874146	-0.17579651
1176181440946933	-0.37927246	-0.08731079	-0.19900513
1176181446775790	-0.37683105	-0.06289673	-0.21853638
1176181450987216	-0.37438965	-0.040893555	-0.23077393
1176181456053134	-0.3731537	-0.020126343	-0.23930359
1176181461515780	-0.3731537	-5.79834E-4	-0.24542236
1176181466123935	-0.37438965	0.023864746	-0.24909973
1176181469480868	-0.37438965	0.051956177	-0.24909973
1176181476194735	-0.38781738	0.051956177	-0.255188
1176181481230136	-0.4098053	0.110580444	-0.26742554
1176181486265536	-0.45011902	0.122802734	-0.29307556
1176181491300937	-0.50997925	0.10935974	-0.3370514
1176181496977206	-0.5832977	0.06539917	-0.3847046
1176181501341220	-0.5832977	-0.0066833496	-0.40057373
1176181506407138	-0.66270447	-0.08610535	-0.40057373
1176181511686679	-0.7396698	-0.08610535	-0.3358307
1176181516477939	-0.8019867	-0.15452576	-0.15623474
1176181519834872	-0.8423004	-0.2033844	0.1259613
1176181526518222	-0.8557434	-0.23149109	0.45948792
1176181531584140	-0.8410797	-0.22293091	0.7759247
1176181536619540	-0.7970886	-0.15208435	1.0117035
1176181541654940	-0.71769714	-0.01890564	1.1351166
1176181547544833	-0.582077	0.13745117	1.148529
1176181551695224	-0.38049316	0.2730713	1.0764618
1176181556730624	-0.1312561	0.3732605	0.9530792
1176181562071200	0.11306763	0.43310547	0.8052368
1176181566831942	0.29388428	0.41357422	0.65496826
1176181570127841	0.37817383	0.26086426	0.5071411
1176181577024814	0.36228943	-0.045776367	0.36175537
1176181581968661	0.2669983	-0.46116638	0.21759033
1176181586973544	0.12283325	-0.88998413	0.08930969
1176181592008944	-0.03843689	-1.2284088	-0.002319336
1176181597868319	-0.19113159	-1.3982239	-0.041412354
1176181602079745	-0.31817627	-1.3835754	-0.03161621
1176181607206698	-0.41714478	-1.2284088	0.022109985
1176181613005038	-0.49409485	-1.0072784	0.106414795
1176181617185946	-0.55519104	-0.7775879	0.20658875
1176181620542880	-0.55519104	-0.5747833	0.20658875
1176181627256747	-0.66148376	-0.5747833	0.4045105
1176181632261630	-0.70913696	-0.34020996	0.4814911
1176181637297030	-0.7494354	-0.32676697	0.5364685
1176181642332431	-0.77388	-0.37197876	0.56944275
1176181647703524	-0.7714386	-0.45506287	0.58166504
1176181652403231	-0.7714386	-0.5515747	0.58166504
1176181657499667	-0.7445526	-0.5515747	0.57922363
1176181662809726	-0.7030182	-0.6358795	0.56333923
1176181667509433	-0.65538025	-0.6969757	0.53401184
1176181670927401	-0.60894775	-0.73727417	0.48757935
1176181677671786	-0.56987	-0.75805664	0.41551208
1176181682615634	-0.5478668	-0.7727051	0.31288147
1176181687681552	-0.5515442	-0.7983551	0.1894989
1176181692686435	-0.58573914	-0.8484497	0.0599823
1176181698454257	-0.64437866	-0.9278717	-0.06462097
1176181702787753	-0.721344	-1.0170593	-0.17579651
1176181707792636	-0.8105316	-1.0867004	-0.27230835
1176181713560458	-0.9082794	-1.1123505	-0.3553772
1176181717863437	-1.0133362	-1.0854645	-0.426239
1176181721220370	-1.1171875	-1.0292816	-0.49220276
1176181727934237	-1.2088165	-0.97673035	-0.5569763
1176181732969638	-1.2735596	-0.9547577	-0.61561584
1176181738096591	-1.3065643	-0.9681854	-0.65715027
1176181743101474	-1.3065643	-1.0109406	-0.67059326
1176181748899814	-1.2760162	-1.0769043	-0.6595917
1176181753141757	-1.2222595	-1.1587677	-0.6290436
1176181758177157	-1.1587219	-1.2516327	-0.58995056
1176181763670321	-1.0939789	-1.3640137	-0.55207825
1176181768217440	-1.0341034	-1.5020752	-0.52397156
1176181771543856	-1.0341034	-1.6535645	-0.52397156
1176181778349276	-0.94003296	-1.6535645	-0.48487854
1176181783354159	-0.9119415	-1.844162	-0.46290588
1176181788389560	-0.89849854	-1.8295135	-0.44456482
1176181793394442	-0.89849854	-1.7342072	-0.44456482
1176181799284335	-0.92658997	-1.7342072	-0.43478394
1176181803465243	-0.92658997	-1.3505707	-0.43478394
1176181808531161	-0.96936035	-1.3505707	-0.43478394
1176181814024325	-1.0304565	-1.1221161	-0.42869568
1176181818601962	-1.1013031	-0.9339905	-0.41645813
1176181821989413	-1.1685028	-0.82647705	-0.39448547
1176181828764315	-1.2283783	-0.8142395	-0.36393738
1176181833677646	-1.2760162	-0.8863373	-0.32728577
1176181838713046	-1.3138885	-1.0158386	-0.28451538
1176181843748446	-1.3395386	-1.1758881	-0.24053955
1176181849119540	-1.3480988	-1.3347168	-0.20632935
1176181853849765	-1.3358765	-1.4654236	-0.18800354
1176181858885165	-1.3090057	-1.5411682	-0.18432617
1176181864622470	-1.2723541	-1.547287	-0.18432617
1176181868955966	-1.2357025	-1.4874268	-0.17823792
1176181872282382	-1.1990509	-1.3738098	-0.16479492
1176181879087802	-1.1648407	-1.2259674	-0.14768982
1176181884031649	-1.1318512	-1.0634918	-0.13424683
1176181889097567	-1.0988617	-0.8997803	-0.13180542
1176181894132968	-1.0646667	-0.74095154	-0.13912964
1176181899443026	-1.0304565	-0.60043335	-0.15135193
1176181904203769	-0.99868774	-0.49171448	-0.16235352
1176181909330722	-0.97424316	-0.42939758	-0.16845703
1176181914945956	-0.95591736	-0.42207336	-0.17211914
1176181919279452	-0.9412689	-0.46116638	-0.17700195
1176181922666903	-0.9412689	-0.5283661	-0.17700195
1176181929472323	-0.90582275	-0.5283661	-0.18432617
1176181934416171	-0.88505554	-0.6810913	-0.1733551
1176181939451571	-0.88505554	-0.74949646	-0.1733551
1176181944486972	-0.86795044	-0.74949646	-0.14768982
1176181950376864	-0.8423004	-0.81059265	-0.052383423
1176181954557772	-0.8423004	-0.9034271	-0.052383423
1176181959593173	-0.8300934	-0.9034271	0.0013427734
1176181965452548	-0.8154144	-0.9413147	0.045318604
1176181969663974	-0.7934418	-0.9804077	0.06732178
1176181973234530	-0.77267456	-1.0195007	0.057540894
1176181979734774	-0.761673	-1.0659332	0.020904541
1176181984739657	-0.7641144	-1.123352	-0.034057617
1176181989805575	-0.77511597	-1.1929779	-0.093933105
1176181994840976	-0.78855896	-1.2723999	-0.14524841
1176182000700351	-0.79953	-1.3481293	-0.17823792
1176182004911776	-0.8056488	-1.4055786	-0.18922424
1176182009947177	-0.8080902	-1.4299927	-0.17456055
1176182015287753	-0.8032074	-1.4165497	-0.13912964
1176182019987460	-0.7897644	-1.3738098	-0.090270996
1176182023374911	-0.7689972	-1.3102722	-0.036499023
1176182030180331	-0.7396698	-1.2296295	0.017227173
1176182035093661	-0.70669556	-1.1319122	0.066101074
1176182040129062	-0.67370605	-1.0231628	0.11373901
1176182045194980	-0.64559937	-0.90830994	0.16261292
1176182050871249	-0.62727356	-0.79226685	0.21391296
1176182055326815	-0.62117004	-0.67741394	0.27256775
1176182060270663	-0.62605286	-0.5650177	0.33486938
1176182066007968	-0.64071655	-0.45994568	0.39839172
1176182070341464	-0.6639252	-0.36221313	0.45828247
1176182073728915	-0.6639252	-0.2730255	0.45828247
1176182080412265	-0.69325256	-0.2730255	0.53523254
1176182085447665	-0.7286682	-0.19361877	0.53523254
1176182090513583	-0.7689972	-0.12763977	0.542572
1176182095579501	-0.812973	-0.077545166	0.53157043
1176182101347323	-0.9107208	-0.048217773	0.47660828
1176182105619784	-0.9107208	-0.06654358	0.47660828
1176182110624667	-0.95103455	-0.06654358	0.4411621
1176182115995761	-0.97180176	-0.11419678	0.4032898
1176182120725985	-0.9608002	-0.17649841	0.36175537
1176182124327060	-0.9205017	-0.24736023	0.31410217
1176182130827304	-0.8545227	-0.3182373	0.26400757
1176182135801669	-0.7689972	-0.38909912	0.21391296
1176182140867587	-0.67248535	-0.45750427	0.16629028
1176182145902987	-0.5723114	-0.52104187	0.11984253
1176182151731845	-0.47576904	-0.57966614	0.074645996
1176182155973788	-0.3927002	-0.63708496	0.030670166
1176182161009189	-0.32917786	-0.69573975	-0.016983032
1176182166471835	-0.29008484	-0.75927734	-0.07194519
1176182171079989	-0.27175903	-0.82647705	-0.13912964
1176182174650546	-0.2644348	-0.8961029	-0.21000671
1176182181150790	-0.26075745	-0.96084595	-0.27597046
1176182187376376	-0.24731445	-1.0219421	-0.32606506
1176182191191073	-0.21434021	-1.0854645	-0.3565979
1176182196256991	-0.15692139	-1.1587677	-0.36515808
1176182201933261	-0.071395874	-1.2467346	-0.3565979
1176182206297274	0.037322998	-1.3481293	-0.32850647
1176182211363192	0.16192627	-1.4593201	-0.2869568
1176182216612216	0.29388428	-1.5656128	-0.23442078
1176182221433993	0.41726685	-1.6450348	-0.17823792
1176182225004550	0.41726685	-1.6743469	-0.17823792
1176182231474276	0.52111816	-1.6743469	-0.12814331
1176182236509677	0.5968628	-1.6340332	-0.0914917
1176182241575595	0.64575195	-1.521637	-0.07194519
1176182246580478	0.6750488	-1.3530426	-0.069503784
1176182251890536	0.7019348	-1.1477966	-0.08415222
1176182256681796	0.7422638	-0.9388733	-0.11714172
1176182261686679	0.81066895	-0.7568207	-0.16601563
1176182266966220	0.902298	-0.6236725	-0.22589111
1176182271726962	1.0061493	-0.5393677	-0.2918396
1176182275389071	1.107544	-0.48805237	-0.36027527
1176182281828280	1.2016296	-0.44039917	-0.42745972
1176182286863681	1.292038	-0.36709595	-0.48731995
1176182291868564	1.3860931	-0.24615479	-0.53253174
1176182296964999	1.4862823	-0.07022095	-0.5594177
1176182302305575	1.5876923	0.14723206	-0.57162476
1176182307005282	1.6842041	0.379364	-0.57528687
1176182312040683	1.7697296	0.5882721	-0.578949
1176182317442294	1.8491516	0.74342346	-0.58262634
1176182322111483	1.9346619	0.82528687	-0.59117126
1176182326444980	2.0348358	0.82040405	-0.59973145
1176182332182284	2.1582336	0.73609924	-0.60583496
1176182337248202	2.3060608	0.5968323	-0.60217285
1176182342253085	2.467331	0.43922424	-0.58750916
1176182347257968	2.6261444	0.30239868	-0.56430054
1176182352720614	2.7630005	0.2119751	-0.5386505
1176182357328769	2.8668365	0.18144226	-0.5178833
1176182362364169	2.9340363	0.21076965	-0.5068817
1176182367613192	2.964569	0.28771973	-0.5044403
1176182372465487	2.964569	0.38790894	-0.5044403
1176182376798983	2.9633484	0.38790894	-0.50564575
1176182382566806	2.9376984	0.48931885	-0.5044403
1176182387541171	2.894928	0.5772705	-0.49464417
1176182392607089	2.8363037	0.65057373	-0.47631836
1176182397611972	2.7605438	0.71655273	-0.45310974
1176182402891513	2.6615906	0.7874298	-0.43234253
1176182407682772	2.5381927	0.86805725	-0.4201355
1176182412748690	2.3866882	0.9523468	-0.4176941
1176182417936679	2.2046661	1.0329742	-0.42134094
1176182422819491	2.0006409	1.105072	-0.4250183
1176182426695224	1.8002625	1.1575928	-0.426239
1176182432890292	1.6389923	1.1624756	-0.42869568
1176182437895175	1.5485992	1.0708618	-0.43722534
1176182442991610	1.5400391	0.8460541	-0.45066833
1176182448027011	1.5986938	0.48443604	-0.46411133
1176182453733798	1.6854401	0.021408081	-0.47631836
1176182458067294	1.7538452	-0.4684906	-0.49588013
1176182463102694	1.7660675	-0.8887787	-0.53985596
1176182468321200	1.7037659	-1.1477966	-0.61805725
1176182473173495	1.5681305	-1.1673279	-0.7304535
1176182477354403	1.3934479	-0.8985443	-0.86849976
1176182483244296	1.2309418	-0.36341858	-1.01268
1176182488310214	1.1356659	0.3072815	-1.1421814
1176182493315097	1.1271057	0.9144745	-1.2350159
1176182498319980	1.1894073	1.3005524	-1.2875519
1176182503813144	1.2846985	1.4337006	-1.3058777
1176182508390780	1.3824463	1.3921661	-1.3058777
1176182513456698	1.3824463	1.2931976	-1.2997742
1176182518797274	1.5705872	1.2370148	-1.2924347
1176182523558017	1.5705872	1.2797852	-1.2924347
1176182527922030	1.6695557	1.2797852	-1.279007
1176182533628817	1.7709503	1.4190521	-1.2557831
1176182538603183	1.8601227	1.5974274	-1.2228088
1176182543669101	1.9248962	1.74646	-1.1849213
1176182548673983	1.9566498	1.8222198	-1.151947
1176182554167147	1.951767	1.8307648	-1.1311798
1176182558775302	1.9126587	1.8038788	-1.1201782
1176182563810702	1.8467102	1.773346	-1.112854
1176182569120761	1.7599487	1.7586975	-1.0969696
1176182573881503	1.6683197	1.7611389	-1.0676422
1176182578214999	1.5815735	1.7684631	-1.0261078
1176182583952304	1.5046082	1.7709045	-0.97602844
1176182588987704	1.4313049	1.7574615	-0.92349243
1176182594023105	1.3555603	1.7208099	-0.87216187
1176182599058505	1.2724915	1.6585083	-0.8220825
1176182604307528	1.1796417	1.5717621	-0.7719879
1176182609159823	1.0770111	1.4727936	-0.72068787
1176182614164706	0.96095276	1.3799438	-0.6669159
1176182619444247	0.83143616	1.3078766	-0.60827637
1176182624235507	0.6884918	1.2553406	-0.54719543
1176182628935214	0.53456116	1.2150116	-0.4909973
1176182634275790	0.37573242	1.17836	-0.44210815
1176182639402743	0.21325684	1.1404877	-0.4054718
1176182644377108	0.053207397	1.0989532	-0.37860107
1176182649443026	-0.0970459	1.0537415	-0.36027527
1176182654814120	-0.23631287	1.0060883	-0.34805298
1176182659483310	-0.23631287	0.960907	-0.33338928
1176182664518710	-0.36460876	0.960907	-0.33338928
1176182669737216	-0.48312378	0.9181366	-0.31628418
1176182674620028	-0.59184265	0.8766022	-0.29673767
1176182677946444	-0.7005768	0.83140564	-0.28086853
1176182684690829	-0.812973	0.77763367	-0.26863098
1176182689695712	-0.93148804	0.7104492	-0.26130676
1176182694731112	-1.0561066	0.6273651	-0.255188
1176182699735995	-1.1904907	0.53208923	-0.24298096
1176182705198642	-1.3370972	0.43066406	-0.22221375
1176182709806796	-1.4959259	0.3280487	-0.19288635
1176182714903231	-1.6645203	0.22297668	-0.15623474
1176182720182772	-1.8404541	0.119125366	-0.11225891
1176182724943515	-2.0151672	0.018966675	-0.065826416
1176182728330966	-2.184967	-0.06410217	-0.019424438
1176182735044833	-2.3474731	-0.12275696	0.020904541
1176182740019198	-2.5001984	-0.15208435	0.04899597
1176182745085116	-2.6321259	-0.14840698	0.0599823
1176182750089999	-2.7176514	-0.11175537	0.053878784
1176182755400058	-2.7322998	-0.04333496	0.045318604
1176182760221835	-2.6480103	0.055618286	0.050216675
1176182765226718	-2.4464264	0.18510437	0.086868286
1176182770628329	-2.1153412	0.3524933	0.1552887
1176182775267001	-1.6559601	0.5589447	0.2371521
1176182778654452	-1.6559601	0.78375244	0.2371521
1176182785368319	-0.4586792	0.78375244	0.28112793
1176182790373202	0.19369507	1.1453857	0.17970276
1176182795439120	0.7996826	1.2871094	0.008666992
1176182800505038	1.3030243	1.4471436	-0.17089844
1176182805784579	1.6622314	1.6108551	-0.3028412
1176182810545321	1.6622314	1.7208099	-0.3028412
1176182815580722	1.8662415	1.7208099	-0.373703
1176182820829745	1.9224548	1.7318115	-0.4103546
1176182825651522	1.8552399	1.6438446	-0.44456482
1176182829008456	1.6927643	1.4874725	-0.49220276
1176182835722323	1.4667511	1.2919922	-0.54719543
1176182840757724	1.2065125	1.0843048	-0.60095215
1176182845793124	0.93774414	0.9156952	-0.64126587
1176182850828524	0.684845	0.8460541	-0.658371
1176182856169101	0.4637146	0.9108124	-0.64982605
1176182860868808	0.28533936	1.0830688	-0.61561584
1176182865934726	0.1533966	1.2785492	-0.55329895
1176182871305819	0.06665039	1.3921661	-0.4653473
1176182876005526	0.022659302	1.362854	-0.34927368
1176182879362460	0.01411438	1.1966858	-0.20632935
1176182886106845	0.028778076	0.9499054	-0.046295166
1176182891081210	0.048324585	0.6921234	0.122283936
1176182896116610	0.053207397	0.46365356	0.28967285
1176182901182528	0.027542114	0.25230408	0.4521637
1176182906584140	-0.031082153	0.010421753	0.608551
1176182911222812	-0.12025452	-0.30599976	0.7588043
1176182916319247	-0.22898865	-0.71284485	0.89930725
1176182921842929	-0.3413849	-1.1917725	1.0239258
1176182926359530	-0.42080688	-1.703659	1.109436
1176182929716464	-0.42080688	-2.1911316	1.109436
1176182936460849	-0.35116577	-2.1911316	1.0178223
1176182941465731	-0.20822144	-2.7763367	0.8027954
1176182946501132	-0.037200928	-2.7445679	0.5046997
1176182951506015	-0.037200928	-2.4965668	0.5046997
1176182956816073	0.11550903	-2.4965668	0.17970276
1176182961698886	0.18760681	-2.1215057	-0.122024536
1176182966673251	0.12651062	-1.7549744	-0.36393738
1176182972288485	-0.071395874	-1.5240784	-0.5227661
1176182976713534	-0.33529663	-1.4752045	-0.58995056
1176182980070468	-0.5661926	-1.5692596	-0.56552124
1176182986784335	-0.69447327	-1.7073364	-0.45922852
1176182991789218	-0.721344	-1.7928619	-0.27842712
1176182996855136	-0.69447327	-1.7635345	-0.037734985
1176183002073642	-0.67736816	-1.6108246	0.2371521
1176183007200595	-0.7237854	-1.3725739	0.5157013
1176183011961337	-0.8704071	-1.1135559	0.7661438
1176183016996737	-1.1294098	-0.9009857	0.97016907
1176183022398349	-1.4959259	-0.79714966	1.1131134
1176183027098056	-1.936966	-0.84236145	1.1876526
1176183030424472	-2.3926697	-1.0414886	1.1949768
1176183037168856	-2.7970734	-1.3530426	1.1522064
1176183042173739	-3.1049347	-1.6975555	1.083786
1176183047178622	-3.3016357	-2.0029907	1.010498
1176183052214022	-3.3981628	-2.224121	0.9457245
1176183057676669	-3.4079285	-2.3499603	0.89686584
1176183062437411	-3.3419495	-2.3914948	0.87242126
1176183067350741	-3.1941223	-2.3841705	0.87731934
1176183073271151	-2.9522247	-2.3670502	0.9139862
1176183077391024	-2.610138	-2.3792877	0.9750519
1176183080778476	-2.610138	-2.4220428	0.9750519
1176183087522860	-1.7048492	-2.4220428	1.1155548
1176183092527743	-1.7048492	-2.4342651	1.1680908
1176183097593661	-1.2173767	-2.4342651	1.1680908
1176183102659579	-0.7641144	-2.3096313	1.190094
1176183108091708	-0.38171387	-2.0860596	1.1693268
1176183113066073	-0.10072327	-1.8001862	1.0996704
1176183117704745	0.06541443	-1.508194	0.9909363
1176183123808261	0.099624634	-1.249176	0.7245941
1176183127775546	-0.02255249	-1.0304871	0.7245941
1176183131132480	-0.30963135	-0.8227997	0.60731506
1176183137846347	-0.7311096	-0.5992279	0.50346375
1176183143003817	-1.2075958	-0.35977173	0.3996277
1176183147917147	-1.6498718	-0.13496399	0.28356934
1176183153227206	-1.9919586	0.03729248	0.15284729
1176183158201571	-2.2081757	0.12768555	0.025787354
1176183163816806	-2.2924805	0.12400818	-0.0743866
1176183168089267	-2.2570648	0.029953003	-0.13546753
1176183173521396	-2.1263428	-0.13008118	-0.15623474
1176183178129550	-1.9320679	-0.32312012	-0.14279175
1176183181517001	-1.7072906	-0.5075989	-0.10003662
1176183188200351	-1.4739227	-0.64808655	-0.034057617
1176183193601962	-1.2479095	-0.7213898	0.055099487
1176183198301669	-1.0402222	-0.7213898	0.16137695
1176183204100009	-0.8606262	-0.65052795	0.27134705
1176183208708163	-0.71769714	-0.5320282	0.3727417
1176183214079257	-0.61260986	-0.39518738	0.45336914
1176183218412753	-0.54174805	-0.2705841	0.5071411
1176183223753329	-0.5014496	-0.17649841	0.53279114
1176183228483554	-0.4855652	-0.12275696	0.53279114
1176183231871005	-0.4855652	-0.11299133	0.53279114
1176183238584872	-0.490448	-0.11299133	0.49858093
1176183243925448	-0.55274963	-0.15208435	0.48025513
1176183248655673	-0.55274963	-0.34999084	0.48025513
1176183254270907	-0.60284424	-0.34999084	0.4497223
1176183259123202	-0.65782166	-0.5625763	0.4497223
1176183264494296	-0.7152405	-0.5625763	0.4252777
1176183268766757	-0.7787628	-0.6053467	0.3886261
1176183275205966	-0.93392944	-0.5943451	0.29699707
1176183278837558	-0.93392944	-0.4819336	0.29699707
1176183282194491	-1.0255737	-0.4819336	0.25912476
1176183288908358	-1.124527	-0.4342804	0.23591614
1176183294615146	-1.2247009	-0.41719055	0.23469543
1176183298979159	-1.3212128	-0.43551636	0.25668335
1176183304624911	-1.4030762	-0.484375	0.30065918
1176183309294101	-1.4617157	-0.5442505	0.36053467
1176183315092440	-1.4959259	-0.59799194	0.42895508
1176183319120761	-1.5069275	-0.62976074	0.49858093
1176183325010653	-1.5044861	-0.6358795	0.5596771
1176183329191562	-1.4934845	-0.6224365	0.60487366
1176183332548495	-1.4934845	-0.6016693	0.62931824
1176183339262362	-1.4714813	-0.57966614	0.63786316
1176183345060702	-1.4617157	-0.563797	0.6354065
1176183349333163	-1.4482727	-0.5515747	0.62564087
1176183355589267	-1.4238434	-0.5418091	0.60975647
1176183359648105	-1.3835297	-0.5356903	0.5902252
1176183365568515	-1.3260956	-0.5344696	0.56700134
1176183369444247	-1.2491455	-0.5356903	0.5450134
1176183375273105	-1.150177	-0.5418091	0.529129
1176183379545565	-1.0243378	-0.5576935	0.5205841
1176183382933017	-1.0243378	-0.5919037	0.5205841
1176183389616366	-0.8728485	-0.5919037	0.5157013
1176183395628329	-0.517334	-0.64808655	0.5095825
1176183399687167	-0.517334	-0.78248596	0.5095825
1176183406095858	-0.17279053	-0.78248596	0.5022583
1176183410154696	-0.17279053	-0.8350067	0.5022583
1176183416136142	0.09474182	-0.8350067	0.48757935
1176183419798251	0.09474182	-0.7055054	0.48757935
1176183425871249	0.19369507	-0.7055054	0.46072388
1176183429899569	0.27189636	-0.5601349	0.4093933
1176183433256503	0.3293152	-0.37809753	0.33486938
1176183439970370	0.35984802	-0.18629456	0.24447632
1176183445707675	0.347641	-0.011581421	0.14672852
1176183450041171	0.27799988	0.11424255	0.053878784
1176183456205722	0.14115906	0.16799927	-0.032852173
1176183460356112	-0.046966553	0.13012695	-0.109817505
1176183466398593	-0.24975586	-0.0018005371	-0.18312073
1176183470182772	-0.4220276	-0.2168274	-0.25642395
1176183475218173	-0.516098	-0.4965973	-0.3358307
1176183480253573	-0.49777222	-0.8191223	-0.4225769
1176183483610507	-0.49777222	-1.1575623	-0.4225769
1176183490354892	-0.0970459	-1.1575623	-0.59239197
1176183496366855	0.24012756	-1.7561951	-0.658371
1176183500364657	0.605423	-1.9394684	-0.70236206
1176183505430575	0.9499512	-2.0042114	-0.72068787
1176183510649081	1.2370605	-1.9382324	-0.70480347
1176183515501376	1.4557495	-1.7500916	-0.65470886
1176183520536776	1.6206665	-1.4580994	-0.57650757
1176183525785800	1.7599487	-1.0830231	-0.48731995
1176183530577060	1.7599487	-0.6493225	-0.48731995
1176183533964511	1.8967743	-0.6493225	-0.4103546
1176183540678378	2.0348358	-0.18629456	-0.36515808
1176183546995517	2.2865143	0.27183533	-0.39448547
1176183550749179	2.2865143	1.0427704	-0.39448547
1176183555784579	2.3854828	1.0427704	-0.46043396
1176183561064120	2.467331	1.2956543	-0.55207825
1176183567045565	2.5430756	1.4312592	-0.6620331
1176183570890780	2.6261444	1.4459229	-0.7829895
1176183575926181	2.725113	1.361618	-0.90760803
1176183580961581	2.8338623	1.218689	-1.0273285
1176183584318515	2.9340363	1.065979	-1.1360626
1176183591032382	3.0122223	0.9486847	-1.230133
1176183596037265	3.0537567	0.9034729	-1.309555
1176183601103183	3.0513153	0.9352417	-1.3755188
1176183606138583	3.003662	1.0232086	-1.4194946
1176183611570712	2.9266968	1.1319427	-1.4280548
1176183616209384	2.8399506	1.2333374	-1.3901825
1176183621214267	2.764206	1.310318	-1.3022156
1176183626646396	2.703125	1.3518524	-1.16539
1176183631315585	2.6554718	1.3481903	-0.98335266
1176183634672519	2.6554718	1.2956543	-0.98335266
1176183641416903	2.5772858	1.2956543	-0.52641296
1176183646421786	2.5357513	1.0940704	-0.27719116
1176183651457187	2.4795532	0.9841156	-0.03161621
1176183656492587	2.3952484	0.8924866	0.19802856
1176183661863681	2.2718506	0.8326111	0.4032898
1176183666563388	2.1130219	0.8106384	0.5584564
1176183671568271	2.1130219	0.83995056	0.5584564
1176183677061435	1.7917175	0.83995056	0.55233765
1176183681700106	1.7917175	1.1160583	0.55233765
1176183685026522	1.7062073	1.1160583	0.30799866
1176183691740390	1.7086487	1.349411	-0.08905029
1176183696775790	1.7904968	1.5681	-0.55574036
1176183701811190	1.9151154	1.6743927	-0.9747925
1176183706846591	2.029953	1.5827484	-1.2619019
1176183712065097	2.0788116	1.2785492	-1.4048462
1176183716947909	2.0238495	0.8875885	-1.4598236
1176183721952792	1.8686829	0.6359253	-1.4903564
1176183727568026	1.6622314	0.6945648	-1.5209198
1176183732023593	1.4826202	1.0342102	-1.5343475
1176183735380526	1.3860931	1.4557037	-1.5111237
1176183742063876	1.3922119	1.7819061	-1.448822
1176183747099276	1.4826202	1.9737091	-1.3620758
1176183752195712	1.6292267	2.0873413	-1.2594604
1176183757200595	1.8014984	2.1777344	-1.1482697
1176183762663241	1.9700928	2.2595825	-1.0322113
1176183767271396	2.1179352	2.3206787	-0.9246979
1176183772276278	2.2278748	2.3561096	-0.83062744
1176183777555819	2.2987366	2.371994	-0.7463379
1176183782347079	2.341507	2.3780975	-0.66571045
1176183785704013	2.341507	2.3707733	-0.66571045
1176183792448397	2.3891602	2.3707733	-0.51420593
1176183797514315	2.3891602	2.24617	-0.46290588
1176183802549716	2.3573914	2.122757	-0.42990112
1176183807554599	2.2901764	1.9883575	-0.4054718
1176183813017245	2.1912231	1.8661957	-0.3834839
1176183817625399	2.1912231	1.7611389	-0.3834839
1176183822660800	2.070282	1.7611389	-0.36271667
1176183828184481	1.9419861	1.6682739	-0.3382721
1176183832731601	1.8185883	1.4850311	-0.3382721
1176183836088534	1.7025299	1.4850311	-0.34317017
1176183842832919	1.5864563	1.3787384	-0.36271667
1176183847807284	1.4581909	1.2626648	-0.3895874
1176183852873202	1.3079071	1.1453857	-0.41889954
1176183857908603	1.1307526	1.037857	-0.44822693
1176183863157626	0.9255066	0.9499054	-0.47631836
1176183868009921	0.6946106	0.8827057	-0.5019989
1176183872984286	0.4368286	0.83140564	-0.5203247
1176183878477450	0.15948486	0.78863525	-0.52641296
1176183883085605	-0.1288147	0.7507477	-0.51908875
1176183886442538	-0.4098053	0.7141113	-0.5044403
1176183893156405	-0.668808	0.676239	-0.49220276
1176183898161288	-0.90093994	0.6310425	-0.4836731
1176183903227206	-1.1062012	0.5772705	-0.47999573
1176183908262606	-1.2931213	0.5198517	-0.47511292
1176183913511630	-1.4690399	0.46487427	-0.46655273
1176183918333407	-1.640091	0.41233826	-0.4519043
1176183923368808	-1.8148041	0.3573761	-0.43234253
1176183928617831	-1.9907227	0.2987213	-0.4079132
1176183933439608	-2.1678772	0.23518372	-0.38104248
1176183936827060	-2.1678772	0.17288208	-0.38104248
1176183943510409	-2.5197296	0.17288208	-0.34072876
1176183948545810	-2.6907654	0.07272339	-0.3370514
1176183953550692	-2.8520355	0.055618286	-0.34805298
1176183958616610	-2.8520355	0.06904602	-0.373703
1176183963987704	-3.108612	0.11180115	-0.3993683
1176183968687411	-3.108612	0.17166138	-0.3993683
1176183973722812	-3.1684723	0.17166138	-0.4103546
1176183979124423	-3.1428223	0.2303009	-0.3859253
1176183983824130	-3.0047607	0.26939392	-0.31262207
1176183987150546	-2.7384186	0.2645111	-0.18922424
1176183993864413	-2.3437958	0.20343018	-0.037734985
1176183998930331	-1.8270111	0.08491516	0.097854614
1176184003935214	-1.2002563	-0.060440063	0.16629028
1176184008970614	-0.4855652	-0.14720154	0.13208008
1176184014402743	0.27677917	-0.053115845	0.0037841797
1176184019071933	1.0098114	0.29507446	-0.16111755
1176184024076815	1.6157837	0.8167267	-0.28575134
1176184029875155	2.0140686	1.3029938	-0.32850647
1176184034178134	2.1716766	1.5619812	-0.31384277
1176184037504550	2.109375	1.5632172	-0.3028412
1176184044218417	1.8796844	1.4129333	-0.3394928
1176184049253817	1.5547028	1.2345734	-0.4237976
1176184054289218	1.199173	1.0818634	-0.53009033
1176184059324618	0.8644409	0.959671	-0.6290436
1176184064573642	0.58221436	0.8790436	-0.6962433
1176184069395419	0.3659668	0.8778229	-0.7145691
1176184074400302	0.21690369	0.9706726	-0.6828003
1176184079679843	0.12527466	1.1233978	-0.6107178
1176184084532138	0.07519531	1.256546	-0.5117645
1176184087858554	0.07519531	1.2944336	-0.5117645
1176184094572421	0.020217896	1.2944336	-0.255188
1176184099546786	-0.0017700195	1.0513	-0.09637451
1176184104643222	-0.0017700195	0.8778229	0.08320618
1176184109709140	-0.020095825	0.8778229	0.08320618
1176184115049716	-0.03843689	0.7446594	0.46437073
1176184119779940	-0.06163025	0.6420288	0.46437073
1176184124784823	-0.09460449	0.51620483	0.63786316
1176184130094882	-0.13737488	0.30604553	0.7918091
1176184134855624	-0.18867493	-0.025009155	0.9273987
1176184138212558	-0.24487305	-0.47705078	1.0361481
1176184144926425	-0.29252625	-1.0219421	1.083786
1176184149992343	-0.31573486	-1.598587	1.0129395
1176184154997226	-0.30717468	-2.1190643	0.7832489
1176184160063144	-0.27908325	-2.5026703	0.41307068
1176184165434237	-0.25219727	-2.7054749	-0.01210022
1176184170133944	-0.23875427	-2.736023	-0.3920288
1176184175138827	-0.24731445	-2.6297455	-0.6595917
1176184182310458	-0.28520203	-2.4244843	-0.7988739
1176184185240146	-0.36094666	-2.155716	-0.82696533
1176184188597079	-0.45500183	-1.8686066	-0.76586914
1176184195280429	-0.5185394	-1.6169128	-0.6485901
1176184200315829	-0.50753784	-1.447113	-0.50564575
1176184205351230	-0.4134674	-1.3652496	-0.3529358
1176184210386630	-0.28152466	-1.3188324	-0.18432617
1176184215635653	-0.18501282	-1.2271881	0.01234436
1176184220457431	-0.19113159	-1.0304871	0.24203491
1176184225492831	-0.33529663	-0.72750854	0.4839325
1176184230924960	-0.62117004	-0.38542175	0.71118164
1176184235594149	-1.0341034	-0.10319519	0.9029846
1176184238920565	-1.0341034	0.027511597	0.9029846
1176184245603915	-2.1128998	0.027511597	1.1057892
1176184250669833	-2.1128998	-0.34632874	1.1057892
1176184255705233	-2.6675568	-0.34632874	1.1045532
1176184260740634	-3.139145	-0.8056946	1.0544739
1176184266020175	-3.4861145	-1.3347168	0.98605347
1176184270780917	-3.701126	-1.8246002	0.9249573
1176184275816317	-3.8062134	-2.1996918	0.88586426
1176184281095858	-3.8220978	-2.4367065	0.8687744
1176184285917636	-3.7610168	-2.5552063	0.86997986
1176184289274569	-3.632721	-2.5881805	0.88830566
1176184295988437	-3.43602	-2.5637665	0.9213104
1176184300993319	-3.1635895	-2.5063477	0.96406555
1176184306028720	-2.7958374	-2.4342651	0.99949646
1176184311094638	-2.3242493	-2.3487244	1.0080566
1176184316496249	-1.7781525	-2.2265625	0.98117065
1176184321134921	-1.2198181	-2.0335236	0.9139862
1176184326200839	-0.7299042	-1.7708588	0.8064575
1176184331449862	-0.37071228	-1.4910889	0.66352844
1176184336271640	-0.1630249	-1.2699432	0.49493408
1176184339628573	-0.09338379	-1.1636505	0.31654358
1176184346342440	-0.123931885	-1.1783295	0.14672852
1176184351347323	-0.23631287	-1.2907104	0.008666992
1176184356413241	-0.4403534	-1.4642029	-0.081710815
1176184361448642	-0.761673	-1.6596832	-0.11470032
1176184366819735	-1.1929321	-1.8282776	-0.10247803
1176184371519442	-1.670639	-1.9199066	-0.076828
1176184376554843	-2.1092377	-1.9113617	-0.062179565
1176184382048007	-2.4354248	-1.8148346	-0.065826416
1176184386625644	-2.6211395	-1.664566	-0.081710815
1176184389982577	-2.6211395	-1.4910889	-0.081710815
1176184396726962	-2.676117	-1.4910889	-0.101257324
1176184401701327	-2.6174622	-1.315155	-0.11958313
1176184406736728	-2.4733124	-1.1380005	-0.1257019
1176184411802646	-2.2692719	-0.95596313	-0.109817505
1176184417051669	-2.0286102	-0.7751465	-0.065826416
1176184421903964	-1.7732697	-0.5967865	0.007461548
1176184426908847	-1.5179291	-0.42086792	0.1088562
1176184432402011	-1.2760162	-0.24491882	0.23103333
1176184436949130	-1.0548706	-0.07998657	0.36175537
1176184440336581	-0.86550903	0.047073364	0.48757935
1176184447050448	-0.7103424	0.11180115	0.5938721
1176184452055331	-0.59672546	0.10079956	0.6744995
1176184457121249	-0.52342224	0.017745972	0.7307129
1176184462126132	-0.4880066	-0.12031555	0.7661438
1176184467405673	-0.48432922	-0.2889099	0.7856903
1176184472257968	-0.5063324	-0.45994568	0.7893524
1176184477262851	-0.54174805	-0.6065521	0.7783661
1176184482603427	-0.5832977	-0.7042999	0.7465973
1176184487364169	-0.62849426	-0.74339294	0.6940613
1176184490721103	-0.62849426	-0.72994995	0.6244354
1176184497434970	-0.74823	-0.72994995	0.542572
1176184502470370	-0.8349762	-0.64564514	0.4521637
1176184507475253	-0.9449158	-0.62731934	0.36175537
1176184512510653	-1.0805359	-0.6444397	0.28479004
1176184517912265	-1.2381439	-0.69451904	0.23223877
1176184522581454	-1.4091797	-0.7739258	0.21270752
1176184527677890	-1.5789948	-0.8753357	0.2237091
1176184533079501	-1.7292633	-0.99017334	0.26156616
1176184537657138	-1.7292633	-1.1074677	0.31654358
1176184541044589	-1.8404541	-1.1074677	0.31654358
1176184547758456	-1.8978729	-1.2137451	0.3776245
1176184552763339	-1.8954315	-1.302948	0.4338379
1176184557798739	-1.8343353	-1.367691	0.4729309
1176184562864657	-1.7182922	-1.40802	0.49247742
1176184568113681	-1.5557861	-1.4165497	0.4973755
1176184572935458	-1.3591003	-1.3908997	0.49858093
1176184578001376	-1.1416321	-1.3334808	0.50346375
1176184583402987	-0.91682434	-1.2552948	0.5157013
1176184588041659	-0.70425415	-1.1673279	0.53523254
1176184591429110	-0.5136566	-1.0744629	0.5596771
1176184598081942	-0.35362244	-0.9840698	0.58044434
1176184603147860	-0.22410583	-0.9034271	0.59143066
1176184608183261	-0.12515259	-0.8374481	0.58776855
1176184613218661	-0.05064392	-0.78370667	0.5743408
1176184618498202	0.0067749023	-0.72628784	0.55477905
1176184623289462	0.053207397	-0.64808655	0.5266876
1176184628324862	0.092300415	-0.5479126	0.48513794
1176184633604403	0.12283325	-0.431839	0.41915894
1176184638395663	0.14239502	-0.31333923	0.32144165
1176184641783114	0.14239502	-0.20706177	0.32144165
1176184648496981	0.11795044	-0.20706177	0.037994385
1176184653501864	0.05809021	-0.09465027	-0.1257019
1176184658567782	-0.03475952	-0.12640381	-0.27963257
1176184663603183	-0.1471405	-0.2351532	-0.4091339
1176184669096347	-0.25463867	-0.41963196	-0.5068817
1176184673673983	-0.32429504	-0.67129517	-0.57528687
1176184678678866	-0.31817627	-0.9669647	-0.62171936
1176184684446689	-0.20822144	-1.2772827	-0.65226746
1176184688780185	-0.20822144	-1.5668182	-0.65226746
1176184692076083	0.016555786	-1.5668182	-0.6779175
1176184698881503	0.32809448	-1.7940674	-0.7108917
1176184703916903	0.67752075	-1.9211426	-0.7597809
1176184708921786	1.0110321	-1.9076996	-0.8208618
1176184713957187	1.292038	-1.7342072	-0.88194275
1176184719450351	1.500946	-1.4019012	-0.9344635
1176184724058505	1.6365509	-0.9315338	-0.97602844
1176184729093905	1.7074127	-0.36341858	-1.0114441
1176184734892245	1.7318573	0.24008179	-1.0432129
1176184739134189	1.7367401	0.8032837	-1.0725403
1176184742430087	1.7599487	1.2528992	-1.0945282
1176184749174472	1.83815	1.5375671	-1.099411
1176184754240390	2.0006409	1.6389618	-1.0798645
1176184759275790	2.248642	1.5644226	-1.0261078
1176184764311190	2.5552979	1.3481903	-0.94181824
1176184769682284	2.8741608	1.0452118	-0.8404083
1176184774381991	3.1527252	0.7238922	-0.7487793
1176184779417392	3.342102	0.44166565	-0.6962433
1176184785276767	3.420288	0.2278595	-0.6950073
1176184789457675	3.3897247	0.08370972	-0.7328949
1176184792814608	3.3897247	-0.0030212402	-0.7328949
1176184799558993	3.128296	-0.0030212402	-0.8233032
1176184804533358	2.97435	-0.03479004	-0.84284973
1176184809629794	2.8460693	0.0030822754	-0.8391876
1176184814695712	2.7630005	0.060516357	-0.8086395
1176184820371981	2.725113	0.12400818	-0.74998474
1176184824735995	2.7226715	0.18144226	-0.6620331
1176184829771396	2.7226715	0.21931458	-0.6620331
1176184835508700	2.7617645	0.21931458	-0.3932495
1176184839842196	2.7617645	0.22419739	-0.3932495
1176184843138095	2.7813263	0.22419739	-0.22953796
1176184849943515	2.7874146	0.21321106	-0.0743866
1176184854978915	2.765442	0.22541809	0.039215088
1176184859953280	2.6982422	0.29507446	0.08442688
1176184865019198	2.572403	0.44898987	0.05265808
1176184870481845	2.394043	0.6933441	-0.04017639
1176184875089999	2.1973267	1.0	-0.15991211
1176184880186435	2.0238495	1.3164368	-0.2710724
1176184885984774	1.9065704	1.5925293	-0.36149597
1176184890165683	1.851593	1.7941132	-0.43722534
1176184893583651	1.8479156	1.8955231	-0.51908875
1176184900236483	1.8711243	1.8686371	-0.61927795
1176184905332919	1.8809204	1.7134857	-0.73165894
1176184910307284	1.8393555	1.5106812	-0.855072
1176184915373202	1.7294159	1.3897247	-0.9931183
1176184920744296	1.5730286	1.4471436	-1.1433868
1176184925444003	1.4203033	1.6523895	-1.2826691
1176184930479403	1.3189087	1.8845215	-1.3779602
1176184936003085	1.292038	2.0225677	-1.4109497
1176184940550204	1.3323517	2.0360107	-1.3852844
1176184943846103	1.3323517	1.9785919	-1.3852844
1176184950590487	1.5327148	1.9785919	-1.243576
1176184955625888	1.6561127	1.9456177	-1.1495056
1176184960752841	1.7770538	2.026245	-1.0456543
1176184965757724	1.8858032	2.1435242	-0.93325806
1176184971464511	1.9737549	2.2644958	-0.8220825
1176184975767489	1.9737549	2.3634338	-0.8220825
1176184980833407	2.0336304	2.3634338	-0.71824646
1176184986723300	2.0861664	2.4355316	-0.53253174
1176184990904208	2.0861664	2.4587402	-0.53253174
1176184994261142	2.0910492	2.4587402	-0.44578552
1176185000975009	2.0886078	2.3732147	-0.373703
1176185005949374	2.0727234	2.2204895	-0.3236084
1176185011045810	2.0458374	2.0421295	-0.29551697
1176185016081210	2.0091858	1.8881836	-0.27597046
1176185021391269	1.96521	1.7757874	-0.25642395
1176185026152011	1.9065704	1.6914825	-0.24298096
1176185031187411	1.8320313	1.6023102	-0.24298096
1176185036924716	1.7391815	1.4923553	-0.25886536
1176185041319247	1.6292267	1.3591766	-0.28451538
1176185044584628	1.5033875	1.2138062	-0.31384277
1176185051390048	1.3555603	1.0696259	-0.34927368
1176185056333896	1.1820831	0.9437866	-0.3883667
1176185061399814	0.9780426	0.8460541	-0.42990112
1176185066435214	0.7422638	0.7825165	-0.4677887
1176185071897860	0.4844818	0.7507477	-0.49464417
1176185076475497	0.21202087	0.7446594	-0.50320435
1176185081602450	-0.06163025	0.75442505	-0.4971161
1176185087034579	-0.32305908	0.7764282	-0.47755432
1176185091581698	-0.5649719	0.8032837	-0.4543457
1176185094938632	-0.5649719	0.8265228	-0.4543457
1176185101683017	-0.9766846	0.8265228	-0.41281128
1176185106687899	-1.1550598	0.8301697	-0.39569092
1176185111723300	-1.3212128	0.81796265	-0.3749237
1176185116789218	-1.3212128	0.80207825	-0.35049438
1176185122068759	-1.6474152	0.80207825	-0.32240295
1176185126829501	-1.6474152	0.7507477	-0.32240295
1176185131895419	-1.8209076	0.7507477	-0.29673767
1176185137724276	-2.1923218	0.70921326	-0.25398254
1176185141966220	-2.1923218	0.5980377	-0.25398254
1176185145292636	-2.3853302	0.5980377	-0.24053955
1176185152067538	-2.5783691	0.53941345	-0.23809814
1176185157011386	-2.7701874	0.49664307	-0.25030518
1176185162168856	-2.9522247	0.47587585	-0.27719116
1176185167112704	-3.1134949	0.46611023	-0.307724
1176185172880526	-3.23201	0.45022583	-0.32972717
1176185177183505	-3.2759857	0.41601563	-0.32728577
1176185183409091	-3.2124481	0.3573761	-0.28819275
1176185187589999	-3.013321	0.27427673	-0.20877075
1176185192350741	-2.6602325	0.16921997	-0.0927124
1176185195646640	-2.1629944	0.051956177	0.039215088
1176185202421542	-1.5545807	-0.07022095	0.14794922
1176185207365390	-0.8777313	-0.16796875	0.19558716
1176185212461825	-0.17279053	-0.18017578	0.16137695
1176185217466708	0.53578186	-0.020126343	0.057540894
1176185222959872	1.2077332	0.34881592	-0.081710815
1176185227568026	1.7831726	0.8484955	-0.21244812
1176185232633944	2.1948853	1.3200836	-0.307724
1176185237944003	2.4025726	1.6267395	-0.3712616
1176185242643710	2.4123688	1.7428131	-0.426239
1176185246000644	2.4123688	1.7244873	-0.426239
1176185252714511	1.9847565	1.7244873	-0.56552124
1176185257810946	1.6414337	1.5094452	-0.6608124
1176185262815829	1.6414337	1.3506317	-0.6608124
1176185267851230	1.2663727	1.3506317	-0.7707825
1176185273161288	0.9010925	1.1832428	-0.87583923
1176185277891513	0.58709717	1.0623016	-0.93814087
1176185282987948	0.35984802	1.0402985	-0.92593384
1176185288420077	0.22546387	1.1258392	-0.8355255
1176185293028231	0.15948486	1.2589874	-0.6925659
1176185296324130	0.12651062	1.3384094	-0.5386505
1176185303099032	0.09352112	1.2773132	-0.3932495
1176185308134433	0.0385437	1.0635376	-0.25030518
1176185313169833	-0.04576111	0.7581024	-0.08538818
1176185318174716	-0.15814209	0.46731567	0.12107849
1176185323576327	-0.2937622	0.2669525	0.3703003
1176185328276034	-0.45135498	0.14845276	0.63420105
1176185333280917	-0.61750793	0.021408081	0.88098145
1176185339140292	-0.7653198	-0.2375946	1.0911255
1176185343382235	-0.8569641	-0.7201843	1.254837
1176185346769687	-0.866745	-1.4373322	1.3464661
1176185353453036	-0.812973	-2.3010864	1.3146973
1176185358457919	-0.7421112	-3.13797	1.1314392
1176185363523837	-0.7030182	-3.745163	0.8321228
1176185368589755	-0.70181274	-3.9944	0.5132446
1176185373899814	-0.7005768	-3.877121	0.26524353
1176185378630038	-0.64315796	-3.4812775	0.1247406
1176185383634921	-0.49165344	-2.9119415	0.07342529
1176185389402743	-0.25343323	-2.2473297	0.07220459
1176185393766757	0.015335083	-1.5521698	0.0929718
1176185397093173	0.015335083	-0.9107666	0.0929718
1176185403837558	0.3525238	-0.9107666	0.20414734
1176185408872958	0.3525238	-0.07878113	0.20414734
1176185413847323	0.32809448	-0.07878113	0.32510376
1176185418882724	0.17172241	0.115478516	0.49369812
1176185424314853	-0.09338379	0.23397827	0.6757355
1176185428984042	-0.4452362	0.29751587	0.8235626
1176185434019442	-0.8765106	0.2828369	0.89930725
1176185439848300	-1.3859711	0.16311646	0.89686584
1176185444090243	-1.9613953	-0.07632446	0.8333435
1176185447386142	-2.5637054	-0.42939758	0.73683167
1176185454161044	-3.1269379	-0.8753357	0.63786316
1176185459196444	-3.5862885	-1.367691	0.56211853
1176185464201327	-3.895401	-1.8514862	0.5254669
1176185469267245	-4.0456696	-2.2790985	0.53401184
1176185474729892	-4.0603333	-2.626068	0.5743408
1176185479338046	-3.9772644	-2.8789673	0.6329651
1176185484342929	-3.8269806	-3.0133514	0.6916199
1176185490202304	-3.62294	-3.0096893	0.7453766
1176185494413730	-3.3688354	-2.8765259	0.8015747
1176185497770663	-3.0585175	-2.656601	0.8638916
1176185504515048	-2.6858826	-2.395172	0.92863464
1176185509519931	-2.2497406	-2.0970612	0.98239136
1176185514585849	-1.775711	-1.7329865	1.0043793
1176185519621249	-1.3102264	-1.2785034	0.9774933
1176185524931308	-0.8911743	-0.76416016	0.88342285
1176185529692050	-0.52586365	-0.2876892	0.71606445
1176185534727450	-0.21554565	0.015304565	0.48513794
1176185540586825	-0.005432129	0.044631958	0.22491455
1176185544798251	0.011657715	-0.21194458	-0.0096588135
1176185548124667	0.011657715	-0.6566467	-0.0096588135
1176185554899569	-0.23631287	-0.6566467	-0.16967773
1176185559873935	-0.7311096	-1.1245575	-0.24786377
1176185564939853	-1.3517609	-1.4580994	-0.28207397
1176185569975253	-1.9443054	-1.574173	-0.32484436
1176185575285312	-2.395111	-1.4886475	-0.3908081
1176185580076571	-2.6529083	-1.2772827	-0.45555115
1176185585111972	-2.7225342	-1.0231628	-0.48731995
1176185590788241	-2.6309052	-0.77882385	-0.47143555
1176185595213290	-2.4146576	-0.5723419	-0.41889954
1176185598509189	-2.1104584	-0.41719055	-0.34805298
1176185605284091	-1.7573853	-0.31333923	-0.26863098
1176185610288974	-1.3932953	-0.253479	-0.17944336
1176185615263339	-1.0512238	-0.22659302	-0.076828
1176185620329257	-0.7555542	-0.22538757	0.03677368
1176185626310702	-0.5246582	-0.24247742	0.15161133
1176185630400058	-0.36338806	-0.2730255	0.2579193
1176185635557528	-0.27296448	-0.31455994	0.35075378
1176185641294833	-0.24855042	-0.37565613	0.42651367
1176185645475741	-0.28276062	-0.4684906	0.48269653
1176185648802157	-0.28276062	-0.59799194	0.48269653
1176185655546542	-0.49165344	-0.59799194	0.51934814
1176185660581942	-0.64193726	-0.9449768	0.49493408
1176185665830966	-0.8032074	-1.1319122	0.44360352
1176185670713778	-0.95835876	-1.2956085	0.3751831
1176185675901767	-1.0964203	-1.4116669	0.30311584
1176185680784579	-1.2088165	-1.4642029	0.23835754
1176185685789462	-1.2992401	-1.4532166	0.19314575
1176185691679355	-1.3786469	-1.3835754	0.17481995
1176185695860263	-1.3786469	-1.2638397	0.18461609
1176185699186679	-1.4617157	-1.2638397	0.18461609
1176185706144687	-1.560669	-1.1050262	0.2237091
1176185710935946	-1.6816254	-0.9217529	0.28967285
1176185716246005	-1.8245697	-0.73239136	0.3751831
1176185721006747	-1.980957	-0.550354	0.4729309
1176185726194735	-2.1348877	-0.38053894	0.56211853
1176185731108065	-2.260727	-0.22415161	0.62687683
1176185736112948	-2.3328094	-0.084869385	0.6561737
1176185741880771	-2.3266907	0.03239441	0.65008545
1176185746519442	-2.2289734	0.11668396	0.61953735
1176185749571200	-2.0346985	0.15333557	0.5755615
1176185756559726	-1.7500305	0.12524414	0.53157043
1176185761259433	-1.4006348	0.021408081	0.5046997
1176185766355868	-1.019455	-0.14720154	0.50346375
1176185771391269	-0.64927673	-0.35488892	0.5279083
1176185777372714	-0.32185364	-0.5735779	0.56700134
1176185781462069	-0.060394287	-0.7751465	0.59999084
1176185786863681	0.13139343	-0.9413147	0.6121979
1176185791838046	0.26089478	-1.0598145	0.59999084
1176185796568271	0.34275818	-1.1257935	0.56455994
1176185799925204	0.34275818	-1.1380005	0.56455994
1176185806883212	0.4368286	-1.1380005	0.46192932
1176185811674472	0.46980286	-0.99261475	0.39474487
1176185816923495	0.49913025	-0.83135986	0.30677795
1176185821714755	0.51989746	-0.6224365	0.1894989
1176185827909823	0.52601624	-0.38786316	0.04043579
1176185831816073	0.5076904	-0.14840698	-0.12814331
1176185837248202	0.452713	0.066604614	-0.30039978
1176185842710849	0.3500824	0.22541809	-0.4519043
1176185846952792	0.3500824	0.2938385	-0.4519043
1176185850218173	0.19613647	0.2938385	-0.56674194
1176185857664462	-0.17524719	0.24497986	-0.65470886
1176185861997958	-0.17524719	-0.19361877	-0.65470886
1176185867582675	-0.29740906	-0.19361877	-0.6437073
1176185872099276	-0.30229187	-0.5344696	-0.62171936
1176185877470370	-0.15568542	-0.9046631	-0.60705566
1176185882170077	0.13627625	-1.2528534	-0.6119385
1176185887358065	0.52601624	-1.5240784	-0.6351471
1176185892729159	0.9438324	-1.6682434	-0.6644745
1176185898130771	1.3152466	-1.6535645	-0.6852417
1176185900633212	1.5962524	-1.4788666	-0.68647766
1176185908171054	1.7831726	-1.1624451	-0.67059326
1176185912351962	1.9065704	-0.73605347	-0.6461487
1176185918150302	2.0067444	-0.2351532	-0.61927795
1176185922422763	2.1130219	0.29507446	-0.5972748
1176185927976962	2.2327576	0.8008423	-0.58872986
1176185932524081	2.3622742	1.2211304	-0.59851074
1176185938444491	2.4905396	1.5070038	-0.62294006
1176185943205233	2.6176147	1.6340637	-0.65715027
1176185948637362	2.742218	1.6084137	-0.6938019
1176185958738681	2.978012	1.4679108	-0.789093
1176185962767001	3.0635223	1.052536	-0.86727905
1176185968534823	3.1062927	0.8594971	-0.9637909
1176185972807284	3.1026459	0.70066833	-1.0517731
1176185978453036	3.0635223	0.5797119	-1.1030731
1176185982847567	3.0635223	0.49664307	-1.1091766
1176185989012118	2.938919	0.45022583	-1.0847473
1176185993345614	2.8778381	0.43922424	-1.0419922
1176185998808261	2.8253021	0.45632935	-0.9845581
1176186008848544	2.7813263	0.4929657	-0.90270996
1176186013059970	2.7446594	0.53697205	-0.7842102
1176186019285556	2.7092438	0.5723877	-0.62049866
1176186023161288	2.6677094	0.5858307	-0.4225769
1176186028990146	2.6224976	0.5772705	-0.21121216
1176186033232089	2.5748444	0.56018066	-0.010864258
1176186038999911	2.5296326	0.5565033	0.15161133
1176186043760653	2.475891	0.5821533	0.26156616
1176186049253817	2.4038086	0.649353	0.31532288
1176186059538241	2.1570282	0.9547882	0.24935913
1176186063413974	1.9786377	1.2345734	0.1247406
1176186069609042	1.797821	1.6132965	-0.062179565
1176186073515292	1.6634369	2.0238037	-0.30039978
1176186079313632	1.6109009	2.3170166	-0.56430054
1176186083555575	1.6267853	2.3646698	-0.8257446
1176186089353915	1.6573181	2.1679535	-1.0652008
1176186093901034	1.6609955	1.8698578	-1.2729034
1176186099851962	1.6292267	1.6352997	-1.4414978
1176186110258456	1.5339355	1.5338898	-1.6052094
1176186113737460	1.5131683	1.5497742	-1.5954285
1176186119871493	1.5265961	1.5509949	-1.541687
1176186123838778	1.5754852	1.5448914	-1.4598236
1176186129454013	1.6512299	1.566864	-1.3645172
1176186133909579	1.6512299	1.6352997	-1.3645172
1176186140837069	1.8259277	1.6352997	-1.1617126
1176186144285556	1.8259277	1.8759766	-1.1617126
1176186150328036	1.9627533	1.8759766	-0.9723511
1176186160642978	2.0409546	2.127655	-0.7927551
1176186164152499	2.0409546	2.276703	-0.7927551
1176186170286532	2.0666046	2.276703	-0.7011261
1176186174223300	2.082489	2.3072357	-0.6094971
1176186182096835	2.055603	2.315796	-0.44456482
1176186191587802	1.9615479	2.284027	-0.29673767
1176186194822665	1.9615479	2.1557465	-0.29673767
1176186200651522	1.9102173	2.1557465	-0.24665833
1176186210752841	1.797821	1.8038788	-0.22589111
1176186214506503	1.719635	1.5681	-0.24177551
1176186220945712	1.6170197	1.3408508	-0.25886536
1176186224577304	1.4813995	1.15271	-0.27842712
1176186230802890	1.3128052	1.0146484	-0.30039978
1176186234648105	1.1148682	0.9266968	-0.32606506
1176186241056796	0.89253235	0.87294006	-0.3517151
1176186245542880	0.6542816	0.83750916	-0.3712616
1176186250822421	0.40994263	0.80696106	-0.3834839
1176186259825106	-0.08239746	0.77275085	-0.3920288
1176186264829989	-0.31697083	0.70188904	-0.39448547
1176186269895907	-0.5332184	0.6725769	-0.39692688
1176186274931308	-0.5332184	0.6456909	-0.39692688
1176186280271884	-0.9082794	0.6456909	-0.40057373
1176186284971591	-0.9082794	0.5748291	-0.40057373
1176186291563388	-1.2430267	0.5748291	-0.37860107
1176186295286532	-1.2430267	0.46365356	-0.37860107
1176186300108310	-1.4104004	0.46365356	-0.3578186
1176186303495761	-1.5814514	0.40013123	-0.33216858
1176186310209628	-1.7610321	0.3366089	-0.30407715
1176186315214511	-1.9503937	0.27427673	-0.27597046
1176186321470614	-2.14711	0.21685791	-0.2576294
1176186325285312	-2.3462524	0.16921997	-0.255188
1176186330290194	-2.5404968	0.14112854	-0.2735138
1176186335356112	-2.7249756	0.14356995	-0.31018066
1176186340391513	-2.8911285	0.17778015	-0.36027527
1176186345762606	-3.0279694	0.22909546	-0.41281128
1176186350462314	-3.125702	0.27671814	-0.45310974
1176186353788730	-3.166031	0.30360413	-0.4653473
1176186360563632	-3.1220398	0.29260254	-0.43113708
1176186365599032	-2.9619904	0.23153687	-0.34072876
1176186370603915	-2.662674	0.11302185	-0.19900513
1176186375639315	-2.22406	-0.05921936	-0.03895569
1176186381162997	-1.6681976	-0.26080322	0.07952881
1176186385740634	-1.0170135	-0.42939758	0.09907532
1176186390745517	-0.27908325	-0.45872498	-0.008422852
1176186396574374	0.51501465	-0.2339325	-0.20877075
1176186400816317	1.2944794	0.2755127	-0.426239
1176186404142733	1.2944794	0.9499054	-0.426239
1176186410887118	2.4135742	0.9499054	-0.62538147
1176186415922519	2.6420288	1.9859161	-0.5948334
1176186420988437	2.6420288	2.165512	-0.5948334
1176186425993319	2.6615906	2.165512	-0.54719543
1176186431364413	2.5149841	2.1777344	-0.53375244
1176186436064120	2.240097	2.0787811	-0.57650757
1176186441099521	1.877243	1.8881836	-0.66571045
1176186446562167	1.4642944	1.6279602	-0.7707825
1176186451170321	1.0403595	1.3555145	-0.841629
1176186454527255	0.6396332	1.1453857	-0.82696533
1176186461241122	0.28044128	1.0415344	-0.69744873
1176186466246005	-0.028640747	1.0158844	-0.46166992
1176186471311923	-0.2778778	0.9792328	-0.16235352
1176186476316806	-0.4562378	0.83750916	0.14428711
1176186482084628	-0.5649719	0.5613861	0.41551208
1176186486418124	-0.61872864	0.1960907	0.6329651
1176186491453524	-0.63339233	-0.2033844	0.7991333
1176186497190829	-0.61260986	-0.62120056	0.918869
1176186501493808	-0.5491028	-1.079361	0.99217224
1176186504881259	-0.4403534	-1.5802612	1.010498
1176186511595126	-0.30229187	-2.0787354	0.96284485
1176186516630526	-0.16668701	-2.486786	0.8418884
1176186521665927	-0.0652771	-2.7335815	0.6598511
1176186526670810	-0.02619934	-2.809311	0.44848633
1176186532194491	-0.055511475	-2.7628937	0.25056458
1176186536741610	-0.13981628	-2.6651611	0.10031128
1176186541838046	-0.25831604	-2.5490875	0.01234436
1176186547331210	-0.3914795	-2.403717	-0.023086548
1176186551908847	-0.5246582	-2.2021332	-0.016983032
1176186555204745	-0.5246582	-1.9516754	-0.016983032
1176186561979647	-0.63827515	-1.9516754	0.078308105
1176186567045565	-0.7140198	-1.43367	0.078308105
1176186572050448	-0.7421112	-1.43367	0.16873169
1176186577055331	-0.7311096	-1.2064209	0.28845215
1176186582975741	-0.71769714	-0.99017334	0.58410645
1176186587095614	-0.71769714	-0.5320282	0.58410645
1176186592161532	-0.7946472	-0.5320282	0.72094727
1176186597654696	-0.9681244	-0.31700134	0.8211212
1176186602232333	-1.2405853	-0.18261719	0.87609863
1176186605558749	-1.5985565	-0.19117737	0.89198303
1176186612333651	-2.0237122	-0.38298035	0.87731934
1176186617308017	-2.4928436	-0.74339294	0.839447
1176186622373935	-2.9668732	-1.2162018	0.7832489
1176186627409335	-3.3944855	-1.7122192	0.72094727
1176186633116122	-3.7255707	-2.1508179	0.6647339
1176186637449618	-3.9283752	-2.4855652	0.62931824
1176186642515536	-4.0016785	-2.7066956	0.62931824
1176186647825595	-3.9589386	-2.8239899	0.67085266
1176186652586337	-3.819641	-2.8520813	0.75027466
1176186655943271	-3.5985107	-2.804428	0.8565521
1176186662657138	-3.296753	-2.6981506	0.9774933
1176186667692538	-2.9045715	-2.5417633	1.0996704
1176186672727939	-2.4024506	-2.3303986	1.203537
1176186677732821	-1.7928009	-2.0530853	1.2621613
1176186683653231	-1.1184082	-1.7109985	1.2560577
1176186687834140	-0.4696808	-1.3261566	1.1802979
1176186692839022	0.067855835	-0.95596313	1.0532532
1176186698210116	0.4478302	-0.6762085	0.8907471
1176186702909823	0.6628418	-0.5527954	0.7123871
1176186706266757	0.6628418	-0.6016693	0.7123871
1176186713041659	0.70072937	-0.6016693	0.5437927
1176186718077060	0.51257324	-0.76782227	0.41671753
1176186723112460	0.0715332	-0.9461975	0.34465027
1176186728117343	-0.56863403	-1.0280457	0.30189514
1176186734037753	-1.2723541	-0.9535217	0.24324036
1176186738188144	-1.8917694	-0.72994995	0.14305115
1176186743223544	-2.3376923	-0.42207336	0.017227173
1176186748747226	-2.5808258	-0.101989746	-0.09637451
1176186753324862	-2.635788	0.17410278	-0.17823792
1176186756620761	-2.531952	0.36592102	-0.22589111
1176186763426181	-2.3071594	0.45510864	-0.24421692
1176186768370028	-2.0029297	0.43556213	-0.23809814
1176186773466464	-1.6584167	0.31704712	-0.20756531
1176186778471347	-1.31633	0.11791992	-0.15501404
1176186784361239	-1.0108948	-0.12884521	-0.08415222
1176186788542147	-0.7689972	-0.3842163	0.0037841797
1176186793577548	-0.60040283	-0.6102295	0.10397339
1176186799436923	-0.49777222	-0.7898102	0.20658875
1176186803678866	-0.44647217	-0.9181061	0.29821777
1176186807005282	-0.44647217	-1.0036163	0.29821777
1176186813749667	-0.46844482	-1.0036163	0.3996277
1176186818785067	-0.530777	-1.1343536	0.4093933
1176186823789950	-0.61628723	-1.2125397	0.40083313
1176186828825351	-0.71157837	-1.2931671	0.37886047
1176186834593173	-0.8080902	-1.3505707	0.34709167
1176186838865634	-0.89849854	-1.367691	0.30311584
1176186843962069	-0.9815674	-1.3371582	0.24691772
1176186849272128	-1.0561066	-1.2638397	0.17970276
1176186854032870	-1.0561066	-1.1636505	0.17970276
1176186857389804	-1.124527	-1.1636505	0.11251831
1176186864103671	-1.1880493	-1.0549316	0.061203003
1176186869108554	-1.2454681	-0.95840454	0.037994385
1176186874174472	-1.3016815	-0.8838959	0.04411316
1176186879148837	-1.355423	-0.8325653	0.0758667
1176186885099765	-1.4104004	-0.7934723	0.1259613
1176186889250155	-1.4653931	-0.7543793	0.1870575
1176186894285556	-1.5142517	-0.70674133	0.25056458
1176186899656649	-1.5533447	-0.6444397	0.31410217
1176186904356356	-1.5814514	-0.5686798	0.3727417
1176186907682772	-1.6009979	-0.47827148	0.42407227
1176186914457675	-1.6144257	-0.38053894	0.46316528
1176186919523593	-1.6144257	-0.2876892	0.48513794
1176186924558993	-1.5936584	-0.2180481	0.4888153
1176186929533358	-1.5399017	-0.18139648	0.48025513
1176186935179110	-1.4519501	-0.17649841	0.4680481
1176186939634677	-1.3273315	-0.2021637	0.46072388
1176186944670077	-1.1721649	-0.253479	0.46316528
1176186950498935	-0.9998932	-0.32800293	0.47781372
1176186954740878	-0.8300934	-0.41841125	0.4973755
1176186958036776	-0.8300934	-0.5185852	0.4973755
1176186964903231	-0.5478668	-0.5185852	0.5157013
1176186969816562	-0.43302917	-0.72628784	0.50102234
1176186974974032	-0.31941223	-0.8252411	0.46925354
1176186979917880	-0.19477844	-0.90830994	0.43139648
1176186985807772	-0.051849365	-0.9620819	0.3996277
1176186989958163	0.10574341	-0.9755249	0.38252258
1176186995024081	0.27067566	-0.9461975	0.3776245
1176187000852939	0.427063	-0.87657166	0.3703003
1176187005125399	0.427063	-0.7775879	0.3703003
1176187008482333	0.55900574	-0.7775879	0.34465027
1176187015135165	0.65063477	-0.65908813	0.28845215
1176187020140048	0.6897278	-0.5356903	0.2029419
1176187025205966	0.6726074	-0.42575073	0.0917511
1176187030210849	0.60054016	-0.34877014	-0.029174805
1176187035612460	0.47836304	-0.3182373	-0.14279175
1176187040342685	0.3170929	-0.34388733	-0.23197937
1176187045378085	0.14483643	-0.42575073	-0.28819275
1176187051145907	0.003112793	-0.5576935	-0.31018066
1176187055418368	-0.059188843	-0.7201843	-0.30895996
1176187058775302	-0.005432129	-0.8863373	-0.30163574
1176187065458651	0.169281	-1.0256042	-0.30039978
1176187070524569	0.43927002	-1.1013489	-0.31262207
1176187075529452	0.7556915	-1.0903473	-0.3382721
1176187080595370	1.0623474	-0.9779663	-0.3712616
1176187086424228	1.3115845	-0.76660156	-0.4091339
1176187090666171	1.4875183	-0.46972656	-0.44456482
1176187095671054	1.6060181	-0.11051941	-0.47999573
1176187101164218	1.7013092	0.2889557	-0.51664734
1176187105772372	1.8088226	0.70066833	-0.55574036
1176187109129306	1.8088226	1.0952911	-0.55574036
1176187115843173	2.1069336	1.0952911	-0.65715027
1176187120878573	2.2865143	1.6621704	-0.7231293
1176187125883456	2.475891	1.7660217	-0.7939911
1176187130949374	2.6652527	1.74646	-0.86239624
1176187136473056	2.8411865	1.6352997	-0.91859436
1176187141020175	2.8411865	1.4789124	-0.96258545
1176187146055575	2.9890137	1.4789124	-0.96258545
1176187151548739	3.153946	1.3200836	-1.0407715
1176187156126376	3.153946	1.103836	-1.0407715
1176187159513827	3.153946	1.103836	-1.0871887
1176187166166659	3.0989685	1.0684204	-1.1397247
1176187171232577	3.0061188	1.0684204	-1.1873627
1176187176237460	2.8986053	1.0855103	-1.217926
1176187181333896	2.803299	1.103836	-1.2166901
1176187187040683	2.733673	1.1148376	-1.1739349
1176187191374179	2.6872406	1.1148376	-1.0823059
1176187196409579	2.6542664	1.0965118	-0.93814087
1176187201750155	2.624939	1.052536	-0.7438965
1176187206449862	2.5919342	0.98043823	-0.50564575
1176187209837314	2.5577393	0.8851471	-0.24177551
1176187216520663	2.523529	0.78375244	0.023345947
1176187221556064	2.494217	0.6970062	0.25668335
1176187226591464	2.4685516	0.6395874	0.42407227
1176187231626864	2.4465637	0.6224823	0.49493408
1176187236875888	2.4257965	0.6420288	0.44848633
1176187241697665	2.3989258	0.6945648	0.28479004
1176187246733065	2.3439484	0.78375244	0.02822876
1176187252043124	2.235199	0.9291382	-0.28330994
1176187256803866	2.0727234	1.1502686	-0.6094971
1176187260160800	2.0727234	1.4190521	-0.6094971
1176187266874667	1.7367401	1.4190521	-1.1996002
1176187271910067	1.6243439	1.7953491	-1.4256134
1176187276945468	1.5461578	1.8539734	-1.6003265
1176187281980868	1.4960632	1.8955231	-1.7273712
1176187287443515	1.4813995	1.9529419	-1.8031311
1176187292051669	1.4813995	1.9932709	-1.8031311
1176187297087069	1.5107269	1.9932709	-1.8214569
1176187302519198	1.5791321	1.9749451	-1.78479
1176187307157870	1.6658783	1.8991852	-1.7151642
1176187310484286	1.7538452	1.8051147	-1.6357422
1176187317228671	1.8344727	1.7244873	-1.5587769
1176187322264071	1.9053345	1.6719513	-1.4793549
1176187327268954	1.9676514	1.6585083	-1.3889618
1176187332334872	2.0189514	1.6963654	-1.283905
1176187337767001	2.056839	1.7977905	-1.16539
1176187342405673	2.0800476	1.9480591	-1.0358887
1176187347441073	2.0886078	2.1068726	-0.90393066
1176187352751132	2.0886078	2.2217255	-0.7732239
1176187357511874	2.0861664	2.26326	-0.64982605
1176187360868808	2.0763702	2.231491	-0.53741455
1176187367582675	2.0543976	2.1581879	-0.4409027
1176187372587558	2.0104065	2.0897827	-0.36027527
1176187377653476	1.943222	2.0506897	-0.29063416
1176187382688876	1.8552399	2.0250092	-0.22833252
1176187387998935	1.7575073	1.9639435	-0.18312073
1176187392759677	1.6548767	1.8405457	-0.16355896
1176187397764560	1.54982	1.6670532	-0.17089844
1176187403044101	1.4349823	1.4862366	-0.19776917
1176187407865878	1.3030243	1.3323059	-0.23442078
1176187411222812	1.3030243	1.2150116	-0.23442078
1176187417936679	0.9621582	1.2150116	-0.32728577
1176187422941562	0.7508087	1.0867462	-0.3773651
1176187428007480	0.7508087	1.0561829	-0.42134094
1176187433073397	0.51623535	1.02565	-0.42134094
1176187438505526	0.0018920898	1.02565	-0.47387695
1176187443083163	0.0018920898	0.9425812	-0.47387695
1176187448149081	-0.259552	0.9425812	-0.47755432
1176187453398105	-0.503891	0.8924866	-0.47143555
1176187458219882	-0.721344	0.83995056	-0.46166992
1176187461576815	-0.9119415	0.78375244	-0.45310974
1176187468290683	-1.0829926	0.728775	-0.44702148
1176187473326083	-1.2430267	0.676239	-0.4409027
1176187478361483	-1.3969727	0.6224823	-0.42869568
1176187483396884	-1.552124	0.5662842	-0.4091339
1176187488859530	-1.709732	0.50520325	-0.3847046
1176187493467685	-1.8746643	0.43800354	-0.3565979
1176187498503085	-2.0481415	0.36714172	-0.32728577
1176187503904696	-2.2314148	0.29751587	-0.29795837
1176187508543368	-2.4219818	0.23274231	-0.2710724
1176187511961337	-2.6162415	0.18144226	-0.25030518
1176187518644687	-2.8129425	0.15211487	-0.24298096
1176187523680087	-3.0084229	0.14601135	-0.25886536
1176187528715487	-3.191681	0.15821838	-0.3028412
1176187533750888	-3.352951	0.18022156	-0.36637878
1176187538999911	-3.462906	0.1960907	-0.42134094
1176187543821689	-3.4763489	0.18754578	-0.43966675
1176187548857089	-3.339508	0.13378906	-0.39569092
1176187554106112	-3.0206451	0.028747559	-0.2869568
1176187558958407	-2.531952	-0.121520996	-0.13790894
1176187562254306	-2.531952	-0.30599976	-0.13790894
1176187568998690	-1.2430267	-0.30599976	0.061203003
1176187574064608	-1.2430267	-0.5919037	0.017227173
1176187579069491	-0.48677063	-0.5919037	0.017227173
1176187584104892	0.3513031	-0.4684906	-0.11470032
1176187589414950	1.2174988	-0.049453735	-0.2735138
1176187594236728	1.9859772	0.56874084	-0.3908081
1176187599211093	2.5284271	1.1514893	-0.43478394
1176187604521151	2.786209	1.4947968	-0.42869568
1176187609251376	2.777649	1.5570984	-0.4237976
1176187612638827	2.5565186	1.4459229	-0.46166992
1176187619322177	2.1802368	1.3054352	-0.5435333
1176187624418612	1.7110901	1.217453	-0.6437073
1176187629454013	1.212616	1.1905823	-0.7377777
1176187634489413	0.737381	1.1991272	-0.8147583
1176187639921542	0.320755	1.2198944	-0.85873413
1176187644529696	-0.015213013	1.2467804	-0.84284973
1176187649565097	-0.26687622	1.2614288	-0.7328949
1176187654997226	-0.4440155	1.2272339	-0.5203247
1176187659635897	-0.556427	1.105072	-0.22221375
1176187662992831	-0.60772705	0.8790436	0.11251831
1176187669767733	-0.60650635	0.5699463	0.4362793
1176187674803134	-0.5613098	0.21565247	0.71362305
1176187679808017	-0.48312378	-0.17285156	0.92375183
1176187684812899	-0.37805176	-0.6102295	1.0617981
1176187690702792	-0.25343323	-1.1037903	1.1253204
1176187694914218	-0.12149048	-1.626709	1.1143341
1176187699949618	-0.0029907227	-2.1105042	1.0312653
1176187705290194	0.07763672	-2.4757996	0.88098145
1176187710020419	0.103302	-2.674942	0.6879425
1176187713377353	0.103302	-2.710373	0.6879425
1176187720060702	0.067855835	-2.710373	0.48269653
1176187725126620	-0.021316528	-2.632187	0.29333496
1176187730131503	-0.15202332	-2.503891	0.13208008
1176187735166903	-0.31452942	-2.3658447	0.0013427734
1176187740537997	-0.49900818	-2.2277832	-0.101257324
1176187745268222	-0.6810303	-2.089737	-0.17089844
1176187750273105	-0.8288574	-1.9541168	-0.20144653
1176187755613681	-0.91438293	-1.8197174	-0.18922424
1176187760343905	-0.9253845	-1.6670074	-0.13180542
1176187763822909	-0.8740692	-1.4752045	-0.03529358
